time,seconds_elapsed,z,y,x
1772789503899308300,0.085308349609375,0.0007431984413415194,0.0011454634368419647,-0.0038730136584490538
1772789503909374200,0.095374267578125,-0.0004112818278372288,-0.00046335160732269287,0.0008200088632293046
1772789503919440400,0.1054404296875,0.0008977181278169155,-0.0009683221578598022,0.000385263585485518
1772789503929505300,0.11550537109375,-0.0009230852592736483,0.00022903457283973694,0.00037993723526597023
1772789503939571500,0.125571533203125,-0.0015148224774748087,0.0010109134018421173,-0.0002201827010139823
1772789503949637000,0.13563720703125,-0.0001504851970821619,0.0001666918396949768,-0.00006252358434721828
1772789503959703300,0.145703369140625,-0.0017724495846778154,-0.0016710283234715462,0.0016562545206397772
1772789503969768200,0.155768310546875,0.0021426635794341564,-0.0017205625772476196,0.0014157709665596485
1772789503979834400,0.16583447265625,-0.0003217770718038082,0.0010518459603190422,-0.0012922243913635612
1772789503989900300,0.175900390625,-0.00027011195197701454,0.0017890091985464096,-0.0007835606229491532
1772789503999965200,0.185965087890625,-0.00014390051364898682,-0.00006920285522937775,0.0010128761641681194
1772789504010031000,0.196031005859375,-0.0002006259746849537,-0.00040529388934373856,0.0017833287129178643
1772789504020097300,0.20609716796875,-0.00013699266128242016,0.00036200881004333496,0.0030695374589413404
1772789504030162400,0.216162353515625,-0.0005921267438679934,-0.0011413460597395897,-0.000163273885846138
1772789504040228400,0.226228271484375,0.0017827143892645836,0.00011321436613798141,-0.0022499801125377417
1772789504050294300,0.236294189453125,-0.0004974841140210629,0.0003699427470564842,0.001306405058130622
1772789504060360200,0.246360107421875,-0.0016975111793726683,0.0013749059289693832,0.0021134288981556892
1772789504070425300,0.25642529296875,0.00042955554090440273,-0.002563643269240856,-0.0004549237200990319
1772789504080491300,0.2664912109375,-0.0007092119194567204,0.0005889562889933586,-0.0011825092369690537
1772789504090557400,0.276557373046875,-0.002982752863317728,0.000784432515501976,0.002032725140452385
1772789504100622000,0.2866220703125,0.0018762745894491673,-0.0013812026008963585,0.00011360750067979097
1772789504110688300,0.296688232421875,0.002404379192739725,0.0011400114744901657,0.0008896526414901018
1772789504120754200,0.306754150390625,0.00007612374611198902,-0.0007729511708021164,-0.002274131868034601
1772789504130819300,0.3168193359375,0.003434369806200266,-0.0001428471878170967,-0.001961210509762168
1772789504140885200,0.32688525390625,0.0016524801030755043,0.000025997869670391083,-0.0009050558437593281
1772789504150951400,0.336951416015625,-0.00040454533882439137,0.0007298709824681282,-0.000523957540281117
1772789504161017000,0.34701708984375,-0.001391122117638588,0.001726880669593811,0.0011832744348794222
1772789504171082200,0.357082275390625,0.0028574189636856318,0.002057379111647606,-0.0007051729480735958
1772789504181148400,0.3671484375,0.0005604901816695929,-0.0009532598778605461,0.0004028178518638015
1772789504191214300,0.37721435546875,-0.0038313285913318396,0.0015280069783329964,0.0008156077237799764
1772789504201279200,0.387279296875,0.00023361854255199432,-0.0017964169383049011,0.0009210689458996058
1772789504211345200,0.39734521484375,-0.000630843685939908,-0.0003026500344276428,0.0001309090293943882
1772789504221411300,0.407411376953125,-0.0019954198505729437,0.0023048175498843193,0.00008435215568169951
1772789504231477200,0.417477294921875,-0.0007791540119796991,-0.0013775350525975227,0.00202313344925642
1772789504241542400,0.42754248046875,0.0008105786982923746,0.00047260895371437073,0.0023712199181318283
1772789504251608300,0.4376083984375,-0.0031133226584643126,-0.0016901446506381035,0.001254023751243949
1772789504261674200,0.44767431640625,-0.0018603792414069176,-0.0024524349719285965,-0.001246063970029354
1772789504271739100,0.4577392578125,-0.0006704791449010372,0.0022818660363554955,0.001792070223018527
1772789504281805300,0.467805419921875,-0.0005244964268058538,0.0007730079814791679,0.0022757318802177906
1772789504291871000,0.47787109375,0.0009354485664516687,-0.00021023117005825043,0.002588120521977544
1772789504301936000,0.48793603515625,0.00036059971898794174,-0.0007903361693024635,-0.00133548176381737
1772789504312002300,0.498002197265625,7.683411240577698e-9,-0.0003173584118485451,-0.001100590918213129
1772789504322068200,0.508068115234375,0.000975234666839242,0.003377729095518589,-0.0008434011833742261
1772789504332134000,0.5181337890625,-0.000013597076758742332,-0.0014380654320120811,0.0012522402685135603
1772789504342199000,0.528198974609375,0.001802054001018405,0.0018332945182919502,0.00028359820134937763
1772789504352265200,0.53826513671875,-0.00022194813936948776,0.00012940354645252228,-0.000604832312092185
1772789504362331100,0.5483310546875,0.0007649536710232496,-0.000006266869604587555,0.0005598922725766897
1772789504372396300,0.558396240234375,0.001905052806250751,0.0020345142111182213,-0.0010324117029085755
1772789504382462000,0.5684619140625,-0.0020072939805686474,-0.0019633499905467033,0.004475608468055725
1772789504392528100,0.578528076171875,-0.002348977606743574,0.0008417582139372826,-0.0010674946242943406
1772789504402594000,0.588593994140625,-0.0002589370124042034,-0.0015749158337712288,0.0014578730333596468
1772789504412659200,0.5986591796875,0.0010697138495743275,-0.0004984661936759949,-0.0007208591559901834
1772789504422725000,0.60872509765625,-0.0015408764593303204,-0.0003318488597869873,0.0013695528032258153
1772789504432791000,0.618791015625,-0.0006822734139859676,-0.0015523750334978104,0.0014092338969931006
1772789504442856200,0.628856201171875,0.00027415016666054726,-0.00018760468810796738,0.000947733293287456
1772789504452922000,0.638922119140625,0.00034445757046341896,0.0011666128411889076,-0.00012978160521015525
1772789504462988000,0.648988037109375,0.0028297321405261755,0.0017746658995747566,0.0007324421312659979
1772789504473054200,0.65905419921875,-0.0008566156029701233,0.0005046045407652855,-0.0002449379535391927
1772789504483119000,0.669119140625,-0.0011757337488234043,-0.00341217964887619,0.00012363289715722203
1772789504493185000,0.67918505859375,-0.0003131357952952385,0.0008297031745314598,-0.00131926778703928
1772789504503251200,0.689251220703125,0.001825203187763691,-0.001726715825498104,0.00021297682542353868
1772789504513316000,0.699316162109375,0.00027231406420469284,0.001974545419216156,0.000042800791561603546
1772789504523382300,0.70938232421875,0.000649360241368413,0.0029562385752797127,-0.002067087683826685
1772789504533448200,0.7194482421875,0.000999832060188055,-0.0008912300691008568,-0.0016207419103011489
1772789504543514000,0.72951416015625,0.0021486408077180386,0.0013118153437972069,0.0008563266019336879
1772789504553579000,0.7395791015625,-0.0008916240185499191,0.0007663993164896965,0.00249630119651556
1772789504563645200,0.749645263671875,0.0018939678557217121,0.00040395744144916534,-0.0004936918849125504
1772789504573711000,0.759711181640625,0.00179809401743114,0.002030882053077221,-0.0006561446934938431
1772789504583776000,0.76977587890625,0.0018730666488409042,0.0000626537948846817,0.0010032255668193102
1772789504593842000,0.779842041015625,-0.00047158030793070793,0.00048369914293289185,-0.004205917473882437
1772789504603908000,0.789908203125,0.001477482495829463,-0.002874956466257572,-0.0013081763172522187
1772789504613974000,0.79997412109375,0.0004782644100487232,-0.0008275182917714119,0.00005589477950707078
1772789504624039200,0.8100390625,-0.00045774830505251884,-0.00043724291026592255,-0.002319875406101346
1772789504634105000,0.82010498046875,0.0017686544451862574,-0.0012218095362186432,0.0017992357024922967
1772789504644171000,0.8301708984375,0.0009023838210850954,0.001234179362654686,-0.00365091348066926
1772789504654236200,0.840236083984375,0.000314357690513134,0.0008525475859642029,-0.0020831103902310133
1772789504664302000,0.850302001953125,-0.0008144078310579062,0.0011352449655532837,-0.0010509606217965484
1772789504674368300,0.8603681640625,0.0023694015108048916,0.0019254041835665703,0.003681210335344076
1772789504684434200,0.87043408203125,0.0000544015783816576,-0.0017854217439889908,0.0026662021409720182
1772789504694499000,0.8804990234375,0.000496220076456666,-0.0006149625405669212,0.0017221115995198488
1772789504704565000,0.89056494140625,0.003807965898886323,-0.0003851214423775673,-0.002939106896519661
1772789504714631200,0.900631103515625,0.0012313576880842447,-0.0008405223488807678,-0.0008485254365950823
1772789504724696000,0.910696044921875,-0.0012820081319659948,-0.00020622741430997849,-0.00036947676562704146
1772789504734762200,0.92076220703125,0.0017063249833881855,-0.0006997110322117805,0.001562114106491208
1772789504744828200,0.930828125,0.00030500348657369614,0.0011358968913555145,-0.001853074412792921
1772789504754894000,0.94089404296875,-0.000977841205894947,0.0021409736946225166,-0.000352116854628548
1772789504764959000,0.950958984375,0.004165896214544773,0.0002126004546880722,-0.0006641853833571076
1772789504775025200,0.961025146484375,0.001231891568750143,0.0018387269228696823,0.0007321098819375038
1772789504785091000,0.971091064453125,-0.0003956665750592947,-0.000420471653342247,0.0016917489701882005
1772789504795156000,0.981156005859375,0.0017798696644604206,-0.00016187876462936401,-0.0012598325265571475
1772789504805222100,0.99122216796875,-0.000769253121688962,0.0021291812881827354,-0.0004161807300988585
1772789504815288000,1.0012880859375,0.0013974946923553944,-0.0013236068189144135,-0.00042203968041576445
1772789504825354000,1.01135400390625,0.0006752251647412777,0.0005826661363244057,-0.0009216939797624946
1772789504835419100,1.021419189453125,-0.00005368189886212349,0.0013280855491757393,-0.0010681678541004658
1772789504845485300,1.0314853515625,-0.0008806150872260332,0.0001574186608195305,0.0015056934207677841
1772789504855551000,1.041551025390625,0.000005418667569756508,0.0023675765842199326,0.0009086126228794456
1772789504865617200,1.0516171875,-0.0008299688342958689,-0.00026434101164340973,-0.0013946713879704475
1772789504875682000,1.06168212890625,0.0007242518477141857,-0.0001418357715010643,0.00036647700471803546
1772789504885748200,1.071748291015625,-0.00046209455467760563,0.0019214246422052383,-0.00143056467641145
1772789504895814100,1.081814208984375,0.001876693218946457,-0.00033773481845855713,-0.0003184286179021001
1772789504905879000,1.091879150390625,0.0017093948554247618,0.0011856555938720703,0.0009382871212437749
1772789504915945000,1.101945068359375,0.0016950136050581932,-0.0009123822674155235,0.0014839688083156943
1772789504926011100,1.11201123046875,0.0007253917865455151,-0.000764976255595684,-0.0009935058187693357
1772789504936077000,1.1220771484375,0.00036826194263994694,-0.0005631092935800552,0.0030246716924011707
1772789504946142200,1.13214208984375,-0.0003217246849089861,-0.0009776409715414047,-0.0009135055006481707
1772789504956208000,1.1422080078125,0.00006336835213005543,0.002222945913672447,-0.0023087356239557266
1772789504966274000,1.152274169921875,-0.0007488101255148649,-0.0008545452728867531,-0.0013860496692359447
1772789504976340000,1.162340087890625,-0.0006894215475767851,-0.0018721390515565872,0.00009679840877652168
1772789504986405000,1.172405029296875,-0.0018018356058746576,-0.0007201265543699265,0.0015411439817398787
1772789504996471000,1.182470947265625,0.0014160620048642159,0.0006082579493522644,0.0007648324826732278
1772789505006537200,1.192537109375,0.0025236511137336493,-0.0005862703546881676,-0.002259592991322279
1772789505016602000,1.20260205078125,-0.0004044945817440748,-0.0006547132506966591,0.0005772063741460443
1772789505026668000,1.21266796875,-0.0017286061774939299,0.00017875991761684418,0.000025436514988541603
1772789505036734200,1.222734130859375,-0.00044363108463585377,-0.0004699854180216789,0.00009787449380382895
1772789505046800100,1.232800048828125,-0.000837323721498251,0.00013046059757471085,0.004453104455024004
1772789505056865300,1.242865234375,-0.001577948685735464,-0.0016724998131394386,0.00015715928748250008
1772789505066931000,1.252930908203125,-0.0015992892440408468,-0.001673487015068531,-0.0008363120723515749
1772789505076997000,1.2629970703125,-0.0009289716836065054,-0.0003789244219660759,-0.001339383190497756
1772789505087063000,1.27306298828125,0.002950324211269617,-0.0007429122924804688,-0.0022401835303753614
1772789505097128200,1.283128173828125,-0.0000547866802662611,0.0007439302280545235,-0.001048418926075101
1772789505107194000,1.293194091796875,0.0008553122170269489,0.0016982471570372581,0.00015979394083842635
1772789505117260300,1.30326025390625,0.00033439788967370987,0.00009475741535425186,-0.0019787242636084557
1772789505127325200,1.3133251953125,-0.0010028374381363392,-0.000696069560945034,0.0005709007964469492
1772789505137391000,1.32339111328125,-0.000039305537939071655,-0.0016247136518359184,0.00039539841236546636
1772789505147457000,1.33345703125,0.0016355393454432487,0.000033641234040260315,3.237510100007057e-7
1772789505157523200,1.343523193359375,0.00016281125135719776,-0.00017142202705144882,-0.0008878404041752219
1772789505167588000,1.353588134765625,0.00009904918260872364,0.0008474569767713547,0.0007307510823011398
1772789505177654000,1.363654052734375,-0.001507103443145752,-0.00043378956615924835,-0.00000987399835139513
1772789505187720000,1.373719970703125,0.00006684847176074982,-0.0002730833366513252,0.0006280679372139275
1772789505197786000,1.3837861328125,0.0018003000877797604,-0.001613718457520008,-0.0028774510137736797
1772789505207851300,1.393851318359375,-0.00027523632161319256,0.0017381440848112106,0.0015406361781060696
1772789505217917200,1.403917236328125,-0.0008033413905650377,0.0015980619937181473,-0.001162205939181149
1772789505227983000,1.413983154296875,-0.0011648964136838913,-0.0007637981325387955,-0.002265659626573324
1772789505238049000,1.424049072265625,-0.0018610469996929169,0.0005046650767326355,-0.000009695941116660833
1772789505248114200,1.4341142578125,0.0016984862741082907,-0.00041162874549627304,0.0014319157926365733
1772789505258180000,1.44418017578125,-0.0008690671529620886,-0.0006893966346979141,0.0007032749708741903
1772789505268246300,1.454246337890625,-0.00002813618630170822,0.0009560203179717064,0.0015976172871887684
1772789505278311000,1.464310791015625,-0.0008960603736341,0.0012377826496958733,0.000876433274243027
1772789505288377000,1.474377197265625,-0.00035034772008657455,-0.00005390774458646774,-0.003834247589111328
1772789505298442800,1.48444287109375,0.00007975287735462189,-0.00016709137707948685,0.0007900652708485723
1772789505308509000,1.494509033203125,0.0017290960531681776,0.0007160929962992668,-0.0002482849813532084
1772789505318573800,1.50457373046875,-0.0022928097750991583,0.0023153219372034073,-0.0007199308020062745
1772789505328639700,1.5146396484375,-0.0022156788036227226,-0.0001492779701948166,0.0006979180034250021
1772789505338705700,1.52470556640625,0.0002725126687437296,0.0005687102675437927,-0.00009144301293417811
1772789505348771800,1.534771728515625,-0.00035823159851133823,-0.0027937879785895348,-0.0015328382141888142
1772789505358837000,1.5448369140625,-0.002614462049677968,0.0011319778859615326,0.0012725356500595808
1772789505368903000,1.55490283203125,0.001266375882551074,-0.00019591953605413437,-0.00024611150729469955
1772789505378968800,1.56496875,-0.001545389648526907,-0.0005586426705121994,0.0017528572352603078
1772789505389034800,1.57503466796875,0.0005816572811454535,0.0008782129734754562,0.003133881138637662
1772789505399100000,1.585099853515625,-0.0006780179683119059,0.00008645467460155487,-0.0030712841544300318
1772789505409165800,1.595165771484375,0.00046924781054258347,-0.0012757554650306702,0.00033459137193858624
1772789505419232000,1.60523193359375,-0.0003696482162922621,-0.0004525724798440933,0.000732467626221478
1772789505429298000,1.6152978515625,-0.0007892870344221592,-0.0001354813575744629,0.00005002680700272322
1772789505439362800,1.62536279296875,-0.001950958278030157,0.001241905614733696,-0.0013515949249267578
1772789505449428700,1.6354287109375,-0.0012186532840132713,0.000703086145222187,0.0014907149598002434
1772789505459495000,1.645494873046875,-0.00024233851581811905,-0.0005704378709197044,0.0006592761492356658
1772789505469560800,1.655560791015625,0.0004066629335284233,0.0014067497104406357,0.0012172114802524447
1772789505479626000,1.6656259765625,-0.0006380949635058641,-0.0019461708143353462,-0.0025916416198015213
1772789505489692000,1.67569189453125,0.0003259042277932167,0.002246253192424774,0.002180911600589752
1772789505499757800,1.6857578125,-0.00038888794369995594,0.0010856473818421364,-0.00025588099379092455
1772789505509823700,1.69582373046875,0.0001333842519670725,0.00012741796672344208,0.0021221251226961613
1772789505519889000,1.705888916015625,-0.0010115085169672966,0.0008470043540000916,-0.0019104332895949483
1772789505529954800,1.715954833984375,0.0013582324609160423,-0.001453617587685585,-0.0017931564943864942
1772789505540021000,1.72602099609375,0.0005355821922421455,0.0018702736124396324,-0.001108990516513586
1772789505550086000,1.7360859375,0.0018638502806425095,-0.0015676338225603104,0.0025764834135770798
1772789505560151800,1.74615185546875,0.0003578325267881155,-0.0012967903167009354,0.0007988234865479171
1772789505570217700,1.7562177734375,0.0012663707602769136,0.0020712465047836304,0.005264651495963335
1772789505580284000,1.766283935546875,-0.0010396603029221296,0.0011103786528110504,-0.001274474197998643
1772789505590349000,1.77634912109375,-0.00013206293806433678,0.001238156110048294,-0.0007907490362413228
1772789505600414700,1.786414794921875,-0.0015933392569422722,0.0004626438021659851,-0.00048714870354160666
1772789505610481000,1.79648095703125,0.0010345205664634705,-0.0016535557806491852,0.00022007280495017767
1772789505620546800,1.806546875,0.00035115331411361694,-0.001417066901922226,-0.002037488855421543
1772789505630612000,1.816612060546875,0.0023263166658580303,-0.00007103290408849716,0.001607327489182353
1772789505640678000,1.826677978515625,-0.0013789397198706865,-0.00035199616104364395,0.0004872019635513425
1772789505650744000,1.836744140625,0.0017211020458489656,0.0011066142469644547,0.0012187105603516102
1772789505660809700,1.846809814453125,-0.0026123933494091034,-0.0010409587994217873,-0.0019397984724491835
1772789505670875000,1.856875,-0.000516797648742795,0.000600975938141346,0.0042340452782809734
1772789505680940800,1.86694091796875,-0.000498421723023057,0.00020629540085792542,0.00023317825980484486
1772789505691007000,1.877007080078125,-0.0017681887838989496,0.00045572221279144287,-0.0016476173186674714
1772789505701073000,1.887072998046875,0.0008744657970964909,0.0006456058472394943,0.0027527236379683018
1772789505711137800,1.8971376953125,-0.0005752651486545801,-0.00018948782235383987,0.000524667208082974
1772789505721203700,1.90720361328125,0.00015257671475410461,-0.00175516027957201,0.0002871131873689592
1772789505731270000,1.917269775390625,-0.0005058655515313148,0.0012924065813422203,0.0013227886520326138
1772789505741335800,1.927335693359375,0.00030533317476511,-0.00000961311161518097,-0.004042681772261858
1772789505751401000,1.93740087890625,-0.0009817630052566528,0.0007466478273272514,0.00010425201617181301
1772789505761467000,1.947466796875,-0.00015112292021512985,-0.0007966542616486549,0.0017460908275097609
1772789505771532800,1.95753271484375,1.6461126506328583e-7,-0.0003447560593485832,-0.0020008336286991835
1772789505781598700,1.9675986328125,0.0006236105691641569,0.00009573064744472504,-0.00003089342499151826
1772789505791663900,1.977663818359375,0.0005183678586035967,0.0011000661179423332,-0.0007151560857892036
1772789505801729800,1.987729736328125,0.0009495336562395096,-0.0018853377550840378,0.0006126960506662726
1772789505811796000,1.9977958984375,-0.0010573011822998524,-0.0004062522202730179,0.0019332104129716754
1772789505821861600,2.007861572265625,0.0006678944919258356,0.002155708149075508,-0.0002473857603035867
1772789505831926800,2.0179267578125,-0.00004189973697066307,-0.0009645996615290642,0.0006667479174211621
1772789505841993000,2.027992919921875,-0.0003692023456096649,0.0012205233797430992,0.00021108100190758705
1772789505852059000,2.038058837890625,0.0009649991989135742,0.00006227660924196243,0.0010679286206141114
1772789505862124800,2.048124755859375,-0.001011865446344018,0.0004641478881239891,0.0004900227067992091
1772789505872189700,2.058189697265625,0.001508465502411127,0.0009627044200897217,0.0006515911081805825
1772789505882256000,2.068255859375,-0.0014385883696377277,-0.0008602291345596313,-0.0011982405558228493
1772789505892321800,2.07832177734375,-0.001845839200541377,0.000232611782848835,-0.0009148836834356189
1772789505902388000,2.088387939453125,-0.00005539623089134693,-0.0016664881259202957,-0.00019130282453261316
1772789505912452900,2.098452880859375,-0.0016123754903674126,-0.002223838120698929,0.0005827282438986003
1772789505922519000,2.10851904296875,0.00010456424206495285,-0.0002184780314564705,-0.000039652513805776834
1772789505932584700,2.118584716796875,-0.0005716972518712282,-0.0016332603991031647,0.0015719583025202155
1772789505942651000,2.12865087890625,0.0012943798210471869,0.0005718376487493515,0.0014073749771341681
1772789505952715800,2.1387158203125,0.0012127505615353584,-0.0018498599529266357,0.0008189459913410246
1772789505962782000,2.148781982421875,-0.00046930182725191116,0.0006391303613781929,0.0016692935023456812
1772789505972847900,2.158847900390625,0.0015305390115827322,0.0001748260110616684,0.0005553276278078556
1772789505982914000,2.1689140625,0.0018525151535868645,-0.00006006471812725067,-0.001088108983822167
1772789505992979700,2.178979736328125,-0.0014237086288630962,-0.0008382955566048622,0.0005797382327727973
1772789506003044900,2.189044921875,0.0037617322523146868,0.0009175268933176994,-0.003947635646909475
1772789506013110800,2.19911083984375,0.0018404345028102398,-0.0025946181267499924,0.0012645465321838856
1772789506023177000,2.209177001953125,-0.00041659455746412277,0.004226270131766796,-0.0031744102016091347
1772789506033243000,2.219242919921875,0.00043127918615937233,0.0021663233637809753,0.00032052374444901943
1772789506043307800,2.229307861328125,0.0017258417792618275,-0.0007927147671580315,0.0009186697425320745
1772789506053373700,2.239373779296875,0.0006997082382440567,-0.0005082115530967712,0.001950740348547697
1772789506063440000,2.24943994140625,-0.0006481178570538759,0.0009208405390381813,-0.0027105906046926975
1772789506073505800,2.259505859375,0.0017457283101975918,0.000913071446120739,-0.0018983762711286545
1772789506083571000,2.269571044921875,0.0002343843225389719,-0.00031038466840982437,-0.0006855727406218648
1772789506093636900,2.279636962890625,-0.001988612813875079,0.0009493902325630188,-0.0002794729662127793
1772789506103702800,2.289702880859375,0.0006521777249872684,0.0008452609181404114,0.0007698124973103404
1772789506113768700,2.299768798828125,0.0008147584740072489,-0.0007292963564395905,0.0015321034006774426
1772789506123833900,2.309833740234375,0.0007915887981653214,0.00010693632066249847,0.002974205184727907
1772789506133900000,2.319900146484375,-0.0017745515797287226,-0.001334870234131813,0.00005785119719803333
1772789506143966000,2.329966064453125,0.0004414645954966545,-0.0010866634547710419,-0.0007448255782946944
1772789506154031900,2.340031982421875,-0.0003428286872804165,0.000961042009294033,-0.00027462284197099507
1772789506164096800,2.3500966796875,-0.0003175288438796997,-0.001787872053682804,0.0005395054467953742
1772789506174163000,2.360162841796875,-0.0011900195386260748,0.001066276803612709,0.0027696117758750916
1772789506184228900,2.370228759765625,0.0001285115722566843,-0.00002508610486984253,-0.000856548547744751
1772789506194295000,2.380294921875,-0.0003536820877343416,-0.002065739594399929,-0.0006828237092122436
1772789506204359700,2.390359619140625,-0.00008630054071545601,-0.0006753029301762581,0.0004932282026857138
1772789506214425900,2.40042578125,-0.0006593428552150726,0.00005367957055568695,-0.0033575817942619324
1772789506224491800,2.41049169921875,-0.0011637452989816666,0.0007413076236844063,0.0017500948160886765
1772789506234558000,2.420557861328125,-0.000830905744805932,-0.0023621153086423874,-0.00037839164724573493
1772789506244624000,2.430623779296875,0.0011411651503294706,-0.0007157493382692337,-0.0012069010408595204
1772789506254689000,2.44068896484375,-0.001984701957553625,0.00003677885979413986,0.0005369134596548975
1772789506264754700,2.450754638671875,0.0004936358891427517,0.0013513155281543732,-0.0005568467895500362
1772789506274820900,2.46082080078125,0.0018116829451173544,0.000360734760761261,0.0006497671129181981
1772789506284886800,2.47088671875,-0.002293047495186329,-0.0006017312407493591,0.00013471179408952594
1772789506294952000,2.480951904296875,-0.000702504999935627,-0.0016631679609417915,0.0008467741427011788
1772789506305017900,2.491017822265625,0.0002668858505785465,-0.00019390229135751724,-0.0008192994282580912
1772789506315084000,2.501083984375,0.0008649379014968872,-0.0013783024623990059,-0.0012286537094041705
1772789506325150000,2.51114990234375,-0.001650151563808322,-0.002209475263953209,0.0010741816367954016
1772789506335215000,2.521215087890625,-0.0003875535912811756,0.0018823090940713882,0.00027462333673611283
1772789506345281000,2.531281005859375,0.00005027023144066334,0.0002109091728925705,0.002094095107167959
1772789506355347000,2.541346923828125,-0.0006999957840889692,0.0004963697865605354,-0.0004819739260710776
1772789506365412900,2.551412841796875,0.0020507830195128918,-0.0027758562937378883,-0.0005693256389349699
1772789506375478000,2.56147802734375,0.004186552949249744,-0.0003834059461951256,0.0030271990690380335
1772789506385544000,2.5715439453125,0.0002799618523567915,0.00296019297093153,-0.0006578168249689043
1772789506395610000,2.581610107421875,-0.0013850715477019548,-0.0014152564108371735,-0.0006736552459187806
1772789506405676000,2.591676025390625,0.0005670255050063133,0.0004161996766924858,0.001131435390561819
1772789506415741000,2.601740966796875,-0.0018595338333398104,-0.000044570304453372955,0.003004330676048994
1772789506425807000,2.61180712890625,-0.001357794040814042,-0.0001763971522450447,-0.0008450023597106338
1772789506435873000,2.621873046875,0.0005667582154273987,0.0009234622120857239,-0.0002575442777015269
1772789506445939000,2.63193896484375,-0.0002375165931880474,-0.00045738648623228073,0.0009509982774034142
1772789506456004000,2.642004150390625,-0.0020963072311133146,-0.00026493798941373825,0.00010346376802772284
1772789506466070000,2.652070068359375,-0.0015812518540769815,0.0023739878088235855,-0.001127715571783483
1772789506476136000,2.662135986328125,-0.0003669378347694874,-0.0006767800077795982,-0.0015647986438125372
1772789506486202000,2.6722021484375,-0.00034909462556242943,0.0003978051245212555,-0.0012180551420897245
1772789506496268000,2.68226806640625,-0.0017612793017178774,-0.0010005468502640724,0.0030022109858691692
1772789506506333200,2.692333251953125,-0.0005735096056014299,0.00026285648345947266,0.0007126915734261274
1772789506516399000,2.702399169921875,-0.0011038733646273613,0.0007063420489430428,0.0006417364347726107
1772789506526465000,2.712465087890625,-0.0005965414457023144,-0.00019087642431259155,0.0015304333064705133
1772789506536531000,2.722531005859375,0.0008157570846378803,0.0009608548134565353,-0.0013849753886461258
1772789506546596000,2.73259619140625,0.000493248226121068,-0.001039179041981697,-0.0016185345593839884
1772789506556662000,2.742662109375,-0.0008106108289211988,-0.00003965664654970169,-0.00337650952860713
1772789506566728200,2.752728271484375,-0.0010356476996093988,-0.00045670755207538605,-0.000880328705534339
1772789506576794000,2.762794189453125,0.0009544757194817066,-0.000983458012342453,-0.0008429039153270423
1772789506586859000,2.77285888671875,0.001530251232907176,-0.00018131360411643982,-0.0003089400997851044
1772789506596925000,2.782925048828125,0.0011599501594901085,-0.00158742256462574,0.002962960861623287
1772789506606991000,2.7929912109375,0.0009551530238240957,-0.0002806093543767929,0.0001669079647399485
1772789506617057000,2.80305712890625,0.002638088073581457,-0.0002563744783401489,0.0004080965300090611
1772789506627123200,2.813123291015625,0.00018371897749602795,-0.0009828843176364899,-0.003570666303858161
1772789506637187800,2.823187744140625,0.00019478588365018368,-0.0007659187540411949,-0.00048268548562191427
1772789506647254000,2.83325390625,0.001448868541046977,-0.0018426347523927689,0.000016923528164625168
1772789506657320000,2.84331982421875,-0.0009605337399989367,-0.0005043204873800278,-0.00025366852059960365
1772789506667386000,2.85338623046875,-0.0009623982477933168,0.003025699406862259,0.0021498342975974083
1772789506677451000,2.863450927734375,0.0002939430996775627,0.00004054419696331024,0.0008389198919758201
1772789506687517000,2.873516845703125,0.0011357683688402176,0.0029681576415896416,-0.0006479228613898158
1772789506697582800,2.883582763671875,0.0008126748725771904,-0.0001138029620051384,0.0008357582264579833
1772789506707649000,2.89364892578125,-0.002958627650514245,-0.0008072908967733383,-0.0005685265641659498
1772789506717714200,2.903714111328125,0.001973419915884733,-0.00020519550889730453,0.00034598499769344926
1772789506727780000,2.913780029296875,0.00033451057970523834,-0.0021548960357904434,-0.00012299767695367336
1772789506737846000,2.923845947265625,-0.000838498817756772,-0.0002628052607178688,-0.000287475559161976
1772789506747912000,2.933911865234375,-0.000807339558377862,-0.0006926394999027252,-0.0005548569606617093
1772789506757977900,2.943977783203125,-0.0003718533553183079,-0.0001820940524339676,-0.001479731174185872
1772789506768043000,2.95404296875,-0.0006104726344347,0.0011968901380896568,0.002636983059346676
1772789506778109200,2.964109130859375,0.0013684772420674562,-0.0003295913338661194,0.001925343181937933
1772789506788175000,2.974175048828125,-0.0002438004594296217,0.0011322172358632088,-0.0008528666221536696
1772789506798241000,2.984240966796875,0.0012979453895241022,0.0004428951069712639,-0.0003767817106563598
1772789506808306000,2.994305908203125,0.00020764721557497978,0.0006168000400066376,0.0007715733372606337
1772789506818372000,3.0043720703125,0.0001431293785572052,0.0009624818339943886,0.0022647217847406864
1772789506828438000,3.01443798828125,-0.001830006716772914,-0.0015699183568358421,-0.0022653150372207165
1772789506838504200,3.024504150390625,-0.0012967661023139954,0.0006707757711410522,0.000561705615837127
1772789506848568800,3.03456884765625,-0.0017226054333150387,0.0008705127984285355,-0.00013098260387778282
1772789506858635000,3.044635009765625,0.0003391606733202934,0.002607828937470913,-0.0008205405902117491
1772789506868701000,3.054700927734375,0.0006859041750431061,0.0011785104870796204,-0.00040295690996572375
1772789506878767000,3.06476708984375,0.00007974402979016304,0.00015630293637514114,0.0018522354075685143
1772789506888833000,3.0748330078125,-0.0016273423098027706,-0.0013651615008711815,0.00034488621167838573
1772789506898898200,3.084898193359375,0.0002473390195518732,0.000005890615284442902,0.00005213066469877958
1772789506908963800,3.0949638671875,0.002117676893249154,-0.0005435189232230186,0.0002998046693392098
1772789506919030000,3.105030029296875,0.0013774656690657139,-0.000712081789970398,0.0024025780148804188
1772789506929096000,3.115095947265625,0.001818218850530684,-0.0011515039950609207,-0.000004919711500406265
1772789506939161000,3.1251611328125,0.002994336886331439,0.0020343903452157974,-0.0008340643253177404
1772789506949227000,3.13522705078125,0.0013948422856628895,0.0010950937867164612,0.00012307573342695832
1772789506959293200,3.145293212890625,-0.0003287054132670164,-0.00025875307619571686,0.0034525045193731785
1772789506969358800,3.15535888671875,-0.0008371027652174234,0.0024342359974980354,-0.0022980591747909784
1772789506979425000,3.165425048828125,-0.0011247643269598484,-0.001900792121887207,0.0006645556422881782
1772789506989490000,3.175489990234375,0.0000752562191337347,0.0003506448119878769,-0.0026931578759104013
1772789506999556000,3.18555615234375,0.0030967528000473976,0.003948568366467953,-0.0015544176567345858
1772789507009622000,3.1956220703125,0.002464518416672945,-0.00018811970949172974,0.0010070106945931911
1772789507019688200,3.205688232421875,-0.00021747569553554058,0.0010840920731425285,-0.0006896319682709873
1772789507029753000,3.215753173828125,-0.0007253405638039112,0.0005370788276195526,-0.000917864846996963
1772789507039819000,3.225819091796875,0.00048582651652395725,-0.0007469924166798592,0.0006523339543491602
1772789507049885000,3.235885009765625,0.0013723927550017834,0.0033694561570882797,0.0029288039077073336
1772789507059951000,3.245951171875,-0.0010529386345297098,-0.0011166632175445557,-0.0011892318725585938
1772789507070017000,3.25601708984375,0.002025675494223833,0.0010607372969388962,-0.0007277060067281127
1772789507080082000,3.26608203125,0.0005073845386505127,-0.002154518850147724,-0.00006031215889379382
1772789507090148000,3.276148193359375,-0.00044895661994814873,-0.0030421502888202667,-0.00011863542022183537
1772789507100214000,3.286214111328125,0.001134427497163415,0.003177335485816002,0.0007973760948516428
1772789507110280000,3.296280029296875,-0.00011326349340379238,0.0008782288059592247,-0.001484686741605401
1772789507120345000,3.306344970703125,0.0004885441157966852,0.001614266075193882,-0.00030345330014824867
1772789507130411000,3.316410888671875,0.00003554043360054493,0.0009543346241116524,0.0006140057230368257
1772789507140477000,3.326476806640625,0.0023189648054540157,-0.0008871313184499741,0.0013085800455883145
1772789507150542800,3.33654296875,0.0000699253287166357,-0.000128929503262043,-0.0005756064201705158
1772789507160609000,3.346609130859375,-0.002103053266182542,-0.0002869395539164543,0.00008067692397162318
1772789507170674200,3.356674072265625,0.00039152964018285275,-0.00033940374851226807,-0.0036727823317050934
1772789507180740000,3.366739990234375,0.00008724210783839226,-0.0013066912069916725,-0.002527442295104265
1772789507190806000,3.376805908203125,0.0018459938000887632,0.0005689729005098343,0.0002598221180960536
1772789507200872000,3.386871826171875,0.0001919860951602459,0.0010602399706840515,0.0012145651271566749
1772789507210937000,3.39693701171875,0.0014660423621535301,-0.0008071688935160637,-0.0012416683603078127
1772789507221003000,3.4070029296875,-0.00039428682066500187,0.00215018168091774,0.0006945445202291012
1772789507231069200,3.417069091796875,-0.00015833089128136635,0.0012007653713226318,-0.0019608933944255114
1772789507241135000,3.427135009765625,0.0007814506534487009,0.00034190621227025986,-0.0020006601698696613
1772789507251201000,3.437200927734375,0.00006825616583228111,-0.0007204292342066765,0.0005157606210559607
1772789507261266000,3.447265869140625,0.0006782079581171274,-0.002367747016251087,-0.0009266859851777554
1772789507271332000,3.45733203125,0.002497945912182331,0.00036359112709760666,-0.001508586690761149
1772789507281398000,3.46739794921875,-0.0009138751775026321,-0.0016388911753892899,0.0017941443948075175
1772789507291464200,3.477464111328125,0.0008656489662826061,-0.001591220498085022,-0.00019390531815588474
1772789507301528800,3.48752880859375,-0.001863660290837288,0.0027439799159765244,-0.00025206158170476556
1772789507311595000,3.497594970703125,0.0015822036657482386,-0.0002635279670357704,0.0015780627727508545
1772789507321661000,3.507660888671875,0.0018146305810660124,-0.0007591582834720612,-0.001835294533520937
1772789507331727000,3.51772705078125,0.002872704528272152,-0.0004856521263718605,0.0022065851371735334
1772789507341793000,3.52779296875,0.0005588100757449865,-0.0011990778148174286,0.0006590954726561904
1772789507351858000,3.53785791015625,-0.0015858334954828024,-0.00015405286103487015,0.00006467796629294753
1772789507361923800,3.547923828125,0.0004728133790194988,-0.002467573620378971,0.0007733313832432032
1772789507371990000,3.557989990234375,-0.0011972547508776188,-0.00030934717506170273,0.0015597627498209476
1772789507382056000,3.568055908203125,0.0006316804792732,-0.00024114549160003662,-0.00003218743950128555
1772789507392122000,3.5781220703125,-0.002191536594182253,-0.0017144065350294113,0.00005543057341128588
1772789507402186800,3.588186767578125,-0.0004812050610780716,0.00249465461820364,0.001493543735705316
1772789507412253000,3.5982529296875,-0.0003776079975068569,0.00045973341912031174,0.0004463887307792902
1772789507422318800,3.60831884765625,0.001828610198572278,0.0017985831946134567,-0.0019626759458333254
1772789507432385000,3.618385009765625,0.0013268706388771534,0.0018686242401599884,0.000984111800789833
1772789507442450000,3.628449951171875,-0.0005612513050436974,0.0008069537580013275,0.0014787915861234069
1772789507452516000,3.63851611328125,0.00038283923640847206,0.0030205734074115753,-0.0003473378892522305
1772789507462581800,3.648581787109375,0.0026035653427243233,-0.0015393896028399467,0.00029293872648850083
1772789507472648000,3.65864794921875,-0.0008683979976922274,0.000512843020260334,0.00023221870651468635
1772789507482713900,3.6687138671875,-0.0005217010620981455,-0.001735585741698742,-0.001191467046737671
1772789507492779000,3.678779052734375,-0.00034539983607828617,-0.001320132054388523,-0.002182162832468748
1772789507502845000,3.688844970703125,0.0003841628786176443,0.003205937333405018,0.00008907757000997663
1772789507512911000,3.6989111328125,0.0018840552074834704,-0.0017006704583764076,0.0030518441926687956
1772789507522976800,3.708976806640625,-0.00000632856972515583,-0.0001374250277876854,0.0007230512565001845
1772789507533042000,3.7190419921875,0.000424304511398077,0.0013973545283079147,-0.001465001842007041
1772789507543108000,3.729108154296875,0.00013083708472549915,-0.0028683021664619446,-0.0006760329706594348
1772789507553174000,3.739174072265625,-0.0002981980796903372,-0.0017814664170145988,-0.0007692436338402331
1772789507563240000,3.749239990234375,0.0016382974572479725,0.0022114934399724007,0.0004991146852262318
1772789507573306000,3.75930615234375,0.0024447026662528515,0.0003475463017821312,0.001671970821917057
1772789507583371000,3.76937109375,-0.0003748987801373005,-0.000730518251657486,0.0004259268753230572
1772789507593437000,3.77943701171875,0.0020235441625118256,-0.0013781990855932236,0.0015836029779165983
1772789507603503000,3.789503173828125,0.00171851203776896,0.0007349764928221703,-0.0020143252331763506
1772789507613569000,3.799569091796875,0.0005895979702472687,-0.0009425487369298935,0.001819561468437314
1772789507623635000,3.809635009765625,-0.0006288827862590551,-0.0007439656183123589,0.002690966473892331
1772789507633699800,3.819699951171875,-0.0005175622645765543,0.0019221249967813492,-0.00132827612105757
1772789507643766000,3.82976611328125,0.00007950793951749802,0.0010720118880271912,-0.0006495179841294885
1772789507653832000,3.83983203125,-0.00042436225339770317,0.0014312723651528358,-0.0016908139223232865
1772789507663898000,3.849898193359375,0.0016787745989859104,-0.00002196338027715683,-0.000684784899931401
1772789507673963000,3.859962890625,-0.00026053935289382935,-0.00033568404614925385,-0.0005905090365558863
1772789507684029200,3.870029296875,0.0006228634156286716,0.000019499100744724274,-0.0008144517778418958
1772789507694094800,3.8800947265625,0.00028703873977065086,0.0019652051851153374,0.0016772018279880285
1772789507704161000,3.8901611328125,0.000030434224754571915,0.0016865655779838562,0.0022946589160710573
1772789507714227000,3.90022705078125,0.0013966357801109552,-0.0006218627095222473,-0.001327240141108632
1772789507724292000,3.9102919921875,-0.00048207887448370457,-0.0024798205122351646,-0.0019636829383671284
1772789507734358000,3.92035791015625,0.001527808839455247,0.001254197210073471,0.0013266525929793715
1772789507744424200,3.930424072265625,-0.0005981570575386286,0.0013277465477585793,0.0010459565091878176
1772789507754489900,3.94048974609375,0.0005166421178728342,0.0011506462469696999,0.003930692560970783
1772789507764556000,3.95055615234375,-0.002293220954015851,0.0006378646939992905,-0.0012523190816864371
1772789507774621000,3.960620849609375,0.0007078952621668577,-0.003238632343709469,-0.0029841726645827293
1772789507784687000,3.97068701171875,-0.0009607388637959957,-0.0005487939342856407,0.0004243541043251753
1772789507794753000,3.9807529296875,0.0016579476650804281,0.00013111159205436707,-0.0011005719425156713
1772789507804819000,3.99081884765625,0.0008541038259863853,0.0011297184973955154,-0.0009366527083329856
1772789507814883800,4.0008837890625,0.000534790800884366,0.0008234549313783646,-0.001687397831119597
1772789507824950000,4.010949951171875,-0.00013135652989149094,-0.001879286952316761,0.00256521999835968
1772789507835016000,4.021015869140625,-0.00012869341298937798,0.0007346048951148987,0.0009462845046073198
1772789507845082000,4.03108203125,0.0007708834018558264,-0.00022455677390098572,-0.0026538800448179245
1772789507855147000,4.04114697265625,-0.0013034525327384472,0.00011952314525842667,0.0024862869177013636
1772789507865213000,4.051212890625,-0.00018501305021345615,0.0007518557831645012,0.0007542550447396934
1772789507875278800,4.06127880859375,-0.0006811600178480148,0.000571027398109436,-0.0021824126597493887
1772789507885345000,4.071344970703125,0.0004533210303634405,0.0026336750015616417,0.0012346418807283044
1772789507895411000,4.081410888671875,-0.0009379140101373196,-0.0016620038077235222,0.002259426284581423
1772789507905476000,4.09147607421875,-0.0006058367434889078,0.0004708254709839821,-0.0021905219182372093
1772789507915541800,4.101541748046875,-0.0008705549407750368,0.0004058443009853363,-0.00015373644419014454
1772789507925608000,4.11160791015625,-0.0019388170912861824,0.001286040060222149,-0.002241085981950164
1772789507935673900,4.121673828125,0.0011227529030293226,0.0019981684163212776,0.00037626869743689895
1772789507945740000,4.131739990234375,0.0012584072537720203,0.0010873526334762573,0.0018077974673360586
1772789507955805200,4.14180517578125,-0.0013701326679438353,-0.00014435965567827225,0.0028847798239439726
1772789507965871000,4.15187109375,0.000907242065295577,0.0038612717762589455,-0.0005447458242997527
1772789507975936800,4.161936767578125,-0.0013383354526013136,0.0007887827232480049,-0.0008994789095595479
1772789507986003000,4.1720029296875,0.0011402391828596592,-0.0011448189616203308,0.002760960254818201
1772789507996068900,4.18206884765625,-0.002033982425928116,-0.002169603481888771,-0.001053218962624669
1772789508006134000,4.192134033203125,-0.0006745571736246347,0.0004315432161092758,-0.0005312939174473286
1772789508016200200,4.2022001953125,-0.0017589961644262075,-0.00033491477370262146,0.0003680555382743478
1772789508026266000,4.21226611328125,0.003065198427066207,0.0009116139262914658,-0.002614568220451474
1772789508036331800,4.222331787109375,0.0003620898351073265,0.0008064191788434982,0.000025157001800835133
1772789508046398000,4.23239794921875,0.00014611543156206608,0.00033406447619199753,-0.0013634809292852879
1772789508056463000,4.242463134765625,0.0008100415579974651,-0.0005405182018876076,-0.001208751229569316
1772789508066529000,4.252529052734375,-0.00044708861969411373,0.0010791728273034096,0.0018521539168432355
1772789508076595000,4.262594970703125,0.00029859645292162895,0.0012229830026626587,-0.0009233924793079495
1772789508086661000,4.2726611328125,0.0014577412512153387,0.0008087148889899254,-0.0006673301104456186
1772789508096726000,4.28272607421875,0.0017791847931221128,0.0006699636578559875,-0.0012657423503696918
1772789508106792000,4.2927919921875,-0.00010986649431288242,0.0000019846484065055847,0.0014993826625868678
1772789508116858000,4.302858154296875,0.0014701869804412127,0.001933841034770012,0.002517509274184704
1772789508126924000,4.312924072265625,-0.00006143306382000446,-0.00014892686158418655,-0.0011861498933285475
1772789508136990000,4.322989990234375,0.0019399324664846063,0.00037758052349090576,-0.000025810615625232458
1772789508147054800,4.333054931640625,0.001412899000570178,-0.000959545373916626,-0.0006770968320779502
1772789508157121000,4.34312109375,-0.00005183974280953407,-0.00040347687900066376,0.0014734058640897274
1772789508167187000,4.35318701171875,-0.00036980328150093555,0.0033013494685292244,-0.0011763840448111296
1772789508177253000,4.363253173828125,0.000821694964542985,-0.0008372031152248383,0.004190151579678059
1772789508187319000,4.373319091796875,0.0005112939979881048,0.0004015592858195305,0.0006476736743934453
1772789508197384000,4.383384033203125,-0.0009356013033539057,0.00048465002328157425,-0.0004503475793171674
1772789508207449900,4.393449951171875,0.00061064213514328,0.0007994920015335083,-0.0033767935819923878
1772789508217516000,4.40351611328125,0.00041782925836741924,-0.0006721708923578262,-0.001301125856116414
1772789508227582000,4.41358203125,-0.0005234717391431332,-0.0023050345480442047,0.0009826773311942816
1772789508237648100,4.423648193359375,-0.00032799551263451576,0.002115813083946705,0.00013765634503215551
1772789508247713000,4.433713134765625,-0.0000376447569578886,-0.00011103134602308273,0.0019916119053959846
1772789508257779000,4.443779052734375,-0.003373786574229598,0.0006948411464691162,-0.002163718454539776
1772789508267844900,4.453844970703125,-0.0010322299785912037,-0.0004856474697589874,0.003453928278759122
1772789508277911000,4.4639111328125,-0.002334249671548605,0.0012448746711015701,-0.0006516007706522942
1772789508287977000,4.47397705078125,0.0007908048573881388,-0.0013344688341021538,0.001207853783853352
1772789508298045400,4.48404541015625,-0.0017240180168300867,0.0014434736222028732,-0.0019365404732525349
1772789508308111400,4.494111328125,0.001394085120409727,-0.00008589867502450943,-0.0020326348021626472
1772789508318177500,4.504177490234375,-0.0007886418607085943,0.0005330201238393784,0.002651066519320011
1772789508328243200,4.5142431640625,0.0006724086124449968,0.00007363222539424896,-0.0006641291547566652
1772789508338309400,4.524309326171875,-0.0014370810240507126,-0.00014368165284395218,-0.001773069379851222
1772789508348374300,4.534374267578125,-0.0018116796854883432,0.0026035429909825325,-0.0009160834597423673
1772789508358440400,4.5444404296875,-0.00042603700421750546,0.0030781179666519165,0.00006848719203844666
1772789508368506400,4.55450634765625,0.0009583921637386084,0.0010862676426768303,-0.0018702942179515958
1772789508378572500,4.564572509765625,-0.0008054191712290049,0.00027959607541561127,0.0009686354314908385
1772789508388638200,4.57463818359375,0.0018607910024002194,-0.0007876092568039894,-0.0011170365614816546
1772789508398703400,4.584703369140625,-0.0016710932832211256,0.0021557165309786797,-0.0026962910778820515
1772789508408769300,4.594769287109375,0.00015336787328124046,-0.0005808165296912193,0.001373438397422433
1772789508418835500,4.60483544921875,-0.0010961873922497034,0.0018740855157375336,-0.0019182288087904453
1772789508428901400,4.6149013671875,-0.0010184221900999546,-0.0022623836994171143,-0.0011929916217923164
1772789508438967600,4.624967529296875,-0.00013158959336578846,-0.000017605721950531006,0.0022534052841365337
1772789508449033200,4.635033203125,-0.0006527313962578773,0.00185492355376482,-0.0009730600286275148
1772789508459099400,4.645099365234375,-0.0006391494534909725,0.00006314925849437714,-0.0016881187912076712
1772789508469164300,4.655164306640625,0.0006651417352259159,0.0020537544041872025,0.0013411177787929773
1772789508479230500,4.66523046875,-0.001229164656251669,-0.00006851833313703537,0.001667354954406619
1772789508489296400,4.67529638671875,-0.002543361159041524,-0.0019921958446502686,-0.000127252540551126
1772789508499362600,4.685362548828125,0.00038824649527668953,0.0010083876550197601,0.0004932640003971756
1772789508509428200,4.69542822265625,0.0004595494829118252,-0.0021365955471992493,-0.00044510437874123454
1772789508519493400,4.705493408203125,0.0018907323246821761,0.0011960845440626144,0.001294472487643361
1772789508529559300,4.715559326171875,-0.0005913418717682362,0.002307274378836155,-0.0011259387247264385
1772789508539625500,4.72562548828125,-0.0007066568359732628,-0.0015694890171289444,-0.0005395106854848564
1772789508549691400,4.73569140625,-0.0003219007048755884,-0.00015774834901094437,0.002924528904259205
1772789508559757600,4.745757568359375,-0.00021350989118218422,-0.0014720186591148376,0.002410538960248232
1772789508569822200,4.755822265625,0.0009664911776781082,-0.0006625596433877945,0.001632867380976677
1772789508579888400,4.765888427734375,-0.000018878374248743057,0.0009230868890881538,0.00047945225378498435
1772789508589954300,4.775954345703125,-0.00044702389277517796,-0.0005032150074839592,0.0033278572373092175
1772789508600020500,4.7860205078125,0.0006193055305629969,0.00025978032499551773,0.00048413401236757636
1772789508610086400,4.79608642578125,-0.0011120487470179796,-0.0000010794028639793396,0.0005490841576829553
1772789508620151300,4.8061513671875,-0.0022928945254534483,-0.000496160238981247,-0.002221402246505022
1772789508630217200,4.81621728515625,0.0012246770784258842,-0.0012030601501464844,-0.0009218425839208066
1772789508640283400,4.826283447265625,-0.0010611140169203281,-0.0013625835999846458,-0.0007223718566820025
1772789508650349300,4.836349365234375,-0.00005178921855986118,0.0021186787635087967,-0.0023074341006577015
1772789508660415500,4.84641552734375,-0.0015905634500086308,-0.0017564864829182625,-0.0010376391001045704
1772789508670480100,4.856480224609375,-0.0009880510624498129,-0.0007356386631727219,0.002650837879627943
1772789508680546300,4.86654638671875,-0.00306025636382401,-0.0018911836668848991,-0.00011458864901214838
1772789508690612200,4.8766123046875,-0.0019415901042521,-0.0027444660663604736,-0.0008046803413890302
1772789508700678400,4.886678466796875,-0.0007756585255265236,0.00022362731397151947,-0.0009847100591287017
1772789508710744300,4.896744384765625,-0.0014892863109707832,-0.0007743146270513535,0.0001638400717638433
1772789508720809500,4.9068095703125,-0.0008874116465449333,0.0017764614894986153,-0.0008300516637973487
1772789508730875100,4.916875244140625,-0.0006062060128897429,0.0018695686012506485,0.0003951841499656439
1772789508740941300,4.92694140625,0.0007386901415884495,-0.0018205074593424797,-0.0007869930705055594
1772789508751007200,4.93700732421875,-0.0004882952198386192,0.0007419157773256302,-0.0007111079758033156
1772789508761073400,4.947073486328125,0.0003862867597490549,0.0014170268550515175,-0.00043174237362109125
1772789508771138300,4.95713818359375,-0.001757199177518487,0.0010627778246998787,0.0011665181955322623
1772789508781204500,4.96720458984375,-0.000007502268999814987,0.0015256358310580254,0.0005097828106954694
1772789508791270100,4.977270263671875,-0.0007644128054380417,-0.000195307657122612,0.0017683767946437001
1772789508801336300,4.98733642578125,0.002514204476028681,-0.0009053060784935951,0.0011143044102936983
1772789508811402200,4.99740234375,-0.0028876722790300846,-0.0021702460944652557,0.0004741820157505572
1772789508821467400,5.00746728515625,0.00001783645711839199,-0.0002567656338214874,0.00172320450656116
1772789508831533300,5.017533203125,-0.00048235710710287094,-0.001862918958067894,0.001204026397317648
1772789508841599500,5.027599609375,-0.001030702143907547,0.0004164809361100197,0.0040301731787621975
1772789508851665200,5.0376650390625,-0.0011131800711154938,-0.0005440004169940948,0.0019674471113830805
1772789508861731300,5.0477314453125,-0.0015105237253010273,-0.0010609198361635208,-0.002401468576863408
1772789508871796500,5.05779638671875,-0.0017358898185193539,-0.001996147446334362,-0.00031584760290570557
1772789508881862400,5.0678623046875,0.0004279285203665495,0.0019530542194843292,-0.0009856326505541801
1772789508891928300,5.07792822265625,-0.0007663187570869923,0.0012487387284636497,-0.0011136215180158615
1772789508901994500,5.087994384765625,-0.00115940161049366,0.0005619097501039505,0.00040837505366653204
1772789508912060200,5.09806005859375,0.0034051020629704,-0.0016163485124707222,-0.0010984578402712941
1772789508922125300,5.108125244140625,0.0016993472818285227,-0.0012136781588196754,0.0002206058707088232
1772789508932191500,5.11819140625,-0.0007360095623880625,0.0010120430961251259,-0.00040406384505331516
1772789508942257400,5.12825732421875,-0.0012558589223772287,-0.002646074630320072,-0.004159919917583466
1772789508952323300,5.1383232421875,-0.000688161700963974,-0.0003591282293200493,0.0006046138005331159
1772789508962389500,5.148389404296875,0.0007352977991104126,0.0008243806660175323,0.0006741222459822893
1772789508972454400,5.158454345703125,0.0018595370929688215,-0.002278861589729786,-0.00006801745621487498
1772789508982520300,5.168520263671875,0.000926365377381444,0.0029827458783984184,0.0013469201512634754
1772789508992586500,5.17858642578125,-0.0014140133280307055,-0.0038056233897805214,0.0015990505926311016
1772789509002652400,5.18865234375,-0.0005751175340265036,-0.002877778373658657,-0.0010041893692687154
1772789509012718300,5.19871826171875,0.00007116026245057583,0.0023273909464478493,-0.00047768838703632355
1772789509022783200,5.208783203125,-0.001825542887672782,-0.00020341109484434128,0.0034036024007946253
1772789509032849400,5.218849365234375,-0.0006331782788038254,0.0005713943392038345,0.001495076809078455
1772789509042915300,5.228915283203125,0.0010962786618620157,0.001476868987083435,0.0007445979863405228
1772789509052981500,5.2389814453125,0.0017983756260946393,-0.0003386549651622772,-0.0019742315635085106
1772789509063047400,5.24904736328125,0.00024788337759673595,0.0006578993052244186,0.0024988139048218727
1772789509073112300,5.2591123046875,-0.0021399278193712234,-0.0012176688760519028,-0.0007146442076191306
1772789509083178200,5.26917822265625,-0.0005564121529459953,0.0021163420751690865,0.00039509503403678536
1772789509093244400,5.279244384765625,-0.0023739838507026434,-0.0021396707743406296,0.00006412941729649901
1772789509103310300,5.289310302734375,0.0005387156270444393,-0.001701580360531807,0.0016606946010142565
1772789509113376300,5.299376220703125,-0.000525173731148243,0.004142520017921925,0.0003920000162906945
1772789509123442400,5.3094423828125,0.0024596971925348043,-0.0008003078401088715,0.0009094521519728005
1772789509133507300,5.31950732421875,0.000705002574250102,0.0007843179628252983,0.0019153602188453078
1772789509143573200,5.3295732421875,0.0022930456325411797,-0.001096673309803009,0.0004508879501372576
1772789509153639400,5.339639404296875,-0.0013140297960489988,0.0005154851824045181,0.0002304788213223219
1772789509163705300,5.349705322265625,-0.00021068216301500797,0.0042806630954146385,-0.0011136186076328158
1772789509173771300,5.359771240234375,0.0014669587835669518,-0.0018211295828223228,-0.0013399202143773437
1772789509183836400,5.36983642578125,0.00047759455628693104,-0.0017596101388335228,0.0015575990546494722
1772789509193902300,5.37990234375,0.0006173157598823309,-0.0005025696009397507,-0.000158175069373101
1772789509203968300,5.38996826171875,-0.0021654211450368166,-0.001448790542781353,0.000033306190744042397
1772789509214034400,5.400034423828125,-0.0005199641454964876,-0.0005885995924472809,0.0009264349937438965
1772789509224100400,5.410100341796875,-0.0002637677825987339,0.00008171796798706055,-0.0015239394269883633
1772789509234165500,5.42016552734375,0.00034742639400064945,0.0006357906386256218,0.0002494364744052291
1772789509244231400,5.4302314453125,0.0005325160454958677,-0.0017107203602790833,-0.0026081353425979614
1772789509254297300,5.44029736328125,0.0006093450356274843,-0.0018905960023403168,0.0027976820711046457
1772789509264363300,5.45036328125,0.0007238609250634909,0.001357395201921463,-0.0021866902243345976
1772789509274429400,5.460429443359375,-0.0002126600593328476,-0.0007302276790142059,0.0016432867851108313
1772789509284494300,5.470494384765625,-0.0003279750235378742,0.0008732620626688004,-0.0003138702595606446
1772789509294560500,5.480560546875,-0.0007264609448611736,-0.001170785166323185,0.0018628176767379045
1772789509304623400,5.490623291015625,0.0008714357390999794,-0.00011990219354629517,-0.0030935914255678654
1772789509314689300,5.500689208984375,0.0015017986297607422,0.0006125941872596741,-0.00010787870269268751
1772789509324755200,5.510755126953125,-0.0007917154580354691,-0.0038740336894989014,0.002817870117723942
1772789509334820400,5.5208203125,0.0002578801941126585,-0.0024369508028030396,0.00011597492266446352
1772789509344886300,5.53088623046875,0.0016381966415792704,-0.001075010746717453,-0.0014193374663591385
1772789509354952400,5.540952392578125,0.002508634002879262,0.0006586108356714249,0.0011476699728518724
1772789509365018400,5.551018310546875,0.00015466590411961079,-0.0008141174912452698,-0.0029421465005725622
1772789509375084300,5.561084228515625,0.0008449379820376635,0.0041043078526854515,-0.0011653536930680275
1772789509385149200,5.571149169921875,-0.00029995478689670563,0.0004445929080247879,0.0007396054570563138
1772789509395215400,5.58121533203125,-0.001860116608440876,-0.0005473298951983452,-0.0003486094647087157
1772789509405281300,5.59128125,0.002280033426359296,0.00040075555443763733,-0.0016940385103225708
1772789509415347500,5.601347412109375,0.0009764099959284067,0.0004124753177165985,0.0005450340686365962
1772789509425413400,5.611413330078125,0.000626204302534461,-0.0002423962578177452,-0.002326386049389839
1772789509435479000,5.62147900390625,-0.0009040725417435169,0.0005209939554333687,0.002387098502367735
1772789509445544200,5.631544189453125,-0.0001360168680548668,-0.0008518658578395844,0.0028076115995645523
1772789509455610400,5.6416103515625,0.0007002968341112137,-0.001959829591214657,-0.000051059876568615437
1772789509465676300,5.65167626953125,-0.00036683189682662487,-0.0005299784243106842,-0.00028009171364828944
1772789509475742500,5.661742431640625,0.0013688849285244942,-0.0005122842267155647,0.0005049510509707034
1772789509485808400,5.671808349609375,-0.00007747788913547993,-0.003076375462114811,0.000807219825219363
1772789509495873300,5.681873291015625,0.0004765307530760765,0.0031206775456666946,0.004659993574023247
1772789509505939200,5.691939208984375,0.0004821235779672861,0.0006330190226435661,0.000651137437671423
1772789509516005400,5.70200537109375,0.0008694208227097988,0.0014132503420114517,-0.000042371044401079416
1772789509526071300,5.7120712890625,-0.00130531657487154,0.0018553351983428001,0.0006037118146196008
1772789509536137200,5.72213720703125,0.0005398467183113098,-0.0021696025505661964,0.00026343599893152714
1772789509546202000,5.7322021484375,-0.001235150033608079,-0.0002947375178337097,-0.0012287331046536565
1772789509556268300,5.742268310546875,0.0005917500238865614,-0.0009456668049097061,-0.00033485202584415674
1772789509566334200,5.752334228515625,0.0017931020120158792,0.001437329687178135,0.0028036832809448242
1772789509576400400,5.762400390625,0.0002942024730145931,0.0007921354845166206,-0.0018749083392322063
1772789509586466300,5.77246630859375,-0.0023902638349682093,-0.0006566233932971954,0.0026263664476573467
1772789509596531500,5.782531494140625,-0.00019646412692964077,0.001133645884692669,-0.001741213258355856
1772789509606597000,5.79259716796875,-0.00037835794501006603,0.0009770523756742477,0.0022047923412173986
1772789509616663300,5.802663330078125,-0.000978343654423952,-0.0002973908558487892,-0.0032055347692221403
1772789509626729200,5.812729248046875,0.0001183459535241127,0.000438174232840538,0.00036603055195882916
1772789509636795400,5.82279541015625,0.0006921561434864998,-0.000713687390089035,-0.001482244348153472
1772789509646861300,5.832861328125,0.0006514096166938543,0.0010879412293434143,-0.0010369638912379742
1772789509656926500,5.842926513671875,-0.0017543358262628317,-0.0012144995853304863,-0.0019313294906169176
1772789509666992000,5.8529921875,-0.0019199845846742392,0.0009112358093261719,-0.00014727795496582985
1772789509677058300,5.863058349609375,0.0015879498096182942,0.0016659116372466087,0.0024040453135967255
1772789509687124200,5.873124267578125,0.0004888633266091347,-0.00187742430716753,0.0010149404406547546
1772789509697190400,5.8831904296875,0.0002325461246073246,0.0005203243345022202,-0.0031326001044362783
1772789509707255300,5.89325537109375,-0.00007425015792250633,0.0002998141571879387,-0.0011552029754966497
1772789509717321500,5.903321533203125,0.0009361552074551582,-0.001144222915172577,0.00109096709638834
1772789509727387100,5.91338720703125,0.0004269587807357311,-0.0018765926361083984,0.0013817842118442059
1772789509737453300,5.923453369140625,0.0012305339332669973,-0.001356649212539196,-0.00012641819193959236
1772789509747519200,5.933519287109375,-0.0005836114287376404,0.00012007355690002441,0.000056008342653512955
1772789509757585400,5.94358544921875,0.0001274410169571638,-0.0006055664271116257,-0.0024968646466732025
1772789509767650300,5.953650390625,0.0006526163779199123,-0.001834348775446415,-0.0019932608120143414
1772789509777716200,5.96371630859375,0.002266652649268508,-0.0013458430767059326,0.0003519466845318675
1772789509787782100,5.9737822265625,0.0004514420870691538,-0.00023024529218673706,0.0000731137115508318
1772789509797848300,5.983848388671875,-0.0017408207058906555,0.0007981890812516212,-0.0004365318745840341
1772789509807914200,5.993914306640625,-0.0030905106104910374,-0.0010697515681385994,-0.0006149637047201395
1772789509817979400,6.0039794921875,0.0010113304015249014,-0.0005584964528679848,-0.0011133367661386728
1772789509828045300,6.01404541015625,-0.0002502088900655508,0.0023363595828413963,-0.0006890951772220433
1772789509838111200,6.024111328125,-0.0002224345225840807,0.00028870999813079834,-0.002103966660797596
1772789509848177200,6.03417724609375,0.0006060749292373657,0.0022985972464084625,0.0013011510018259287
1772789509858243300,6.044243408203125,0.0010263263247907162,-0.0001471182331442833,0.0007625933503732085
1772789509868308200,6.05430810546875,0.0002771792933344841,-0.0019655246287584305,-0.00007949821883812547
1772789509878374400,6.06437451171875,0.00036116898991167545,0.0012952657416462898,-0.0021221220958977938
1772789509888440300,6.0744404296875,-0.0006463048048317432,0.0007322737947106361,-0.0017596660181879997
1772789509898506200,6.08450634765625,-0.00019047455862164497,0.0002946630120277405,-0.0020169434137642384
1772789509908572200,6.094572265625,-0.00035985163412988186,-0.0003447616472840309,-0.0027921893633902073
1772789509918638300,6.104638427734375,0.0006474594119936228,-0.0018064184114336967,0.00008004135452210903
1772789509928703200,6.114703125,0.0003129662945866585,0.001466074027121067,-0.0014392919838428497
1772789509938769400,6.124769287109375,0.0012172027491033077,-0.0016658538952469826,-0.00044053306919522583
1772789509948835300,6.13483544921875,0.0006848368793725967,-0.0009161746129393578,0.001357633387669921
1772789509958901200,6.1449013671875,-2.530869096517563e-7,-0.0005566319450736046,0.0008153564413078129
1772789509968967200,6.15496728515625,0.00012198579497635365,0.00041728559881448746,0.000095503986813128
1772789509979032300,6.1650322265625,0.0002005158457905054,0.0006110817193984985,0.0010633694473654032
1772789509989098200,6.17509814453125,0.0018109292723238468,-0.0023676641285419464,-0.0020338869653642178
1772789509999164400,6.185164306640625,-0.0003880180884152651,0.0008502230048179626,-0.002417690819129348
1772789510009230300,6.195230224609375,0.0026530453469604254,0.0007775183767080307,0.0009301690733991563
1772789510019296300,6.205296142578125,-0.00045129377394914627,-0.001967061311006546,0.0011089590843766928
1772789510029362200,6.215362060546875,0.001991357421502471,0.00018423981964588165,0.000633584859315306
1772789510039427300,6.22542724609375,-0.00047314586117863655,0.000009272247552871704,-0.001998991472646594
1772789510049493200,6.2354931640625,0.000685595441609621,0.0008172756060957909,0.001755532925017178
1772789510059559400,6.245559326171875,-0.0016294261440634727,-0.0012367963790893555,0.0012391827767714858
1772789510069625300,6.255625244140625,0.00003984314389526844,0.0004061078652739525,-0.0014799046330153942
1772789510079691300,6.265691162109375,-0.00012433785013854504,0.001234675757586956,0.00021626456873491406
1772789510089756200,6.275756103515625,0.0005872587207704782,-0.00038931984454393387,0.0013116227928549051
1772789510099822300,6.285822265625,-0.0005073752254247665,-0.0020148148760199547,0.001550161512568593
1772789510109888300,6.29588818359375,-0.00007381243631243706,-0.0008134627714753151,-0.0012618701439350843
1772789510119954400,6.305954345703125,-0.0010374535340815783,-0.00043124426156282425,-0.001467811525799334
1772789510130020400,6.316020263671875,0.0012011996004730463,0.000864650122821331,-0.00015354156494140625
1772789510140086300,6.326086181640625,-0.0019418594893068075,-0.002225654199719429,0.002383513143286109
1772789510150151200,6.336151123046875,0.0016629950841888785,-0.0000546453520655632,-0.0008690054528415203
1772789510160217300,6.34621728515625,-0.0005421079695224762,-0.00002822931855916977,-0.0020620692521333694
1772789510170283300,6.356283203125,0.001126894960179925,0.0014064153656363487,0.000776860280893743
1772789510180349400,6.366349365234375,0.0003334807697683573,0.0017524994909763336,0.001545205246657133
1772789510190415400,6.376415283203125,0.0026584204751998186,-0.0008243750780820847,0.001678629545494914
1772789510200480300,6.386480224609375,-0.0011290926486253738,-0.0017249202355742455,0.0018252774607390165
1772789510210546200,6.396546142578125,-0.00008326955139636993,0.0009251916781067848,0.0031802935991436243
1772789510220612400,6.4066123046875,0.0007077145855873823,-0.002857026644051075,0.0018412594217807055
1772789510230678300,6.41667822265625,0.00010104640386998653,0.00026313308626413345,0.0006697347853332758
1772789510240744400,6.426744384765625,0.0016523547237738967,-0.0035243788734078407,-0.00033214743598364294
1772789510250809000,6.43680908203125,-0.0000025336630642414093,0.0005984613671898842,0.0009094182751141489
1772789510260875300,6.446875244140625,-0.0015153035055845976,0.0011828774586319923,-0.0008550573256798089
1772789510270941200,6.456941162109375,0.00024051847867667675,-0.0002022329717874527,-0.0004894053563475609
1772789510281007400,6.46700732421875,-0.0012316550128161907,0.0009649181738495827,0.0029142743442207575
1772789510291073300,6.4770732421875,0.0002077834215015173,-0.0008444329723715782,0.000809578166808933
1772789510301139500,6.487139404296875,-0.00007929513230919838,0.00047276820987463,0.0007497122278437018
1772789510311204000,6.4972041015625,0.0002866231370717287,0.002115938812494278,-0.0003155521990265697
1772789510321270300,6.507270263671875,0.0004621937405318022,-0.002609740011394024,-0.0001040380448102951
1772789510331336200,6.517336181640625,-0.0009069372899830341,-0.0023255813866853714,-0.0014081880217418075
1772789510341402400,6.52740234375,-0.0016960965003818274,-0.00042983144521713257,0.00013788952492177486
1772789510351468300,6.53746826171875,0.0005199196748435497,-0.00035419780761003494,0.0023304701317101717
1772789510361533200,6.547533203125,0.00005645165219902992,0.0016840919852256775,-0.0004014406877104193
1772789510371599000,6.55759912109375,-0.0006753848865628242,-0.0030821673572063446,-0.0005583008751273155
1772789510381665300,6.567665283203125,0.0011496327351778746,0.0008029937744140625,0.0023853515740484
1772789510391731200,6.577731201171875,-0.001195813063532114,0.002100752666592598,-0.0007446616655215621
1772789510401797400,6.58779736328125,-0.00019992818124592304,-0.0002899467945098877,-0.002149149775505066
1772789510411863300,6.59786328125,-0.00041564437560737133,-0.0013240529224276543,-0.0038431864231824875
1772789510421928200,6.60792822265625,0.0014300770126283169,0.0014172624796628952,0.0010427095694467425
1772789510431994000,6.617994140625,0.0012196872849017382,-0.00016545411199331284,-0.0015362956328317523
1772789510442060300,6.628060302734375,-0.0008152618538588285,0.00034615956246852875,-7.568742148578167e-7
1772789510452126200,6.638126220703125,-0.0005244442727416754,-0.00002828054130077362,0.0002250791876576841
1772789510462192400,6.6481923828125,-0.00132299168035388,-0.001034412533044815,0.00015653239097446203
1772789510472257000,6.658257080078125,-0.002024468034505844,0.001909712329506874,-0.0003324239805806428
1772789510482323200,6.6683232421875,0.003127543954178691,-0.0015137866139411926,0.0009828507900238037
1772789510492389000,6.67838916015625,-0.00029594963416457176,-0.0018245773389935493,1.4441320672631264e-7
1772789510502455300,6.688455322265625,0.0008118345867842436,0.00006357114762067795,0.0017384316306561232
1772789510512521200,6.698521240234375,0.0007226187735795975,0.0006468035280704498,0.0019837087020277977
1772789510522586400,6.70858642578125,-0.0003910064697265625,0.0003780210390686989,0.00045717728789895773
1772789510532652000,6.718652099609375,-0.002938053570687771,0.00005764234811067581,0.0015506712952628732
1772789510542718200,6.72871826171875,0.0037189049180597067,-0.00046456698328256607,-0.0016977142076939344
1772789510552784100,6.7387841796875,0.00020379852503538132,0.0009836601093411446,0.0010370858944952488
1772789510562850300,6.748850341796875,0.0004525398835539818,0.0019068606197834015,0.0006136634037829936
1772789510572916200,6.758916259765625,0.0002434819471091032,0.0009366711601614952,0.0005295074661262333
1772789510582981400,6.7689814453125,-0.0023448194842785597,0.0007063057273626328,-0.0001763901673257351
1772789510593047000,6.779047119140625,-0.0011988610494881868,0.0010258853435516357,0.0012175083393231034
1772789510603113200,6.78911328125,0.0005917861126363277,-0.0017366120591759682,-0.000392629619454965
1772789510613179100,6.79917919921875,0.0005110923666507006,-0.0014021191745996475,-0.00025121576618403196
1772789510623245300,6.809245361328125,-0.0001592598855495453,0.00034106429666280746,0.0014389618299901485
1772789510633310200,6.819310302734375,0.00096299615688622,-0.0009436449036002159,0.001457870239391923
1772789510643376400,6.82937646484375,0.0016066629905253649,0.0009818989783525467,-0.0022847033105790615
1772789510653442000,6.839442138671875,-0.00012838654220104218,-0.002854650840163231,0.00011027755681425333
1772789510663508200,6.84950830078125,-0.0006051016971468925,-0.0003956342115998268,-0.0016672189813107252
1772789510673574100,6.85957421875,0.0007879978511482477,-0.0008398490026593208,-0.001339117530733347
1772789510683639300,6.869639404296875,0.000434547895565629,-0.0022884737700223923,-0.0005672267870977521
1772789510693705200,6.879705322265625,0.0005221660248935223,0.0015802998095750809,-0.00021355901844799519
1772789510703771400,6.889771484375,-0.0006685219705104828,0.00028081052005290985,-0.0011766924289986491
1772789510713837000,6.899837158203125,-0.003049654420465231,-0.0005029579624533653,-0.00183955323882401
1772789510723903200,6.9099033203125,-0.0020329728722572327,0.002558995969593525,-0.00031315581873059273
1772789510733969200,6.91996923828125,0.0016320694703608751,-0.002061055973172188,0.0006807358586229384
1772789510744034300,6.930034423828125,-0.0008977605029940605,0.00017422158271074295,0.0009911325760185719
1772789510754100200,6.940100341796875,-0.00048177456483244896,-0.0009059570729732513,0.0005567711195908487
1772789510764166400,6.95016650390625,-0.0012253690510988235,-0.00005124136805534363,0.002077189739793539
1772789510774232000,6.960232177734375,-0.0016482793726027012,-0.00006136205047369003,0.001339227776043117
1772789510784298200,6.97029833984375,0.00037354929372668266,-0.002348245121538639,-0.0011248595546931028
1772789510794363100,6.980363037109375,-0.002254990627989173,0.0008566025644540787,-0.00019834586419165134
1772789510804429300,6.99042919921875,0.0017809740966185927,-0.00026026275008916855,-0.002221209928393364
1772789510814495200,7.0004951171875,0.001844357349909842,-0.0029412666335701942,0.001700294786132872
1772789510824561200,7.01056103515625,-0.0009898527059704065,-0.0010436717420816422,0.0008093747310340405
1772789510834627000,7.020626953125,-0.002268170239403844,0.0010005701333284378,0.00283737201243639
1772789510844692200,7.030692138671875,-0.000058599282056093216,0.001278604380786419,0.0007421475602313876
1772789510854758100,7.040758056640625,0.000536617124453187,0.0017001824453473091,0.00171899504493922
1772789510864824300,7.05082421875,0.000060264021158218384,-0.0006609857082366943,-0.0010318758431822062
1772789510874890200,7.06089013671875,0.0008826481644064188,-0.0011981446295976639,0.0025908220559358597
1772789510884956200,7.0709560546875,-0.0001367037184536457,0.0012370450422167778,0.0007951365550979972
1772789510895022000,7.08102197265625,0.0017243132460862398,0.0010620756074786186,-0.00024083306198008358
1772789510905087200,7.091087158203125,0.0005835834890604019,-0.0008716145530343056,0.0012638450134545565
1772789510915153200,7.101153076171875,-0.0003668984863907099,-0.000014076009392738342,-0.0005758666666224599
1772789510925219300,7.11121923828125,0.0006337410304695368,-0.0010525090619921684,0.001696659019216895
1772789510935285200,7.12128515625,-0.0025447416119277477,-0.0015931306406855583,0.0015057104174047709
1772789510945351200,7.13135107421875,0.0006483823526650667,-0.0019045695662498474,0.0018394545186311007
1772789510955416300,7.141416259765625,0.0002760724164545536,0.0004946719855070114,0.002997663337737322
1772789510965482200,7.151482177734375,-0.000641736900433898,0.0008225953206419945,-0.0007451287237927318
1772789510975548200,7.161548095703125,0.001110090408474207,-0.0008565271273255348,0.0008176141418516636
1772789510985614300,7.1716142578125,0.00025189085863530636,0.00020583346486091614,0.0021687769331038
1772789510995680300,7.18168017578125,-0.0005111049395054579,0.0017225034534931183,0.0010337376734241843
1772789511005745200,7.1917451171875,0.0017012861790135503,0.000838826410472393,0.0014888818841427565
1772789511015811300,7.201811279296875,0.00016410951502621174,-0.0016472339630126953,-0.002451264997944236
1772789511025877200,7.211877197265625,-0.0008656755089759827,0.0005999933928251266,0.0011225281050428748
1772789511035943200,7.221943115234375,-0.0015453142113983631,0.0007688375189900398,0.00009508052607998252
1772789511046009300,7.23200927734375,0.0004496052861213684,-0.0019305841997265816,-0.001260848599486053
1772789511056074200,7.24207421875,-0.0009008839260786772,0.0008540162816643715,0.00013837619917467237
1772789511066140200,7.25214013671875,-0.00012552482075989246,-0.0010653631761670113,0.0009979698807001114
1772789511076206000,7.2622060546875,0.0027722606901079416,0.0010047117248177528,0.00005201506428420544
1772789511086272300,7.272272216796875,-0.001169844064861536,-0.0004283599555492401,-0.000979990465566516
1772789511096338200,7.282338134765625,-0.0008121817372739315,0.000704549252986908,-0.0001557421637699008
1772789511106403300,7.2924033203125,-0.0008243415504693985,-0.0000462094321846962,0.0009262201492674649
1772789511116469200,7.30246923828125,0.0021767746657133102,-0.002469685859978199,0.00006522017065435648
1772789511126535200,7.31253515625,0.0001834931317716837,0.0023104334250092506,0.00014051509788259864
1772789511136601000,7.32260107421875,-0.0007131933234632015,-0.0012334352359175682,0.0007724831812083721
1772789511146667300,7.332667236328125,0.0013246142771095037,-0.0030238665640354156,-0.0011863895924761891
1772789511156732400,7.342732421875,0.0018029180355370045,0.0007245326414704323,-0.000938981887884438
1772789511166798300,7.35279833984375,-0.00037788739427924156,-0.0010876134037971497,0.0009087591897696257
1772789511176864300,7.3628642578125,0.006131943315267563,-0.0002886652946472168,-0.0005700940964743495
1772789511186930200,7.37293017578125,0.001068056095391512,-0.0019062599167227745,0.0013737541157752275
1772789511196996000,7.38299609375,-0.0004914910532534122,0.0006615603342652321,0.00007333268877118826
1772789511207062300,7.393062255859375,0.0011201296001672745,-0.00036282744258642197,-0.00009539106395095587
1772789511217127400,7.40312744140625,0.00352203450165689,-0.0019777687266469,-0.0018019445706158876
1772789511227193300,7.413193359375,0.0007788203656673431,0.0011104000732302666,0.0004883705987595022
1772789511237259300,7.42325927734375,0.00242784945294261,-0.0009759208187460899,0.0029717683792114258
1772789511247325200,7.4333251953125,0.0007010325789451599,-0.0012159068137407303,-0.00039448103052563965
1772789511257390300,7.443390380859375,-0.0007192313205450773,0.0006669480353593826,-0.001768938498571515
1772789511267456300,7.453456298828125,0.000734775559976697,-0.0009941263124346733,0.00021381198894232512
1772789511277522400,7.4635224609375,0.0004791119135916233,0.0005747415125370026,0.0012055730912834406
1772789511287588000,7.473588134765625,0.0008753321599215269,0.0005091410130262375,0.0022189952433109283
1772789511297653800,7.48365380859375,-0.0009830216877162457,-0.0010312311351299286,0.001212586765177548
1772789511307719700,7.4937197265625,-0.0011842907406389713,-0.0017120540142059326,0.000019537110347300768
1772789511317784600,7.50378466796875,0.0016059030313044786,-0.0019413521513342857,-0.000583668879698962
1772789511327850500,7.5138505859375,-0.00046538095921278,0.0006505008786916733,-0.000051710638217628
1772789511337916700,7.523916748046875,0.000417190371081233,-0.0009753592312335968,0.0007296607946045697
1772789511347982600,7.533982666015625,-0.0009317155927419662,-0.00210556760430336,-0.001474935095757246
1772789511358048800,7.544048828125,0.0006097222212702036,0.0015022167935967445,0.004045265261083841
1772789511368113400,7.554113525390625,0.0006841926369816065,0.0010374393314123154,0.0004969513975083828
1772789511378179600,7.5641796875,0.001605912810191512,0.0003950847312808037,0.0008562118746340275
1772789511388245500,7.57424560546875,0.0007689818739891052,0.000067930668592453,-0.00022130680736154318
1772789511398311700,7.584311767578125,0.0012669931165874004,-0.001442081294953823,-0.000919853919185698
1772789511408377600,7.594377685546875,-0.00040572998113930225,0.0003207661211490631,0.004617637023329735
1772789511418442800,7.60444287109375,0.00018389406614005566,0.0001548510044813156,0.0025161365047097206
1772789511428508400,7.61450830078125,0.0019112947629764676,0.000016174279153347015,0.0003330003237351775
1772789511438574600,7.62457470703125,-0.00031564035452902317,0.0029065031558275223,-0.00020016456255689263
1772789511448640500,7.634640625,0.0015560777392238379,-0.00046655070036649704,-0.0010172732872888446
1772789511458705700,7.64470556640625,-0.00102559057995677,0.0009300112724304199,-0.0009014257811941206
1772789511468771600,7.654771484375,-0.0007117856293916702,-0.0015460215508937836,0.0005812275921925902
1772789511478837800,7.664837646484375,-0.0016942257061600685,-0.00019340217113494873,-0.002013756427913904
1772789511488903400,7.6749033203125,0.0007257305551320314,-0.0003376957029104233,-0.00038551297620870173
1772789511498969600,7.684969482421875,-0.001935566309839487,-0.0013209348544478416,-0.0007873839931562543
1772789511509034800,7.69503466796875,-0.0014844948891550303,-0.0007870960980653763,-0.0012714151525869966
1772789511519100700,7.7051005859375,0.0014252748806029558,0.00037670601159334183,0.00047109107254073024
1772789511529166600,7.71516650390625,0.0011720550246536732,0.00009899120777845383,-0.0012096860446035862
1772789511539232800,7.725232666015625,0.00044874055311083794,0.0007077902555465698,-0.0019513764418661594
1772789511549298400,7.73529833984375,0.001873961417004466,0.0010251468047499657,-0.0004540664958767593
1772789511559363600,7.745363525390625,0.0000859149731695652,0.0008171536028385162,-0.000038080732338130474
1772789511569429800,7.7554296875,-0.0018600823823362589,-0.002807912416756153,-0.002813839353621006
1772789511579495700,7.76549560546875,0.0007191894110292196,0.0006944108754396439,-0.00046652922173961997
1772789511589561600,7.7755615234375,-0.0002702954225242138,0.002522260881960392,-0.00013181357644498348
1772789511599627500,7.78562744140625,-0.0019709900952875614,-0.00031187571585178375,0.001577136805281043
1772789511609692700,7.795692626953125,0.0009463573805987835,0.0029895175248384476,-0.00027475471142679453
1772789511619758600,7.805758544921875,0.000418252544477582,0.001235293224453926,0.0007039570482447743
1772789511629824500,7.815824462890625,-0.0012884633615612984,-0.001004100777208805,0.00046849483624100685
1772789511639890700,7.825890625,0.0008316789753735065,0.0012028608471155167,-0.0011770724086090922
1772789511649956600,7.83595654296875,-0.0019486781675368547,-0.00010709371417760849,-0.002140810713171959
1772789511660021500,7.846021484375,0.000059877755120396614,-0.0016663745045661926,-0.0027789040468633175
1772789511670087700,7.856087646484375,-0.000566462054848671,0.00045133475214242935,-0.00009251793380826712
1772789511680153600,7.866153564453125,-0.0015832572244107723,0.0009293723851442337,0.0013397301081568003
1772789511690219500,7.876219482421875,0.0005589330103248358,0.0017192978411912918,0.000644724234007299
1772789511700285700,7.88628564453125,-0.0021391157060861588,0.0009983805939555168,0.0016519316704943776
1772789511710350600,7.8963505859375,-0.0008940347470343113,0.0023069391027092934,-0.0023053258191794157
1772789511720416500,7.90641650390625,-0.00045780930668115616,0.0009306175634264946,-0.00024750118609517813
1772789511730482700,7.916482666015625,0.0014053555205464363,0.0008412264287471771,0.001986420014873147
1772789511740548600,7.926548583984375,0.00042238272726535797,0.0008433572947978973,0.002667123917490244
1772789511750614500,7.936614501953125,-0.0011246823705732822,-0.002793429419398308,0.000524098752066493
1772789511760679700,7.9466796875,0.0010268853511661291,0.000040706247091293335,-0.0027198977768421173
1772789511770745600,7.95674560546875,0.0005983295850455761,-0.001672164537012577,-0.00005028070881962776
1772789511780811500,7.9668115234375,0.0013914189767092466,0.0016581183299422264,0.0018877014517784119
1772789511790877700,7.976877685546875,0.001208470668643713,0.0014948640018701553,-0.0010363366454839706
1772789511800942600,7.986942626953125,0.0002739676274359226,0.001510842703282833,0.001316033536568284
1772789511811008800,7.9970087890625,0.0010332982055842876,0.0004038652405142784,0.001160885556600988
1772789511821074700,8.00707470703125,-0.0013888466637581587,0.001026778481900692,0.001771015813574195
1772789511831139600,8.0171396484375,-0.001507953042164445,-0.0013969093561172485,0.0020643994212150574
1772789511841205500,8.02720556640625,0.0002116500400006771,0.0008968710899353027,-0.0005518897669389844
1772789511851271700,8.037271728515625,-0.0031874212436378,0.0013674786314368248,0.0002644117921590805
1772789511861337600,8.047337646484374,-0.0008142786100506783,0.0010974342003464699,-0.0004631638585124165
1772789511871403800,8.05740380859375,-0.0007860600017011166,-0.00008133798837661743,0.0006832564831711352
1772789511881468400,8.067468505859376,-0.0008595632389187813,-0.002016657032072544,0.0008840588270686567
1772789511891534600,8.07753466796875,-0.0006882455199956894,0.0021810177713632584,-0.0034945958759635687
1772789511901600500,8.0876005859375,-0.0007777279242873192,-0.0010539237409830093,0.0015867152251303196
1772789511911666700,8.097666748046874,0.0017143788281828165,0.00209797453135252,-0.0017012138850986958
1772789511921731600,8.107731689453125,0.0007324714679270983,-0.0006141886115074158,-0.00011263834312558174
1772789511931797500,8.117797607421876,0.0007880972698330879,-0.0016836412250995636,-0.001858837902545929
1772789511941863400,8.127863525390625,-0.00009420793503522873,0.0028405366465449333,-0.000450824765721336
1772789511951929600,8.1379296875,0.0017075184732675552,-0.0006821034476161003,-0.0007753783138468862
1772789511961995500,8.14799560546875,0.0007194855716079473,-0.00010526273399591446,0.00018975127022713423
1772789511972060700,8.158060791015625,0.0006889351643621922,0.0016660690307617188,-0.0006509094382636249
1772789511982126600,8.168126708984374,-0.0022352158557623625,-0.0019611557945609093,-0.0005347955739125609
1772789511992192500,8.178192626953125,-0.0016200363170355558,0.0005644159391522408,-0.000759345421101898
1772789512002258400,8.188258544921876,0.000676407478749752,-0.0004885978996753693,-0.0009154066792689264
1772789512012324600,8.19832470703125,0.0011293231509625912,-0.0001371242105960846,0.0010111561277881265
1772789512022389800,8.2083896484375,-0.000953801441937685,0.0005853911861777306,-0.000061032536905258894
1772789512032455700,8.21845556640625,-0.0028720954433083534,-0.002171420492231846,-0.0003964592469856143
1772789512042521600,8.228521484375,-0.0018821987323462963,0.001791096292436123,0.0007114157779142261
1772789512052587500,8.23858740234375,0.0006837353575974703,-0.0014186212792992592,0.0018203745130449533
1772789512062652700,8.248652587890625,-0.0014159008860588074,-0.002002919092774391,0.000004098634235560894
1772789512072718600,8.258718505859376,-0.0012806691229343414,0.0010055173188447952,-0.000779223395511508
1772789512082784800,8.26878466796875,-0.0008204751648008823,-0.0015503186732530594,0.0010285304160788655
1772789512092850700,8.2788505859375,-0.0011495284270495176,0.0015910295769572258,0.0016201965045183897
1772789512102916600,8.28891650390625,0.0004912449512630701,0.00037289969623088837,0.00293020554818213
1772789512112981500,8.2989814453125,0.00010656844824552536,-0.00278349407017231,-0.00016406300710514188
1772789512123047700,8.309047607421874,0.0006194934248924255,0.0008131051436066628,-0.002204576972872019
1772789512133113600,8.319113525390625,0.000134302768856287,-0.0012789806351065636,-0.0013307379558682442
1772789512143179800,8.3291796875,0.00037052505649626255,0.00013888627290725708,-0.0007746699266135693
1772789512153245700,8.33924560546875,0.0016365870833396912,-0.0021866681054234505,-0.001098437001928687
1772789512163310600,8.349310546875,0.0018256715266034007,-0.0015413835644721985,0.0017338348552584648
1772789512173376500,8.35937646484375,-0.00116218370385468,-0.00027361512184143066,-0.00023919413797557354
1772789512183442700,8.369442626953125,0.0002849777229130268,-0.0005074404180049896,0.0015299436636269093
1772789512193508600,8.379508544921874,-0.0007536946795880795,0.0006569903343915939,0.00030771305318921804
1772789512203573800,8.38957373046875,-0.0010032327845692635,-0.000763540156185627,0.0021956278942525387
1772789512213639400,8.399639404296876,-0.00008209212683141232,-0.0010879402980208397,0.00028645654674619436
1772789512223705600,8.40970556640625,0.002897985279560089,0.0002532275393605232,-0.0035418374463915825
1772789512233771500,8.419771484375,-0.0022047495003789663,0.0006832526996731758,0.0017511521000415087
1772789512243837700,8.429837646484375,0.0020437913481146097,0.0007868492975831032,-0.0003229176509194076
1772789512253902600,8.439902587890625,-0.0016064522787928581,0.0017247432842850685,0.0011287957895547152
1772789512263968800,8.44996875,-0.0008948557078838348,-0.0018116682767868042,0.001289384439587593
1772789512274034400,8.460034423828125,-0.0005755322054028511,0.0014236578717827797,-0.000712271430529654
1772789512284100600,8.4701005859375,-0.0010269377380609512,-0.0015995623543858528,0.00019773078383877873
1772789512294166500,8.48016650390625,-0.0021507609635591507,0.0000798739492893219,0.00006982008926570415
1772789512304232700,8.490232666015626,0.0009049498476088047,-0.0019979244098067284,0.0015063290484249592
1772789512314298400,8.50029833984375,-0.003148868912830949,-0.00035031698644161224,-0.0010845420183613896
1772789512324364500,8.510364501953125,0.002645370550453663,-0.00022115372121334076,0.001041459501720965
1772789512334430500,8.520430419921874,0.00020924746058881283,0.0015898523852229118,0.0011922500561922789
1772789512344495600,8.53049560546875,-0.0006312460172921419,-0.000267968513071537,0.0010484394151717424
1772789512354561500,8.5405615234375,0.001579507952556014,-0.0005338974297046661,-0.0027888971380889416
1772789512364627700,8.550627685546875,0.0014447520952671766,-0.000834035687148571,-0.0002825962728820741
1772789512374693400,8.560693359375,0.00168822449631989,0.0007524723187088966,-0.0003099949099123478
1772789512384759600,8.570759521484375,0.002721264725551009,0.0020648781210184097,-0.0006290415767580271
1772789512394824400,8.580824462890625,0.0002261109184473753,-0.0014971746131777763,-0.0011883786646649241
1772789512404890600,8.590890625,0.0025742200668901205,0.0017675943672657013,-0.00003576255403459072
1772789512414956500,8.60095654296875,0.00016478495672345161,-0.0001025516539812088,-0.0008414580370299518
1772789512425022700,8.611022705078126,-0.0007316351402550936,0.0006500575691461563,0.0007745480979792774
1772789512435087400,8.62108740234375,0.000871793832629919,-0.000008505769073963165,0.0012989930110052228
1772789512445153500,8.631153564453125,0.00029308884404599667,0.00004102848470211029,0.00098154426086694
1772789512455219500,8.641219482421874,0.0007601894903928041,0.0007910290732979774,0.000044166401494294405
1772789512465285600,8.65128564453125,-0.0009548861999064684,0.0010602744296193123,-0.00038726566708646715
1772789512475351600,8.6613515625,-0.0023204756435006857,0.0029284972697496414,-0.002229094272479415
1772789512485416400,8.67141650390625,-0.0031545779202133417,-0.001033487729728222,0.0002255412982776761
1772789512495482400,8.681482421875,-0.0012740963138639927,-0.0014753947034478188,-0.0009702917304821312
1772789512505548500,8.691548583984375,-0.0009430656209588051,-0.0023872610181570053,-0.0016315546818077564
1772789512515614500,8.701614501953125,0.0007187081500887871,-0.0036916984245181084,0.0018669962882995605
1772789512525679600,8.7116796875,0.0008992704097181559,0.000584539957344532,0.0009351562475785613
1772789512535745300,8.721745361328125,0.000992647372186184,0.0004957932978868484,0.002307422226294875
1772789512545811500,8.7318115234375,-0.0009000611025840044,-0.00044004153460264206,-0.002333934884518385
1772789512555877400,8.74187744140625,0.00013834936544299126,0.002445526421070099,0.0007084932294674218
1772789512565943600,8.751943603515626,0.0009138619061559439,-0.000657321885228157,-0.0000542360357940197
1772789512576008400,8.762008544921875,-0.0007796837016940117,0.001032806932926178,-0.00021069456124678254
1772789512586074600,8.77207470703125,0.00010901340283453465,-0.0006404565647244453,-0.0029383040964603424
1772789512596140300,8.782140380859374,0.0002384569961577654,-0.0007419409230351448,0.000971267931163311
1772789512606206500,8.79220654296875,-0.00020762253552675247,0.002985685132443905,0.00015580805484205484
1772789512616271600,8.802271728515626,0.0012554933782666922,-0.002198445610702038,0.001655733329243958
1772789512626337500,8.812337646484375,-0.0007842215709388256,0.0003725700080394745,0.0018581337062641978
1772789512636403500,8.822403564453126,-0.0003160333726555109,-0.0010483302175998688,0.0021217348985373974
1772789512646469600,8.8324697265625,-0.0022803808096796274,-0.00043314043432474136,0.00016164843691512942
1772789512656535300,8.842535400390625,-0.0006488300859928131,0.0012488383799791336,0.000025237968657165766
1772789512666600400,8.852600341796874,-0.0023612426593899727,-0.0011621210724115372,-0.0031524458900094032
1772789512676666600,8.86266650390625,0.002524204086512327,0.00043967366218566895,0.00112618668936193
1772789512686732500,8.872732666015626,0.00023468444123864174,0.0009480705484747887,-0.0008059366955421865
1772789512696798500,8.882798583984375,-0.0020663030445575714,-0.0012746835127472878,-0.00014774478040635586
1772789512706863400,8.89286328125,-0.002135545015335083,-0.00014017708599567413,-0.0011022216640412807
1772789512716929500,8.902929443359374,-0.0003281356766819954,-0.003092239610850811,0.001055687083862722
1772789512726995500,8.912995361328125,0.0007371290121227503,-0.0011569205671548843,-0.001389361103065312
1772789512737061400,8.923061279296874,-0.0016228188760578632,0.00020778179168701172,0.0016425377689301968
1772789512747126500,8.93312646484375,0.00031835935078561306,-0.0013661468401551247,0.00015036860713735223
1772789512757192400,8.9431923828125,-0.0018289070576429367,0.0016680657863616943,0.0016097273910418153
1772789512767258400,8.95325830078125,0.0006062875036150217,-0.001371133141219616,0.0007569831795990467
1772789512777324500,8.963324462890625,-0.0003060142043977976,-0.002087332308292389,0.0007392694242298603
1772789512787390500,8.973390380859374,0.0029781959019601345,-0.004993639886379242,-0.00002559041604399681
1772789512797455600,8.98345556640625,0.0006021235603839159,-0.0011030090972781181,-0.0015594575088471174
1772789512807521500,8.993521484375,-0.0005488945171236992,-0.0003123162314295769,0.0018320782110095024
1772789512817587500,9.00358740234375,0.0012147019151598215,-0.00013823248445987701,-0.0011617381824180484
1772789512827653400,9.0136533203125,-0.00007213745266199112,-0.0006780549883842468,-0.0003465445770416409
1772789512837718500,9.023718505859375,0.001313157845288515,-0.00018829479813575745,0.000031624920666217804
1772789512847784400,9.033784423828125,-0.0006794193759560585,-0.0016133524477481842,-0.00046185884275473654
1772789512857850600,9.0438505859375,-0.0018288653809577227,0.00020001176744699478,0.0011514867655932903
1772789512867916500,9.05391650390625,-0.0008701274637132883,0.0026637017726898193,0.002828212920576334
1772789512877981400,9.0639814453125,-0.0038018771447241306,-0.0005340036004781723,0.00004397024167701602
1772789512888047400,9.07404736328125,0.000040265265852212906,0.0018497919663786888,0.0016368068754673004
1772789512898113500,9.084113525390626,0.0018776794895529747,0.0009589698165655136,0.00031709630275145173
1772789512908179500,9.094179443359375,-0.004072887822985649,-0.0019515994936227798,0.004489737097173929
1772789512918245600,9.10424560546875,0.0006386784370988607,-0.001666317693889141,-0.001277982722967863
1772789512928310300,9.114310302734374,-0.0012391165364533663,0.000582987442612648,-0.000010051706340163946
1772789512938376400,9.12437646484375,-0.00003723171539604664,0.000028296373784542084,0.000019365688785910606
1772789512948442400,9.1344423828125,-0.0003317771479487419,-0.0007035406306385994,0.0015706571284681559
1772789512958508500,9.144508544921875,0.0018312640022486448,0.00015317369252443314,-0.00023664010223001242
1772789512968573700,9.15457373046875,0.0005359025672078133,-0.00003590993583202362,-0.00013943470548838377
1772789512978639600,9.1646396484375,0.0015774322673678398,-0.002020442858338356,-0.002045057015493512
1772789512988705300,9.174705322265625,0.00013426528312265873,0.00044830702245235443,0.00010251603089272976
1772789512998771500,9.184771484375,0.002294854260981083,-0.002868160605430603,-0.0013182626571506262
1772789513008837400,9.19483740234375,0.00017417920753359795,0.0018946370109915733,-0.0007038713083602488
1772789513018902500,9.204902587890626,0.0019005347276106477,0.0009966632351279259,0.00006512581603601575
1772789513028968400,9.214968505859375,-0.0005509050097316504,-0.000590047799050808,0.0005769854178652167
1772789513039034600,9.22503466796875,0.0018156012520194054,0.001520240679383278,-0.0019795545376837254
1772789513049100300,9.235100341796874,0.0006712409667670727,0.0007617725059390068,-0.00205385684967041
1772789513059165400,9.24516552734375,-0.0010076561011373997,0.0005714623257517815,-0.00020590791245922446
1772789513069231600,9.255231689453124,-0.0007828851230442524,0.0014601591974496841,-0.0009068518993444741
1772789513079297500,9.265297607421875,0.0017178638372570276,-0.0010309210047125816,-0.0007317890413105488
1772789513089363500,9.275363525390626,0.0006909489165991545,0.00017336104065179825,-0.001283063436858356
1772789513099428400,9.285428466796875,-0.0008563026785850525,-0.00017055682837963104,0.002178350929170847
1772789513109494500,9.29549462890625,-0.002370043657720089,-0.0027013588696718216,0.00014289701357483864
1772789513119560400,9.305560546875,-0.0026984582655131817,0.0004840157926082611,0.0016507850959897041
1772789513129626600,9.315626708984375,-0.0002430237364023924,-0.0009615477174520493,-0.001115972874686122
1772789513139692500,9.325692626953124,-0.00013760989531874657,-0.0010364148765802383,0.0005107239121571183
1772789513149757400,9.33575732421875,-0.0022564209066331387,-0.0009141750633716583,-0.0008458903175778687
1772789513159823400,9.3458232421875,-0.0008418916258960962,-0.0005644634366035461,0.0020002247765660286
1772789513169889500,9.3558896484375,0.0010822424665093422,0.002588452771306038,-0.001318872906267643
1772789513179955500,9.36595556640625,-0.0021518717985600233,-0.0024677980691194534,0.0007637034286744893
1772789513190020600,9.3760205078125,-0.0012807517778128386,0.0008845888078212738,-0.0009710796875879169
1772789513200086500,9.38608642578125,0.0007426866795867682,-0.0008013751357793808,0.0016424354398623109
1772789513210152400,9.39615234375,-0.0013995601329952478,-0.000840524211525917,-0.003397597000002861
1772789513220218400,9.40621826171875,-0.00018657860346138477,-0.002597660757601261,0.0005948483594693244
1772789513230283500,9.416283447265625,0.0016531329602003098,-0.001561158336699009,-0.00042194657726213336
1772789513240349400,9.426349365234374,-0.000039708102121949196,-0.0003006858751177788,-0.0004966397536918521
1772789513250415600,9.43641552734375,0.00164767075330019,0.00044686347246170044,-0.0010899920016527176
1772789513260481500,9.4464814453125,-0.001374855637550354,-0.0005293544381856918,0.0005176725680939853
1772789513270546400,9.45654638671875,0.00008695339784026146,0.0014365911483764648,0.00005934247747063637
1772789513280612400,9.4666123046875,-0.0012655637692660093,-0.0017168931663036346,0.0033358712680637836
1772789513290678500,9.476678466796875,-0.00057793571613729,0.0006091119721531868,-0.0014335836749523878
1772789513300744400,9.486744384765625,-0.0006722011603415012,-0.0025313235819339752,0.0011242972686886787
1772789513310810600,9.496810546875,-0.001049571204930544,0.0007880404591560364,-0.0002477633533999324
1772789513320875500,9.50687548828125,0.0001738599967211485,-0.001390252262353897,0.0007149626035243273
1772789513330941400,9.51694140625,-0.000022415071725845337,0.0000012498348951339722,-0.0009497793507762253
1772789513341007400,9.52700732421875,-0.0017024953849613667,-0.0011140257120132446,-0.0016791922971606255
1772789513351073500,9.537073486328126,0.0012472216039896011,-0.00007432699203491211,-0.0018411125056445599
1772789513361138700,9.547138671875,-0.0009175275918096304,0.00019222497940063477,-0.0020761473570019007
1772789513371204400,9.557204345703125,0.00010086526162922382,0.0015413826331496239,0.00104933837428689
1772789513381270500,9.5672705078125,-0.0021348523441702127,0.0007326016202569008,-0.0016913114814087749
1772789513391336400,9.57733642578125,0.0009578766766935587,-0.0015603797510266304,0.0006429492495954037
1772789513401401600,9.587401611328126,0.00025902618654072285,0.0008319159969687462,-0.0008291677804663777
1772789513411467500,9.597467529296875,-0.0021985387429594994,-0.00176200270652771,-0.0003902788448613137
1772789513421533700,9.60753369140625,-0.000033259158954024315,-0.0002431236207485199,0.0005268424865789711
1772789513431599400,9.617599365234375,0.00045143626630306244,0.000629594549536705,-0.0007336316630244255
1772789513441665500,9.62766552734375,-0.0015030468348413706,0.0012194318696856499,-0.0009229662828147411
1772789513451730400,9.63773046875,-0.0009965135250240564,0.0024942876771092415,0.0013436501612886786
1772789513461796600,9.647796630859375,0.0005218286532908678,-0.00275273434817791,-0.00020130816847085953
1772789513471862500,9.657862548828126,-0.0019719554111361504,-0.0005311248824000359,0.00019816600251942873
1772789513481928700,9.6679287109375,-0.0012898282147943974,-0.00005959067493677139,0.0007255901000462472
1772789513491993300,9.677993408203125,0.001580527052283287,0.0007076654583215714,0.0015434466768056154
1772789513502059500,9.6880595703125,0.0008132020011544228,-0.00175513606518507,-0.0008114382508210838
1772789513512125400,9.69812548828125,-0.002033184515312314,0.0009815283119678497,-0.0006292780162766576
1772789513522191600,9.708191650390624,0.0014263035263866186,0.0006689690053462982,-0.0017907515866681933
1772789513532256500,9.718256591796875,-0.0012863923329859972,-0.0000034794211387634277,-0.0011167055927217007
1772789513542322400,9.728322509765626,-0.0011230306699872017,0.0021303510293364525,0.0008736107847653329
1772789513552388400,9.738388427734375,0.000550499651581049,0.0028659161180257797,-0.0024010122288018465
1772789513562454500,9.74845458984375,0.0014085185248404741,-0.0023517804220318794,-0.0025318097323179245
1772789513572519400,9.75851953125,0.0023621965665370226,0.002291440963745117,0.0015990192769095302
1772789513582585600,9.768585693359375,-0.0010635845828801394,-0.001240752637386322,-0.0010673388605937362
1772789513592651500,9.778651611328126,0.0036451504565775394,-0.0007917433977127075,-0.00021219783229753375
1772789513602717400,9.788717529296875,0.0006270362064242363,-0.0008649565279483795,0.001784107880666852
1772789513612782600,9.798782470703125,0.0005780339706689119,-0.003997898660600185,-0.002051643095910549
1772789513622848500,9.8088486328125,0.00028577540069818497,0.001338990405201912,-0.00010015984298661351
1772789513632914400,9.81891455078125,0.000292433425784111,-0.00048234593123197556,0.00009105511708185077
1772789513642980600,9.828980712890624,-0.0006351529154926538,-0.0012882696464657784,-0.00028643873520195484
1772789513653046300,9.83904638671875,-0.0013350315857678652,0.0012798169627785683,-0.0015210802666842937
1772789513663111400,9.849111328125,0.0007978517096489668,-0.0010708300396800041,-0.0012051570229232311
1772789513673177600,9.859177490234375,-0.0007968493737280369,-0.0018314290791749954,0.0012992795091122389
1772789513683243500,9.869243408203126,0.0005135438404977322,0.0006503267213702202,0.00036499527050182223
1772789513693309400,9.879309326171875,-0.0021871679928153753,0.0006021242588758469,0.00038230576319620013
1772789513703374300,9.889374267578125,0.00028075603768229485,0.0012799520045518875,0.001681787776760757
1772789513713440500,9.8994404296875,0.0007899522315710783,0.0004884609952569008,-0.001947301672771573
1772789513723506400,9.90950634765625,0.0017992836656048894,0.002003914676606655,0.00034038053127005696
1772789513733572600,9.919572509765626,0.001914065913297236,-0.0006294194608926773,-0.001251124544069171
1772789513743637500,9.929637451171875,0.0006278869695961475,0.000841410830616951,0.0017031088937073946
1772789513753703700,9.93970361328125,-0.001227004686370492,-0.001546911895275116,-0.0020849716383963823
1772789513763769300,9.949769287109374,0.0011345057282596827,-0.0003992440178990364,-0.0007818012963980436
1772789513773835500,9.95983544921875,0.0013329111970961094,0.0014761537313461304,0.000005162786692380905
1772789513783900400,9.969900390625,-0.003035925794392824,0.0003846278414130211,-0.0012201466597616673
1772789513793966600,9.979966552734375,0.0008291199337691069,-0.0005581313744187355,-0.002061705570667982
1772789513804032500,9.990032470703126,0.00003948691301047802,-0.0006881775334477425,0.00029981008265167475
1772789513814098700,10.0000986328125,0.0012152725830674171,0.0008143782615661621,0.0011176668340340257
1772789513824163300,10.010163330078125,0.0019414711277931929,0.00017360318452119827,-0.00007199746323749423
1772789513834229500,10.0202294921875,-0.0001256745308637619,-0.0006216168403625488,-0.0011702850461006165
1772789513844295400,10.03029541015625,-0.0003488555084913969,-0.00028010644018650055,0.0005621901364065707
1772789513854361600,10.040361572265626,-0.0008244963828474283,-0.0007014190778136253,0.00023621920263394713
1772789513864426500,10.050426513671875,0.00037024240009486675,-0.002010779455304146,-0.003067612648010254
1772789513874492400,10.060492431640625,0.00022430135868489742,-0.00032206904143095016,0.0001383007620461285
1772789513884558300,10.070558349609374,-0.0031209455337375402,0.00005228724330663681,-0.001237278338521719
1772789513894624500,10.08062451171875,0.00004475424066185951,0.0001622755080461502,-0.00007827061926946044
1772789513904690400,10.0906904296875,-0.0006550382822751999,0.0005745822563767433,-0.0020878342911601067
1772789513914755600,10.100755615234375,0.0004251399077475071,-0.0005026664584875107,-0.0009975360007956624
1772789513924821500,10.110821533203126,-0.0008894894272089005,-0.002313191071152687,0.0015360224060714245
1772789513934887400,10.120887451171875,-0.0010333000682294369,0.0021310923621058464,-0.0007321919547393918
1772789513944953300,10.130953369140625,-0.0010352195240557194,0.000967138446867466,-0.0007449990371242166
1772789513955018500,10.1410185546875,0.0008633476682007313,0.0018017729744315147,-0.0015063968021422625
1772789513965084700,10.151084716796875,-0.0005323672667145729,-0.001285376027226448,-0.00017282390035688877
1772789513975150600,10.161150634765624,-0.0008002812974154949,-0.00021132361143827438,0.00019655656069517136
1772789513985216300,10.17121630859375,-0.0005167829804122448,0.0011486653238534927,-0.00045619189040735364
1772789513995281400,10.181281494140626,-0.0019096164032816887,-0.0004178062081336975,0.0017283991910517216
1772789514005347600,10.19134765625,-0.00016401894390583038,0.0002803448587656021,0.004022929351776838
1772789514015413500,10.20141357421875,-0.00029850867576897144,-0.00012472178786993027,0.0011981145944446325
1772789514025479700,10.211479736328124,0.0008172267116606236,-0.0005243448540568352,0.002133735688403249
1772789514035544300,10.22154443359375,0.000553307356312871,-0.00039198528975248337,-0.0030551673844456673
1772789514045610500,10.231610595703126,-0.0004835852887481451,-0.0006431527435779572,0.0023106280714273453
1772789514055676400,10.241676513671875,0.00002667633816599846,0.0004543354734778404,0.0006634627934545279
1772789514065742600,10.25174267578125,0.00004228600300848484,0.0014028195291757584,-0.0012605844531208277
1772789514075807500,10.261807373046874,0.0000896903220564127,-0.0003942809998989105,0.0013525092508643866
1772789514085873700,10.271873779296875,-0.0006487581413239241,0.0015737824141979218,-0.002095191041007638
1772789514095939300,10.281939208984374,-0.001463152701035142,0.0003178352490067482,0.0007756966515444219
1772789514106005500,10.292005615234375,-0.0030877236276865005,0.0008783983066678047,0.0012104939669370651
1772789514116070400,10.3020703125,-0.0005776942707598209,0.0018584420904517174,0.0022624426055699587
1772789514126136600,10.312136474609375,0.001823993632569909,0.00007719174027442932,0.0014269263483583927
1772789514136202500,10.322202392578125,-0.0013720658607780933,0.0019978629425168037,-0.0004503358795773238
1772789514146268700,10.3322685546875,0.00006517651490867138,-0.00039880722761154175,0.0006342375418171287
1772789514156333600,10.34233349609375,0.0027539038565009832,-0.0006757760420441628,-0.0013868353562429547
1772789514166399500,10.3523994140625,0.0017467895522713661,-0.00008502695709466934,-0.0008696680888533592
1772789514176465400,10.36246533203125,-0.0025877715088427067,-0.0010200627148151398,0.000012370874173939228
1772789514186531600,10.372531494140626,0.00007103360258042812,0.0020899679511785507,-0.0001957368804141879
1772789514196596500,10.382596435546875,0.0004846225492656231,-0.0006962316110730171,0.0011747258249670267
1772789514206662400,10.392662353515625,-0.0008447384461760521,-0.0011000754311680794,-0.001060842419974506
1772789514216728600,10.402728515625,-0.0024841800332069397,0.0009199324995279312,-0.0032227966003119946
1772789514226794500,10.41279443359375,0.0014045541174709797,-0.0005621090531349182,-0.0006652853335253894
1772789514236860400,10.4228603515625,-0.0018530245870351791,0.0002757217735052109,-0.001675422303378582
1772789514246925600,10.432925537109375,-0.00008826842531561852,-0.0010495837777853012,0.000325278437230736
1772789514256991500,10.442991455078126,0.0007799221202731133,0.0010324753820896149,-0.0016345418989658356
1772789514267057400,10.453057373046875,0.0005144050810486078,0.0016716616228222847,0.0007986768614500761
1772789514277123300,10.463123291015625,0.0003189290873706341,-0.001834123395383358,0.00024287519045174122
1772789514287188500,10.4731884765625,0.00039448821917176247,0.000690951943397522,-0.0005218826700001955
1772789514297254700,10.483254638671875,0.0026704256888478994,0.00011730659753084183,0.0005223428015597165
1772789514307325200,10.4933251953125,-0.0019164977129548788,0.0013040043413639069,-0.0010088204871863127
1772789514317391000,10.50339111328125,0.0013104546815156937,0.0035099005326628685,-0.00042718613985925913
1772789514327456000,10.5134560546875,-0.0010285335592925549,-0.0016531497240066528,0.0008213893743231893
1772789514337522000,10.52352197265625,-0.00029962649568915367,0.0009562158957123756,-0.0001277612172998488
1772789514347588000,10.533588134765624,-0.002024274319410324,0.00046056322753429413,-0.0008101398125290871
1772789514357654000,10.543654052734375,-0.0010663354769349098,0.000013684853911399841,0.0007366241188719869
1772789514367719200,10.55371923828125,0.00022692023776471615,-0.000010883435606956482,-0.002814499195665121
1772789514377785000,10.56378515625,0.00037658982910215855,-0.0012372694909572601,-0.0006834376836195588
1772789514387851000,10.57385107421875,0.000991057837381959,-0.0003024684265255928,-0.0009714371990412474
1772789514397917000,10.5839169921875,0.0012893318198621273,0.000754273496568203,-0.0008143106824718416
1772789514407982000,10.593982177734375,-0.0006826536264270544,-0.0009230347350239754,0.0005337630864232779
1772789514418048300,10.60404833984375,0.00020231492817401886,-0.00033420976251363754,0.0007960844086483121
1772789514428114200,10.6141142578125,0.00017646467313170433,-0.0016064923256635666,0.004090843256562948
1772789514438180000,10.62418017578125,-0.0019063937943428755,0.0004918118938803673,-0.0019681144040077925
1772789514448245000,10.634244873046875,0.00042745890095829964,-0.003055974841117859,-0.001067375997081399
1772789514458311200,10.644311279296875,-0.00014591962099075317,-0.0018660742789506912,0.001000302261672914
1772789514468377000,10.654377197265624,-0.0013486735988408327,-0.00021124258637428284,-0.0013196882791817188
1772789514478443300,10.664443359375,-0.0017556047532707453,-0.0021236585453152657,-0.00011833629105240107
1772789514488508200,10.674508056640626,0.00015259487554430962,-0.00003990624099969864,-0.0009294606279581785
1772789514498574000,10.684573974609375,-0.0010650022886693478,0.0011167051270604134,-0.0008080204715952277
1772789514508640000,10.694639892578126,-0.0015078331343829632,0.0015456005930900574,-0.0006998813478276134
1772789514518706200,10.7047060546875,0.0001899322960525751,-0.0008832020685076714,0.00046684948028996587
1772789514528771000,10.71477099609375,-0.0006843183655291796,-0.00004208087921142578,-0.000422993500251323
1772789514538837200,10.724837158203124,-0.0009562268387526274,-0.0007028114050626755,0.002358944620937109
1772789514548903200,10.734903076171875,-0.0011715036816895008,0.000636441633105278,0.0012253773165866733
1772789514558969000,10.744968994140624,0.0026631816290318966,0.001979473978281021,-0.0007528187707066536
1772789514569034000,10.755033935546875,0.0005217897705733776,-0.00004319567233324051,-0.0011195654515177011
1772789514579100200,10.76510009765625,-0.002187710488215089,-0.0006618481129407883,0.0011166909243911505
1772789514589166000,10.775166015625,0.0007459872867912054,-0.00047899316996335983,-0.0020304168574512005
1772789514599232300,10.785232177734375,0.0007888642139732838,0.000044850632548332214,0.0010995964985340834
1772789514609297200,10.795297119140624,-0.00020149187184870243,0.0008918792009353638,0.00029637926490977407
1772789514619363000,10.805363037109375,0.0001428548712283373,0.000415971502661705,0.0008567083277739584
1772789514629429000,10.815428955078126,0.00013247434981167316,0.0007418124005198479,0.0017791844438761473
1772789514639495200,10.8254951171875,0.00003393739461898804,-0.0000235801562666893,-0.0011955664958804846
1772789514649560300,10.835560302734375,0.001876800088211894,0.00041037239134311676,-0.0029994072392582893
1772789514659626000,10.8456259765625,-0.001159735955297947,-0.0003254590556025505,0.00011276279110461473
1772789514669692200,10.855692138671875,-0.0002321342471987009,0.00144853163510561,0.0001615601358935237
1772789514679758000,10.865758056640624,-0.0004334694240242243,-0.0008135577663779259,-0.0012347352458164096
1772789514689823200,10.8758232421875,-0.0006325750146061182,-0.0008546551689505577,-0.0005833464092575014
1772789514699889200,10.88588916015625,0.001438298961147666,-0.0010096505284309387,-0.000817171938251704
1772789514709955300,10.895955322265625,0.0014693131670355797,-0.0020548878237605095,0.0009327342268079519
1772789514720021000,10.90602099609375,0.00026050442829728127,0.0008636703714728355,-0.00030110825900919735
1772789514730086100,10.916086181640624,0.00016144150868058205,-0.0019176052883267403,-0.003296629525721073
1772789514740152000,10.926152099609375,0.001062122406437993,0.0007775137200951576,-0.0016971351578831673
1772789514750218200,10.93621826171875,-0.0010702535510063171,-0.0014529312029480934,0.0018932751845568419
1772789514760284200,10.9462841796875,-0.0007264390587806702,-0.0018702484667301178,0.001997671090066433
1772789514770349000,10.95634912109375,-0.00018948083743453026,0.0003311457112431526,-0.00012269202852621675
