time,seconds_elapsed,z,y,x
1772790136159494100,0.079494140625,-0.3805447929739952,0.6794751325786114,-0.5256150888182223
1772790136169560300,0.089560302734375,-0.675553575220704,0.6505296086013317,-0.47592773252017795
1772790136179626200,0.099626220703125,-0.6159422793447971,0.6508660009488463,-0.49395869844704865
1772790136189691400,0.10969140625,-0.29810324113070963,0.5940709315374493,-0.5010141699165106
1772790136199757300,0.11975732421875,-0.17474223439991474,0.4727551668986678,-0.5290774311665445
1772790136209823200,0.1298232421875,-0.15489011746048925,0.4142670298337936,-0.4865048022445291
1772790136219889200,0.13988916015625,-0.10680150159597396,0.3396656700968742,-0.49007915359996257
1772790136229955000,0.149955078125,0.13331424546837806,0.3066644409880042,-0.5024447141762822
1772790136240021200,0.160021240234375,0.3357861983150244,0.28861382051259277,-0.45729814311303196
1772790136250087200,0.170087158203125,0.3437544007152319,0.19983838947266339,-0.3816285696227103
1772790136260153300,0.1801533203125,0.2744166605949402,0.08642389947772025,-0.35560675107240675
1772790136270219300,0.19021923828125,0.27515724982917306,0.014062135361135005,-0.38951347765363753
1772790136280285200,0.20028515625,0.35061434961259363,-0.04643266535103321,-0.42427353312857446
1772790136290351000,0.21035107421875,0.4011410062789917,-0.11260025100260972,-0.4559435866989195
1772790136300417300,0.220417236328125,0.39506899288892744,-0.10998802267760038,-0.5100070391893387
1772790136310483200,0.230483154296875,0.4359609752476215,-0.09986702615767717,-0.5280293834183365
1772790136320548400,0.24054833984375,0.5038151988118886,-0.09854016146808862,-0.5766879811905324
1772790136330614300,0.2506142578125,0.6029167935550213,-0.05840455043464899,-0.6187027570340782
1772790136340680200,0.26068017578125,0.6853869869709015,0.0034159459233283995,-0.6254903713475912
1772790136350746000,0.27074609375,0.72362231734097,-0.0015101123020052909,-0.5773334394872188
1772790136360812300,0.280812255859375,0.683604779729247,-0.09124678958952426,-0.5687197787903249
1772790136370878200,0.290878173828125,0.6231114403218031,-0.21322218718081712,-0.49745457773879165
1772790136380944100,0.300944091796875,0.5921674360036849,-0.3750003105893731,-0.3733585347317159
1772790136391010300,0.31101025390625,0.5616974789381027,-0.4483578077450394,-0.3545578996066004
1772790136401076200,0.321076171875,0.6396884811133146,-0.5009861128658056,-0.35898273031152783
1772790136411142100,0.33114208984375,0.6892085910856723,-0.6402867392674088,-0.36980537229478355
1772790136421208000,0.3412080078125,0.6527712500482797,-0.7867652944743633,-0.3741442782819271
1772790136431274200,0.351274169921875,0.6392571039587259,-0.8952098871022462,-0.3431435753405094
1772790136441339100,0.361339111328125,0.6974690544307232,-1.0060556956529616,-0.25046295355558396
1772790136451405300,0.3714052734375,0.6994318789362907,-1.0846291738912464,-0.17063443375490606
1772790136461471200,0.38147119140625,0.5652624779433012,-1.1418138271421194,-0.11572473969869315
1772790136471537200,0.391537109375,0.4242050710022449,-1.2096283032178878,-0.07093450779244304
1772790136481603000,0.40160302734375,0.37489363534450526,-1.2896388285219669,-0.014245675234496593
1772790136491669200,0.411669189453125,0.32880642243027686,-1.3261305300951003,0.07465294379368424
1772790136501735200,0.421735107421875,0.18964637354314326,-1.410067581193149,0.131148153475672
1772790136511801300,0.43180126953125,0.006723170775175094,-1.4473217915713785,0.14238916700147092
1772790136521867300,0.4418671875,-0.1297702892512083,-1.4093500805735588,0.13112893731854855
1772790136531933200,0.45193310546875,-0.2976145808309316,-1.3812708180367945,0.16607552834153175
1772790136541999400,0.461999267578125,-0.4979717334806919,-1.3360992586627602,0.20823219687379896
1772790136552065000,0.47206494140625,-0.6779641434937715,-1.2988482631549239,0.24740188548453151
1772790136562131200,0.482131103515625,-0.816522134834528,-1.2558388502508402,0.3259936300318688
1772790136572196400,0.4921962890625,-0.9906137963712215,-1.2025585109621286,0.2761388812776655
1772790136582262300,0.50226220703125,-1.1075082374364138,-1.1441244421720504,0.2925458992645144
1772790136592328200,0.512328125,-1.2744471046090124,-1.087251631349325,0.3192266201149672
1772790136602394000,0.52239404296875,-1.3968366359591484,-1.0566764603435992,0.33527108839973807
1772790136612460000,0.5324599609375,-1.4793915850490331,-1.1179714715227485,0.44681021297685797
1772790136622526200,0.542526123046875,-1.6045114181458948,-1.152795824405551,0.515084780845046
1772790136632592100,0.552592041015625,-1.805553045928478,-1.0703101411595939,0.39260041081830854
1772790136642658300,0.562658203125,-2.0912223374217747,-0.9035922232612967,0.17924677927754817
1772790136652724200,0.57272412109375,-2.483219667780399,-0.7876566903561353,-0.020549524619057773
1772790136662790400,0.582790283203125,-2.776525737762451,-0.6459206535011529,-0.1844215515669435
1772790136672856300,0.592856201171875,-2.7978642938673493,-0.4595534477591514,-0.24318112598434088
1772790136682922200,0.602922119140625,-2.6014772138923403,-0.22403584214001893,-0.4315771341402083
1772790136692987100,0.612987060546875,-2.2586931195139885,0.08093611571639776,-0.5580406369309872
1772790136703053300,0.62305322265625,-1.9406448224633932,0.3907259952485561,-0.5546326551184058
1772790136713119200,0.633119140625,-1.6402221984744072,0.5871551607996225,-0.7033247216563672
1772790136723185400,0.643185302734375,-1.1542629743486643,0.7559960622012615,-0.8477372111789881
1772790136733251300,0.653251220703125,-0.7556172920167445,0.8858011305049062,-0.763529307250306
1772790136743317200,0.663317138671875,-0.5436252311527728,0.8348319907680153,-0.6118800714071839
1772790136753383200,0.673383056640625,-0.4636059380203485,0.7230275663182139,-0.4924232325080782
1772790136763449000,0.683448974609375,-0.3851438112020492,0.6364443846255541,-0.4823053047280758
1772790136773515300,0.693515380859375,-0.07658990320563316,0.6197834649428725,-0.4816152035720646
1772790136783581200,0.703581298828125,0.30083938809633254,0.6550748508155345,-0.44779608220905065
1772790136793647400,0.7136474609375,0.6224380711048841,0.7086316689580678,-0.46944151230603454
1772790136803713300,0.72371337890625,0.8530763802498579,0.693280662830174,-0.4566167367201298
1772790136813779200,0.733779296875,0.930263080304861,0.7076122627824545,-0.42012890760451554
1772790136823844000,0.743843994140625,0.9117319828361272,0.7009452061086893,-0.3842712661512196
1772790136833910300,0.75391015625,0.9604764322608709,0.7520297889187931,-0.3310852540824562
1772790136843976200,0.76397607421875,1.0244412471711635,0.7323515672415495,-0.27045667092278597
1772790136854042400,0.77404248046875,0.76595806876719,0.6898468889892101,-0.3316203108072281
1772790136864108300,0.7841083984375,0.7493237448304891,0.7854480743959545,-0.2830589628644287
1772790136874174200,0.79417431640625,0.8722194721370935,0.7619476640820503,-0.29558585148230193
1772790136884240100,0.804240234375,0.7498381240934133,0.7675012065559625,-0.34778993984162804
1772790136894306300,0.814306396484375,0.7887602676838636,0.7754115412890911,-0.28188319708332416
1772790136904367900,0.824367919921875,0.6858452521324158,0.7263084876850247,-0.35074542864635583
1772790136914434000,0.83443408203125,0.5732517231315374,0.6662053166389464,-0.2919249178219586
1772790136924500000,0.8445,0.5120628026753664,0.576081685860455,-0.20740926311835645
1772790136934566000,0.85456591796875,0.3188169433355331,0.5088257204502821,-0.16760887538865207
1772790136944630800,0.864630859375,0.2999906623125076,0.5217901237025857,-0.12147913850694894
1772790136954697000,0.874697021484375,0.43230829795897,0.5168623119115829,-0.15561075988523662
1772790136964763000,0.884762939453125,0.5274246224582195,0.4745104861333966,-0.14615480314530432
1772790136974829000,0.8948291015625,0.5790478421896695,0.3629527299210429,-0.05116437004804611
1772790136984895000,0.90489501953125,0.61964814812541,0.1903440004184842,0.08754238211363553
1772790136994961000,0.9149609375,0.657024815839529,0.06902355960458517,0.15964045379273592
1772790137005026800,0.92502685546875,0.595399257531762,-0.06004764146655798,0.17451200584061444
1772790137015092700,0.9350927734375,0.4577034359782934,-0.20885873127430676,0.16942008952908216
1772790137025159000,0.945158935546875,0.47427053989768025,-0.3237286807745695,0.1591704251281917
1772790137035224800,0.955224853515625,0.4978232649207115,-0.48354134932905435,0.1435906517457217
1772790137045291000,0.965291015625,0.4000076183348894,-0.5624740162685513,0.0724227735888213
1772790137055357000,0.97535693359375,0.38492052384018893,-0.5727537104815245,-0.006763283589854836
1772790137065422800,0.9854228515625,0.45715047827064986,-0.5445066901624203,-0.08895239504203199
1772790137075487700,0.99548779296875,0.4537777869671583,-0.504336884598434,-0.15230331583768128
1772790137085554000,1.005553955078125,0.4356272132486105,-0.4363154877737164,-0.2079131209872663
1772790137095619800,1.015619873046875,0.3734334996640682,-0.379360843886435,-0.32303302666060624
1772790137105686000,1.02568603515625,0.47210488629639147,-0.33476416179090734,-0.3215150233130902
1772790137115752000,1.035751953125,0.3281166866004467,-0.3917766733452677,-0.36825383200384676
1772790137125817900,1.04581787109375,0.1282972940891981,-0.37351504046767947,-0.39847244465686377
1772790137135883800,1.0558837890625,0.31840953157842156,-0.37278643393218514,-0.28447723216451704
1772790137145950000,1.065949951171875,0.31936054869294167,-0.38965164401531216,-0.27337336208708585
1772790137156015900,1.076015869140625,0.27318039679825307,-0.3295861746311188,-0.2243752301622182
1772790137166081800,1.086081787109375,0.3209977945059538,-0.3657534665554762,-0.1850466977279633
1772790137176148000,1.09614794921875,0.21709084530770778,-0.44759237633049487,-0.2470711191602051
1772790137186214000,1.1062138671875,0.21433833172917366,-0.5016963069617748,-0.20352489596568046
1772790137196280000,1.116280029296875,0.16765081483423708,-0.592937543593347,-0.2072765035841614
1772790137206345000,1.126344970703125,0.21162381207346914,-0.6124301795706153,-0.19932927090674638
1772790137216411000,1.136410888671875,0.2536766549050808,-0.6732809541136026,-0.15683138772137462
1772790137226476800,1.146476806640625,0.1584007559299469,-0.6983893841460347,-0.15260639043748378
1772790137236543000,1.15654296875,0.12587620442211628,-0.7338005970060825,-0.07097973517365753
1772790137246609000,1.16660888671875,0.11902210074365138,-0.755914813658595,-0.09618556116595864
1772790137256675000,1.176675048828125,0.0981774656355381,-0.7589671869665384,-0.09898279066905379
1772790137266740700,1.18674072265625,0.03401800493597984,-0.7358607444062829,-0.13018595738001168
1772790137276807000,1.196806884765625,-0.008477320966124535,-0.6624605771526694,-0.15980280474759637
1772790137286872800,1.206872802734375,-0.036488194441795345,-0.6511299125820398,-0.08858896855711937
1772790137296939000,1.21693896484375,-0.19839608170986175,-0.64927376332134,-0.055378919003158805
1772790137307005000,1.2270048828125,-0.18930793536901472,-0.5442009852141142,-0.048025779761373996
1772790137317070800,1.23707080078125,-0.11704466319084167,-0.4542155938625335,-0.07735380025021732
1772790137327135700,1.2471357421875,-0.008284428742527961,-0.31850451638549565,-0.0187080614708364
1772790137337202000,1.257201904296875,0.02118307328224182,-0.36431291235834357,0.026725875166431066
1772790137347267800,1.267267822265625,-0.30883038685023784,-0.402078579390049,0.09117050948292016
1772790137357334000,1.277333984375,-0.5198936424314975,-0.38600802681595087,0.1402915371350944
1772790137367400000,1.28739990234375,-0.48461073212623595,-0.3740592303469777,0.1851942895051092
1772790137377465900,1.2974658203125,-0.4299409843057394,-0.1490428527370095,0.24793694220930337
1772790137387532000,1.307531982421875,-0.24346505749225614,-0.31101503741294145,0.18468582852631807
1772790137397597700,1.31759765625,-0.438860203820467,-0.427278487098217,0.26994740622639657
1772790137407663900,1.327663818359375,-0.8931237284779548,-0.5104270181670785,0.42617242555245755
1772790137417729800,1.337729736328125,-1.2222791104763746,-0.5390042933538556,0.5110138781443238
1772790137427796000,1.3477958984375,-1.3871680593818425,-0.6012561668664217,0.5126797655299306
1772790137437862000,1.35786181640625,-1.6448229702681303,-0.6251826936379075,0.3943399479620158
1772790137447928000,1.367927978515625,-1.8549808014422653,-0.48932022499144073,0.3169859285160899
1772790137457992700,1.37799267578125,-1.9086855036228894,-0.3014145576357841,0.30288302275314927
1772790137468059000,1.388058837890625,-1.9823253248512744,-0.1910062637194991,0.23670330827236175
1772790137478124800,1.398124755859375,-1.821432167583704,0.030123920106887817,0.12141703305616974
1772790137488191000,1.40819091796875,-1.7338041530132293,0.29247049594074487,0.013842939652502537
1772790137498257000,1.4182568359375,-1.6757441782325506,0.5134872825205326,-0.06441986520141363
1772790137508323000,1.428322998046875,-1.5552876607716082,0.6923378290221095,-0.16134645399302244
1772790137518389000,1.438388916015625,-1.4691536841511725,0.4018079457551241,-0.34778672497123475
1772790137528454700,1.44845458984375,-1.4936194323658942,0.3046735594317317,-0.3117169020719826
1772790137538520800,1.458520751953125,-1.1760416754364966,1.197591243943572,-0.07233019993454218
1772790137548586800,1.468586669921875,-0.881733734935522,1.3517808119192718,-0.27201939019486304
1772790137558653000,1.47865283203125,-0.5084481193095446,1.275705287976563,-0.6137088212043047
1772790137568718800,1.48871875,-0.09465630577206612,1.2460039771959184,-0.7921198072448372
1772790137578784000,1.498783935546875,0.2040963391780853,1.1229226641893386,-0.727688982257992
1772790137588849700,1.508849609375,0.17783610876202582,0.9998965885013341,-0.5100150763653218
1772790137598915800,1.518915771484375,0.20567279471457003,0.9575769114270806,-0.716720721258968
1772790137608981800,1.528981689453125,0.3516214808285236,0.9284849647164344,-0.937476957206428
1772790137619048000,1.5390478515625,0.4895388361781835,1.0335215024664997,-0.6327323783650994
1772790137629113900,1.54911376953125,0.3606979367315769,1.038491107572615,-0.37004488013908265
1772790137639180000,1.559179931640625,0.13581892176568508,0.9136658735081553,-0.46936479380801316
1772790137649246000,1.569245849609375,0.07809387802779674,0.742732968263328,-0.48575639503002166
1772790137659311900,1.579311767578125,0.05171148253679275,0.6550456247210502,-0.5030586813561618
1772790137669377800,1.589377685546875,0.11736498118638991,0.7287173023924232,-0.5233382299274206
1772790137679443700,1.599443603515625,-0.0030196400821208952,0.8263610995426773,-0.3937624403350055
1772790137689510000,1.609510009765625,-0.31247195822298524,0.8873048130661249,-0.552151651957631
1772790137699575800,1.619575927734375,-0.47695934059023853,0.9454118418589234,-0.6068859894469381
1772790137709641000,1.629640869140625,-0.6963508640557527,1.0542638462439178,-0.6195858965441584
1772790137719707000,1.639706787109375,-0.9548258591532707,1.1543065212294459,-0.7412764858447015
1772790137729772800,1.649772705078125,-1.1552280199885367,1.198779576945305,-0.7230690673723816
1772790137739838700,1.659838623046875,-1.4840274281561374,1.336429805791378,-0.5916241229072213
1772790137749905000,1.66990478515625,-1.5529542493879793,1.3499889600664376,-0.4313905985921621
1772790137759970800,1.679970703125,-0.6854840176045894,1.2194698982745409,-0.9642100658312439
1772790137770037000,1.690037109375,-1.1302543222516774,1.1246665852472186,-1.3804881432265041
1772790137780103000,1.70010302734375,-1.1249030243515967,1.7607286925569177,-1.4074462927788496
1772790137790169000,1.710169189453125,-0.9174006761223077,2.0650404329389334,-1.0183103432007132
1772790137800234800,1.72023486328125,-0.7099141099840403,1.9193121115773915,-1.347738112399727
1772790137810301000,1.730301025390625,-0.36665655287504195,1.654808649970591,-1.5402423595920205
1772790137820366800,1.740366943359375,-0.027413492104411123,1.473209389282763,-1.3766468114979564
1772790137830432000,1.750431884765625,-0.03850830209255218,1.3788202100142837,-1.2087778238683937
1772790137840498000,1.760497802734375,-0.09123159202039241,1.2253069338649512,-1.0583724506065249
1772790137850564000,1.770564208984375,0.015637129592895507,0.8569508835956454,-0.7150823064021766
1772790137860629800,1.780629638671875,0.19346856217980385,0.5650272078827023,-0.7190389350734651
1772790137870696000,1.790696044921875,0.1457961259007454,0.35003538068085904,-0.9650475395686924
1772790137880761900,1.800761962890625,-0.0642617520302534,0.289549640057981,-1.1099901173800228
1772790137890827800,1.810827880859375,-0.11296177779138088,0.32065000398159027,-0.9323226431831717
1772790137900894500,1.82089453125,-0.08785714715123176,0.3191273244589567,-0.7992248169444501
1772790137910960400,1.83096044921875,-0.19650223078727722,0.2517930331155658,-0.7732309823796153
1772790137921026600,1.841026611328125,-0.3243026812702417,0.24595570526421068,-0.7564948055036366
1772790137931092500,1.851092529296875,-0.4146253417521715,0.31473171984851356,-0.7454543560512363
1772790137941158700,1.86115869140625,-0.5114736046105623,0.4051820983633399,-0.7958329825490713
1772790137951223600,1.8712236328125,-0.5244885690063238,0.5059875744149088,-0.7922704677619039
1772790137961289500,1.88128955078125,-0.570587472358346,0.5684940072104334,-0.7468611541092396
1772790137971355400,1.89135546875,-0.6237514917910099,0.5842869118869304,-0.6424300349064171
1772790137981421600,1.901421630859375,-0.6937070715487003,0.6014917291879653,-0.5180049060754478
1772790137991487500,1.911487548828125,-0.7173398760706186,0.6317500893294811,-0.449684672434628
1772790138001553400,1.921553466796875,-0.7140618773132562,0.6693363081410527,-0.4623049384243786
1772790138011619600,1.93161962890625,-0.6150877083420753,0.7239967036113143,-0.48570378805994985
1772790138021685500,1.941685546875,-0.43283202957212924,0.7626651647016406,-0.5179390012323856
1772790138031751700,1.951751708984375,-0.24423078116774558,0.836727302995324,-0.49873307324200866
1772790138041817300,1.9618173828125,-0.10030512531399727,0.9357274831905961,-0.40428339595794677
1772790138051883500,1.971883544921875,-0.10016659362614154,0.9610513095393777,-0.27941359209939837
1772790138061948400,1.981948486328125,-0.24090835874676703,0.9292258462116122,-0.1466778771713376
1772790138072014600,1.9920146484375,-0.3830290110051632,0.8929796438321471,0.002838876687735319
1772790138082080500,2.00208056640625,-0.5061953719466924,0.9124369162350893,0.12019976622089742
1772790138092146400,2.012146484375,-0.5980056406378745,0.968542249816656,0.17206103249192237
1772790138102212400,2.02221240234375,-0.6595610563188791,1.0570131449520588,0.10381941704526543
1772790138112278500,2.032278564453125,-0.8716770358234643,1.1785428446024655,0.1011086967818439
1772790138122344400,2.042344482421875,-0.8303110062122344,1.1887804532393813,0.21291808966770767
1772790138132410600,2.05241064453125,-0.6144675306171179,1.05348613986969,0.2134273543640971
1772790138142476500,2.0624765625,-0.458259900817275,1.0331541304588316,0.20070289734750985
1772790138152542500,2.07254248046875,-0.45104631617665286,1.1338082153409719,0.267936066403985
1772790138162608600,2.082608642578125,-0.6324129371523857,1.163422432360053,0.34773104926124215
1772790138172674300,2.09267431640625,-0.6706909376204013,1.1383891133904456,0.2117936156824231
1772790138182739500,2.102739501953125,-0.4356991094410419,1.2286778716027735,0.1320082774363458
1772790138192805600,2.1128056640625,-0.28958792624175544,1.5319623147636652,0.24120529586672781
1772790138202871600,2.12287158203125,-0.2793698990881443,1.305084234935045,0.19888583798818288
1772790138212937500,2.1329375,-0.24745500391125677,0.9951868033751845,0.3323367885135114
1772790138223003600,2.143003662109375,-0.3337929786711931,0.9328089653953909,0.44334129475727674
1772790138233069300,2.1530693359375,-0.380353069794178,0.9252297623127699,0.49653483254536984
1772790138243135500,2.163135498046875,-0.2601765383183956,0.923683409653604,0.48458603607639666
1772790138253201400,2.173201416015625,-0.1112567274391651,0.9212968067780136,0.4694879817962646
1772790138263267600,2.183267578125,-0.07104922021329403,0.8146750456631183,0.42645036571100353
1772790138273333500,2.19333349609375,-0.15943594419658183,0.6366837463393807,0.2917224540524185
1772790138283399700,2.203399658203125,-0.03506605268418789,0.5362745761290192,0.12611015930846334
1772790138293464300,2.21346435546875,0.23471710289120673,0.380021061360836,-0.06059095456302166
1772790138303530500,2.223530517578125,0.413731023260951,0.4463227947860956,-0.2249915354296565
1772790138313596400,2.233596435546875,0.4409416862696409,0.547653463755548,-0.31180428809449073
1772790138323662600,2.24366259765625,0.33707623812556264,0.64601943770051,-0.3099577834449708
1772790138333728500,2.253728515625,0.05777940427362919,0.6758879217416047,-0.30178324481770397
1772790138343794700,2.263794677734375,-0.09308744902014732,0.7032447152227163,-0.34302944744154806
1772790138353860600,2.273860595703125,-0.10727496432662009,0.7468444952353834,-0.36284181689247486
1772790138363926500,2.283926513671875,-0.1970557730168104,0.8187070776581764,-0.4718541264057159
1772790138373992400,2.293992431640625,-0.25014029747247696,0.88196111395061,-0.5421798546500504
1772790138384058400,2.304058349609375,-0.24649346540272235,0.9234566151604056,-0.6311547537848353
1772790138394124500,2.31412451171875,-0.23918694178164004,0.9777814950659871,-0.713152068991959
1772790138404190500,2.3241904296875,-0.2619207516372204,0.9850418414577842,-0.7127683303713798
1772790138414255600,2.334255615234375,-0.2541039404064417,0.9784569101095199,-0.7551379840672016
1772790138424321500,2.344321533203125,-0.28437340646386144,0.9757400523662566,-0.7877072514995932
1772790138434387500,2.354387451171875,-0.34481764603257176,0.9752572372853755,-0.864636323531717
1772790138444453400,2.364453369140625,-0.33488428103923795,0.9840300340667366,-0.8804480790391563
1772790138454519600,2.37451953125,-0.4197831629067659,0.9550552839949726,-0.8234593867518007
1772790138464585500,2.38458544921875,-0.564494416180253,0.881976311519742,-0.8605841255314648
1772790138474651600,2.394651611328125,-0.6270061096727848,0.8406362931326031,-0.9058253891408443
1772790138484717600,2.404717529296875,-0.7240975336372852,0.8441261810749768,-0.9545372514702379
1772790138494783500,2.414783447265625,-0.9520213231265544,0.7837433163046836,-0.9671396164771169
1772790138504849400,2.424849365234375,-1.1565391025871037,0.6938707376778125,-0.98146171794869
1772790138514915600,2.43491552734375,-1.2548287964254616,0.6162026838466524,-0.9721726422082633
1772790138524980500,2.44498046875,-1.2432920878887175,0.6314142815038561,-0.9726277655646204
1772790138535046700,2.455046630859375,-1.2816548440307378,0.6228272165529429,-0.9663052114795893
1772790138545112600,2.465112548828125,-1.3506921398997307,0.5933791498810053,-0.9459938064653426
1772790138555178500,2.475178466796875,-1.348788936626911,0.5613096486642957,-0.9201541395489126
1772790138565244400,2.485244384765625,-1.2676198889374732,0.4969239779934287,-0.9235667975366115
1772790138575310600,2.495310546875,-1.2709171769171952,0.41303880321308967,-0.9263100318301468
1772790138585376500,2.50537646484375,-1.2908762613624334,0.32564298996329305,-0.9331481342218816
1772790138595442400,2.5154423828125,-1.2163918060034513,0.2289738830640912,-0.8549517456676811
1772790138605508600,2.525508544921875,-1.106166759699583,0.07646350034698844,-0.7238132368031889
1772790138615574500,2.535574462890625,-0.9191934047579765,0.015553835223615168,-0.6732084003340453
1772790138625640700,2.545640625,-0.6339835474699735,0.040376434051990505,-0.6727280694711953
1772790138635705300,2.555705322265625,-0.3918114523977041,0.02811696419864893,-0.6600371493980288
1772790138645771500,2.565771484375,-0.26175240933299065,-0.05291501310765743,-0.5994109043259174
1772790138655837400,2.57583740234375,-0.23574819950461387,-0.17981442309767007,-0.49648134879246353
1772790138665903600,2.585903564453125,-0.1560123994886875,-0.30394334546104074,-0.4252987845230847
1772790138675969500,2.595969482421875,-0.006517419070005416,-0.3793395088374614,-0.3993105029162019
1772790138686035700,2.60603564453125,0.19609481903016565,-0.41031975351274014,-0.39406507654339074
1772790138696101400,2.616101318359375,0.2983183451861143,-0.4092728748083114,-0.43368952318429943
1772790138706167600,2.62616748046875,0.43475276850163935,-0.43624154575467106,-0.41105866224654014
1772790138716233500,2.6362333984375,0.5804594625532626,-0.5406573212578892,-0.31498452556580303
1772790138726299600,2.646299560546875,0.7033855849981308,-0.6221139537170529,-0.31974567555300887
1772790138736365600,2.656365478515625,0.8061024476289749,-0.6257660464838147,-0.2024989139188081
1772790138746430500,2.666430419921875,0.8218705101251602,-0.6455436368823051,-0.0829109959859401
1772790138756496400,2.676496337890625,0.8087555924862623,-0.7088043951764702,-0.04558233213201165
1772790138766562600,2.6865625,0.7953332163333893,-0.7393795661821961,0.0776540983710438
1772790138776628500,2.69662841796875,0.6564771188288927,-0.7756292756929993,0.21477971882112323
1772790138786694400,2.7066943359375,0.49048809972703455,-0.7860273355886339,0.26421310035809875
1772790138796760600,2.716760498046875,0.3826701145648956,-0.7608157374426722,0.365647010506317
1772790138806826500,2.726826416015625,0.33176351867020126,-0.7751780247941613,0.46172209703512485
1772790138816892700,2.736892578125,0.2523117962926626,-0.7338188633151352,0.461189451463148
1772790138826958300,2.746958251953125,0.16755553776621818,-0.6157952720895409,0.42554136110730467
1772790138837024500,2.7570244140625,0.1958715316683054,-0.5634992676630616,0.3671045158382505
1772790138847090400,2.76709033203125,0.17077742242217062,-0.4945658705599606,0.335370530186221
1772790138857155600,2.777155517578125,0.03151625124812126,-0.4234643356375396,0.3068690967146307
1772790138867221500,2.787221435546875,-0.021069676035642623,-0.38256300092861056,0.31587570225186645
1772790138877287700,2.79728759765625,0.057312371283769606,-0.3571335222482681,0.3616283494494855
1772790138887353300,2.807353271484375,-0.05797521910667419,-0.32802944670841094,0.3986642409019172
1772790138897419500,2.81741943359375,-0.1338391461253166,-0.3536974103197455,0.42786710064113137
1772790138907486000,2.82748583984375,-0.236074362719059,-0.37967707022875546,0.4668237310230732
1772790138917551900,2.8375517578125,-0.3825900350660085,-0.4282387104324996,0.47715983159840103
1772790138927617800,2.84761767578125,-0.4486187967687845,-0.4692198323793709,0.4402558959625661
1772790138937683700,2.85768359375,-0.4359989691704511,-0.4806348142325878,0.41701092171445486
1772790138947750000,2.86775,-0.43959319427013394,-0.44543622120991344,0.39840062152966854
1772790138957815800,2.87781591796875,-0.45022564744353294,-0.3911687705799937,0.31448037543594837
1772790138967881000,2.887880859375,-0.484407318508625,-0.32713644339144227,0.2403106851145625
1772790138977947000,2.89794677734375,-0.5330307719022035,-0.3175280725687742,0.18382818878367543
1772790138988012800,2.9080126953125,-0.6051987670123576,-0.3193009274601936,0.18140768363848328
1772790138998078700,2.91807861328125,-0.722009036925435,-0.28577158282399173,0.13539353596046566
1772790139008145000,2.928144775390625,-0.7181377484500407,-0.26760624992772936,0.05026581377312541
1772790139018210800,2.9382109375,-0.6969073288947344,-0.28889570619389415,0.062329614923894404
1772790139028277000,2.948277099609375,-0.7498077289551496,-0.30599428664147854,0.03428805404901504
1772790139038343000,2.958343017578125,-0.8270470359802246,-0.3256619869247079,-0.015699965696036815
1772790139048408800,2.968408935546875,-1.0343880561679601,-0.37790567664206026,-0.06385726288259029
1772790139058474800,2.978474853515625,-1.3312123634040356,-0.4321054688632488,-0.17340455605536698
1772790139068541000,2.988541015625,-1.5251117182165383,-0.35556232740879057,-0.3449110234044492
1772790139078605800,2.998605712890625,-1.6492086380064486,-0.15735446174740791,-0.5301262826323508
1772790139088672000,3.008672119140625,-1.6484218715429304,0.015604104106128214,-0.647598085194081
1772790139098738000,3.018738037109375,-1.4825392354249953,0.1487172740444541,-0.6893753259547054
1772790139108803800,3.028803955078125,-1.2784230225026607,0.3226338712751865,-0.7981202167034148
1772790139118869800,3.038869873046875,-1.0306582219898701,0.5557067140907049,-0.8619239958330989
1772790139128936000,3.04893603515625,-0.8169429905951022,0.736339760094881,-0.8551122699916363
1772790139139001900,3.059001953125,-0.7046744557648896,0.7379168001532554,-0.7707398962162435
1772790139149067800,3.06906787109375,-0.7355354579746722,0.6248375334620475,-0.6127648183524608
1772790139159134000,3.079134033203125,-0.7461603123635053,0.603814326916635,-0.5669264656327665
1772790139169199900,3.089199951171875,-0.5241302570879459,0.6480632184877991,-0.5434308776244521
1772790139179264800,3.0992646484375,-0.2112777751147747,0.7204948329702019,-0.49986923766508695
1772790139189331000,3.1093310546875,-0.029403204616904256,0.7381997087478638,-0.4633683298721909
1772790139199396900,3.11939697265625,0.14850246224999428,0.6992755193307996,-0.4574497534781694
1772790139209462800,3.129462890625,0.4045002535790205,0.6609104251012206,-0.4852439154632389
1772790139219529000,3.139529052734375,0.6655588354289531,0.6513263119369744,-0.4909419809743762
1772790139229595000,3.149594970703125,0.9268599938631057,0.6231330676317215,-0.42733284763395785
1772790139239660800,3.159660888671875,1.149874968522787,0.564376927280426,-0.3534432894282043
1772790139249726700,3.169726806640625,1.2938251742959022,0.47832770633399485,-0.2618042856507003
1772790139259793000,3.17979296875,1.3605705598354338,0.39390491754561663,-0.1121099832676351
1772790139269858800,3.18985888671875,1.3735241494327783,0.3113368167132139,0.004576806396245956
1772790139279925000,3.199925048828125,1.3544395097345112,0.23710838194191455,0.10076499791070818
1772790139289990000,3.209989990234375,1.2548814033955336,0.18267390418201684,0.1731339224204421
1772790139300055800,3.220055908203125,1.095674007257819,0.10153028319478034,0.2529679221138358
1772790139310121700,3.230121826171875,0.9274497764497995,0.016170213556289673,0.3857080209560692
1772790139320188000,3.24018798828125,0.803250565329194,0.00885609115064144,0.5025535083130002
1772790139330253800,3.25025390625,0.7087140865445136,0.11984510756433009,0.5796776645258068
1772790139340319700,3.26031982421875,0.531715013128519,0.2677379134833813,0.5770791724652051
1772790139350386000,3.270385986328125,0.2857832732617855,0.37777912765294314,0.5775473744988441
1772790139360451800,3.280451904296875,-0.0018529343903064726,0.4833426118865609,0.5305392473474144
1772790139370517800,3.290517822265625,-0.2135258463025093,0.5714382439687847,0.579949759465456
1772790139380583700,3.300583740234375,-0.37935412188470363,0.6720385528370738,0.6035398938894272
1772790139390648800,3.31064892578125,-0.45547056235969063,0.8183110640779138,0.5678698839627206
1772790139400714800,3.32071484375,-0.4190916735112667,0.9280740458279848,0.5529055390648544
1772790139410781000,3.330781005859375,-0.3858206875503063,1.0226850511536,0.52504108832255
1772790139420846800,3.340846923828125,-0.2369850478231907,1.1026885621950029,0.5566163762815296
1772790139430912800,3.350912841796875,-0.18496201511919497,1.0838321782946585,0.6685774525977671
1772790139440978700,3.360978759765625,-0.24241408713459967,0.9499418865039944,0.8068997354865074
1772790139451044900,3.371044921875,-0.2529103467077017,0.8004179722517728,0.9423904482111334
1772790139461110800,3.38111083984375,-0.20372867490947244,0.7128998477965592,0.9925015098139643
1772790139471177000,3.391177001953125,-0.08094751389324664,0.6706491443052888,0.976104063373059
1772790139481243000,3.401242919921875,0.015080664753913878,0.6006134850487113,1.0166144990682602
1772790139491308800,3.411308837890625,0.05508242027461528,0.5185945425316691,1.0935727971948683
1772790139501373700,3.421373779296875,0.07049918511509895,0.45231063702404495,1.1478070762075483
1772790139511440000,3.43143994140625,0.04180266746282577,0.3999234471827745,1.192384030689299
1772790139521505800,3.441505859375,-0.003305471286177635,0.3589677519381046,1.177952039102465
1772790139531572000,3.451572021484375,0.007339256846904754,0.3586269756764173,1.1423077481389046
1772790139541638000,3.461637939453125,-0.008463292440772057,0.3730433313027024,1.0991288238868118
1772790139551703800,3.471703857421875,0.01886427494585514,0.3983160119861364,1.0747316108636558
1772790139561770000,3.48177001953125,-0.012131167298555373,0.3699401045903563,1.0524814928717912
1772790139571835600,3.491835693359375,-0.023800562304258345,0.281826644590497,1.124902732090652
1772790139581901800,3.50190185546875,-0.0359936889231205,0.2796858331695199,1.0870052553728222
1772790139591967700,3.5119677734375,0.05299567712843418,0.31420535788685083,1.0113124471373856
1772790139602033000,3.522032958984375,0.11989011574983596,0.3104283235661685,0.980519395597279
1772790139612098800,3.532098876953125,0.11777648459672928,0.2295389696009457,1.0338083565838634
1772790139622165000,3.5421650390625,0.12302899829745292,0.12142974640727043,1.1489905869036912
1772790139632230700,3.552230712890625,0.14933423689901829,0.031730624651163816,1.2524794568203388
1772790139642296800,3.562296875,0.22826807288229464,-0.02689399827495217,1.266034227181226
1772790139652362800,3.57236279296875,0.32668051631748674,-0.10239990563616155,1.2219169991657137
1772790139662429000,3.582428955078125,0.4295861795186996,-0.2053895938590169,1.2196043383091688
1772790139672494800,3.592494873046875,0.5317816486239433,-0.30540085079297424,1.276766195206344
1772790139682561000,3.60256103515625,0.5855307744681835,-0.4390199244268238,1.318869745311886
1772790139692627000,3.612626953125,0.5525058722227811,-0.5932983397297561,1.3551798067077994
1772790139702692900,3.62269287109375,0.5156505980342626,-0.7554771528936922,1.3408853238955138
1772790139712757800,3.6327578125,0.5087602539986372,-0.8791204836972057,1.295900080873817
1772790139722824000,3.642823974609375,0.4527735783606767,-0.9549987315021454,1.283187460425496
1772790139732889900,3.652889892578125,0.38799277089238166,-1.000357484011352,1.2554767389401793
1772790139742956000,3.6629560546875,0.303035436835885,-1.0630898345172404,1.2123688340976833
1772790139753022000,3.67302197265625,0.28070436256229875,-1.1171519718334078,1.152847116201371
1772790139763088000,3.683087890625,0.1959007577627897,-1.1597210936240852,1.1075041457831858
1772790139773153800,3.69315380859375,0.05055296015143394,-1.2211895616739987,1.069395218271762
1772790139783219700,3.7032197265625,-0.04897475104928017,-1.2705325615137815,1.0645140221014617
1772790139793286000,3.713285888671875,-0.15520108310580252,-1.3023134550474584,1.0796905484452843
1772790139803351800,3.723351806640625,-0.27850597573518754,-1.3248716160751879,1.0691652089081705
1772790139813417000,3.7334169921875,-0.39863574545979497,-1.317687988181412,1.073872948207706
1772790139823482600,3.743482666015625,-0.5332809472709894,-1.3360089500308037,1.0808556467019022
1772790139833548800,3.753548828125,-0.711999684086442,-1.3253940325140952,1.0630804821670055
1772790139843614700,3.76361474609375,-0.8716203372001647,-1.2570957184441387,1.0198149025447667
1772790139853681000,3.773680908203125,-0.9838929636836051,-1.2131459559500217,1.004762733232975
1772790139863746800,3.783746826171875,-1.0831418579429388,-1.214241203840822,1.00191362741217
1772790139873813000,3.79381298828125,-1.1199667369931936,-1.158614447556436,0.9790503459580242
1772790139883879000,3.80387890625,-1.2444897732406854,-1.100164158283919,1.0102788663059472
1772790139893944800,3.81394482421875,-1.4759189405024051,-1.1046079859502613,0.9856972366265953
1772790139904010500,3.824010498046875,-1.660597462505102,-1.0433268571659922,0.9471649691365659
1772790139914075600,3.83407568359375,-1.845337943828106,-0.9086430769100785,0.883511266002059
1772790139924141600,3.8441416015625,-1.969862149119377,-0.7670671990528702,0.7472853708706796
1772790139934207700,3.854207763671875,-1.9440812266528604,-0.5651113790348172,0.5319364007942379
1772790139944273700,3.864273681640625,-1.8725632198840378,-0.3444876834258437,0.3962675550237298
1772790139954339600,3.874339599609375,-1.745733075737953,-0.09370923418030143,0.3445833988852799
1772790139964405500,3.884405517578125,-1.6379443166702985,0.13585603890568018,0.22077347934320568
1772790139974471700,3.8944716796875,-1.5445833114057779,0.4458575153619051,0.0649907238919288
1772790139984537600,3.90453759765625,-1.4337836800843475,0.6993889165773988,-0.006274915551021695
1772790139994603500,3.914603515625,-1.3494950390696525,0.7680833903580904,-0.34422406405359507
1772790140004669700,3.924669677734375,-1.1448083327829837,0.8494041214779019,-0.47993981770575045
1772790140014734600,3.934734619140625,-0.951127004635334,0.9628685880944132,-0.5730071737859398
1772790140024800500,3.944800537109375,-0.7135656182289123,1.0274310766369104,-0.5930998945482074
1772790140034866700,3.95486669921875,-0.4520037630319595,1.0083169185832142,-0.6555643878981471
1772790140044932600,3.9649326171875,-0.18613047437667846,0.9755763862371444,-0.7472754339985549
1772790140054998500,3.97499853515625,0.019082301610708237,1.019454983191192,-0.8421373453453183
1772790140065064700,3.985064697265625,0.2353197449594736,1.121539977659285,-0.9917037835650145
1772790140075130600,3.995130615234375,0.4537415466099977,1.1491574679031968,-1.1020565479017794
1772790140085195500,4.005195556640625,0.5538362440437078,1.177694995601475,-1.1916837734654544
1772790140095261700,4.01526171875,0.5893459488421678,1.1824337145611643,-1.2431046024926007
1772790140105327600,4.02532763671875,0.6080716921001672,1.1512693454906344,-1.3050095622636377
1772790140115393500,4.0353935546875,0.6365045903801918,1.0986501004591585,-1.3014300963416694
1772790140125459700,4.045459716796875,0.6744669490277767,1.0660179969236254,-1.2730610570780931
1772790140135525600,4.055525634765625,0.6830851397693157,1.0582003089100123,-1.165631194450706
1772790140145591600,4.065591552734375,0.6566261719107628,1.0366337892681359,-1.1380365005604922
1772790140155657500,4.075657470703125,0.73934420260787,1.0692290679246186,-1.061562332689017
1772790140165723600,4.0857236328125,0.7536088748037815,1.0637897994801402,-1.010703375328332
1772790140175788500,4.09578857421875,0.7481114464312791,1.0993512344658374,-1.002757530890405
1772790140185854700,4.105854736328125,0.7724936080157756,1.1611968652650713,-0.8850698936209082
1772790140195920600,4.115920654296875,0.753577895143628,1.1583575501859187,-0.8000185976706444
1772790140205986600,4.125986572265625,0.7258814944446087,1.112879116819799,-0.7822359804816543
1772790140216052500,4.136052490234375,0.7383855867087841,1.0494824571862815,-0.7102430496774613
1772790140226118700,4.14611865234375,0.7619552628666162,0.9933090268045663,-0.6853766117073595
1772790140236184600,4.1561845703125,0.801810887914896,0.9221411486476659,-0.6540769258193672
1772790140246250800,4.166250732421875,0.9150561588227748,0.8381769172817468,-0.6136411627955735
1772790140256316700,4.176316650390625,1.024845151796937,0.7624407082960009,-0.6382772991411387
1772790140266381600,4.186381591796875,1.0417366653651,0.6373237978085875,-0.5859926928915083
1772790140276447500,4.196447509765625,0.9959452205270528,0.5193345472440123,-0.44829161064103246
1772790140286513700,4.206513671875,0.991039912828803,0.35572336318939923,-0.3298611921802163
1772790140296579600,4.21657958984375,0.9998165090024471,0.17107172919362781,-0.21599457450360057
1772790140306645500,4.2266455078125,0.876285990923643,0.04698299271017313,-0.09401566978096962
1772790140316711700,4.236711669921875,0.7332113989412784,-0.06959726783931255,-0.08410144787952303
1772790140326777600,4.246777587890625,0.6817781488239765,-0.20856910067796705,0.009215718243271111
1772790140336843500,4.256843505859375,0.5414917262554169,-0.2911377860322594,0.04434212281256914
1772790140346909400,4.266909423828125,0.3995417543888092,-0.3386266824379563,0.0096922497138381
1772790140356975600,4.2769755859375,0.3857715877115726,-0.3538806579321623,0.012956658337265252
1772790140367041500,4.28704150390625,0.2803203316807747,-0.3793330790966749,0.05528992554545402
1772790140377106700,4.297106689453125,0.17279051581025123,-0.43042555295228957,0.07957578714862465
1772790140387172600,4.307172607421875,0.05489361970424652,-0.4553425520658493,0.14741335183903573
1772790140397238500,4.317238525390625,0.0020955109745264054,-0.44427170747518535,0.16061076012961564
1772790140407304400,4.327304443359375,0.05124035789370537,-0.38036154536157846,0.1698538047712296
1772790140417370600,4.33737060546875,-0.041193011131882666,-0.37930648335069417,0.19032916817553341
1772790140427436500,4.3474365234375,-0.047233460339903825,-0.4070265571862459,0.2442147798810154
1772790140437502700,4.357502685546875,-0.019139000234007834,-0.42819823229163884,0.2843047982070595
1772790140447568600,4.367568603515625,-0.06266951440274715,-0.48525166037827727,0.3205565535444766
1772790140457634600,4.377634521484375,-0.0759346541672945,-0.5928428510472178,0.3739646839313209
1772790140467699500,4.387699462890625,-0.09817512754797934,-0.6976242449924349,0.4869415131613612
1772790140477765600,4.397765625,-0.14076631503999232,-0.7923021780744195,0.5753541022382677
1772790140487831600,4.40783154296875,-0.08659224178194999,-0.8666334886983037,0.5755857921022921
1772790140497897700,4.417897705078125,0.0002174421429634094,-0.85070380589962,0.5361516804017126
1772790140507963600,4.427963623046875,0.014404957449436187,-0.8618217045024037,0.5556473120536655
1772790140518029600,4.438029541015625,-0.09038228171467781,-0.9154442813575268,0.595816167769581
1772790140528095500,4.448095458984375,-0.15480068561136723,-0.9887579393714666,0.6379335272047668
1772790140538161400,4.458161376953125,-0.18365093252062797,-1.0260992435112595,0.6479937334481627
1772790140548227600,4.4682275390625,-0.22195991264879703,-1.0597554293975233,0.5825804732952267
1772790140558293500,4.47829345703125,-0.2695359028160572,-1.0732540856570005,0.5578937758062035
1772790140568358700,4.488358642578125,-0.2899041525840759,-1.0395233732298015,0.5296022587582468
1772790140578424600,4.498424560546875,-0.31974925574958324,-1.0147954669475554,0.508587966171652
1772790140588490500,4.508490478515625,-0.4198141425669193,-1.0239715838328003,0.502089032606408
1772790140598556400,4.518556396484375,-0.46445583284795283,-1.007201943078637,0.5179224884890019
1772790140608622600,4.52862255859375,-0.40631344048082824,-0.90011724062711,0.5187572588127106
1772790140618688500,4.5386884765625,-0.4107353485763073,-0.8107274770811199,0.5013780347928405
1772790140628754700,4.548754638671875,-0.4756669626921415,-0.8130877764716744,0.5273353367395699
1772790140638820600,4.558820556640625,-0.5710223566442728,-0.8102838249668478,0.5574663441743701
1772790140648886800,4.56888671875,-0.6123755267739296,-0.7419374339714646,0.5615604816202074
1772790140658952700,4.57895263671875,-0.7673924854844808,-0.6796504891455173,0.576890956416726
1772790140669017600,4.589017578125,-0.8469944299876689,-0.6562544159889221,0.6548727523721755
1772790140679083500,4.59908349609375,-0.8928291294455528,-0.6148071378350257,0.6619806116160005
1772790140689149700,4.609149658203125,-0.9183844264626503,-0.5947443007543682,0.6846919904440641
1772790140699215600,4.619215576171875,-0.924666283211112,-0.5852735848367214,0.7342102737855166
1772790140709281800,4.62928173828125,-0.9543880522578954,-0.5833323876410722,0.773995756207034
1772790140719347700,4.63934765625,-1.025290557476878,-0.5762456442505121,0.7904309773750603
1772790140729413600,4.64941357421875,-1.151096619272232,-0.5663076030820607,0.7556683646168559
1772790140739479600,4.6594794921875,-1.4167460360437631,-0.5407295097112655,0.7472124517649412
1772790140749545500,4.66954541015625,-1.6445201879292726,-0.4626122508078813,0.634375688592717
1772790140759611600,4.679611572265625,-1.7829338023632764,-0.3750388890340924,0.5903856671534479
1772790140769677600,4.689677490234375,-1.917571405389905,-0.19618454314023256,0.44183622395657
1772790140779743700,4.69974365234375,-1.930855249854922,0.08640519477725028,0.3179393567834049
1772790140789809700,4.7098095703125,-1.8557114538043735,0.39412323647141456,0.17438669896051287
1772790140799875600,4.71987548828125,-1.964552352273464,0.6137944536611437,0.031133024084195493
1772790140809940500,4.7299404296875,-1.780053278490901,0.9359592461198568,-0.2676112183637917
1772790140820006700,4.740006591796875,-1.437423497891426,1.2324465764865278,-0.3826387695785612
1772790140830072600,4.750072509765625,-1.1616115835458038,1.426302384418249,-0.5707379136797041
1772790140840138800,4.760138671875,-0.7480079860568046,1.6131047667071223,-0.7367375272408128
1772790140850204700,4.77020458984375,-0.33505320786535736,1.722502714537084,-0.711984778778255
1772790140860270600,4.7802705078125,-0.07916822926104068,1.7111936772763727,-0.631021190533042
1772790140870336500,4.79033642578125,0.09541326161921024,1.68908004514575,-0.6173636904500425
1772790140880402700,4.800402587890625,0.4191887041449547,1.6669173131763935,-0.6061798870041966
1772790140890468600,4.810468505859375,0.706320469406247,1.6193597354486584,-0.6472451801031828
1772790140900534500,4.820534423828125,0.9031541241049766,1.592075422681868,-0.7052376426056027
1772790140910599700,4.830599609375,0.9794622877597808,1.5389286466449499,-0.709670072095096
1772790140920665600,4.84066552734375,1.0166975011765955,1.4638102772966026,-0.6908801775597035
1772790140930731500,4.8507314453125,1.0343103147566317,1.3502552097871898,-0.6602874708972871
1772790140940797400,4.86079736328125,0.9519429971933364,1.2572756050556897,-0.606081248935312
1772790140950863600,4.870863525390625,0.8762398136943578,1.204364975862205,-0.5669640211641788
1772790140960929500,4.880929443359375,0.8364058159559965,1.1837471352472901,-0.5177677363187074
1772790140970995700,4.89099560546875,0.7360089207053184,1.1712211234122514,-0.39928558767065403
1772790140981061600,4.9010615234375,0.5367138443291187,1.1311226295188068,-0.3333390974238515
1772790140991127600,4.91112744140625,0.33912031117379665,1.1041808465793728,-0.3006529256135225
1772790141001192400,4.9211923828125,0.1970873371988535,1.1339119679763912,-0.3164133893251419
1772790141011258600,4.931258544921875,0.015620178458094595,1.1858461533531546,-0.36305429059937594
1772790141021324500,4.941324462890625,-0.31015900510549543,1.166449378965795,-0.40016120146140455
1772790141031390700,4.951390625,-0.6123515613764524,1.184664834614098,-0.5246142412126064
1772790141041456600,4.96145654296875,-0.695430826601386,1.2481158547833562,-0.6346393810302019
1772790141051522600,4.9715224609375,-0.7376771461784839,1.2838634599909187,-0.7000637470990418
1772790141061588500,4.98158837890625,-0.8051356484234332,1.2699287504017351,-0.7331985394597053
1772790141071654700,4.991654541015625,-0.6740414170920849,1.2174971368968486,-0.7920690999709069
1772790141081720600,5.001720458984375,-0.44262043313682076,1.2197373170390724,-0.825810626053065
1772790141091786500,5.011786376953125,-0.0650245530962944,1.1652341579571366,-0.9149103206112981
1772790141101851600,5.0218515625,0.2408791326522827,1.0253367347061633,-0.8388311434067786
1772790141111917600,5.03191748046875,0.22851181851029395,0.7366141931220889,-0.6771798612482846
1772790141121983500,5.0419833984375,0.13517419412136078,0.37125995501726866,-0.5800654947996139
1772790141132049700,5.052049560546875,0.22388006705641744,0.02386310614645481,-0.450404511141777
1772790141142115600,5.062115478515625,0.3923240780949592,-0.2040422709032893,-0.3389947850979864
1772790141152181500,5.072181396484375,0.534639376142621,-0.32859599454998967,-0.23114289766624568
1772790141162247700,5.08224755859375,0.634738165229559,-0.41734512210488317,-0.1455491654023528
1772790141172313600,5.092313720703125,0.6939449719578027,-0.5293398084297776,-0.044308805064857
1772790141182379500,5.102379638671875,0.6777578072667122,-0.5942760987207293,-0.024933219595998524
1772790141192445400,5.112445556640625,0.654665685492754,-0.5803235612139106,-0.01013341761007905
1772790141202510600,5.122510498046875,0.6343629021763801,-0.5172600790575146,0.029183570516854523
1772790141212576500,5.132576416015625,0.5528092390835285,-0.4565016589730978,-0.042605362147837875
1772790141222642700,5.142642578125,0.4833399815380573,-0.3979711440712213,-0.0799419901125133
1772790141232708600,5.15270849609375,0.41684535588920113,-0.3712307289227843,-0.07276990652605891
1772790141242774500,5.1627744140625,0.31431846287250514,-0.39890900944322344,-0.024523177490383387
1772790141252840400,5.17284033203125,0.213546889090538,-0.4354679310336709,0.03184752902910113
1772790141262906600,5.18290673828125,0.18487667492330073,-0.48838995840400456,0.04420505242943763
1772790141272972500,5.19297265625,0.14840484709441662,-0.5265519312769175,0.03596007891446352
1772790141283038700,5.203038818359375,0.05216565604507923,-0.5218173039704561,0.09770517194867133
1772790141293104600,5.213104736328125,0.035119828698039056,-0.5787310313254594,0.1398135443598032
1772790141303169500,5.22316943359375,0.03818447696566581,-0.6455488975793123,0.1310759650222957
1772790141313235500,5.2332353515625,-0.010521978536248207,-0.6722972037732601,0.15286358006894588
1772790141323301600,5.243301513671875,-0.031706805384159084,-0.7056573293223977,0.2171551427155733
1772790141333367600,5.253367431640625,-0.03218085263669491,-0.7309975222840904,0.2929232081443071
1772790141343433700,5.263433837890625,0.01629413219690323,-0.7307181208208203,0.32146409684345123
1772790141353499600,5.273499755859375,0.08434417059421538,-0.7300155255094171,0.3358696388147771
1772790141363565600,5.283565673828125,0.15725684659183026,-0.7193783961609006,0.35508243493735786
1772790141373631700,5.2936318359375,0.18552900135219097,-0.6912713688343763,0.36229280470758674
1772790141383697400,5.303697509765625,0.17025018367767333,-0.6758671712145209,0.41418329707309604
1772790141393762600,5.313762451171875,0.08402619068622588,-0.6992115141838788,0.516482811074704
1772790141403828700,5.323828857421875,-0.013131868773698806,-0.7137643556714057,0.5653077783897519
1772790141413894700,5.333894775390625,-0.046909050691127774,-0.677817720760405,0.584337034638971
1772790141423960600,5.343960693359375,-0.08348375437259674,-0.6401394397512078,0.6304835765250026
1772790141434026500,5.354026611328125,-0.2151981634289026,-0.6450728045001626,0.6923654476813972
1772790141444092400,5.364092529296875,-0.3380278397619724,-0.6608762305706739,0.7827052054286002
1772790141454158600,5.37415869140625,-0.4805594109088182,-0.6673232147529721,0.8421852761402726
1772790141464224500,5.384224609375,-0.5925894608080386,-0.6511141304910183,0.8295750931531191
1772790141474290700,5.394290771484375,-0.6411907023698091,-0.6435793510720134,0.8288732284940779
1772790141484356600,5.404356689453125,-0.7310141811579466,-0.6187725343346595,0.809659701719135
1772790141494421500,5.41442138671875,-0.9192477652937173,-0.6742807788059115,0.8223347666360438
1772790141504487400,5.4244873046875,-1.1569336548626423,-0.69671034501791,0.7919422587208449
1772790141514553600,5.4345537109375,-1.2502508209854364,-0.6795844381719828,0.7175332066856325
1772790141524619500,5.44461962890625,-1.1671721402823925,-0.682418784815073,0.6808553348906338
1772790141534685700,5.454685791015625,-1.261868778064847,-0.6751324271991849,0.6702255120657384
1772790141544751600,5.464751708984375,-1.4563023858845232,-0.6358996102243661,0.6558866055898368
1772790141554817800,5.47481787109375,-1.5588029754161834,-0.5067787247925997,0.5740970879144967
1772790141564883700,5.4848837890625,-1.6666040094435215,-0.3884337926581502,0.45335283955335615
1772790141574949400,5.494949462890625,-1.7490975837349891,-0.24929975499510765,0.26526903915181754
1772790141585014500,5.5050146484375,-1.6946107912659645,-0.07139788752049207,0.18428586942330002
1772790141595080700,5.515080810546875,-1.5871563787192104,0.12707564333975313,0.031110739187151192
1772790141605146600,5.525146728515625,-1.4622662627249956,0.27876433441042897,-0.17251126047745347
1772790141615212800,5.535212890625,-1.1991864041805267,0.4671136538803577,-0.2740896205976605
1772790141625278700,5.54527880859375,-0.961626771339774,0.6366442911118269,-0.42187370544523
1772790141635344400,5.555344482421875,-0.7408341489046811,0.7218789808049798,-0.5453912179119884
1772790141645410600,5.56541064453125,-0.5915402440160512,0.7155623450040817,-0.5290753122746944
1772790141655476500,5.5754765625,-0.47802667756080625,0.6884685863733291,-0.5237872888691723
1772790141665542700,5.585542724609375,-0.36601883949339387,0.6719567197725177,-0.5721091289676725
1772790141675608600,5.595608642578125,-0.23907880523204803,0.7213812604159117,-0.6399551692254841
1772790141685673700,5.605673828125,-0.14756605818271637,0.726985071772337,-0.7750935613811015
1772790141695739400,5.615739501953125,-0.07275953126251697,0.7068889169439673,-0.9706098498709499
1772790141705805600,5.6258056640625,0.044778468403220174,0.7418290051609278,-1.0750307399407029
1772790141715871500,5.63587158203125,0.17949147475361824,0.7659501777216792,-1.1675468188136815
1772790141725937700,5.645937744140625,0.21868775911033153,0.7519932563006877,-1.2811553700760006
1772790141736003600,5.656003662109375,0.15020283642709253,0.7243240358695388,-1.429198690381646
1772790141746069800,5.66606982421875,0.0856377175360918,0.7375970666795969,-1.5470396185167132
1772790141756135700,5.6761357421875,0.01028349360525608,0.7793903817921877,-1.6338937261052429
1772790141766201600,5.68620166015625,-0.039276363855600356,0.7858432111933827,-1.6649639871515334
1772790141776267500,5.696267578125,-0.13736732025146484,0.75197045994699,-1.6714251459896563
1772790141786332700,5.706332763671875,-0.1306628541767597,0.7077165999397635,-1.6368072754643856
1772790141796398600,5.716398681640625,-0.0018517653465270996,0.7843103025376796,-1.627710653556138
1772790141806464800,5.72646484375,0.06664250968694686,0.8911044976100325,-1.6022534100860357
1772790141816530700,5.73653076171875,0.04046352781355381,0.8167270097568631,-1.4907333555355666
1772790141826596600,5.7465966796875,-0.075538348326087,0.8042515590652823,-1.495185804899782
1772790141836662500,5.75666259765625,-0.040889644271135325,0.7468021173983812,-1.4850221382819115
1772790141846728400,5.766728515625,-0.019869652596116064,0.5680912716284394,-1.404106188570708
1772790141856794600,5.776794677734375,-0.129996499222517,0.40806525258421894,-1.275619655519724
1772790141866860500,5.786860595703125,-0.06504091970920563,0.33359570253342385,-1.201001198517531
1772790141876925700,5.79692578125,0.12833061183691025,0.29196751485466954,-1.18056280612275
1772790141886991600,5.80699169921875,0.2938952680468559,0.27080402305573226,-1.1896085746265948
1772790141897057500,5.8170576171875,0.39043198073804375,0.2368608369216323,-1.1207457585416734
1772790141907123700,5.827123779296875,0.4702051901549101,0.13946341574788093,-1.0067138673007487
1772790141917190000,5.83718994140625,0.5198725996434689,0.01257481941282749,-0.8995413404352962
1772790141927255800,5.847255859375,0.5351210221797228,-0.09550590833872556,-0.8284704929120839
1772790141937322000,5.857322021484375,0.5630050544053316,-0.23863223050832746,-0.7134523671127856
1772790141947388000,5.867387939453125,0.582325840947032,-0.3999401060566306,-0.5830870345778763
1772790141957454000,5.8774541015625,0.5360118335396051,-0.5047077637374401,-0.49529053157269953
1772790141967519700,5.887519775390625,0.5479395872205496,-0.5735910380885004,-0.4265696081764996
1772790141977585000,5.8975849609375,0.5384054506778717,-0.6527513763040304,-0.35993192079514263
1772790141987650800,5.90765087890625,0.4583043244808912,-0.6984910909548402,-0.31616730560958384
1772790141997717000,5.917717041015625,0.34810733522772785,-0.7699974072858691,-0.25902239984720943
1772790142007783000,5.927782958984375,0.23833587791025637,-0.8319508823737501,-0.17479557202234863
1772790142017848800,5.937848876953125,0.1815793869435787,-0.8106737010672688,-0.11038958921581506
1772790142027914800,5.947914794921875,0.20427286478877066,-0.7100231233164668,-0.11358721621334553
1772790142037980700,5.957980712890625,0.1456903274387121,-0.6606359920740127,-0.10650193412750959
1772790142048046800,5.968046875,0.016315174984931943,-0.662849284209311,-0.038478053084760905
1772790142058112800,5.97811279296875,-0.09727613288164139,-0.6792904236614704,0.06212079447880387
1772790142068178000,5.988177978515625,-0.10489186858236789,-0.6390291404217481,0.07648103600367903
1772790142078243800,5.998243896484375,-0.06858662949204444,-0.6100386082589626,0.07480038944035768
1772790142088309800,6.008309814453125,-0.031303485280275344,-0.5994847732797265,0.1355956344038248
1772790142098375700,6.018375732421875,0.03154080116748809,-0.6106675538122653,0.2771066303312778
1772790142108441900,6.02844189453125,-0.002011924344301224,-0.6833741858437657,0.380539166950807
1772790142118507800,6.0385078125,-0.1306757136583328,-0.7838146279752254,0.4552577963918447
1772790142128574000,6.048573974609375,-0.1730406911790371,-0.8625169932901858,0.5048033330664038
1772790142138640000,6.058639892578125,-0.08785013288855552,-0.8653115924447774,0.4652111081946641
1772790142148706000,6.0687060546875,-0.03415186044871807,-0.8109490108773112,0.43080863398574293
1772790142158770700,6.078770751953125,-0.006871639335155486,-0.7817828298866748,0.4938276194132864
1772790142168836900,6.0888369140625,-0.03719663497209549,-0.8078782251298428,0.5240688822895289
1772790142178902800,6.09890283203125,-0.06473579928278923,-0.8543316410079598,0.5523990508474409
1772790142188969000,6.108968994140625,-0.1242453883498907,-0.8775026732370257,0.5630961667548865
1772790142199035000,6.119034912109375,-0.19380875391960142,-0.8289771272599696,0.47745245786942536
1772790142209101000,6.12910107421875,-0.11114566828012466,-0.8316121519386768,0.4534476782299578
1772790142219166700,6.139166748046875,-0.05848433767259121,-0.8358455517247319,0.4314999772507697
1772790142229233000,6.14923291015625,-0.13393617675900457,-0.8690355814039706,0.42544009268991645
1772790142239298800,6.159298828125,-0.20548633223176002,-0.9245777281448244,0.46523383148312564
1772790142249364000,6.169364013671875,-0.22883096746206283,-0.9513786413088441,0.4246132864769548
1772790142259430000,6.179429931640625,-0.2826899834215641,-0.9422136303395032,0.4244439943246543
1772790142269496000,6.18949609375,-0.29538170721232887,-0.9072755879491567,0.3563432486534118
1772790142279561700,6.199561767578125,-0.24018355160355567,-0.871377468355,0.31456359673999246
1772790142289628000,6.2096279296875,-0.3116501204460859,-0.8124228828221559,0.3657713675383478
1772790142299693800,6.21969384765625,-0.41952831136286256,-0.7721504936665297,0.340500148159638
1772790142309759700,6.229759765625,-0.41507542360723015,-0.7142690903231501,0.3289992415886372
1772790142319826000,6.239825927734375,-0.36359307365119453,-0.5520917384639382,0.33641214819364246
1772790142329891800,6.249891845703125,-0.3759346688300371,-0.44468291862457987,0.2905105209793895
1772790142339958000,6.2599580078125,-0.2991255699157715,-0.40801439917981625,0.28598939029313625
1772790142350023000,6.27002294921875,-0.34474048914313316,-0.48026247378885745,0.3339509457118809
1772790142360088800,6.2800888671875,-0.4214712621241808,-0.46994186304360624,0.33986871838830407
1772790142370154800,6.29015478515625,-0.41277883710265156,-0.4691293776169419,0.4332799925353378
1772790142380221000,6.300220947265625,-0.5025941325843334,-0.47462709825038907,0.4725419625394046
1772790142390286800,6.310286865234375,-0.4617033192694187,-0.41681086909770965,0.4219378567226231
1772790142400353000,6.32035302734375,-0.4520996246218681,-0.38749797311276196,0.38440124920643864
1772790142410418700,6.330418701171875,-0.475153167951107,-0.3218324917644262,0.35497700180150565
1772790142420484900,6.34048486328125,-0.46212768216133115,-0.26523177588135005,0.35247510198317467
1772790142430550800,6.35055078125,-0.45409167522192,-0.27648966747671366,0.3929403833623975
1772790142440616000,6.360615966796875,-0.5145785848885774,-0.29031156434118743,0.45017391725629563
1772790142450681900,6.370681884765625,-0.6680114892780781,-0.25745763474851846,0.4180821311425417
1772790142460748000,6.380748046875,-0.8935165271878241,-0.19210224226266145,0.3155378485996276
1772790142470813700,6.390813720703125,-1.1178443380117415,-0.09702098907679318,0.22609233627840875
1772790142480879900,6.4008798828125,-1.2395908952832222,0.06781476833671331,0.07454772985354065
1772790142490945800,6.41094580078125,-1.2473749732881785,0.32719021940529347,-0.14136537691168485
1772790142501012000,6.421011962890625,-1.1145400357693434,0.6279825534895062,-0.3188843825485557
1772790142511078000,6.431077880859375,-0.8452893796354531,0.9314011444240808,-0.3735003543552011
1772790142521143800,6.441143798828125,-0.6250935540497302,1.199821779474616,-0.4596937330126762
1772790142531208700,6.451208740234375,-0.49818800657987594,1.3666291292220354,-0.6354733476363122
1772790142541275000,6.46127490234375,-0.3272363966345787,1.480671103465557,-0.6079452161762863
1772790142551340800,6.4713408203125,-0.3434042721033096,1.391540283116698,-0.49712826839387414
1772790142561407000,6.481406982421875,-0.37773148911893367,1.2729308548271656,-0.34378742620199915
1772790142571473000,6.491472900390625,-0.25793898852467534,1.2309446474909782,-0.24631116763837635
1772790142581538800,6.501538818359375,-0.018836217895150182,1.257894029214978,-0.22577720591463146
1772790142591605000,6.51160498046875,0.17904957620501516,1.2611445554435252,-0.19507789707258344
1772790142601670700,6.521670654296875,0.2701192556619644,1.2363643344521522,-0.1488484261434525
1772790142611736800,6.53173681640625,0.35084465123713016,1.1716332113444805,-0.03455759170539677
1772790142621801700,6.5418017578125,0.39246260978281494,1.1620733558386565,-0.011575725372880697
1772790142631868000,6.551867919921875,0.4087713550269603,1.1729577379465101,-0.017185893404856323
1772790142641933800,6.561933837890625,0.49447979971170425,1.193750935128331,-0.03563004324249923
1772790142652000000,6.572,0.6131839205473661,1.1649532951891421,0.021964944374933838
1772790142662065700,6.582065673828125,0.5830173303425311,1.1326888559222221,0.07597432859055697
1772790142672131800,6.5921318359375,0.5317120905190706,1.1217775858074426,0.11060447407551109
1772790142682197800,6.60219775390625,0.5461293229281902,1.072014899250865,0.16881043319813907
1772790142692264000,6.612263916015625,0.5578635998636484,1.0711930614739655,0.22876455116234717
1772790142702329900,6.622329833984375,0.3900152166306972,1.0758908639013767,0.26065957259498534
1772790142712395000,6.63239501953125,0.1913473322421312,1.0666104098588227,0.2446751639343798
1772790142722460700,6.642460693359375,-0.022067454901337623,1.006256771183014,0.25704401244632896
1772790142732526800,6.65252685546875,-0.23452011901438236,0.9351017525076866,0.224498198954761
1772790142742592800,6.6625927734375,-0.3533043193489313,0.882173879918456,0.1872905311319977
1772790142752659000,6.672658935546875,-0.4974854112684726,0.870036282879114,0.17052337459586558
1772790142762724900,6.682724853515625,-0.5994599310994148,0.857248112976551,0.18126169929653405
1772790142772790800,6.692790771484375,-0.5034855284661054,0.7681675615102053,0.12082841951325535
1772790142782857000,6.70285693359375,-0.35515783826112746,0.796128166103363,0.13661672107987105
1772790142792922600,6.712922607421875,-0.36413375639915463,0.8442015843987465,0.10532843336872756
1772790142802987800,6.72298779296875,-0.21953239324092863,0.8809007912427187,0.03927154155001044
1772790142813054000,6.733053955078125,0.0028267478585243225,0.8491080611407756,0.02195807624273002
1772790142823120000,6.743119873046875,0.1979968532592058,0.8291133208602667,0.12265578107088804
1772790142833185800,6.753185791015625,0.2925274868249893,0.7766969049245118,0.29165092318616803
1772790142843252000,6.763251953125,0.324760946431756,0.666545508378744,0.5308318736184388
1772790142853317600,6.773317626953125,0.3190174343436956,0.5710153423815966,0.6723389970883726
1772790142863383800,6.7833837890625,0.3789069626390934,0.5243123356565833,0.7809676410462707
1772790142873449700,6.79344970703125,0.44291678573489185,0.4722425412014126,0.8859721762228756
1772790142883516000,6.803515869140625,0.4767348841845989,0.49945671134144065,0.9213973445430398
1772790142893580800,6.813580810546875,0.5560194333016872,0.5572857999756932,0.9378853188116103
1772790142903646700,6.823646728515625,0.563429417297244,0.5849985672876239,0.9158869105584919
1772790142913712600,6.833712646484375,0.5314443794935941,0.5607707194820046,0.818724613314867
1772790142923778800,6.84377880859375,0.5688163710325956,0.5265411176219582,0.7740452213719486
1772790142933844700,6.8538447265625,0.6419979270994662,0.47921325699687,0.7587954105962067
1772790142943911000,6.863910888671875,0.6293880363732576,0.3955623293638229,0.7604943234685808
1772790142953976800,6.873976806640625,0.6077554657578468,0.2951961215123534,0.7877488986842334
1772790142964042800,6.884042724609375,0.5354126986026764,0.21598025371730326,0.8173762674458325
1772790142974108700,6.894108642578125,0.3908709566771984,0.07295183896422386,0.7512063437066971
1772790142984173800,6.904173828125,0.31154139937460423,-0.0953974795281887,0.7385672999512404
1772790142994239700,6.91423974609375,0.28631694174706934,-0.20141893666237592,0.8084131357241422
1772790143004306000,6.924305908203125,0.22729952011108398,-0.28305355603694915,0.813225577507168
1772790143014371800,6.934371826171875,0.21853929055035112,-0.3778364107981324,0.7794555559828877
1772790143024437800,6.944437744140625,0.23425474607646463,-0.451827529682219,0.7890803664837032
1772790143034503700,6.954503662109375,0.1894400373160839,-0.5344914921045303,0.7983186618849635
1772790143044569900,6.96456982421875,0.15132687202095985,-0.6324003699317574,0.7976275378156453
1772790143054635800,6.9746357421875,0.1970171945720911,-0.704578594174981,0.8264864794880151
1772790143064701700,6.98470166015625,0.20222820721864698,-0.801135765132308,0.8099022052381187
1772790143074766800,6.994766845703125,0.08523205934464931,-0.9313833165064453,0.7681363626543432
1772790143084832800,7.004832763671875,0.021512159106135367,-1.0395987765535712,0.7639508936632424
1772790143094898700,7.014898681640625,-0.029801848545670508,-1.1418690644606948,0.7859490827206522
1772790143104964600,7.024964599609375,-0.03830371943116188,-1.1780872097894548,0.7347858817163855
1772790143115030800,7.03503076171875,-0.10886661743223666,-1.1892349190086127,0.7530429114840924
1772790143125096700,7.0450966796875,-0.24649872609972953,-1.1557573045596479,0.7318833652079105
1772790143135163000,7.055162841796875,-0.3135843033790588,-1.1152131127253173,0.6677156481366604
1772790143145228800,7.065228759765625,-0.381302333343029,-1.1097039939150213,0.5896893554523587
1772790143155294700,7.075294677734375,-0.46903614637553687,-1.1141785089805722,0.5908293923329562
1772790143165359600,7.085359619140625,-0.5916928042292594,-1.1320338991448282,0.5850114267691969
1772790143175425800,7.09542578125,-0.712066904103756,-1.1421823681935668,0.5345906416300684
1772790143185491700,7.10549169921875,-0.8519359780430793,-1.2181301741033792,0.5618201554697007
1772790143195558000,7.115557861328125,-0.9368336908668279,-1.1989943887397647,0.5681124605469405
1772790143205623800,7.125623779296875,-0.9792150350004434,-1.1050061914876104,0.5514785019364208
1772790143215689700,7.135689697265625,-1.0526590413957833,-1.1131468278452754,0.5285707237534225
1772790143225755600,7.145755615234375,-1.2885130393624304,-1.0471221577957273,0.5012669025685638
1772790143235821800,7.15582177734375,-1.2781383603423833,-0.9886419117763638,0.4645603161357343
1772790143245887700,7.1658876953125,-1.2575965075731277,-1.0153399490877986,0.5206435840159654
1772790143255953000,7.175952880859375,-1.4963245996713637,-0.8897437306508421,0.5303275042928755
1772790143266018800,7.186018798828125,-1.6999767022132872,-0.751056559972465,0.49106758011542256
1772790143276084700,7.196084716796875,-1.7581565039813518,-0.6279191328644752,0.32821744356118143
1772790143286150700,7.206150634765625,-1.7772171782821415,-0.39917438238114117,0.13635748562179506
1772790143296216800,7.216216796875,-1.700161995652318,-0.15443009873330593,0.03861987270824611
1772790143306282800,7.22628271484375,-1.6720786414623259,0.10646394020467996,-0.09392294999621809
1772790143316348700,7.2363486328125,-1.521249782091379,0.38535920751839875,-0.22682255024909972
1772790143326414800,7.246414794921875,-1.338117320486903,0.6014382454350591,-0.3166241825316101
1772790143336480800,7.256480712890625,-1.2516419830828904,0.811387694555521,-0.5040549258518964
1772790143346545700,7.266545654296875,-1.0820347734838724,0.9736009945109486,-0.5601788910686969
1772790143356611800,7.27661181640625,-0.9639309566289186,1.049561952163279,-0.5832450746838003
1772790143366677800,7.286677734375,-0.8312474102795123,1.0311384067222475,-0.7591610290382057
1772790143376743700,7.29674365234375,-0.6888438494265079,1.0042264343991876,-0.7912193512737751
1772790143386809900,7.306809814453125,-0.5329220508307219,1.0573638580858706,-0.8511736153684556
1772790143396875800,7.316875732421875,-0.2998994768977165,1.1154650416597722,-1.0496212811350822
1772790143406941700,7.326941650390625,-0.18234043444395065,1.1456912530973553,-1.2535869796708226
1772790143417007600,7.337007568359375,-0.10909867262244224,1.2150973822787403,-1.4062880626544356
1772790143427072800,7.34707275390625,0.05805880573689937,1.1786737775057554,-1.5212046277754008
1772790143437138700,7.357138671875,0.20914134760797023,1.101241285996139,-1.7258854888431727
1772790143447204900,7.367204833984375,0.37394670988321305,1.281672964209318,-1.841833881229907
1772790143457270800,7.377270751953125,0.1703565666615963,1.3587602955430744,-1.7266346997752784
1772790143467336700,7.387336669921875,0.47540509688556193,1.656596994692087,-1.6617681137196718
1772790143477402600,7.397402587890625,1.0145061286121606,1.4486650228738784,-2.1102879801586267
1772790143487468800,7.40746875,0.8734937298566102,1.2294672684147954,-2.242551693660766
1772790143497534700,7.41753466796875,0.40039281826019285,1.1397262072131038,-2.3128167777590454
1772790143507601000,7.427600830078125,0.3471703466385603,1.1764818204194307,-2.082841900958866
1772790143517665800,7.437665771484375,0.6498696833878755,1.1841916641443968,-1.8181306418202816
1772790143527731700,7.447731689453125,0.7593097167938947,1.0351838827207684,-1.8808413650162517
1772790143537797600,7.457797607421875,0.7141250056773424,0.9116378748118877,-2.0085456616483626
1772790143547863800,7.46786376953125,0.7597691509991884,0.7904717477768659,-1.9133160860329865
1772790143557929700,7.4779296875,0.8274725679159164,0.656976300522685,-1.707674709369987
1772790143567996000,7.487995849609375,0.9011310938447713,0.5507429542034864,-1.4764818350821733
1772790143578061800,7.498061767578125,1.0009113185018301,0.45462066753208635,-1.306377197355032
1772790143588127700,7.508127685546875,1.1538140615373849,0.42029783443063495,-1.2377122419297695
1772790143598192600,7.518192626953125,1.1469184568047524,0.21287264309078455,-1.2548039542451501
1772790143608258800,7.5282587890625,1.3141735503196716,0.19050357489436864,-1.1214601904213428
1772790143618324700,7.53832470703125,1.3145166646689175,0.11058598857074975,-1.0328292824186385
1772790143628391000,7.548390869140625,1.232049393862486,-0.06515256339013577,-1.0013220912598073
1772790143638456800,7.558456787109375,1.133645718255639,-0.23150983128249644,-0.830545837881416
1772790143648522800,7.568522705078125,1.0280717126280068,-0.2781108389377594,-0.6622032413907348
1772790143658588700,7.578588623046875,0.8932517387717962,-0.3137117291510105,-0.7004995081678033
1772790143668654600,7.588654541015625,0.7719149313449859,-0.4124316311001777,-0.728743605877459
1772790143678720800,7.598720703125,0.657826779872179,-0.4652782551467418,-0.649365240997076
1772790143688785700,7.60878564453125,0.5201344654500484,-0.49505935316532845,-0.5807828492887318
1772790143698851800,7.618851806640625,0.3745464293420315,-0.5383969751104712,-0.5130867388956248
1772790143708917800,7.628917724609375,0.20701719506084917,-0.6040571957617997,-0.4613907461889088
1772790143718983700,7.638983642578125,0.08960486760139465,-0.6611489100322127,-0.4376952516943216
1772790143729049600,7.649049560546875,-0.027678280520439146,-0.6815095610156655,-0.41805648524463174
1772790143739115800,7.65911572265625,-0.11983224808275698,-0.6847925282090902,-0.3856049989730119
1772790143749181700,7.669181640625,-0.18758184222877025,-0.722118196388334,-0.31959596488401293
1772790143759248000,7.679247802734375,-0.24993045411407946,-0.7436636732421815,-0.2532956927634776
1772790143769313800,7.689313720703125,-0.23728315398693084,-0.7387180335335433,-0.1778723491191864
1772790143779378700,7.699378662109375,-0.1797282061189413,-0.7396281341157853,-0.15419789741262793
1772790143789444600,7.709444580078125,-0.18202128549218177,-0.7945506876535713,-0.15542875438183545
1772790143799510800,7.7195107421875,-0.18103344349861145,-0.843277163030207,-0.07806815906465053
1772790143809576700,7.72957666015625,-0.19046938036382197,-0.8826622479572892,0.032184798159450294
1772790143819643000,7.739642822265625,-0.21007658263146875,-0.9508701072648167,0.19992606775611638
1772790143829708800,7.749708740234375,-0.3401268578678369,-1.022934495870024,0.2108735782280564
1772790143839774700,7.759774658203125,-0.3662351125925779,-1.0541999872274697,0.1710270132690668
1772790143849841000,7.7698408203125,-0.24075404496788977,-1.0404223678961395,0.1303165249571204
1772790143859905800,7.77990576171875,-0.21114391960203646,-1.0257998221732676,0.14869593899548053
1772790143869971700,7.7899716796875,-0.25167817456424235,-1.0134931521773338,0.2298657173372805
1772790143880038000,7.800037841796875,-0.33198680603206154,-1.0401172474697231,0.24653584323972463
1772790143890103800,7.810103759765625,-0.4432599000841379,-1.0339306677892803,0.18212869138941168
1772790143900169700,7.820169677734375,-0.47933776015937324,-1.048374934335798,0.1901353991691023
1772790143910236000,7.83023583984375,-0.5058306302875281,-1.0533614905767141,0.1864035191643983
1772790143920301800,7.8403017578125,-0.6118260761976242,-1.020354708509892,0.23726634898260235
1772790143930368000,7.850367919921875,-0.7154623917609453,-0.9235777573220432,0.22087124062925576
1772790143940434000,7.860433837890625,-0.7122288166671991,-0.8759419997915625,0.17385398032329977
1772790143950499000,7.8704990234375,-0.726302350205183,-0.8606837865136563,0.1417862326722592
1772790143960565000,7.88056494140625,-0.7729489505678415,-0.7872279435500502,0.13747742956243456
1772790143970631000,7.890630859375,-0.8326759817779064,-0.7761496463052928,0.12955825393572448
1772790143980696800,7.90069677734375,-0.8684832082182169,-0.7964080059580504,0.1740831129040569
1772790143990763000,7.910762939453125,-0.9621370589494704,-0.7797391952298581,0.24817170081324874
1772790144000829000,7.920828857421875,-1.0434756179869173,-0.8045845904119312,0.21128632374741135
1772790144010895000,7.93089501953125,-1.0102367807298898,-0.8784487219154834,0.22412498172819614
1772790144020961000,7.9409609375,-1.0974147134453058,-0.9599977088332176,0.30552308893315494
1772790144031027200,7.951027099609375,-1.2808224848598242,-0.9803625976003706,0.3611784137248993
1772790144041091800,7.961091796875,-1.4349275894224642,-0.9356491572573781,0.4614131041511893
1772790144051158000,7.971157958984375,-1.6744231587618588,-0.838787304265052,0.48109304286148397
1772790144061224000,7.981223876953125,-1.9528595763921737,-0.6554371082566678,0.4292148254556581
1772790144071290000,7.9912900390625,-1.9901672705233096,-0.37824806033894415,0.30162388953752817
1772790144081354800,8.001354736328125,-1.7832412608772514,-0.15056012543216346,0.2048049989040941
1772790144091421000,8.0114208984375,-1.6218921765357255,0.09822525030001997,0.10162526800185441
1772790144101486800,8.02148681640625,-1.435690975010395,0.4090481261417269,0.06284119944153353
1772790144111553000,8.031552978515625,-1.2293237682908773,0.7452285844713449,0.10328004947155714
1772790144121619000,8.041618896484374,-1.1156395214438437,0.9583025953531265,0.003283314253296703
1772790144131685000,8.05168505859375,-1.139839312198758,1.0426775994770228,-0.1414202854366973
1772790144141751000,8.0617509765625,-1.1116419762402772,1.0864371000960469,-0.12968205384532921
1772790144151817000,8.07181689453125,-0.9714151749044656,1.1275874411299824,0.012466728529008105
1772790144161883000,8.0818828125,-0.7198281857550144,1.1878873037919402,0.0827329634047579
1772790144171948000,8.091947998046875,-0.3634761692732572,1.250404550242424,0.13750252747107297
1772790144182014000,8.102013916015625,0.029579730227589605,1.2962418800488114,0.13594713298892602
1772790144192080100,8.112080078125,0.3223427793741226,1.290313951304555,0.12218376137865707
1772790144202146000,8.12214599609375,0.42181086934208867,1.2479793689221144,0.22248819257291033
1772790144212212000,8.1322119140625,0.43887423234581946,1.2410694434031844,0.292875679208152
1772790144222278000,8.14227783203125,0.4739198267638683,1.213669687563181,0.37295645673684774
1772790144232343800,8.15234375,0.5767769746482372,1.2207257435545324,0.4132300149362534
1772790144242410000,8.162409912109375,0.650735944828391,1.2092770055621862,0.5647394769825042
1772790144252475100,8.17247509765625,0.6695429366290568,1.193906125690043,0.5446664473013952
1772790144262541000,8.182541015625,0.7179670680582523,1.1882435698837042,0.6144194536916912
1772790144272607000,8.19260693359375,0.6203577576994895,1.1000839326545595,0.732717770205438
1772790144282673000,8.2026728515625,0.5010884041965008,1.1075380480527877,0.7729098606664687
1772790144292738800,8.21273876953125,0.44908641428053375,1.1063076294749974,0.8954653231680393
1772790144302805000,8.222804931640624,0.2599006439864635,1.0274906978696585,0.9238882845759391
1772790144312871000,8.232870849609375,0.07326689626276493,1.007817736889422,0.8922532292537391
1772790144322937000,8.24293701171875,-0.11251987924277781,1.0354387342646718,0.8300801931310444
1772790144333002000,8.253001953125,-0.2816273226261139,1.0443383722960948,0.7132884817879647
1772790144343068000,8.26306787109375,-0.38643268196880814,1.068221644447744,0.6446051869884133
1772790144353133800,8.2731337890625,-0.464744586661458,1.0599898226752877,0.5809458212981
1772790144363200000,8.283199951171875,-0.5188982016533613,1.023923653037846,0.46206689188480377
1772790144373266000,8.293265869140624,-0.4826163434386253,1.0348688254222274,0.4381553434867412
1772790144383332000,8.30333203125,-0.3762140702933073,0.9860931040763854,0.3766596951689571
1772790144393398000,8.31339794921875,-0.20825696598887442,0.9269649155423044,0.29283474440956486
1772790144403464200,8.323464111328125,-0.01740297022163868,0.8953954728022218,0.2618565455609001
1772790144413529900,8.33352978515625,0.04729834226965904,0.8085705913081764,0.289618266581092
1772790144423595000,8.343594970703125,0.008594809865951538,0.6510659074351192,0.35300036796629425
1772790144433661000,8.353660888671875,0.01656242774426937,0.4960168000206351,0.4004662122899666
1772790144443727000,8.36372705078125,0.12919862684309483,0.39774449570849535,0.40760950817335395
1772790144453793000,8.37379296875,0.235389887586236,0.31141324295029044,0.4097322359483689
1772790144463859200,8.383859130859374,0.26951661359369755,0.24426088404506444,0.4058602898858487
1772790144473924900,8.3939248046875,0.2541431033730507,0.19383067349046468,0.39651645175088196
1772790144483990800,8.40399072265625,0.18783903186023235,0.09888196064308286,0.32473084355443715
1772790144494057000,8.414056884765625,0.06473229215145111,0.020473171447217463,0.24817926306519655
1772790144504123000,8.424122802734376,-0.011755319723486899,0.004686842641979456,0.2237987454485148
1772790144514188000,8.43418798828125,-0.018193828338384628,-0.023168694141507146,0.1671965317280963
1772790144524254200,8.444254150390625,0.014679682737588882,-0.048619654001295566,0.10168229541871696
1772790144534319900,8.45431982421875,-0.016174889731407165,-0.045375849774479865,0.08111713483911007
1772790144544385800,8.4643857421875,-0.08766717753708363,-0.13210370063483715,-0.007744841973111033
1772790144554452000,8.474451904296876,-0.026198271095752713,-0.19838746001198887,-0.06399068000391125
1772790144564518000,8.484517822265625,0.0752373195528984,-0.23358298429474234,-0.10003142293915152
1772790144574584000,8.494583984375,0.15929799703061578,-0.2868957645483315,-0.11925634789094328
1772790144584650000,8.50464990234375,0.3013502602279186,-0.35668212521895765,-0.11449753599129617
1772790144594715000,8.51471484375,0.41856969546377654,-0.41605829716473813,-0.09434957791045308
1772790144604780800,8.52478076171875,0.3565846561938524,-0.514136540209502,-0.06733509506098925
1772790144614847000,8.534846923828125,0.2484825933933258,-0.6098040688507258,0.005629676450043916
1772790144624913000,8.544912841796876,0.2568769122511148,-0.6680119276694954,0.05876425059251487
1772790144634979000,8.55497900390625,0.3035468934893608,-0.6477534218862653,0.1145821455348283
1772790144645045000,8.565044921875,0.2005062057316303,-0.6435745287664234,0.12083536071069538
1772790144655111200,8.575111083984375,0.05454875178933143,-0.6696632020078599,0.1925798697117716
1772790144665176800,8.5851767578125,0.03189619047641754,-0.621357436261326,0.31214849842227993
1772790144675242000,8.595241943359374,-0.012332827350497245,-0.5777053415395319,0.3479750140849501
1772790144685308000,8.605307861328125,-0.05731354032754898,-0.5406457769505679,0.4088184090390801
1772790144695374000,8.6153740234375,-0.08511164783537388,-0.5094118497751653,0.4810114655252546
1772790144705440000,8.62543994140625,-0.19075462704598903,-0.49627574321776624,0.5373833410885185
1772790144715507000,8.6355068359375,-0.3104647100538015,-0.5118333778336643,0.6046745970077813
1772790144725573000,8.645572998046875,-0.35963118428289886,-0.48566506348475813,0.6396673652600496
1772790144735638000,8.655637939453126,-0.362560807994008,-0.4712630286447704,0.6554854043778031
1772790144745704000,8.665703857421875,-0.4782990647614002,-0.5248549181006849,0.7409347597349435
1772790144755769900,8.675769775390625,-0.5865215390712022,-0.5425017800807953,0.7505286636408418
1772790144765836000,8.6858359375,-0.5782996541708707,-0.5763268927931785,0.7581012908522039
1772790144775902000,8.69590185546875,-0.6266220787912606,-0.5861445224523544,0.7363229550905526
1772790144785968000,8.705968017578124,-0.8266261802196502,-0.556820666681975,0.7721213406372814
1772790144796033800,8.71603369140625,-1.064205686804652,-0.49574704316854473,0.7740038664482534
1772790144806100000,8.726099853515626,-1.3092904544532298,-0.3976172160670161,0.7164326980978251
1772790144816164900,8.736164794921875,-1.5065572398722171,-0.2960055381990969,0.6676657445803285
1772790144826231000,8.74623095703125,-1.5108850399434566,-0.14325930089950561,0.620737769993022
1772790144836297000,8.756296875,-1.397100255331397,0.0977265069976449,0.5436570145305246
1772790144846363100,8.766363037109375,-1.124361757081747,0.3275359641030431,0.43466903574094173
1772790144856428800,8.7764287109375,-0.8149135305941104,0.41219942977949975,0.3677190675400197
1772790144866495000,8.786494873046875,-0.572711624905467,0.47161695664897557,0.4023313851073384
1772790144876561000,8.796560791015626,-0.250337865871191,0.5957566926673055,0.5037143687859177
1772790144886627000,8.806626953125,-0.01495382350385189,0.5841774601630866,0.5335677283231168
1772790144896693000,8.81669287109375,0.07782265987098216,0.513691572920978,0.5588591867722571
1772790144906759700,8.826759765625,0.09037059127688407,0.44321620707288384,0.5602323748216033
1772790144916825900,8.836825927734376,0.21887129898369312,0.38931817427724597,0.6312099180381745
1772790144926891800,8.846891845703125,0.38054128584265706,0.35916385903209447,0.690703578883782
1772790144936958000,8.8569580078125,0.4997995334297418,0.38972193277254696,0.6927741015475243
1772790144947024000,8.86702392578125,0.5730044703721999,0.4190215308845043,0.651344870506972
1772790144957089800,8.87708984375,0.5811737483024597,0.462576448842138,0.5612107913997024
1772790144967156000,8.887156005859374,0.5069616801440715,0.511420120857656,0.48115430806204673
1772790144977222000,8.897221923828125,0.3896913915038109,0.5202637909181416,0.43701216480098665
1772790144987286800,8.907286865234376,0.3138613667547703,0.545373389994353,0.41333362144120034
1772790144997353000,8.91735302734375,0.2183271091043949,0.5605110456325113,0.45606589790433644
1772790145007419000,8.9274189453125,0.08441022156774997,0.5878261919289827,0.44163850942738353
1772790145017484800,8.93748486328125,-0.039735213539004326,0.6835265999265014,0.41834823473282157
1772790145027551000,8.947551025390625,-0.13587971204221247,0.7519041167125106,0.43102541854158044
1772790145037616600,8.95761669921875,-0.24398703553974627,0.8256848077163099,0.4859438804261386
1772790145047682800,8.967682861328125,-0.365600906342268,0.8811709864862263,0.49943121157400305
1772790145057748700,8.977748779296874,-0.470986695921421,0.9523398875564336,0.5473116645805537
1772790145067814000,8.98781396484375,-0.5271890601366758,1.0782444412901997,0.6046989277314394
1772790145077879800,8.9978798828125,-0.5628174228787421,1.1858775714047252,0.6131826053731143
1772790145087946000,9.007946044921875,-0.49105917761325835,1.25460360936746,0.6477827210459858
1772790145098011600,9.01801171875,-0.39723406196832656,1.365578889516741,0.6934189022570848
1772790145108077800,9.028077880859374,-0.2888537667483091,1.4247491636268794,0.6968149013709276
1772790145118143700,9.038143798828125,-0.09883622180521488,1.4634901054315268,0.7349599961742759
1772790145128210000,9.0482099609375,0.1147469076424837,1.4662797361500561,0.7686758032932877
1772790145138275800,9.05827587890625,0.3099947544544935,1.4573628547228872,0.8084703458040953
1772790145148341000,9.068341064453126,0.4574205273836851,1.376221425692737,0.8237451448906212
1772790145158406700,9.07840673828125,0.5744429787427187,1.281194971434027,0.8372354717131704
1772790145168472800,9.088472900390625,0.6754390089303255,1.260816930924356,0.9286133403364568
1772790145178538800,9.098538818359375,0.7224953591376543,1.1659697787553072,0.9604833003930747
1772790145188605000,9.10860498046875,0.7948118228077888,1.1009041629962621,0.9129504917804151
1772790145198670800,9.1186708984375,0.8918266744047403,1.1062352948911487,0.9903159094031899
1772790145208737000,9.128737060546875,0.9143342742890119,1.0599883613705634,1.0489716581199318
1772790145218803000,9.138802978515624,0.9589724574387073,1.0598318556345998,1.114155201170221
1772790145228867800,9.148867919921875,0.9654185648381709,1.1170432507619261,1.1909754790656268
1772790145238933800,9.158933837890626,0.9034399553090333,1.1484351449780166,1.249055765981972
1772790145249000000,9.169,0.8728291284680366,1.2483503941915928,1.2615201107576488
1772790145259065900,9.17906591796875,0.9369383202850818,1.4973545272409916,1.3141644902303815
1772790145269131800,9.1891318359375,0.8529144676864147,1.5887486163467168,1.3136426583133638
1772790145279198000,9.199197998046875,0.72686758287251,1.5633165073178708,1.324751789087802
1772790145289263900,9.209263916015624,0.4705079724937677,1.519789938671887,1.4107681306779383
1772790145299329800,9.219329833984375,0.3004799071341753,1.4378370471283792,1.4878861494109035
1772790145309395000,9.22939501953125,0.15249357771277428,1.3941462278313934,1.6258865068688988
1772790145319460900,9.2394609375,-0.032522797942161556,1.3585751482345163,1.6108809531778097
1772790145329526800,9.24952685546875,-0.030077742877602575,1.436731716234982,1.6035633236408233
1772790145339593000,9.259593017578124,-0.048904023900628084,1.5176913589574397,1.594798125644028
1772790145349659000,9.269658935546875,-0.19501403805613515,1.5611944005973637,1.5629669632278382
1772790145359724800,9.279724853515624,-0.33212533771991726,1.5374337319120763,1.5974011477492749
1772790145369790700,9.289790771484375,-0.5342313798636198,1.4896793164379893,1.6617391798861323
1772790145379857000,9.29985693359375,-0.8194143491446971,1.47834806734547,1.637495696119964
1772790145389922800,9.3099228515625,-1.0590963809669016,1.5208461697265505,1.5977768491938709
1772790145399988000,9.319988037109376,-1.380678697362542,1.544896322877705,1.5698406483896077
1772790145410053600,9.3300537109375,-1.819242548584938,1.6637733160622417,1.4760957583740353
1772790145420119800,9.340119873046875,-2.082500686305761,1.798086801701039,1.4126264718957244
1772790145430185700,9.350185791015624,-2.2127806786447763,1.9240369481422006,1.388162184985727
1772790145440252000,9.360251953125,-2.2733669570326804,2.1249987886868418,1.2368572325356304
1772790145450317800,9.37031787109375,-2.1987860555619,2.3347337182737884,1.0514869288764894
1772790145460384000,9.380384033203125,-2.1110247700005766,2.3980627194985744,0.7809718057647347
1772790145470450000,9.390449951171876,-1.9924965902537106,2.4483508912339804,0.5341827184163034
1772790145480514800,9.400514892578125,-1.8806237767428158,2.894877099637687,0.5111730872940272
1772790145490580700,9.410580810546875,-1.885985596036911,2.8978078923925756,0.3965248177204281
1772790145500647000,9.42064697265625,-1.8524597585320473,2.6325392916321753,0.318214556995593
1772790145510712800,9.430712890625,-1.783587297835946,2.6324492752611635,0.4092983380431309
1772790145520779000,9.440779052734374,-1.5849854644209145,2.6142542778789997,0.3980521003529429
1772790145530845000,9.450844970703125,-1.1422557256907224,2.575176359204948,0.4223678456377238
1772790145540910800,9.460910888671876,-0.706814974924922,2.5735563567876816,0.47278066666610535
1772790145550976800,9.470976806640625,-0.4255751903116703,2.5605071978613734,0.5385093494437635
1772790145561042000,9.4810419921875,-0.26736381947398186,2.480853523170948,0.6180141902480274
1772790145571107800,9.49110791015625,-0.2643599614828825,2.394205605679005,0.7224017625700682
1772790145581174000,9.501174072265625,-0.29209435610473156,2.352142533714324,0.7709047313891351
1772790145591240000,9.511239990234374,-0.24541385347247122,2.2752125848993656,0.8318583087194711
1772790145601305900,9.521305908203125,-0.21572890930473804,2.1990892762921748,0.9032891486614942
1772790145611371800,9.531371826171876,-0.24456863481998442,2.1504650922462343,0.9922135597180575
1772790145621437700,9.541437744140625,-0.3156611096531153,2.0845659482724965,1.0829703738335519
1772790145631504000,9.55150390625,-0.39670214704871176,1.9987296394243834,1.146182616810873
1772790145641569000,9.561569091796875,-0.4600929614633322,1.9492983767792582,1.1562309864860028
1772790145651635000,9.571635009765625,-0.502443910458684,1.9237502401553093,1.128689411022514
1772790145661700900,9.581700927734374,-0.5019038122326135,1.871504504611343,1.146163912110403
1772790145671766800,9.591766845703125,-0.5293219805121422,1.7981771103329955,1.2326248556628823
1772790145681832700,9.601832763671876,-0.592777092334628,1.7278820694878696,1.3250316289424895
1772790145691899000,9.61189892578125,-0.6925812823891639,1.632522730012983,1.3754723608911037
1772790145701964800,9.62196484375,-0.7837403936952352,1.5368401499330997,1.4114450070261955
1772790145712031000,9.632031005859375,-0.8347054417788982,1.5110665339902043,1.434396551285684
1772790145722097000,9.642096923828126,-0.8151099299490452,1.5476896068580448,1.421161952789873
1772790145732161800,9.652161865234374,-0.8025807032436132,1.5479051493048668,1.432623111872375
1772790145742227700,9.662227783203125,-0.7390560333162546,1.5668923199780285,1.4691384865820407
1772790145752294000,9.6722939453125,-0.6254629718840122,1.581011153962463,1.5169889097765088
1772790145762359800,9.68235986328125,-0.5944418106764555,1.5869925664596258,1.5596771279022097
1772790145772426000,9.692426025390626,-0.6892179434359074,1.5367219303809105,1.5768632405027747
1772790145782492000,9.702491943359375,-0.7105518233656882,1.473764246686548,1.634399775931239
1772790145792558000,9.71255810546875,-0.6619809769421815,1.4471986035831272,1.6987544669419525
1772790145802623700,9.722623779296875,-0.6552613132983446,1.4346001110337674,1.7255919127240775
1772790145812689000,9.73268896484375,-0.6881541135966778,1.393198279456794,1.7079489962667225
1772790145822754800,9.7427548828125,-0.7360597741097211,1.354035020586848,1.7003376444801688
1772790145832821000,9.752821044921875,-0.7625982369452714,1.362846541943401,1.6833996614217757
1772790145842887000,9.762886962890626,-0.7436217337965965,1.3799232028201223,1.6030279015898703
1772790145852952800,9.772952880859375,-0.7911042004615068,1.3648651882894336,1.5137581111617386
1772790145863018800,9.783018798828126,-0.8912626107811927,1.3363091020211577,1.4930677898325024
1772790145873084700,9.793084716796875,-0.8601789057314395,1.3520888549551366,1.438477098597586
1772790145883150800,9.80315087890625,-0.7239619245588779,1.3683565375365316,1.4190604504659772
1772790145893216000,9.813216064453124,-0.7006991223931313,1.3520751186907292,1.3792404812529682
1772790145903282000,9.823281982421875,-0.6836006880760193,1.3183476211339236,1.3179352409407497
1772790145913344800,9.8333447265625,-0.5972767418414354,1.2919504664652048,1.2774351805090904
1772790145923411000,9.843410888671874,-0.5402431874990463,1.2704314392268656,1.2558411883383989
1772790145933476900,9.853476806640625,-0.5120312384933233,1.2348572908900677,1.2366091029934585
1772790145943543000,9.86354296875,-0.502426959323883,1.1558297852739692,1.2446699521131812
1772790145953609000,9.87360888671875,-0.5030985749751329,1.0825294251330195,1.3273914899416268
1772790145963675000,9.8836748046875,-0.5180640889167786,1.0389255534671247,1.3797056145466864
1772790145973739800,9.89373974609375,-0.5032055424809455,1.0182704495817423,1.4200458082415162
1772790145983806000,9.903805908203125,-0.41207331918179985,1.0317049545638262,1.3967257229305803
1772790145993872000,9.913871826171874,-0.3328875542640686,1.0795184067487715,1.353252053515613
1772790146003938000,9.92393798828125,-0.2835468925118446,1.0988535140767692,1.317133130777627
1772790146014004000,9.93400390625,-0.201377727869153,1.1277610441312194,1.2818982973977924
1772790146024070000,9.94406982421875,-0.1847691228955984,1.1522390673056244,1.2098648884527385
1772790146034135800,9.9541357421875,-0.2841927891999483,1.1730951005905865,1.155043749462813
1772790146044201700,9.96420166015625,-0.3850228151708841,1.1349344428919255,1.1455746409803629
1772790146054267000,9.974266845703125,-0.3921592429220676,1.1374104776166378,1.098748738528043
1772790146064333000,9.9843330078125,-0.3667734572529793,1.1903117544598876,0.9942409008271992
1772790146074399000,9.99439892578125,-0.36593817547261714,1.2667337537527084,0.8364521393157541
1772790146084465000,10.00446484375,-0.3897036664634943,1.306188689045608,0.7085217057775706
1772790146094530800,10.01453076171875,-0.32584757262468333,1.3357802558414638,0.6053344856886193
1772790146104596700,10.0245966796875,-0.30371055961847304,1.3728314909934998,0.5260265922285616
1772790146114663000,10.034662841796875,-0.37812896400392054,1.327408879467845,0.39267986926268783
1772790146124728800,10.044728759765626,-0.44335751523971556,1.2573499854661523,0.2706742591962218
1772790146134794000,10.0547939453125,-0.5143734177052974,1.2362892233893275,0.15317344973571598
1772790146144860000,10.06485986328125,-0.6007768589168787,1.23187827507928,0.012263707637041807
1772790146154925800,10.07492578125,-0.6206044259369373,1.1579321643806992,-0.18012867667861282
1772790146164991700,10.08499169921875,-0.5862894838809967,1.1655014305911957,-0.4044315722569823
1772790146175058000,10.095057861328126,-0.6490104362100363,1.11998763365075,-0.6937548562131822
1772790146185123800,10.105123779296875,-0.5547545279324054,1.0183690876506268,-0.8845650128386914
1772790146195190000,10.11518994140625,-0.40019875699281693,0.9552627892658114,-0.99433267076388
1772790146205256000,10.125255859375,-0.3450724975764751,0.9095074386544525,-1.2160341516721993
1772790146215321900,10.13532177734375,-0.35553660844564433,0.8465652447901666,-1.4357368599787355
1772790146225386800,10.14538671875,-0.4091530478209257,0.7196072364807129,-1.5777134275913238
1772790146235453000,10.155452880859375,-0.3569347848057747,0.6477154279634356,-1.667970037099719
1772790146245518800,10.165518798828124,-0.2793132004648447,0.5751387059219181,-1.8473861085295675
1772790146255585000,10.1755849609375,-0.13439035026729107,0.4907786071062088,-2.0063670024350286
1772790146265651000,10.18565087890625,-0.019717676904797553,0.43063817278966304,-2.0410937401622533
1772790146275716900,10.195716796875,-0.02258767938315868,0.36873189784437416,-2.117338337061554
1772790146285782800,10.20578271484375,-0.12280863354504108,0.24783888866230844,-2.0311689968667923
1772790146295849000,10.215848876953125,-0.2739350145578384,0.11229425379335879,-2.004175045348704
1772790146305913900,10.225913818359375,-0.35709728189110757,0.01739785565510392,-2.058357740304619
1772790146315980000,10.23597998046875,-0.5128519072264432,-0.03975070336908102,-2.1369041844055054
1772790146326046000,10.2460458984375,-0.7878010672628879,-0.07559256273135542,-2.155321153975278
1772790146336111900,10.25611181640625,-0.9144541012763977,-0.03991524628102779,-2.196054730901867
1772790146346177800,10.266177734375,-0.8660825768172741,0.013960866943746804,-2.2461435806728898
1772790146356244000,10.276243896484376,-0.8919903405338525,0.09961173622235656,-2.2810598496228454
1772790146366310000,10.286309814453125,-0.9239578426808118,0.15762757960036397,-2.328032613199949
1772790146376375800,10.296375732421875,-0.9317021731972693,0.18334756565988064,-2.3552016290239988
1772790146386441000,10.30644091796875,-0.8755202672481537,0.2240579078413546,-2.361686022607237
1772790146396507000,10.3165068359375,-0.7239549102962016,0.21672902625799179,-2.365516979072243
1772790146406572800,10.32657275390625,-0.5112859730839729,0.23369521249756214,-2.3898818972609934
1772790146416639000,10.336638916015625,-0.19192250178158282,0.2322206099003553,-2.403339344727248
1772790146426705000,10.346704833984376,0.03669803780019283,0.126563017642498,-2.325288721319288
1772790146436770800,10.356770751953125,0.08922726646065711,-0.04812660978734493,-2.1745221135295925
1772790146446837000,10.3668369140625,0.03903670988082886,-0.2817402814812958,-1.978450529244542
1772790146456903000,10.37690283203125,0.08285130168795585,-0.3966586001679301,-1.881915862379968
1772790146466967800,10.3869677734375,0.33496845219135285,-0.40116979398205876,-1.7615427854187786
1772790146477033700,10.39703369140625,0.5689321063667535,-0.39913536554500456,-1.6837752167358992
1772790146487100000,10.407099853515625,0.7261871993929148,-0.3654233578182757,-1.5729361301869154
1772790146497165800,10.417165771484376,0.8190186278253794,-0.3391808091893792,-1.4738091087415814
1772790146507232000,10.42723193359375,0.8778963487297295,-0.32723902698308227,-1.3669536850012838
1772790146517298000,10.4372978515625,0.8571551739960909,-0.3207897047132253,-1.208713088069111
1772790146527363800,10.44736376953125,0.8042021669656038,-0.3280715322844684,-1.0661591589599848
1772790146537429800,10.4574296875,0.7496861484020948,-0.2737183030672371,-0.9693465519368648
1772790146547495000,10.467494873046874,0.7846510787993669,-0.22221403354033825,-0.9428945983409881
1772790146557560800,10.477560791015625,0.8921078294336795,-0.2681348038464784,-0.8077968304567038
1772790146567627000,10.487626953125,0.9063046970903873,-0.27930428650602696,-0.721801093263179
1772790146577693000,10.49769287109375,0.9081155459046363,-0.3135993548177182,-0.6045477557577192
1772790146587758800,10.5077587890625,0.8711001127183436,-0.3643710722863674,-0.4552962287060916
1772790146597824800,10.51782470703125,0.7871896573662758,-0.402722868642956,-0.359716816739738
1772790146607891000,10.527890869140625,0.7119453235507011,-0.49475014108568427,-0.19097206918895243
1772790146617956900,10.537956787109374,0.6835743845909833,-0.5810828551486135,-0.004582943876087665
1772790146628022000,10.54802197265625,0.6380909827888012,-0.6686357586562633,0.16157134879007934
1772790146638088000,10.558087890625,0.5853431429415941,-0.7502757848583161,0.30403716122433544
1772790146648153900,10.56815380859375,0.49594578061103817,-0.8233210011944174,0.47024157664254307
1772790146658219800,10.5782197265625,0.41002866161167617,-0.8653099850095808,0.6258075475379824
1772790146668286000,10.588285888671875,0.3151607589155435,-0.9408822356052696,0.7090260751031339
1772790146678352000,10.598351806640625,0.3114817781418562,-0.9496282905101776,0.7851410542733966
1772790146688417800,10.608417724609374,0.24814473974108694,-0.9613213586524129,0.8512431734733283
1772790146698484000,10.61848388671875,0.1413765558928251,-1.0063961796537042,0.9313324631020427
1772790146708548900,10.628548828125,0.013673136043548584,-1.0361952517203985,1.128891071074456
1772790146718614800,10.63861474609375,-0.10134265166819095,-1.0569188907973468,1.222872254063934
1772790146728681000,10.648680908203126,-0.241671159812808,-1.0669336504638194,1.2748064394406973
1772790146738747000,10.658746826171875,-0.4585854795098305,-1.0522092518016695,1.2503735705822705
1772790146748812800,10.668812744140626,-0.566587004545331,-0.9953608447678387,1.1811733392365276
1772790146758879000,10.67887890625,-0.6248655905127525,-0.9439477606557309,1.1841416875228286
1772790146768945000,10.68894482421875,-0.7887345487207174,-0.9294061712145805,1.1975842296808958
1772790146779010800,10.6990107421875,-0.9953805723816156,-0.9017777211852371,1.161241142798215
1772790146789076700,10.70907666015625,-1.074810667449236,-0.8583562203489243,1.077124058958143
1772790146799142000,10.719141845703126,-1.082214221704006,-0.7868675858050584,0.9839785961404443
1772790146809207800,10.729207763671875,-1.1559621794819832,-0.7466521875336766,0.9379206093207001
1772790146819274000,10.73927392578125,-1.214682079476118,-0.7020112279050051,0.8684346929013729
1772790146829340000,10.74933984375,-1.20458855548501,-0.6553577594101428,0.8245682247765361
1772790146839405800,10.75940576171875,-1.1520172412484884,-0.6196949098765849,0.740361709087342
1772790146849471700,10.7694716796875,-1.0834458093255757,-0.5774218484230339,0.674001961864531
1772790146859538000,10.779537841796875,-0.9862994403034449,-0.5385844605065881,0.5746677274093032
1772790146869603800,10.789603759765624,-0.834707779866457,-0.4573362101010978,0.45594855513498184
1772790146879669000,10.7996689453125,-0.6558510958850383,-0.38980011257529257,0.3405386535391211
1772790146889735000,10.80973486328125,-0.5349462501347064,-0.35552564866021275,0.2394181201890111
1772790146899800800,10.81980078125,-0.4780664250493049,-0.35576734846159813,0.14556217101439833
1772790146909871600,10.82987158203125,-0.36349195136427875,-0.3331017815366387,0.02604512636065483
1772790146919937300,10.839937255859375,-0.20764438704848287,-0.293504369033128,-0.1125555350780487
1772790146930003500,10.85000341796875,-0.07553074954152107,-0.2855935959085822,-0.22321225079745052
1772790146940069400,10.8600693359375,0.008665537014603614,-0.31975071705430747,-0.3025666502803564
1772790146950135600,10.870135498046874,0.06004559563994407,-0.3377968074850738,-0.33946547134965654
1772790146960200400,10.880200439453125,0.08455167586505413,-0.3759504509210586,-0.40300694628134365
1772790146970266600,10.8902666015625,0.18196224878132342,-0.40232364019230005,-0.49337008490413425
1772790146980332300,10.900332275390625,0.2652045956134796,-0.4027823437452316,-0.561042229899764
1772790146990398500,10.9103984375,0.25464170054495333,-0.4631764605619013,-0.6423318352289498
1772790147000464400,10.92046435546875,0.20806816541850565,-0.5046848212532699,-0.704950788488239
1772790147010530600,10.930530517578125,0.15925941858589648,-0.5166204659797251,-0.7211020050831138
1772790147020596500,10.940596435546874,0.11491583446860312,-0.5441399026766419,-0.7091667987480759
1772790147030662700,10.95066259765625,0.031414544439315795,-0.5774632033467293,-0.708567956072092
1772790147040727300,10.960727294921876,-0.027143442991375923,-0.5540957717627286,-0.782291656191647
1772790147050793500,10.97079345703125,-0.0374707757383585,-0.5031488438576459,-0.8145547802843153
1772790147060859400,10.980859375,-0.08757190046906471,-0.48342123008072374,-0.7876283410444855
1772790147070925600,10.990925537109375,-0.13435235634446144,-0.47839843348264693,-0.7041233977533876
1772790147080991500,11.000991455078125,-0.12661854722201824,-0.46419075217097994,-0.6696453740902245
1772790147091057700,11.0110576171875,-0.2385749473631382,-0.48004853877723214,-0.7038548099450767
1772790147101123600,11.02112353515625,-0.45701194658279415,-0.4824252047806978,-0.6888365429028869
1772790147111189200,11.031189208984374,-0.678392013517022,-0.5472139032945037,-0.6309181685499846
1772790147121254400,11.04125439453125,-0.7849561992257833,-0.5810895771503448,-0.5574804457649588
1772790147131320600,11.051320556640626,-0.7481856807112693,-0.5413333208233118,-0.5202586763516068
1772790147141386500,11.061386474609375,-0.6745826843619346,-0.45176586262285706,-0.553232579062134
1772790147151452400,11.071452392578125,-0.654012774541974,-0.37455782751888034,-0.5190656671747566
1772790147161518600,11.0815185546875,-0.7732236758559942,-0.36267245167493817,-0.3774887664042413
1772790147171584300,11.091584228515625,-0.9232523247599601,-0.2521726800829172,-0.23410540073364972
1772790147181650400,11.101650390625,-1.0758452711939812,-0.024415771593153474,-0.18608444327786564
1772790147191716400,11.11171630859375,-1.279407357364893,0.15976415323764084,-0.2593811501570046
1772790147201781500,11.121781494140626,-1.4179852224498986,0.3168547033518553,-0.3591773030355572
1772790147211847400,11.131847412109375,-1.4281658402025699,0.548466533704102,-0.37488837464749813
1772790147221913600,11.14191357421875,-1.4200205276697873,0.7828089580640196,-0.46138460870906706
1772790147231979300,11.151979248046874,-1.3850152652621268,0.9382207613110541,-0.5274741606883704
1772790147242045400,11.16204541015625,-1.3020827150315046,1.1290239036738872,-0.7057210422083735
1772790147252111400,11.172111328125,-1.0030781411468983,1.3521283101826906,-0.8470489366538823
1772790147262177500,11.182177490234375,-0.639562808907032,1.518605405062437,-1.0019421228542924
1772790147272243500,11.192243408203124,-0.27410803303718567,1.632307479827106,-1.1279409307427704
1772790147282308600,11.20230859375,0.13767477876544,1.8314602251231669,-1.1972836392991244
1772790147292374300,11.212374267578125,0.44902562400400636,1.7972811844065784,-1.2693335609875618
1772790147302440400,11.2224404296875,0.5502011024117469,1.6362375127524136,-1.2151796537347137
1772790147312506400,11.23250634765625,0.5699240400135517,1.514295432908833,-1.0945303901806474
1772790147322572500,11.242572509765624,0.6541138968288898,1.3813111500471829,-1.039908573155105
1772790147332638500,11.252638427734375,0.941260859659314,1.3178095687344669,-1.044172075818479
1772790147342704600,11.26270458984375,1.298282738226652,1.28939040671885,-0.9170768509954214
1772790147352770600,11.2727705078125,1.49185534530282,1.195970657004416,-0.8848848924428224
1772790147362835500,11.28283544921875,1.5355051019370556,1.0177367810964584,-0.8199610232420265
1772790147372901400,11.2929013671875,1.474651112523675,0.8252046229839325,-0.6551498157478869
1772790147382967600,11.302967529296875,1.3890736007422209,0.6662579236090183,-0.4194450169935822
1772790147393033500,11.313033447265624,1.3280565297216176,0.46271834153085944,-0.2216527463957667
1772790147403099600,11.323099609375,1.221992694750428,0.2896516391277313,-0.06964139924198388
1772790147413165600,11.33316552734375,1.0018336940437556,0.11973609423190354,0.05252849800810218
1772790147423231500,11.3432314453125,0.7539215940147638,-0.12828998756557702,0.1855319239616394
1772790147433297400,11.35329736328125,0.5276175146818161,-0.3265796862915158,0.29299422755390403
1772790147443362600,11.363362548828125,0.31639410010278224,-0.421414855761826,0.3506774779766798
1772790147453428500,11.373428466796875,0.12911094855964184,-0.43697073681205506,0.39149376475065945
1772790147463494700,11.38349462890625,-0.08713935427069663,-0.40025457883328197,0.4118608454748988
1772790147473560600,11.393560546875,-0.2785053912132978,-0.39538726505786176,0.3197261671349406
1772790147483626200,11.403626220703124,-0.35255671585202214,-0.35657881097495553,0.22637729069963097
1772790147493692400,11.4136923828125,-0.2571300102293491,-0.2845744819939136,0.12389467521607875
1772790147503758300,11.42375830078125,-0.09616729485690594,-0.1876274349361658,0.0769978994846344
1772790147513824500,11.433824462890625,0.04713759874999523,-0.11961392915695905,0.02906783518269658
1772790147523890400,11.443890380859376,0.26759821275174617,-0.17003887901455164,0.03741699972450733
1772790147533955600,11.45395556640625,0.48294192213118076,-0.27443215042501684,0.1113261394135654
1772790147544021200,11.464021240234375,0.5837392148762941,-0.400073669308424,0.2729299291685223
1772790147554087400,11.47408740234375,0.5880670149475336,-0.5931786588728427,0.3859264860123396
1772790147564153300,11.4841533203125,0.5813064347714185,-0.7944578948035835,0.5001261350356042
1772790147574219500,11.494219482421874,0.6429109502911567,-0.8555147133126855,0.5319391772732138
1772790147584285400,11.504285400390625,0.75359309271276,-0.8682134513661265,0.5856630225457251
1772790147594351600,11.5143515625,0.6908528511613607,-0.9496227375522255,0.6123885323859751
1772790147604416300,11.524416259765625,0.4759674069434404,-1.0309472680643201,0.6008145605787635
1772790147614482400,11.534482421875,0.2513461661309004,-1.1651350814968346,0.6749000797480345
1772790147624548400,11.54454833984375,-0.01577916841208935,-1.2474556373089551,0.9098302408680319
1772790147634614500,11.554614501953125,-0.3616355098426342,-1.191080254614353,1.0296528443396091
1772790147644680400,11.564680419921874,-0.6097352413982152,-0.9831687410622835,0.9470748066350817
1772790147654746600,11.57474658203125,-0.8323486495196819,-0.7312213941678405,0.6931563057981431
1772790147664812500,11.5848125,-1.2122913849472998,-0.6314093130677938,0.5371459521360695
1772790147674878500,11.59487841796875,-1.5876339331030844,-0.5411883593946695,0.4847990943051874
1772790147684944400,11.6049443359375,-1.6774036358773707,-0.3926175080835819,0.2872032230623066
1772790147695009500,11.615009521484374,-1.428891231867671,-0.1620069637283683,0.19298253222852943
1772790147705075500,11.625075439453125,-1.3081944759100674,-0.020894903990626334,0.14942717587947846
1772790147715141600,11.6351416015625,-1.2391700395226477,0.10098463201075791,-0.0496932745821774
1772790147725207600,11.64520751953125,-1.072309498283267,0.12189151870012283,-0.08937924215197562
1772790147735273500,11.6552734375,-0.9928455009460448,0.008979133008420468,0.00002966448590159416
1772790147745339400,11.66533935546875,-0.9868179112195968,-0.2039186445236206,0.15291209538578987
1772790147755405300,11.6754052734375,-0.9261883782118558,-0.3571703471273184,0.14180077265426516
1772790147765471500,11.685471435546875,-0.570706714823842,-0.21776158417612312,-0.1831535043925047
1772790147775536600,11.69553662109375,-0.14139759868085383,-0.059358490158617494,-0.5140032692186534
1772790147785602600,11.7056025390625,0.051260816159844395,-0.11746931834369898,-0.5542249511003494
1772790147795668500,11.71566845703125,0.0653822804927826,-0.23123861312568186,-0.4641805230379104
1772790147805734400,11.725734375,0.1474807179868221,-0.36315292866826054,-0.3453450309075415
1772790147815800300,11.73580029296875,0.2108288623034954,-0.48212592957317824,-0.2197292309872806
1772790147825866500,11.745866455078126,0.3044961570382118,-0.61295303440094,-0.18239625628441572
1772790147835932400,11.755932373046875,0.5191472079783678,-0.7068938853800296,-0.11052753638178109
1772790147845998600,11.76599853515625,0.7489812150031327,-0.7238216393053531,-0.08737053267806767
1772790147856063500,11.7760634765625,0.8492413321316242,-0.7368877493664622,-0.0950362450003624
1772790147866129400,11.78612939453125,0.7725128972381353,-0.7651856230899691,-0.05165639134868979
1772790147876195300,11.7961953125,0.5831693060338496,-0.9022592210918664,0.04871697689592838
1772790147886261500,11.806261474609375,0.31322423789501186,-1.018875429737568,0.19942557088807225
1772790147896327400,11.816327392578126,0.19236556937396526,-1.0905763918578624,0.3509226849094033
1772790147906393600,11.8263935546875,0.030530162820219992,-1.100847610503435,0.41236441108286376
1772790147916455200,11.836455078125,-0.26721885804533957,-1.0268950700640678,0.3640430093757808
1772790147926521300,11.846521240234376,-0.5033095873773098,-0.9444742687478661,0.3018266455680132
1772790147936586500,11.85658642578125,-0.7023860525667667,-0.8826640015229582,0.28293898974657056
1772790147946652400,11.86665234375,-1.0117290651142596,-0.9700240128070116,0.36069895964488385
1772790147956718300,11.87671826171875,-1.4015788620501757,-0.7987690360009669,0.3505487370304763
1772790147966784300,11.8867841796875,-1.3469412629336117,-0.7453647780716419,0.290451776529476
1772790147976850200,11.89685009765625,-1.2919447673767803,-0.737615479119122,0.27585129650793966
1772790147986916400,11.906916259765625,-1.5653157183110713,-0.4312704793438315,0.2350127248369157
1772790147996982300,11.916982177734376,-1.7001146493792534,-0.1424409702539444,0.2608346369009465
1772790148007048400,11.92704833984375,-1.6388532482087612,-0.23535686209946868,0.2765678472794592
1772790148017113300,11.93711328125,-1.8415484884172677,-0.057092006531357764,0.19503946475833653
1772790148027179300,11.94717919921875,-1.965665866473317,0.15856822145134208,0.2053025731626898
1772790148037245200,11.9572451171875,-2.0523896256804464,0.14510112937390804,0.12440905447900294
1772790148047311400,11.967311279296876,-1.831256811505556,0.19849720399677753,0.018501798309013245
1772790148057377300,11.977377197265625,-1.4527952545464038,0.17031828047782183,0.16708068679608404
1772790148067443500,11.987443359375,-1.167902208122611,0.1969908910870552,0.17513642134927213
1772790148077509400,11.99750927734375,-0.7395721661448478,0.36014117963165043,0.21561306437272576
1772790148087574300,12.00757421875,-0.34310090524256226,0.4304278910398483,0.2516041229473427
1772790148097640200,12.01764013671875,-0.09753156894743442,0.3711524029895663,0.2215964496312663
1772790148107706400,12.027706298828125,-0.025429624810814858,0.39751843186765906,0.46254232737682754
1772790148117772300,12.037772216796874,-0.10556874493062496,0.27322569724470375,0.42139545694161207
1772790148127837400,12.04783740234375,0.018155249893665314,0.24267039998322723,0.44839309825412926
1772790148137903400,12.0579033203125,0.1859060179710388,0.27596389003694055,0.46074039252139626
1772790148147969300,12.06796923828125,0.4036807538896799,0.27282383844554425,0.5685421572010964
1772790148158035200,12.07803515625,0.6149941848397255,0.2615267838835716,0.6952545201864093
1772790148168101400,12.088101318359374,0.6268500423282385,0.3276131209924817,0.7609111606411636
1772790148178167300,12.098167236328125,0.480259551179409,0.3799868668302893,0.7047457674354315
1772790148188233500,12.1082333984375,0.24948680199980736,0.45122225726544857,0.5909185319211334
1772790148198299400,12.11829931640625,0.1941062755614519,0.6661240680962801,0.3990167076013982
1772790148208364300,12.1283642578125,0.23661153833568094,0.8970894172385334,0.25405926101449877
1772790148218430200,12.13843017578125,0.3321586554676294,1.0550585037529467,0.17200990509288386
1772790148228496400,12.148496337890625,0.45727848856449127,1.2027838441506027,0.12673194446861744
1772790148238562300,12.158562255859374,0.561657731449604,1.2952362101376056,0.1939836903613992
1772790148248628500,12.16862841796875,0.6155500651568174,1.2600158436745403,0.23179621047582477
1772790148258694400,12.1786943359375,0.6181266376465558,1.2468810522913931,0.21151026869639752
1772790148268760300,12.18876025390625,0.5322662172704935,1.1349573853760957,0.13648166912388987
1772790148278826200,12.198826171875,0.3679483462512493,0.9156330819278955,0.1091045543739572
1772790148288891400,12.208891357421875,0.30932606141269203,0.7434720961928367,0.18481173819461835
1772790148298957300,12.218957275390625,0.2959066078692674,0.5667471635431051,0.3786816659832373
1772790148309023500,12.2290234375,0.22819500764608383,0.3625228140711784,0.5972627133160829
1772790148319089400,12.23908935546875,0.3191460291594267,0.19441256503164767,0.8703938641451299
1772790148329155300,12.2491552734375,0.4139467118382454,0.14973697248101234,1.0514810836575925
1772790148339221200,12.25922119140625,0.3951712842196226,0.14267711709737776,1.095546362290159
1772790148349287200,12.269287109375,0.32232699728310105,0.10255027389228344,1.0390706610262392
1772790148359353300,12.279353271484375,0.32645313730239867,0.11236731902956962,0.9649794427685439
1772790148369418500,12.28941845703125,0.3276227656036615,0.117435708335042,0.9248074452474713
1772790148379484400,12.299484375,0.36918753265738485,0.13556348569989204,0.8190535530082881
1772790148389550300,12.30955029296875,0.4150444439470768,0.1303226624369621,0.7145197771485895
1772790148399616300,12.3196162109375,0.497134113612771,0.0473392588019371,0.6654859893884509
1772790148409682200,12.32968212890625,0.622357991605997,0.02230535531044006,0.6871424523361027
1772790148419748400,12.339748291015624,0.6167535957276821,0.06193827751874923,0.7154848958536982
1772790148429814300,12.349814208984375,0.5522317314565182,0.09521014026254415,0.604024681731686
1772790148439880400,12.35988037109375,0.5447574500530958,0.12985592170804738,0.6574449409477412
1772790148449945300,12.3699453125,0.6150380239814519,0.18510317715555427,0.6643230830889195
1772790148460011300,12.38001123046875,0.7010317153483628,0.26281799273788925,0.672057695928961
1772790148470077200,12.3900771484375,0.6623416269481182,0.2641746680438518,0.6686400695051997
1772790148480143400,12.400143310546875,0.6217255389213562,0.24739479815661905,0.6507579374644905
1772790148490209300,12.410209228515624,0.6978887411475181,0.21309505366981027,0.6736192461572587
1772790148500275500,12.420275390625,0.7194692893147469,0.14164543596208096,0.7144790067467838
1772790148510341400,12.43034130859375,0.6423018784821033,0.10002397028505802,0.6915081001996993
1772790148520407600,12.440407470703125,0.4829389995217323,0.009622399348020554,0.6801292856384068
1772790148530472200,12.45047216796875,0.40718671618402,-0.059603112569451326,0.6867541836708784
1772790148540538400,12.460538330078125,0.4093962089270353,-0.07160276244282722,0.6999023459922522
1772790148550604300,12.470604248046875,0.49489305668771266,-0.0458534041583538,0.6448533895958215
1772790148560670500,12.48067041015625,0.5454688131928443,-0.04163052576631307,0.651713265427947
1772790148570736400,12.490736328125,0.5945224746972322,0.02848667429387569,0.7199803075768053
1772790148580802600,12.500802490234374,0.5545920308470725,0.06440232954472302,0.6130791449986398
1772790148590868200,12.5108681640625,0.5425988107144832,0.04379354901909828,0.5010379161182791
1772790148600933400,12.520933349609376,0.5184872827649116,-0.02212561482936144,0.494341085360758
1772790148610999300,12.530999267578125,0.4147369854331016,-0.09273001388460397,0.5137659898640587
1772790148621065500,12.5410654296875,0.41075814493000506,-0.08207622566223144,0.5682456584725528
1772790148631131400,12.55113134765625,0.4483861570566892,-0.14457593645602465,0.5508080187963321
1772790148641197600,12.561197509765625,0.5216337640970945,-0.18165011409223078,0.4639460201622918
1772790148651263200,12.57126318359375,0.5577911191493272,-0.24139614226371048,0.4249111003797501
1772790148661329200,12.5813291015625,0.5422200405299663,-0.3608297464177012,0.330937187381275
1772790148671395300,12.591395263671876,0.48419630610644815,-0.40252924576699733,0.31992848477400837
1772790148681461200,12.601461181640625,0.45241877357363697,-0.44839901653826236,0.3676399013565853
1772790148691526400,12.6115263671875,0.40823768654167647,-0.5799556046843528,0.4218232173670083
1772790148701592300,12.62159228515625,0.18479367281496523,-0.6723568250060081,0.4039442636640742
