time,seconds_elapsed,z,y,x
1772867042855588000,0.109588134765625,-0.0024111545644700527,0.0014818580821156502,-0.00008522934513166547
1772867042865654300,0.119654296875,0.0006884986069053411,-0.00450785830616951,0.0005872188485227525
1772867042875720200,0.12972021484375,0.0007460229098796844,-0.0014095362275838852,0.0003797585959546268
1772867042885786400,0.139786376953125,0.0008779233321547508,0.0010520229116082191,-0.0011139479465782642
1772867042895852000,0.14985205078125,-0.0005149100907146931,0.001135380007326603,-0.0022330081555992365
1772867042905917200,0.159917236328125,0.001722295070067048,0.00256145466119051,0.0011608087224885821
1772867042915983000,0.169983154296875,0.0010455858428031206,0.00034250877797603607,-0.0022810606751590967
1772867042926049300,0.18004931640625,-0.0007289615459740162,-0.00024378951638936996,0.000558326137252152
1772867042936115200,0.190115234375,-0.0033364626578986645,0.001758374273777008,-0.0021527716889977455
1772867042946181000,0.20018115234375,-0.0007131719030439854,-0.0024865493178367615,-0.0004743953177239746
1772867042956247000,0.2102470703125,-0.00046043796464800835,-0.001206899993121624,-0.0019335413817316294
1772867042966313200,0.220313232421875,-0.0019463952630758286,-0.0012569082900881767,-0.000949704204685986
1772867042976379100,0.230379150390625,-0.0011399900540709496,-0.001377282664179802,-0.0006002974696457386
1772867042986445300,0.2404453125,0.002271589357405901,0.0002274671569466591,0.0005811867886222899
1772867042996510700,0.2505107421875,0.000814041355624795,0.0002317279577255249,-0.0029863836243748665
1772867043006577000,0.260576904296875,0.0011836495250463486,0.0025502201169729233,-0.000020726642105728388
1772867043016642800,0.270642822265625,-0.001644627656787634,-0.0031457487493753433,-0.0010780015727505088
1772867043026708700,0.280708740234375,0.0011692207772284746,0.000004630535840988159,0.0040246290154755116
1772867043036775000,0.29077490234375,-0.0011258912272751331,0.00015563145279884338,-0.002299579791724682
1772867043046840800,0.3008408203125,-0.002023991197347641,-0.002422369085252285,0.0005356377805583179
1772867043056906800,0.31090673828125,-0.0007046610116958618,-0.0005602873861789703,-0.0005029949825257063
1772867043066972700,0.32097265625,-0.00018689734861254692,0.001058397814631462,0.0010743492748588324
1772867043077038800,0.331038818359375,0.0008352238219231367,-0.0008790520951151848,0.001055174507200718
1772867043087104800,0.341104736328125,0.0018648570403456688,-0.00005749613046646118,-0.0023001607041805983
1772867043097171000,0.3511708984375,0.0012238339986652136,0.0002069557085633278,-0.0007073240703903139
1772867043107236900,0.36123681640625,0.0016218635719269514,-0.0006947098299860954,-0.0014274752466008067
1772867043117302800,0.371302734375,0.0001989365555346012,0.0004113009199500084,0.0009227644186466932
1772867043127368700,0.38136865234375,0.00013021426275372505,0.00039066094905138016,0.00023586832685396075
1772867043137434600,0.3914345703125,-0.0015821983106434345,0.0005693584680557251,-0.0010855922009795904
1772867043147500800,0.401500732421875,0.00013442430645227432,0.0031045032665133476,0.0014031704049557447
1772867043157566700,0.411566650390625,-0.00008954759687185287,-0.0012460360303521156,-0.0016139247454702854
1772867043167633000,0.4216328125,-0.0011516506783664227,-0.0020478200167417526,-0.001165970927104354
1772867043177698800,0.43169873046875,0.0013218936510384083,-0.0005782879889011383,0.0005046300939284265
1772867043187763700,0.441763671875,0.0012517599388957024,0.0009959796443581581,-0.00009197555482387543
1772867043197829600,0.45182958984375,-0.00031417887657880783,0.0004103509709239006,0.0005498462123796344
1772867043207895800,0.461895751953125,-0.0007829479873180389,-0.0003625275567173958,0.001806677901186049
1772867043217961700,0.471961669921875,0.0009667486883699894,0.002097434364259243,-0.005618215072900057
1772867043228028000,0.48202783203125,-0.000723409466445446,-0.0027999896556138992,0.0014580663992092013
1772867043238093800,0.49209375,-0.0003516324795782566,0.0011987462639808655,-0.002978493459522724
1772867043248160000,0.502159912109375,0.00024098297581076622,-0.00015678629279136658,-0.0011984877055510879
1772867043258226000,0.512225830078125,0.00008865026757121086,0.0005114004015922546,0.00319279870018363
1772867043268291600,0.52229150390625,-0.0008475235663354397,0.000957476906478405,-0.0020793115254491568
1772867043278357800,0.532357666015625,-0.002750885207206011,0.00002510473132133484,-0.00026250298833474517
1772867043288423700,0.542423583984375,0.0006012395024299622,0.0014714878052473068,-0.0020399841014295816
1772867043298489900,0.55248974609375,0.0006073648110032082,0.0012246128171682358,-0.0001206439919769764
1772867043308555800,0.5625556640625,-0.001098856795579195,-0.001613154076039791,-0.00036971934605389833
1772867043318622000,0.5726220703125,0.0008630941156297922,0.0023187370970845222,-0.0005838375072926283
1772867043328687900,0.58268798828125,0.002216411754488945,-0.0018547140061855316,-0.0008226322825066745
1772867043338753800,0.59275390625,-0.0005404925905168056,-0.0009124875068664551,-0.0022157318890094757
1772867043348819700,0.60281982421875,0.0005147603806108236,-0.0006333878263831139,-0.0009405203745700419
1772867043358886000,0.612885986328125,0.00013632513582706451,0.0004875361919403076,-0.0008976434473879635
1772867043368951800,0.622951904296875,-0.0010753227397799492,0.003385039046406746,-0.00047475402243435383
1772867043379017700,0.633017822265625,0.0012301760725677013,-0.0011993255466222763,-0.001341346651315689
1772867043389084000,0.643083984375,0.0009156875312328339,-0.0013421950861811638,-0.0015202842187136412
1772867043399149800,0.65314990234375,-0.0016715736128389835,0.00010230299085378647,-0.001910171122290194
1772867043409215700,0.6632158203125,-0.0027965055778622627,0.0014706207439303398,-0.000019022671040147543
1772867043419281700,0.67328173828125,-0.0009237709455192089,-0.0004090387374162674,-0.0016904225340113044
1772867043429347800,0.683347900390625,-0.0005754707381129265,-0.0020631738007068634,0.0014025804121047258
1772867043439413800,0.693413818359375,0.00016701873391866684,0.0012335525825619698,0.0005791309522464871
1772867043449480000,0.70347998046875,-0.0006730733439326286,-0.00039052125066518784,-0.0003010228101629764
1772867043459545900,0.7135458984375,0.0005831397138535976,0.000584729015827179,-0.002277621068060398
1772867043469611800,0.72361181640625,0.001530366251245141,0.0017841234803199768,-0.000714711204636842
1772867043479678000,0.733677978515625,-0.00017885072156786919,-0.0027006398886442184,0.00013670139014720917
1772867043489743600,0.74374365234375,0.0031479306053370237,0.0007333317771553993,-0.0010896557942032814
1772867043499809800,0.753809814453125,-0.0006510685198009014,0.0009714188054203987,-0.00318076997064054
1772867043509875700,0.763875732421875,-0.000594650860875845,-0.0014819055795669556,-0.0011549473274499178
1772867043519942000,0.77394189453125,0.0010911300778388977,0.0006350409239530563,-0.0019544283859431744
1772867043530007800,0.7840078125,0.0010256741661578417,-0.0011797202751040459,-0.00145433796569705
1772867043540073000,0.794072998046875,-0.0027679987251758575,-0.002359500154852867,-0.0007603182457387447
1772867043550138600,0.804138671875,-0.0006386283785104752,0.00010133907198905945,-0.0017946903826668859
1772867043560204800,0.814204833984375,0.0019060217309743166,0.0016901809722185135,0.0027830172330141068
1772867043570270700,0.824270751953125,0.0023384173400700092,0.002683386206626892,0.00045217288425192237
1772867043580337000,0.8343369140625,-0.0017657801508903503,-0.0026147067546844482,0.002762997755780816
1772867043590402800,0.84440283203125,-0.0021729380823671818,-0.00020937342196702957,0.0005638631409965456
1772867043600469000,0.854468994140625,0.0002156510017812252,-0.0016272403299808502,-0.0003442747693043202
1772867043610535000,0.864534912109375,0.00003503449261188507,0.0016130069270730019,-0.001955579034984112
1772867043620600600,0.8746005859375,0.001269143307581544,0.0007157884538173676,0.0016444820212200284
1772867043630666800,0.884666748046875,0.0034288023598492146,-0.0007485831156373024,0.001077256165444851
1772867043640732700,0.894732666015625,0.0021638008765876293,0.002478368580341339,0.0027819457463920116
1772867043650798800,0.904798828125,-0.00041522644460201263,0.00039247050881385803,0.0005196561105549335
1772867043660864800,0.91486474609375,-0.0001643565483391285,0.0005109803751111031,-0.0007309643551707268
1772867043670931000,0.924930908203125,-0.0002744668163359165,0.0011467523872852325,-0.0003174010489601642
1772867043680996900,0.934996826171875,0.001156449317932129,0.00042050890624523163,-0.0016375300474464893
1772867043691062800,0.945062744140625,0.0019737519323825836,0.001970653422176838,0.0006303858244791627
1772867043701128700,0.955128662109375,0.0009332550689578056,-0.00228960532695055,-0.0010988046415150166
1772867043711195000,0.96519482421875,-0.001141565851867199,-0.0013333763927221298,-0.0008113326039165258
1772867043721260800,0.9752607421875,0.0006981457117944956,0.00245710089802742,0.00008055998478084803
1772867043731326700,0.98532666015625,0.0003719567321240902,-0.0019999267533421516,-0.00041847056127153337
1772867043741393000,0.995392822265625,-0.0018776156939566135,0.0027418313547968864,0.0011623818427324295
1772867043751458800,1.005458740234375,-0.0006761387921869755,-0.003405967727303505,0.0017023427644744515
1772867043761525000,1.01552490234375,-0.0003309929743409157,-0.001758003607392311,0.00023414200404658914
1772867043771590700,1.025590576171875,0.00023128464818000793,0.000466800294816494,-0.001092915190383792
1772867043781656800,1.03565673828125,-0.0027621081098914146,-0.0016549397259950638,0.00040484656346961856
1772867043791722800,1.04572265625,-0.00012641027569770813,0.0008652769029140472,0.0009177420870400965
1772867043801789000,1.055788818359375,-0.001514982432126999,-0.001686030998826027,0.00023863604292273521
1772867043811854800,1.065854736328125,0.0006277989596128464,-0.0004909932613372803,-0.00018684761016629636
1772867043821920800,1.075920654296875,-0.00048247305676341057,0.0007958468049764633,0.001452061696909368
1772867043831987000,1.085987060546875,0.002079291734844446,0.0003853673115372658,-0.001465636771172285
1772867043842052600,1.096052490234375,0.0028183190152049065,-0.00015871599316596985,0.0009687588317319751
1772867043852118800,1.106118896484375,0.002001484390348196,-0.00018718652427196503,-0.00006268819561228156
1772867043862184700,1.116184814453125,0.0005548554472625256,-0.0006657568737864494,0.001637207460589707
1772867043872251000,1.1262509765625,0.0005854293704032898,0.0009581577032804489,0.00038185640005394816
1772867043882316800,1.13631689453125,-0.0017581521533429623,0.001434064470231533,-0.0004056402831338346
1772867043892383000,1.146383056640625,-0.001762299332767725,-0.0010709026828408241,-0.0008273494895547628
1772867043902449000,1.156448974609375,-0.0005779913626611233,0.000008742325007915497,0.0008925199508666992
1772867043912514600,1.1665146484375,-0.0013932292349636555,-0.0012255189940333366,0.0006866896874271333
1772867043922580700,1.176580810546875,-0.0005229078233242035,0.00035240408033132553,0.00038042617961764336
1772867043932646700,1.186646728515625,0.0023578954860568047,-0.002823718823492527,0.0005784234381280839
1772867043942712800,1.196712890625,0.0007504115346819162,0.0006991103291511536,0.0018942912574857473
1772867043952778800,1.20677880859375,-0.0005265809595584869,0.0009474102407693863,-0.0029630111530423164
1772867043962845000,1.216844970703125,-0.001342573668807745,-0.0005367696285247803,0.002042400185018778
1772867043972910800,1.226910888671875,0.0013860540930181742,0.0012878654524683952,0.0008317723404616117
1772867043982977000,1.23697705078125,-0.0005671083927154541,-0.001253056339919567,-0.0016319178976118565
1772867043993043000,1.24704296875,0.0017652974929660559,-0.0014158440753817558,0.0003395447274670005
1772867044003108900,1.25710888671875,-0.0014363545924425125,-0.0021671224385499954,-0.0003643287345767021
1772867044013175000,1.267175048828125,0.0010952726006507874,0.00013236328959465027,-0.00018080411246046424
1772867044023241000,1.277240966796875,0.00043800449930131435,0.001736917532980442,0.00003437930718064308
1772867044033307100,1.28730712890625,-0.00017534289509058,-0.0010862164199352264,0.0008904431015253067
1772867044043373000,1.297373046875,-0.0021170536056160927,-0.000379147008061409,0.001721349311992526
1772867044053439200,1.307439208984375,-0.0004520895890891552,0.0006225770339369774,-0.0007138269720599055
1772867044063505000,1.3175048828125,-0.00010268250480294228,-0.0023308685049414635,0.0018870159983634949
1772867044073571000,1.327571044921875,0.0007782739121466875,0.0001348024234175682,0.00038386101368814707
1772867044083637000,1.337636962890625,0.0017929382156580687,0.0022304439917206764,0.0030451577622443438
1772867044093703000,1.347702880859375,-0.0020381654612720013,0.0008692219853401184,0.0009455878753215075
1772867044103769000,1.35776904296875,-0.0006788880564272404,0.00006121955811977386,0.0030529473442584276
1772867044113835000,1.3678349609375,0.0006073457188904285,-0.002138904295861721,0.0027567159850150347
1772867044123901200,1.377901123046875,-0.000614512711763382,-0.0001710951328277588,0.0009652077569626272
1772867044133967000,1.387967041015625,0.001214571762830019,-0.0005544945597648621,0.003444490721449256
1772867044144032000,1.398031982421875,0.0001863250508904457,-0.0016093729063868523,0.0031193187460303307
1772867044154098000,1.408097900390625,-0.0012556188739836216,-0.0012863297015428543,0.0011318287579342723
1772867044164164000,1.4181640625,-0.001706225797533989,-0.0009670164436101913,0.00041463947854936123
1772867044174230000,1.42822998046875,0.0024745564442127943,-0.0006783725693821907,0.00017690833192318678
1772867044184296200,1.438296142578125,0.000816205982118845,-0.00037157628685235977,-0.0029355278238654137
1772867044194362000,1.448362060546875,0.0010250210762023926,-0.00023435521870851517,0.0017177858389914036
1772867044204428000,1.458427978515625,0.0019238379318267107,0.0006990823894739151,-0.0001155344070866704
1772867044214494000,1.468493896484375,0.0010233100038021803,-0.0013512810692191124,0.0022074771113693714
1772867044224560000,1.47856005859375,-0.0009487606585025787,0.0003419565036892891,-0.0006666062981821597
1772867044234626000,1.4886259765625,0.0010753304231911898,0.00032437313348054886,0.00010109797585755587
1772867044244692000,1.49869189453125,-0.0017156624235212803,-0.0008753808215260506,0.0006385238375514746
1772867044254758100,1.508758056640625,-0.0014148089103400707,0.0008270200341939926,0.0016529513522982597
1772867044264824000,1.518823974609375,0.0011860341764986515,-0.0005375836044549942,-0.001548434724099934
1772867044274890000,1.528889892578125,-0.0010576918721199036,0.0010239044204354286,-0.0026658133137971163
1772867044284956000,1.538955810546875,-0.001167946495115757,0.0025261929258704185,0.0018567666411399841
1772867044295022000,1.54902197265625,-0.0013077263720333576,0.0007963012903928757,-0.0018777165096253157
1772867044305088000,1.559087890625,0.00096528185531497,0.0007779253646731377,-0.0003232293820474297
1772867044315154200,1.569154296875,0.0012416858226060867,-0.002000635489821434,0.0019776467233896255
1772867044325220000,1.57922021484375,0.0006557905580848455,-0.0008339053019881248,-0.00180510722566396
1772867044335286000,1.5892861328125,-0.001583140343427658,-0.0002334965392947197,0.0006146255182102323
1772867044345352000,1.59935205078125,0.0008722939528524876,0.000613122247159481,0.0017254299018532038
1772867044355417900,1.60941796875,-0.0008156755939126015,0.0027160588651895523,0.0005926774465478957
1772867044365484000,1.619484130859375,0.0011332258582115173,-0.001890677958726883,0.00018761062528938055
1772867044375550000,1.629550048828125,-0.00047893961891531944,-0.001030120998620987,0.00008420372614637017
1772867044385616100,1.6396162109375,0.0014198941644281149,-0.00030201300978660583,0.0005422674003057182
1772867044395682000,1.64968212890625,0.0013935130555182695,-0.0003051050007343292,0.0035994029603898525
1772867044405748200,1.659748291015625,-0.0011285007931292057,-0.0002518417313694954,-0.0008526032324880362
1772867044415814100,1.669814208984375,0.0002681734040379524,0.00023721251636743546,-0.002087943721562624
1772867044425880000,1.679880126953125,0.001237297896295786,0.0013011451810598373,0.0005051760235801339
1772867044435946000,1.689946044921875,0.00009228149428963661,0.0017085401341319084,0.000030631956178694963
1772867044446012000,1.700011962890625,-0.0012331739999353886,-0.001067272387444973,-0.0014692603144794703
1772867044456078000,1.710078125,0.000869392417371273,0.001170446164906025,0.0021932765375822783
1772867044466144000,1.72014404296875,-0.0016952315345406532,0.0004127761349081993,0.00004197494126856327
1772867044476210200,1.730210205078125,-0.0006692190654575825,-0.00022750068455934525,-0.00015323952538892627
1772867044486276000,1.740276123046875,0.0010064418893307447,0.000022836029529571533,0.0025418796576559544
1772867044496342000,1.750342041015625,-0.0006360644474625587,-0.0005939016118645668,-0.0032665778417140245
1772867044506408000,1.760407958984375,-0.0009375344961881638,0.0028482340276241302,-0.001554165268316865
1772867044516474000,1.77047412109375,-0.0011313571594655514,-0.0010607736185193062,0.00026303977938368917
1772867044526540000,1.7805400390625,0.0028271654155105352,-0.0011920677497982979,-0.00319427577778697
1772867044536606000,1.79060595703125,0.001944059506058693,-0.00014218594878911972,-0.003126096911728382
1772867044546672000,1.800672119140625,0.00009422795847058296,-0.0005128979682922363,0.0020705293864011765
1772867044556738000,1.810738037109375,0.0008442585822194815,-0.00035245437175035477,0.0019485162338241935
1772867044566804200,1.82080419921875,-0.0005088932812213898,-0.000576958991587162,-0.00009332929039373994
1772867044576870000,1.830869873046875,0.002500976901501417,0.0011929245665669441,0.0004246256430633366
1772867044586936000,1.84093603515625,0.0007123977411538363,-0.0005908608436584473,-0.00029975417419336736
1772867044597002000,1.851001953125,0.0005217182915657759,-0.0012890193611383438,-0.001152846496552229
1772867044607068200,1.861068115234375,-0.0012974869459867477,0.00025721173733472824,0.00037287850864231586
1772867044617134000,1.871134033203125,-0.0010667978785932064,-0.0018869228661060333,-0.0006690885638818145
1772867044627200000,1.881199951171875,0.00047197681851685047,0.0004286961629986763,-0.00034631346352398396
1772867044637266200,1.89126611328125,0.0005398897919803858,0.000014985911548137665,0.0003690047306008637
1772867044647331800,1.901331787109375,0.0004996759817004204,-0.003321422263979912,0.004029253032058477
1772867044657398000,1.91139794921875,0.00039191520772874355,-0.0032822126522660255,-0.0003851014480460435
1772867044667464000,1.9214638671875,-0.0016462020576000214,-0.0014422349631786346,-0.000081767444498837
1772867044677530000,1.931530029296875,0.0023774707224220037,-0.001838071271777153,0.00014154071686789393
1772867044687596000,1.941595947265625,0.0013952967710793018,0.001437351107597351,0.0027498407289385796
1772867044697662200,1.951662109375,0.0019056114833801985,-0.0032958080992102623,0.0015234474558383226
1772867044707728100,1.96172802734375,-0.0000904276967048645,-0.00021293293684720993,-0.0013991054147481918
1772867044717794000,1.9717939453125,-0.0005660494789481163,0.00018064863979816437,0.00036502338480204344
1772867044727860000,1.98185986328125,0.0011349113192409277,0.000051219016313552856,0.0003160212654620409
1772867044737926000,1.99192578125,-0.0008375435136258602,0.00012035854160785675,-0.00011953979264944792
1772867044747992000,2.001991943359375,-0.000016490928828716278,0.0010250341147184372,0.0004727472551167011
1772867044758058000,2.01205810546875,0.0021617708262056112,0.0012731580063700676,0.0000239704386331141
1772867044768124200,2.022124267578125,0.0005745268426835537,0.0014547863975167274,-0.0003392847429495305
1772867044778190000,2.032190185546875,-0.0007487842813134193,-0.0011015776544809341,-0.0011042037513107061
1772867044788256300,2.04225634765625,0.001381478039547801,-0.00032659806311130524,-0.00023521424736827612
1772867044798322000,2.052322021484375,0.0009548475500196218,-0.0009338557720184326,0.0002746959216892719
1772867044808388000,2.06238818359375,-0.0028902245685458183,0.0014526033774018288,0.00009147037053480744
1772867044818454000,2.0724541015625,0.0011807824485003948,0.00018494576215744019,-0.0004023499204777181
1772867044828520000,2.08252001953125,-0.00012230221182107925,-0.00000760052353143692,0.0003510583774186671
1772867044838586000,2.092586181640625,0.000151902437210083,-0.00027828849852085114,0.0006602432113140821
1772867044848652000,2.102652099609375,-0.0018111136741936207,-0.0015171915292739868,-0.0002580147120170295
1772867044858718200,2.11271826171875,-0.0006558867171406746,-0.0005803648382425308,-0.0014602257870137691
1772867044868783900,2.122783935546875,-0.0002151336520910263,0.0016108844429254532,0.0015930883819237351
1772867044878850000,2.13285009765625,-0.0006146328523755074,-0.0009311558678746223,0.001194643322378397
1772867044888916000,2.142916015625,0.0024703731760382652,0.0024563856422901154,0.0005442994297482073
1772867044898982100,2.152982177734375,-0.00048546912148594856,-0.002235688269138336,0.004082899075001478
1772867044909048000,2.163048095703125,-0.0007017175666987896,0.0005840668454766273,-0.0013139967340976
1772867044919114200,2.1731142578125,0.0005513273645192385,-0.00042998697608709335,0.0019422841724008322
1772867044929180200,2.18318017578125,0.0014858306385576725,-0.00296638160943985,-0.004456226248294115
1772867044939245800,2.193245849609375,-0.00045909592881798744,-0.00020271912217140198,-0.0005333460285328329
1772867044949312000,2.20331201171875,-0.001163502223789692,-0.0008384156972169876,0.0005084825679659843
1772867044959378000,2.2133779296875,0.0006002103909850121,0.0016207434237003326,0.00017730286344885826
1772867044969444000,2.223444091796875,-0.0006583994254469872,0.0019387248903512955,-0.000965725863352418
1772867044979510000,2.233510009765625,-0.0003953026607632637,0.0016767699271440506,-0.0020880731754004955
1772867044989575400,2.243575439453125,0.0016204437706619501,0.00040351320058107376,0.0007724281749688089
1772867044999641300,2.253641357421875,0.0010855256114155054,-0.003087978810071945,-0.0019923336803913116
1772867045009707500,2.26370751953125,-0.0025811144150793552,-0.0014711739495396614,0.001547007355839014
1772867045019773400,2.2737734375,-0.0013685375452041626,0.00046174321323633194,-0.0008315526647493243
1772867045029839600,2.283839599609375,-0.0006247167475521564,0.0013853274285793304,0.002032144460827112
1772867045039905300,2.2939052734375,0.0010216678492724895,-0.0003537274897098541,0.0013905733358114958
1772867045049971500,2.303971435546875,-0.001541891135275364,-0.0013763820752501488,0.003021226730197668
1772867045060037400,2.314037353515625,0.0011507214512676,0.0013776673004031181,-0.0005506881279870868
1772867045070103300,2.324103271484375,0.0009802791755646467,0.0003704596310853958,-0.0020106330048292875
1772867045080169500,2.33416943359375,0.001728680683299899,-0.00042756274342536926,0.0010131894377991557
1772867045090235400,2.3442353515625,0.0000756564550101757,0.0033400123938918114,0.001740498817525804
1772867045100301600,2.354301513671875,-0.001193382777273655,-0.0008514709770679474,0.0006695108604617417
1772867045110367500,2.364367431640625,-0.0011710119433701038,-0.0010711811482906342,0.0007225077715702355
1772867045120433400,2.374433349609375,0.0011226898059248924,0.0026358040049672127,0.0006951055256649852
1772867045130499300,2.384499267578125,0.002457466209307313,0.00014255288988351822,-0.0014796317555010319
1772867045140565500,2.3945654296875,0.0012075768318027258,0.0012734411284327507,0.000833328696899116
1772867045150631400,2.40463134765625,0.0017964018043130636,-0.0002568112686276436,0.001550251618027687
1772867045160697300,2.414697265625,-0.0005977232940495014,0.0001713605597615242,-0.0005352150765247643
1772867045170763500,2.424763427734375,0.0013818044681102037,0.0006102500483393669,-0.0009328250307589769
1772867045180829400,2.434829345703125,-0.0006850170902907848,-0.0018183961510658264,0.0002751198480837047
1772867045190895400,2.444895263671875,0.0013528335839509964,0.000969933345913887,-0.0014386242255568504
1772867045200962600,2.454962646484375,-0.0004604109562933445,0.00046865083277225494,0.001043844735249877
1772867045211028200,2.4650283203125,0.0027050222270190716,-0.0008674571290612221,0.0009024308528751135
1772867045221094400,2.475094482421875,-0.0013510757125914097,0.000004915520548820496,0.00050216109957546
1772867045231160300,2.485160400390625,0.0006324467249214649,-0.001245172694325447,0.00009017001139000058
1772867045241226500,2.4952265625,-0.0013653235509991646,-0.00027585308998823166,-0.0003500171296764165
1772867045251292400,2.50529248046875,0.0012315246276557446,-0.0002934299409389496,-0.0006794501678086817
1772867045261358600,2.515358642578125,0.0007864905055612326,-0.0011715972796082497,0.0003322967095300555
1772867045271424500,2.525424560546875,0.0005372187588363886,-0.0011644065380096436,-0.0006948845693841577
1772867045281490400,2.535490478515625,-0.0015472420491278172,-0.0015877382829785347,-0.0021983750630170107
1772867045291556400,2.545556396484375,-0.0014460422098636627,-0.0014186277985572815,-0.0030311455484479666
1772867045301622300,2.555622314453125,-0.0003622826188802719,-0.00019194837659597397,0.000529266893863678
1772867045311688400,2.5656884765625,-0.00009676534682512283,-0.0013083461672067642,0.0013364710612222552
1772867045321754400,2.57575439453125,0.00024223700165748596,0.0005067344754934311,-0.0013280513230711222
1772867045331820500,2.585820556640625,0.0024529267102479935,0.0005703838542103767,-0.0005221788305789232
1772867045341886500,2.595886474609375,-0.0010561547242105007,0.0003869561478495598,-0.001559003023430705
1772867045351952400,2.605952392578125,0.0012948838993906975,-0.0004508746787905693,-0.0023092154879122972
1772867045362018300,2.616018310546875,-0.0016144057735800743,0.00033261626958847046,0.0018254497554153204
1772867045372084500,2.62608447265625,0.0006261114031076431,-0.0021292101591825485,0.0005495291552506387
1772867045382150400,2.636150390625,0.0005536735989153385,0.00025078561156988144,0.001565340906381607
1772867045392216300,2.64621630859375,0.0015582179185003042,0.0013283006846904755,-0.001220059348270297
1772867045402282500,2.656282470703125,0.0008391309529542923,-0.0030017076060175896,-0.0023424227256327868
1772867045412348400,2.666348388671875,-0.00034224754199385643,-0.002349233254790306,0.00010209286119788885
1772867045422414600,2.67641455078125,-0.00024772295728325844,-0.0010782955214381218,0.00036142405588179827
1772867045432480300,2.686480224609375,-0.0016602636314928532,-0.0006234273314476013,-0.00013525551185011864
1772867045442546400,2.69654638671875,0.0005433640908449888,-0.0018382743000984192,0.0006483831093646586
1772867045452612400,2.7066123046875,-0.0019083418883383274,-0.002469710074365139,-0.0012334065977483988
1772867045462678500,2.716678466796875,0.00026773707941174507,-0.0024956120178103447,-0.001219132449477911
1772867045472744400,2.726744384765625,0.0020366087555885315,0.001181681640446186,0.00149143289308995
1772867045482810600,2.736810546875,-0.0006710696034133434,-0.00020854268223047256,-0.0016699443804100156
1772867045492876500,2.74687646484375,0.0011606523767113686,0.00014619063585996628,0.0028550326824188232
1772867045502942200,2.756942138671875,-0.0005789236165583134,-0.0002905232831835747,0.0014007119461894035
1772867045513008400,2.76700830078125,0.0002067089080810547,-0.0032636765390634537,0.0012718148063868284
1772867045523074300,2.77707421875,0.0011980938725173473,-0.0008583022281527519,0.0018787713488563895
1772867045533140500,2.787140380859375,-0.0009135263971984386,-0.0006524398922920227,-0.00030129242804832757
1772867045543206400,2.797206298828125,0.0007646279409527779,-0.0008461745455861092,0.0004630872281268239
1772867045553272600,2.8072724609375,0.00033106538467109203,0.00016076676547527313,-0.00028819049475714564
1772867045563338500,2.81733837890625,0.0015963150653988123,-0.0022561540827155113,0.0006687558488920331
1772867045573404400,2.827404296875,0.0018413257785141468,0.00013003870844841003,0.0012772880727425218
1772867045583470300,2.83747021484375,0.0012907383497804403,-0.00029730424284935,0.0015020952560007572
1772867045593536300,2.847536376953125,-0.0013247518800199032,-0.0011425921693444252,0.00005733052967116237
1772867045603602400,2.8576025390625,0.00014684069901704788,-0.0013774242252111435,0.00031873671105131507
1772867045613668400,2.86766845703125,0.0016219655517488718,-0.0021587954834103584,-0.0009111110703088343
1772867045623734500,2.877734619140625,-0.0028732167556881905,-0.0012452434748411179,-0.0010237800888717175
1772867045633800400,2.887800537109375,0.00041951541788876057,0.0010860878974199295,-0.0007377566071227193
1772867045643866600,2.89786669921875,0.00038015120662748814,-0.0015647737309336662,0.00019646412692964077
1772867045653932300,2.907932373046875,-0.0005199974402785301,-0.0002113552764058113,0.00048408558359369636
1772867045663998500,2.91799853515625,0.00112347980029881,0.00038664788007736206,0.0014920367393642664
1772867045674064400,2.928064453125,0.0022103157825767994,0.0011552367359399796,0.002463824115693569
1772867045684130300,2.93813037109375,-0.00006945710629224777,-0.0008400585502386093,0.0005277805612422526
1772867045694196500,2.948196533203125,-0.0033017355017364025,-0.0006325980648398399,0.00039275834569707513
1772867045704262400,2.958262451171875,-0.0023283599875867367,-0.0011122506111860275,-0.0022414829581975937
1772867045714328600,2.96832861328125,0.00034438841976225376,0.0005804551765322685,0.0011812117882072926
1772867045724394200,2.978394287109375,0.0008832260500639677,0.001329551450908184,0.0016571562737226486
1772867045734460400,2.98846044921875,0.00013168202713131905,-0.000554368831217289,-0.0005719093605875969
1772867045744526300,2.9985263671875,0.0010761399753391743,-0.0010421890765428543,-0.0015239410568028688
1772867045754592500,3.008592529296875,0.00006413878872990608,0.0010880734771490097,0.0004547875723801553
1772867045764658400,3.018658447265625,-0.0000019599683582782745,-0.0003011934459209442,0.0004773861146531999
1772867045774724600,3.028724609375,0.0012430676724761724,0.00016246270388364792,0.000516534608323127
1772867045784790500,3.03879052734375,0.0008749593980610371,0.00043439585715532303,-0.0005220422171987593
1772867045794856200,3.048856201171875,-0.0017008502036333084,-0.001882021315395832,-0.0007699825218878686
1772867045804922400,3.05892236328125,-0.001391516998410225,-0.002217797562479973,-0.0011433139443397522
1772867045814988300,3.06898828125,0.0008415437769144773,-0.00038234610110521317,0.002809083554893732
1772867045825054500,3.079054443359375,0.0009714884217828512,0.001711367629468441,-0.0022872104309499264
1772867045835120400,3.089120361328125,-0.00041575217619538307,-0.0008354131132364273,0.0025853090919554234
1772867045845186600,3.0991865234375,0.00034203589893877506,-0.0010007284581661224,-0.0012218349147588015
1772867045855252500,3.10925244140625,0.00027785380370914936,0.00023843999952077866,0.0018871391657739878
1772867045865318700,3.119318603515625,0.004518657457083464,-0.0010014809668064117,0.0005818416830152273
1772867045875384300,3.12938427734375,-0.0004814276471734047,-0.00042810291051864624,0.0009621410863474011
1772867045885450200,3.1394501953125,0.00002325046807527542,0.0009026182815432549,0.002528020180761814
1772867045895516400,3.149516357421875,-0.001767992042005062,-0.002539517357945442,-0.0012387549504637718
1772867045905582300,3.159582275390625,-0.0015185950323939323,-0.0007695844396948814,-0.0026609180495142937
1772867045915648500,3.1696484375,0.0007666635792702436,-0.0004896866157650948,-0.000751697807572782
1772867045925714400,3.17971435546875,0.0023639388382434845,0.001251906156539917,0.0006285689887590706
1772867045935780600,3.189780517578125,0.00026536802761256695,-0.0019145924597978592,0.000397672934923321
1772867045945846300,3.19984619140625,0.0008879154920578003,-0.0013203537091612816,-0.00005296512972563505
1772867045955912400,3.209912353515625,0.0010370525997132063,-0.00044737011194229126,-0.0002620232990011573
1772867045965978400,3.219978271484375,0.0011856690980494022,0.0009473646059632301,-0.0025014474522322416
1772867045976044500,3.23004443359375,0.0003225386608392,-0.0014998139813542366,-0.00028489838587120175
1772867045986111500,3.240111572265625,0.0010528054554015398,0.0012127188965678215,0.0009698814246803522
1772867045996177700,3.250177734375,-0.0011909077875316143,0.0014430824667215347,0.0029704482294619083
1772867046006243600,3.26024365234375,0.0018156040459871292,0.00020157545804977417,-0.0009406668832525611
1772867046016309800,3.270309814453125,0.00007576076313853264,0.0002865307033061981,0.0001789260422810912
1772867046026375700,3.280375732421875,0.0002955244854092598,-0.00020448584109544754,0.00046717433724552393
1772867046036441900,3.29044189453125,-0.0014602974988520145,-0.00003963615745306015,0.0012405562447384
1772867046046507800,3.3005078125,0.0007939164061099291,-0.0007610376924276352,0.0029310216195881367
1772867046056574000,3.310573974609375,-0.0016471371054649353,-0.00009711179882287979,-0.0012791699264198542
1772867046066639600,3.3206396484375,0.000889279181137681,-0.001276564784348011,-0.00003833719529211521
1772867046076705800,3.330705810546875,-0.000882255844771862,0.001551179215312004,-0.0017781802453100681
1772867046086771700,3.340771728515625,0.0009733051992952824,-0.0007528578862547874,0.0016882317140698433
1772867046096837600,3.350837646484375,0.00020578224211931229,-0.000882287509739399,-0.0022886667866259813
1772867046106903800,3.36090380859375,0.00018673529848456383,0.0015673758462071419,-0.0006529244128614664
1772867046116969700,3.3709697265625,0.0011382829397916794,-0.0015988564118742943,0.00005787325790151954
1772867046127036000,3.381035888671875,0.0009414805099368095,0.0010727904736995697,-0.0003952991683036089
1772867046137101600,3.3911015625,-0.002089463174343109,0.0012863753363490105,-0.00037133070873096585
1772867046147167700,3.401167724609375,-0.0006118076853454113,-0.0018053483217954636,0.0016756560653448105
1772867046157233700,3.411233642578125,0.0012484104372560978,0.0011382438242435455,0.0005190452793613076
1772867046167299800,3.4212998046875,-0.0009518289007246494,0.0006932783871889114,-0.0004710607754532248
1772867046177365800,3.43136572265625,-0.0005731270648539066,0.002658691257238388,0.000594736251514405
1772867046187432000,3.441431884765625,0.0017063140403479338,0.0008133035153150558,-0.002406126819550991
1772867046197497900,3.451497802734375,0.0030357639770954847,-0.000588584691286087,-0.002816253574565053
1772867046207563800,3.461563720703125,0.00023098639212548733,0.001437322236597538,-0.0006516868597827852
1772867046217629700,3.471629638671875,0.0019745579920709133,0.0018005771562457085,-0.0007667354075238109
1772867046227695600,3.481695556640625,-0.0003281785175204277,0.00012415647506713867,0.0015096307033672929
1772867046237761800,3.49176171875,0.000536283478140831,0.0002831472083926201,-0.0033591603860259056
1772867046247827700,3.50182763671875,0.003360747592523694,-0.0017547216266393661,-0.0005577626870945096
1772867046257894000,3.511893798828125,0.001977768028154969,-0.000898514874279499,-0.0009266105480492115
1772867046267959800,3.521959716796875,0.0005387733690440655,0.0023285169154405594,0.0015227862168103456
1772867046278026000,3.53202587890625,0.00012172246351838112,0.0005527213215827942,-0.002026142319664359
1772867046288091600,3.542091552734375,0.002175989095121622,0.0011060023680329323,-0.0009268693975172937
1772867046298157600,3.552157470703125,-0.0005066129378974438,-0.0008942978456616402,-0.00404063705354929
1772867046308223700,3.5622236328125,-0.0016223625279963017,0.0011495016515254974,0.00047684431774541736
1772867046318289700,3.57228955078125,-0.0007102298550307751,0.0004344424232840538,-0.00012316583888605237
1772867046328355800,3.58235595703125,-0.0006495220586657524,-0.0008453242480754852,-0.0009622599463909864
1772867046338421800,3.592421875,-0.0009328825399279594,0.001201314851641655,-0.0017020860686898232
1772867046348488000,3.602488037109375,0.0014761930797249079,-0.002328685484826565,-0.00005205773049965501
1772867046358553600,3.6125537109375,-0.0007318337447941303,-0.00040801335126161575,-0.0015205247327685356
1772867046368619800,3.622619873046875,-0.0016137934289872646,-0.0012765545397996902,-0.002954214345663786
1772867046378685700,3.632685791015625,0.00029489421285688877,-0.0025356970727443695,0.00041068950667977333
1772867046388752000,3.642751953125,-0.0014338605105876923,-0.0005683694034814835,-0.0018034880049526691
1772867046398817800,3.65281787109375,0.00319018610753119,0.0004998249933123589,0.0013302536681294441
1772867046408883700,3.6628837890625,-0.001628863625228405,-0.001176401972770691,-0.0004045384703204036
1772867046418950000,3.672949951171875,0.0013078039046376944,0.0005762241780757904,-0.0005339680938050151
1772867046429015800,3.683015869140625,-0.00033528078347444534,0.0003690682351589203,0.0002778699854388833
1772867046439081700,3.693081787109375,-0.000712917186319828,0.0002987608313560486,-0.0030034109950065613
1772867046449147600,3.703147705078125,0.0034185736440122128,-0.0014125024899840355,0.00010754226241260767
1772867046459213800,3.7132138671875,0.0000456799753010273,0.000834939070045948,0.0003514877753332257
1772867046469279700,3.72327978515625,-0.0009852796792984009,-0.00017675291746854782,0.0018627021927386522
1772867046479346000,3.733345947265625,-0.0006646350957453251,-0.0016196537762880325,-0.0005027174483984709
1772867046489411800,3.743411865234375,0.0010513379238545895,0.0015774751082062721,0.001288001425564289
1772867046499477800,3.753477783203125,0.0016481522470712662,-0.002099284902215004,0.00005389278521761298
1772867046509543700,3.763543701171875,-0.0007672598585486412,-0.0012935986742377281,-0.0015969123924151063
1772867046519609600,3.773609619140625,-0.0019129514694213867,0.0022132517769932747,-0.00010181375546380877
1772867046529676800,3.7836767578125,0.001618802547454834,0.00015318486839532852,0.0019568963907659054
1772867046539742700,3.79374267578125,-0.0017852499149739742,0.0018512159585952759,0.0013824524357914925
1772867046549808600,3.80380859375,-0.003743976354598999,0.0018833670765161514,0.0010143481194972992
1772867046559874800,3.813874755859375,-0.0005521774291992188,0.0004412652924656868,-0.0016687866300344467
1772867046569940700,3.823940673828125,0.00008348328992724419,0.0013358797878026962,-0.00009396206587553024
1772867046580007000,3.8340068359375,0.00022649508900940418,-0.0010724160820245743,-0.0007839871104806662
1772867046590072800,3.84407275390625,0.0015428145416080952,0.0005116080865263939,0.00005333393346518278
1772867046600138800,3.854138671875,0.001206990098580718,-0.0017107995226979256,-0.0008753103320486844
1772867046610204700,3.86420458984375,-0.001208004541695118,-0.0010264664888381958,-0.00010528339771553874
1772867046620270800,3.874270751953125,-0.001163263339549303,-0.0013295337557792664,-0.0012539047747850418
1772867046630336800,3.884336669921875,0.0018293967004865408,-0.00020388420671224594,-0.0005977901164442301
1772867046640402700,3.894402587890625,0.0003484128974378109,0.001089612953364849,-0.002007934032008052
1772867046650468900,3.90446875,0.0010910099372267723,0.0003693392500281334,0.0005970431375317276
1772867046660534800,3.91453466796875,0.003081190399825573,0.0017549814656376839,-0.0001294671674259007
1772867046670600700,3.9246005859375,0.00023398431949317455,-0.0004039593040943146,0.0011471908073872328
1772867046680666600,3.93466650390625,0.000506159383803606,-0.002987225539982319,0.001635614549741149
1772867046690732800,3.94473291015625,0.0007683299481868744,0.0004091775044798851,-0.0003466812486294657
1772867046700798700,3.954798828125,-0.0011936207301914692,-0.0006840508431196213,-0.0007573406910523772
1772867046710865000,3.964864990234375,-0.0018437965773046017,0.0005754111334681511,-0.0015777917578816414
1772867046720930800,3.974930908203125,-0.000693843699991703,0.0011732904240489006,0.002062483225017786
1772867046730996700,3.984996826171875,0.0014860783703625202,-0.0026763947680592537,-0.00041577141382731497
1772867046741063000,3.99506298828125,0.000012285076081752777,0.0012400494888424873,0.0005160685977898538
1772867046751128600,4.005128662109375,0.001469913637265563,-0.0007728124037384987,0.00096930778818205
1772867046761194800,4.01519482421875,0.0005519220139831305,-0.0012636324390769005,-0.0012810633052140474
1772867046771260700,4.0252607421875,0.0007731018122285604,-0.0010641338303685188,0.0019520987989380956
1772867046781326800,4.035326904296875,-0.0006349114701151848,0.0006922204047441483,-0.0001374172861687839
1772867046791392800,4.045392822265625,-0.0005781697109341621,0.0026328125968575478,-0.0016785974148660898
1772867046801459000,4.055458984375,-0.0009432891383767128,0.0014042966067790985,0.0011717837769538164
1772867046811524900,4.06552490234375,0.0000617331825196743,-0.0008594440296292305,-0.0009171569836325943
1772867046821590800,4.0755908203125,0.00011020246893167496,0.00224287249147892,-0.00034910475369542837
1772867046831656700,4.08565673828125,0.0014405418187379837,-0.0010807160288095474,-0.0008165626786649227
1772867046841722600,4.09572265625,-0.0028146570548415184,0.002832799218595028,0.00006547628436237574
1772867046851788800,4.105788818359375,0.0005946885794401169,0.0004063127562403679,0.001947950106114149
1772867046861854700,4.115854736328125,0.0003504767082631588,-0.0005622794851660728,-0.00023131445050239563
1772867046871921000,4.1259208984375,-0.00004568323493003845,-0.0007801894098520279,-0.0012498012511059642
1772867046881986800,4.13598681640625,-0.00021905498579144478,-0.000412672758102417,-0.00032488544820807874
1772867046892052700,4.146052734375,0.0011817968916147947,-0.00021431874483823776,0.00043139251647517085
1772867046902118700,4.15611865234375,0.00021959678269922733,0.002134854905307293,-0.0009723597322590649
1772867046912184800,4.166184814453125,-0.0013697631657123566,-0.0008667297661304474,-0.0001554858754388988
1772867046922250800,4.176250732421875,-0.002254997845739126,0.0009058704599738121,0.000775022548623383
1772867046932316700,4.186316650390625,0.001404938055202365,0.0011988291516900063,0.0001256378018297255
1772867046942382800,4.1963828125,0.0011394210159778595,-0.00045898836106061935,-0.0005713114514946938
1772867046952448800,4.20644873046875,-0.001936284825205803,-0.0010632826015353203,-0.0024514126125723124
1772867046962515000,4.216514892578125,0.0005769401323050261,-0.0017887270078063011,0.0015249530551955104
1772867046972580600,4.22658056640625,0.00021869968622922897,-0.000455416738986969,0.0013356171548366547
1772867046982647600,4.2366474609375,-0.000852157361805439,-0.0006599482148885727,0.0005553110386244953
1772867046992713000,4.246712890625,-0.0017016781494021416,0.0012819468975067139,0.0023484148550778627
1772867047002779000,4.25677880859375,-0.00011230353266000748,0.0007288083434104919,0.0030229936819523573
1772867047012845000,4.266844970703125,-0.0017305095680058002,-0.001182330772280693,-0.0017663828330114484
1772867047022910700,4.27691064453125,-0.0004279576241970062,-0.00013464316725730896,0.0014387315604835749
1772867047032977000,4.286976806640625,-0.00003585824742913246,-0.0005166446790099144,0.00010112434392794967
1772867047043042800,4.297042724609375,-0.00047767674550414085,-0.00014619901776313782,0.00008221587631851435
1772867047053109000,4.30710888671875,-0.0005971440114080906,0.0018622372299432755,1.5273690223693848e-7
1772867047063175000,4.3171748046875,0.0018550946842879057,0.00026434101164340973,0.0024923388846218586
1772867047073241000,4.327240966796875,0.00022270786575973034,0.0024703722447156906,-0.00004817981971427798
1772867047083307000,4.33730712890625,0.0009241844527423382,-0.001890021376311779,0.0014370650751516223
1772867047093373000,4.347373046875,-0.0010069496929645538,-0.00034198537468910217,-0.0008377181366086006
1772867047103438800,4.35743896484375,-0.000023711007088422775,-0.0021425485610961914,0.00019372411770746112
1772867047113504800,4.3675048828125,0.0005027954466640949,-0.0006857588887214661,-0.001026596873998642
1772867047123571000,4.377571044921875,-0.0010335822589695454,0.0027806106954813004,-0.001184788765385747
1772867047133636900,4.387636962890625,0.0024558906443417072,-0.0020585954189300537,-0.0012555329594761133
1772867047143703000,4.397703125,-0.0010845158249139786,-0.0005421917885541916,-0.0010712421499192715
1772867047153769000,4.40776904296875,0.000041684601455926895,0.0001504765823483467,0.00018613849533721805
1772867047163835000,4.4178349609375,0.00006298953667283058,-0.00012489408254623413,0.0007139770314097404
1772867047173900800,4.42790087890625,0.0022448687814176083,0.0007523680105805397,-0.00010548240970820189
1772867047183967000,4.437967041015625,-0.0008393381722271442,0.0015395982190966606,-0.0006362504209391773
1772867047194033000,4.448032958984375,-0.00024308683350682259,-0.0016674911603331566,0.003932442050427198
1772867047204098800,4.458098876953125,0.000666382722556591,0.000610576942563057,0.0028450731188058853
1772867047214165000,4.4681650390625,-0.0014672311954200268,-0.0009172726422548294,0.00041779206367209554
1772867047224231000,4.47823095703125,-0.0008650906383991241,0.0006238985806703568,-0.00022749186609871686
1772867047234297000,4.488297119140625,-0.00201831990852952,0.0004246663302183151,0.0009476482518948615
1772867047244362800,4.49836279296875,0.0014003799296915531,-0.00023153703659772873,-0.000892596086487174
1772867047254429000,4.508428955078125,0.000462251715362072,0.0003230646252632141,-0.0003507867513690144
1772867047264494800,4.518494873046875,0.001653217477723956,0.0006210720166563988,-0.001175301382318139
1772867047274561000,4.52856103515625,0.0020818335469812155,0.00013055745512247086,-0.0030374675989151
1772867047284627000,4.538626953125,-0.0012087682262063026,0.0016003558412194252,0.00283054169267416
1772867047294693000,4.548693115234375,-0.002408773172646761,-0.0011156639084219933,0.0005941957351751626
1772867047304759000,4.558759033203125,-0.0012202044017612934,0.001449492760002613,0.0011822215747088194
1772867047314824700,4.56882470703125,0.0019215361680835485,0.0005981186404824257,0.0004847763339057565
1772867047324891000,4.578890869140625,0.0011540132109075785,0.0005190223455429077,-0.002863349625840783
1772867047334956800,4.588956787109375,-0.0017584026791155338,-0.003855433315038681,-0.001976542640477419
1772867047345023000,4.59902294921875,0.0017143595032393932,-0.00035896990448236465,0.00035345699870958924
1772867047355089000,4.6090888671875,0.00019305269233882427,0.0000368533656001091,0.002058231271803379
1772867047365155000,4.619155029296875,-0.00003944104537367821,-0.0011951252818107605,-0.001298417104408145
1772867047375222000,4.629221923828125,0.0021528967190533876,0.001188790425658226,0.0007103257812559605
1772867047385288000,4.639287841796875,0.000984035199508071,0.0006668111309409142,0.0008980786660686135
1772867047395354000,4.64935400390625,-0.0011769449338316917,-0.0011473726481199265,-0.00024975769338198006
1772867047405419800,4.659419677734375,0.0007522488012909889,-0.0009439066052436829,-0.0009613543516024947
1772867047415486000,4.66948583984375,-0.0006564646027982235,0.000021034851670265198,-0.0004466045938897878
1772867047425552000,4.6795517578125,-0.0001310231164097786,-0.001393103040754795,-0.0013448888203129172
1772867047435618000,4.6896181640625,-0.001440377440303564,-0.00027008727192878723,-0.0022808811627328396
1772867047445684000,4.69968408203125,0.003079273272305727,-0.0011183032765984535,-0.002294196980074048
1772867047455750000,4.70975,-0.0012223492376506329,0.0005619209259748459,-0.0009553009876981378
1772867047465816000,4.719816162109375,0.0018293671309947968,-0.001246631145477295,-0.0011571685317903757
1772867047475881700,4.7298818359375,0.00016582105308771133,0.0009448733180761337,0.0011247521033510566
1772867047485948000,4.739947998046875,0.001834025140851736,0.00042182859033346176,-0.0016720995772629976
1772867047496013800,4.750013916015625,-0.0015384224243462086,-0.0009505655616521835,0.0014449279988184571
1772867047506080000,4.760080078125,-0.0002699587494134903,0.0019594701007008553,0.0003138835309073329
1772867047516146000,4.77014599609375,-0.0028075003065168858,0.0016600294038653374,0.001599096111021936
1772867047526212000,4.780212158203125,-0.00038428977131843567,-0.0005794232711195946,0.00034128513652831316
1772867047536278000,4.790278076171875,-0.00028828950598835945,0.0007926151156425476,0.0005183051689527929
1772867047546344000,4.800343994140625,-0.0007583377882838249,-0.0010939687490463257,0.0002679679892025888
1772867047556409900,4.810409912109375,-0.0005649616941809654,0.002132927067577839,0.001334454631432891
1772867047566475800,4.820475830078125,-0.0004882626235485077,-0.00030120182782411575,-0.0007856877637095749
1772867047576542000,4.8305419921875,-0.0006068889051675797,0.00033349357545375824,-0.001695842482149601
1772867047586607900,4.84060791015625,-0.0021874750964343548,0.000507931225001812,0.00031005038181319833
1772867047596674000,4.850674072265625,-0.0015406608581542969,-0.0013624876737594604,0.0016076130559667945
1772867047606740000,4.860739990234375,0.0017960136756300926,-0.0013124197721481323,-0.002829479519277811
1772867047616806100,4.87080615234375,0.00008236104622483253,-0.0021775905042886734,0.0019164164550602436
1772867047626873000,4.880873046875,0.0014917058870196342,-0.0016918294131755829,-0.0014551454223692417
1772867047636938800,4.890938720703125,-0.00016841012984514236,-0.0009148195385932922,0.0003514708369038999
1772867047647005000,4.9010048828125,0.0016095160972326994,-0.00013105105608701706,-0.0004789027734659612
1772867047657070800,4.91107080078125,0.0020306759979575872,0.0007972298189997673,-0.001919754664413631
1772867047667137000,4.921136962890625,0.00010547693818807602,-0.00027735624462366104,-0.0005042845732532442
1772867047677203000,4.931202880859375,0.0008738685864955187,-0.001791302114725113,-0.0010777243878692389
1772867047687268900,4.941268798828125,0.0011950458865612745,0.00010460149496793747,-0.0023230183869600296
1772867047697335000,4.9513349609375,-0.0005428134463727474,0.00029383040964603424,-0.0009937293361872435
1772867047707401000,4.96140087890625,-0.00002935575321316719,-0.0011551948264241219,-0.002580440603196621
1772867047717467000,4.971466796875,0.000973881920799613,-0.00032285600900650024,-0.0002573646488599479
1772867047727532800,4.98153271484375,0.00016454746946692467,-0.002148984931409359,0.0012169613037258387
1772867047737599000,4.991598876953125,-0.0016197278164327145,0.0006862366572022438,0.0035146772861480713
1772867047747665000,5.001664794921875,0.00017577549442648888,-0.000371037982404232,0.0022052014246582985
1772867047757731000,5.01173095703125,0.0023735559079796076,-0.0024223197251558304,0.0001565192942507565
1772867047767797000,5.021796875,0.0013410483952611685,0.00034017767757177353,0.00161566527094692
1772867047777863000,5.03186279296875,-0.00089595140889287,-0.0014993026852607727,0.0007912018336355686
1772867047787928800,5.0419287109375,0.0036625813227146864,0.002692779526114464,-0.004125792533159256
1772867047797994800,5.051994873046875,-0.0007029678672552109,-0.0006830552592873573,-0.0004150689928792417
1772867047808061000,5.06206103515625,-0.00012532854452729225,-0.0006359172984957695,0.001788430497981608
1772867047818126800,5.072126953125,0.0012430890928953886,-0.00016001053154468536,-0.00037781265564262867
1772867047828193000,5.082193115234375,0.0003421416040509939,-0.0004995642229914665,0.0017162308795377612
1772867047838259000,5.092259033203125,0.0019638226367533207,-0.0004352480173110962,0.00043023546459153295
1772867047848325000,5.1023251953125,0.0001874940935522318,0.001684894785284996,0.0005820355727337301
1772867047858391000,5.11239111328125,0.0008880540262907743,0.00048728566616773605,-0.001052185078151524
1772867047868457000,5.12245703125,-0.0008704313077032566,0.002130456268787384,0.0003893839893862605
1772867047878523000,5.13252294921875,0.0011371944565325975,-0.001432366669178009,-0.0008870558813214302
1772867047888588800,5.1425888671875,-0.0005347379483282566,0.0013287989422678947,-0.0007301957230083644
1772867047898655000,5.152655029296875,0.0011783279478549957,0.0014359811320900917,-0.003212772775441408
1772867047908721000,5.162720947265625,0.0004829766694456339,-0.0032298769801855087,0.0012402988504618406
1772867047918787000,5.172787109375,0.0022188578732311726,0.001271725632250309,0.002404505154117942
1772867047928853000,5.18285302734375,0.0004987220745533705,0.00017796456813812256,-0.003155909013003111
1772867047938919000,5.1929189453125,-0.0005426113493740559,0.0012289192527532578,-0.0011593842646107078
1772867047948984800,5.20298486328125,-0.0028001731261610985,0.0008057430386543274,-0.000942869228310883
1772867047959051000,5.213051025390625,0.0006344576831907034,-0.002198091708123684,0.00019794655963778496
1772867047969117000,5.223116943359375,-0.002586635760962963,0.0012754695490002632,-0.0011770435376092792
1772867047979183900,5.233183837890625,0.0003562355414032936,-0.001063622534275055,0.0004626265144906938
1772867047989250000,5.24325,0.003050022991374135,0.00012547895312309265,0.000944924948271364
1772867047999316000,5.25331591796875,-0.00006932253018021584,-0.000600108876824379,0.0008375480538234115
1772867048009382000,5.2633818359375,-0.0004863739013671875,0.0002284012734889984,0.0029169442132115364
1772867048019448000,5.273447998046875,0.000314448494464159,0.00042374059557914734,0.0009191596182063222
1772867048029514000,5.283513916015625,0.0011522790882736444,-0.0015331506729125977,0.0016102498630061746
1772867048039580200,5.293580078125,-0.0005762549117207527,0.0012893071398139,-0.00006819987902417779
1772867048049645800,5.303645751953125,-0.0008004931733012199,0.001179317943751812,0.0030295890755951405
1772867048059712000,5.3137119140625,0.00019471603445708752,0.00036278460174798965,-0.0011436456115916371
1772867048069778000,5.32377783203125,-0.0011379299685359001,0.00032576732337474823,-0.001925549702718854
1772867048079844000,5.333843994140625,-0.0015243766829371452,-0.0012922007590532303,-0.0006378229008987546
1772867048089910000,5.343909912109375,-0.0018705879338085651,-0.00018059741705656052,-0.00043622159864753485
1772867048099976000,5.353975830078125,-0.0019142143428325653,0.0037194909527897835,-0.002951767761260271
1772867048110042000,5.3640419921875,-0.001683584414422512,-0.0010941727086901665,0.004120522644370794
1772867048120108000,5.37410791015625,-0.0013186559081077576,0.0017656106501817703,0.003803641302511096
1772867048130174000,5.384174072265625,0.0012081514578312635,-0.0019273944199085236,-0.0008659453014843166
1772867048140240000,5.394239990234375,-0.00028670718893408775,0.0017408998683094978,0.0029129618778824806
1772867048150306000,5.40430615234375,-0.00021986151114106178,-0.00010520312935113907,0.0012780474498867989
1772867048160372000,5.4143720703125,0.00037709763273596764,-0.0016360366716980934,-0.0003802719002123922
1772867048170438100,5.424438232421875,-0.00037950649857521057,-0.001181168481707573,0.0004445090307854116
1772867048180504000,5.434504150390625,-0.00046377861872315407,-0.00023112352937459946,0.0012680741492658854
1772867048190570200,5.4445703125,0.0027663693763315678,-0.00019676890224218369,-0.0007407482480630279
1772867048200636000,5.454635986328125,0.0012994688004255295,0.001236521638929844,0.00033098639687523246
1772867048210701800,5.464701904296875,0.00011915597133338451,-0.001833304762840271,-0.0008927361341193318
1772867048220768000,5.47476806640625,0.0012187720276415348,-0.0013032890856266022,-0.0018517490243539214
1772867048230834000,5.484833984375,-0.0005532954819500446,-0.0017592217773199081,-0.0004381431790534407
1772867048240900000,5.494900146484375,-0.0003553517162799835,-0.0008165920153260231,-0.0007186706643551588
1772867048250966000,5.504966064453125,-0.00018490944057703018,-0.00013668742030858994,0.0009428755147382617
1772867048261032200,5.5150322265625,0.0011058561503887177,0.00008724629878997803,0.00174861925188452
1772867048271097900,5.525097900390625,0.0004371362738311291,0.000060614198446273804,-0.0002884327550418675
1772867048281164000,5.5351640625,0.00020647910423576832,0.0014042388647794724,-0.0005720553454011679
1772867048291230000,5.54522998046875,0.00002565048635005951,-0.0001806085929274559,0.001135030877776444
1772867048301295900,5.5552958984375,0.0011695176362991333,0.0005268426612019539,0.00029751297552138567
1772867048311363000,5.565363037109375,0.0014696558937430382,-0.00226494949311018,-0.00027746352134272456
1772867048321429000,5.575428955078125,0.0005574594251811504,0.0006598681211471558,-0.0018932665698230267
1772867048331495200,5.5854951171875,0.00003601238131523132,0.0012548184022307396,-0.001084997202269733
1772867048341561000,5.59556103515625,0.0008232705295085907,-0.0006032604724168777,0.0009366259328089654
1772867048351627000,5.605626953125,0.00048611429519951344,0.0014327261596918106,-0.0003976177249569446
1772867048361693000,5.61569287109375,0.0005847990978509188,0.0002528000622987747,0.0008821203955449164
1772867048371758800,5.6257587890625,0.0001443123910576105,0.001735115423798561,0.0014592274092137814
1772867048381825000,5.635824951171875,0.0009928105864673853,0.002732527442276478,0.0010719686979427934
1772867048391891000,5.645890869140625,-0.0018458529375493526,-0.001563417725265026,-0.0033507428597658873
1772867048401957000,5.65595703125,-0.000548812560737133,0.00014180690050125122,-0.0014049365418031812
1772867048412023000,5.66602294921875,-0.000004995148628950119,-0.0007828427478671074,0.002067559165880084
1772867048422089200,5.676089111328125,-0.0010693157091736794,0.001135747879743576,0.00017531652702018619
1772867048432155000,5.68615478515625,-0.000427494291216135,-0.0007883859798312187,0.0004791832179762423
1772867048442220800,5.696220703125,0.00023735384456813335,0.0011387430131435394,-0.0005202071624808013
1772867048452287000,5.706286865234375,0.0007952861487865448,-0.0000945674255490303,-0.0009532371768727899
1772867048462353000,5.716352783203125,0.0009120970498770475,0.0014391923323273659,-0.002376213204115629
1772867048472419000,5.726419189453125,0.0016351451631635427,0.0017486512660980225,-0.00141481205355376
1772867048482485000,5.736485107421875,0.0002848191652446985,-0.0025905873626470566,0.0017495967913419008
1772867048492551200,5.74655126953125,-0.0004890956915915012,-0.00028695352375507355,0.0012824783334508538
1772867048502617000,5.7566171875,0.001377627020701766,0.0004648277536034584,-0.001522174570709467
1772867048512683000,5.76668310546875,-0.0010258760303258896,-0.00025662221014499664,0.0012203487567603588
1772867048522749000,5.7767490234375,-0.00015949085354804993,-0.00019057467579841614,-0.0003363269497640431
1772867048532815000,5.786815185546875,0.0007012428250163794,0.0012744301930069923,0.0007710153586231172
1772867048542881000,5.796881103515625,0.0008664869237691164,-0.0012781862169504166,-0.0007398239686153829
1772867048552947000,5.806947021484375,-0.000734339002519846,0.0010946905240416527,0.002039184793829918
1772867048563013000,5.81701318359375,-0.0017780088819563389,-0.0011403849348425865,0.0010898932814598083
1772867048573079000,5.8270791015625,0.0011932800989598036,0.0001834724098443985,-0.0007594057242386043
1772867048583145000,5.83714501953125,0.0008136080577969551,0.0011185184121131897,0.002280974527820945
1772867048593211000,5.8472109375,-0.0029726079665124416,0.00034620147198438644,0.00032488268334418535
1772867048603277000,5.857277099609375,-0.0006006206385791302,0.001938365399837494,-0.0016234174836426973
1772867048613344000,5.867343994140625,0.0010169832967221737,0.001041945070028305,0.0015268357237800956
1772867048623410000,5.877409912109375,0.0010706840548664331,-0.0013344138860702515,0.0009978254092857242
1772867048633476000,5.88747607421875,0.0018038521520793438,0.000653902068734169,-0.00024054449750110507
1772867048643542000,5.8975419921875,0.00225565442815423,-0.0007160799577832222,-0.0017355855088680983
1772867048653608200,5.907608154296875,0.0011456490028649569,0.0006839437410235405,-0.0018887172918766737
1772867048663674000,5.917674072265625,0.0017813760787248611,-0.0002569323405623436,-0.0038438900373876095
1772867048673740000,5.927739990234375,-0.0010093501769006252,0.0009089987725019455,0.00011862738756462932
1772867048683806000,5.937805908203125,-0.0006077033467590809,-0.0000780746340751648,-0.0016244851285591722
1772867048693871900,5.947871826171875,0.0003534313291311264,-0.00038939807564020157,0.0011361476499587297
1772867048703938000,5.95793798828125,0.0018362842965871096,0.0026109516620635986,0.0012442758306860924
1772867048714004000,5.96800390625,0.00047967000864446163,-0.0012226691469550133,-0.0012716124765574932
1772867048724070100,5.978070068359375,-0.0007133102044463158,-0.00002685561776161194,-0.0007893448928371072
1772867048734136000,5.988135986328125,0.0006401084829121828,-0.0019983937963843346,0.0009145456133410335
1772867048744202000,5.998201904296875,0.0008190898224711418,-0.003290739841759205,-0.00297530647367239
1772867048754268000,6.008267822265625,-0.0017934711650013924,0.0016334448009729385,-0.0004042907094117254
1772867048764334000,6.018333984375,0.0005026089493185282,0.0007320800796151161,-0.0005020361859351397
1772867048774400000,6.02839990234375,0.0007513482123613358,-0.00008045043796300888,-0.0016511902213096619
1772867048784466000,6.0384658203125,-0.0006020599976181984,0.000011868774890899658,-0.00111423060297966
1772867048794532000,6.048531982421875,-0.002277987077832222,-0.00002914387732744217,0.00010869296966120601
1772867048804598000,6.058597900390625,0.0011988917831331491,0.0008472595363855362,-0.0017050999449566007
1772867048814664200,6.068664306640625,0.00010007154196500778,0.0015817591920495033,0.0018797812517732382
1772867048824729900,6.078729736328125,-0.0002709166146814823,-0.004035869613289833,0.0005404783878475428
1772867048834796000,6.088796142578125,-0.0022027739323675632,0.004929928109049797,0.0023072194308042526
1772867048844862000,6.098862060546875,0.0007009615655988455,0.00005989056080579758,-0.00021572623518295586
1772867048854928100,6.10892822265625,-0.0005531208589673042,0.0016133124008774757,-0.0006410330533981323
1772867048864994000,6.118994140625,-0.0006092567928135395,-0.0007026642560958862,0.0011908244341611862
1772867048875060000,6.12906005859375,0.0020999768748879433,0.0014670128002762794,-0.00024701611255295575
1772867048885126100,6.139126220703125,0.0004014894366264343,0.0005120346322655678,-0.0012240377254784107
1772867048895191800,6.14919189453125,0.0014489106833934784,-0.0012941211462020874,-0.0019313732627779245
1772867048905258000,6.159258056640625,0.0011262691114097834,0.0017455043271183968,0.0018578614108264446
1772867048915324000,6.169323974609375,0.0018434582743793726,-0.001761079765856266,0.0002517090179026127
1772867048925390800,6.179390869140625,-0.0013839229941368103,0.001017528586089611,0.00015560595784336329
1772867048935457000,6.18945703125,0.00009120209142565727,-0.000726308673620224,0.001586256199516356
1772867048945523000,6.19952294921875,0.0011023888364434242,-0.00016888510435819626,0.0017967548919841647
1772867048955589000,6.209589111328125,0.00016974983736872673,0.00015815161168575287,-0.0006919691804796457
1772867048965655000,6.219655029296875,-0.0017587877810001373,-0.0018928386270999908,-0.0017529926262795925
1772867048975721200,6.22972119140625,-0.000030928757041692734,-0.00014740321785211563,-0.0030209235846996307
1772867048985787000,6.239786865234375,0.001728135859593749,-0.0010213414207100868,0.0004468491533771157
1772867048995853800,6.249853759765625,0.0008831147570163012,-0.00045728404074907303,0.00010489934356883168
1772867049005920000,6.259919921875,-0.0017712912522256374,0.0013258885592222214,-0.0008170087821781635
1772867049015986000,6.26998583984375,0.0015563282649964094,0.001623629592359066,-0.0029214387759566307
1772867049026052000,6.280052001953125,-0.0005717556923627853,-0.00003773719072341919,0.0005614986876025796
1772867049036118000,6.290117919921875,0.00041174981743097305,0.0011084871366620064,-0.0017389398999512196
1772867049046184000,6.300183837890625,-0.0007025245577096939,0.002510874532163143,-0.001968699274584651
1772867049056249900,6.310249755859375,0.001164084766060114,0.0036392556503415108,-0.0011577666737139225
1772867049066315800,6.320315673828125,-0.00016370555385947227,0.0006211409345269203,0.0014599557034671307
1772867049076382000,6.3303818359375,0.0019622959662228823,0.0006222063675522804,-0.00019546528346836567
1772867049086447900,6.34044775390625,-0.0017839865759015083,0.002676473930478096,0.0022135768085718155
1772867049096514000,6.35051416015625,0.0003638528287410736,0.0016769897192716599,0.0008319288026541471
1772867049106580000,6.360580078125,-0.0009957235306501389,0.0011991094797849655,0.0015735034830868244
1772867049116646000,6.37064599609375,0.0012945951893925667,-0.00199295487254858,-0.0018172331620007753
1772867049126711800,6.3807119140625,-0.0012873443774878979,-0.0017819954082369804,0.0005837079952470958
1772867049136778000,6.390778076171875,0.0006189462728798389,0.0003088526427745819,-0.00004959170473739505
1772867049146844000,6.400843994140625,-0.0016803373582661152,-0.00044504832476377487,0.000278090825304389
1772867049156909800,6.410909912109375,-0.00048670871183276176,-0.0008189557120203972,-0.0007546830456703901
1772867049166976000,6.42097607421875,-0.0018002944998443127,-0.0033461162820458412,-0.00024031769135035574
1772867049177042000,6.4310419921875,0.00024448055773973465,-0.0032771406695246696,0.00004783633630722761
1772867049187108000,6.441108154296875,-0.0010845973156392574,0.0025901086628437042,0.0014369480777531862
1772867049197173800,6.451173828125,-0.0005493019707500935,-0.0011343220248818398,-0.000611289229709655
1772867049207240000,6.461239990234375,0.0004177587106823921,0.0009398981928825378,0.0015387190505862236
1772867049217305900,6.471305908203125,-0.000386782456189394,0.0025870632380247116,-0.0019817135762423277
1772867049227372800,6.481372802734375,0.0001275883987545967,0.0000665169209241867,0.00023857568157836795
1772867049237439000,6.49143896484375,0.0017228219658136368,0.0006750496104359627,-0.0021305724512785673
1772867049247505000,6.5015048828125,-0.0019488516263663769,0.0012186048552393913,0.0007925336249172688
1772867049257571000,6.511571044921875,0.0019654626958072186,-0.0005859527736902237,0.000006102141924202442
1772867049267637000,6.521636962890625,0.00009386148303747177,-0.002143697813153267,-0.000019516795873641968
1772867049277703200,6.531703125,-0.002330147661268711,-0.0032803351059556007,-0.0010826507350429893
1772867049287768800,6.541768798828125,0.0033442142885178328,0.000852242112159729,0.0009154044091701508
1772867049297834800,6.551834716796875,-0.000843872781842947,-0.0010212920606136322,-0.0006681111408397555
1772867049307901000,6.56190087890625,-0.0024600792676210403,-0.0014190413057804108,-0.001104267779737711
1772867049317966800,6.571966796875,-0.0007982668466866016,-0.0009135734289884567,-0.001074173953384161
1772867049328033000,6.582032958984375,0.002388056367635727,-0.0007377061992883682,-0.0020017940551042557
1772867049338099000,6.592098876953125,0.0020293286070227623,0.002639181911945343,0.00047654350055381656
1772867049348165000,6.6021650390625,0.00016403710469603539,0.00013230182230472565,-0.0014626702759414911
1772867049358230800,6.612230712890625,0.0015334344934672117,-0.002075725235044956,-0.00023362145293504
1772867049368297000,6.622296875,-0.00000939890742301941,0.0004413602873682976,0.0006753738271072507
1772867049378363000,6.63236279296875,0.0031408544164150953,-0.0017421655356884003,-0.0010173313785344362
1772867049388428800,6.6424287109375,-0.0006135250441730022,0.0008864458650350571,-0.0013044229708611965
1772867049398495000,6.652494873046875,-0.0012311125174164772,0.00111494492739439,-0.002421352546662092
1772867049408561000,6.662560791015625,0.0008265133947134018,0.000303429551422596,-0.00042759597999975085
1772867049418627000,6.672626953125,0.0000014659017324447632,0.0006741415709257126,-0.00040202963282354176
1772867049428692700,6.682692626953125,0.001010086853057146,-0.002318035811185837,-0.0008808852871879935
1772867049438759000,6.692759033203125,0.00001646159216761589,0.0008692359551787376,-0.0026929001323878765
1772867049448824800,6.702824951171875,0.0005692541599273682,-0.0008645029738545418,0.0005821126978844404
1772867049458891000,6.71289111328125,0.0006406269967556,-0.0011289548128843307,-0.0009595912415534258
1772867049468957000,6.72295703125,0.0004594358615577221,0.0004339497536420822,0.0021807218436151743
1772867049479023000,6.733023193359375,-0.0011373953893780708,0.001467255875468254,0.0023429084103554487
1772867049489089000,6.743089111328125,0.0011088363826274872,-0.0003292364999651909,0.0018651671707630157
1772867049499155000,6.753155029296875,-0.0005327360704541206,0.002002093940973282,-0.0010571194579824805
1772867049509220900,6.763220947265625,0.0006732007022947073,0.00046037323772907257,0.0008929637842811644
1772867049519286800,6.773286865234375,0.0028426118660718203,0.002604483626782894,0.00303041678853333
1772867049529353000,6.78335302734375,0.00136723299510777,-0.002356600947678089,-0.002983847865834832
1772867049539419000,6.7934189453125,-0.0012261532247066498,0.0014610402286052704,-0.0007611735491082072
1772867049549485000,6.803485107421875,0.001049289247021079,-0.0012585008516907692,-0.00014067132724449039
1772867049559551000,6.813551025390625,-0.0022903145290911198,-0.0011972477659583092,0.0009698668727651238
1772867049569617200,6.8236171875,-0.0019872034899890423,-0.003503807820379734,0.0022339923307299614
1772867049579684000,6.83368408203125,-0.0016673579812049866,0.0004350068047642708,0.0003005373873747885
1772867049589749800,6.843749755859375,-0.0018224292434751987,0.001130206510424614,0.002993916627019644
1772867049599816000,6.85381591796875,0.001981629990041256,-0.0007233535870909691,0.0008745728409849107
1772867049609881900,6.8638818359375,-0.0007550339214503765,0.0004987809807062149,0.0013590337475761771
1772867049619948000,6.873947998046875,-0.0018716971389949322,0.0009443275630474091,-0.0008543193689547479
1772867049630014000,6.884013916015625,0.0017540983390063047,-0.0012386031448841095,-0.0008871495956555009
1772867049640080000,6.894079833984375,0.0004789766389876604,0.0013071130961179733,-0.0017992822686210275
1772867049650146000,6.90414599609375,-0.001289562787860632,-0.0006073368713259697,0.0010546112898737192
1772867049660212000,6.9142119140625,0.002973625436425209,-0.0006366316229104996,0.0018319881055504084
1772867049670278000,6.92427783203125,0.00031359167769551277,0.0009591076523065567,-0.0019626400899142027
1772867049680343800,6.93434375,-0.0013964241370558739,-0.001199384219944477,-0.0015391975175589323
1772867049690410000,6.944409912109375,0.0009199373889714479,0.0003531360998749733,-0.0013082707300782204
1772867049700476000,6.954475830078125,0.0019444555509835482,-0.0023936480283737183,-0.0020877779461443424
1772867049710542000,6.9645419921875,-0.0005394110921770334,-0.000292118638753891,-0.0021011987701058388
1772867049720608000,6.97460791015625,-0.000596402445808053,0.0003004353493452072,-0.0004468431288842112
1772867049730674000,6.984673828125,-0.00021681073121726513,-0.001940559595823288,-0.0008822409436106682
1772867049740739800,6.99473974609375,0.0009208917617797852,0.0022424673661589622,0.0025974451564252377
1772867049750805800,7.0048056640625,-0.0002373990137130022,0.002756670117378235,0.0005667153163813055
1772867049760872000,7.014871826171875,-0.00047921412624418736,-0.0013246238231658936,0.0018205316737294197
1772867049770937900,7.024937744140625,0.00011714128777384758,0.0003702370449900627,-0.0025713418144732714
1772867049781004000,7.035004150390625,0.0010385951027274132,0.00011057872325181961,0.0016329905483871698
1772867049791070000,7.045070068359375,-0.00035353004932403564,-0.001252995803952217,-0.0024828098248690367
1772867049801136000,7.05513623046875,0.00018096622079610825,0.00042266491800546646,0.00043734622886404395
1772867049811201800,7.065201904296875,0.0005791257135570049,-0.00010373350232839584,0.002128003863617778
1772867049821268000,7.07526806640625,0.00033810967579483986,-0.0002366248518228531,0.0008968245820142329
1772867049831334000,7.085333984375,-0.0016355158295482397,0.00061778724193573,-0.0019866586662828922
1772867049841399800,7.09539990234375,0.0010974202305078506,-0.00048342999070882797,0.0026690794620662928
1772867049851466000,7.105466064453125,0.0008748061954975128,-0.00008371565490961075,-0.00020512426272034645
1772867049861532000,7.115531982421875,-0.0009081803727895021,-0.0002847844734787941,0.0010018203174695373
1772867049871598000,7.12559814453125,0.000010791467502713203,-0.0007391804829239845,0.0014472189359366894
1772867049881664000,7.1356640625,-0.0009093307889997959,-0.0011967113241553307,0.0016035465523600578
1772867049891730000,7.14572998046875,0.0012187850661575794,0.0009364420548081398,-0.00033838371746242046
1772867049901795800,7.1557958984375,-0.0007458289619535208,-0.000951206311583519,-0.0010318708373233676
1772867049911862000,7.165862060546875,-0.0007602090481668711,-0.00111363735049963,-0.0015347629087045789
1772867049921928000,7.175927978515625,-0.0009343798737972975,0.00018252339214086533,0.0029638486448675394
1772867049931993900,7.185993896484375,0.001953784842044115,0.0004101889207959175,0.00020560494158416986
1772867049942060000,7.19606005859375,-0.0012332196347415447,-0.0007504168897867203,-0.002118003088980913
1772867049952126000,7.2061259765625,-0.0002449087332934141,0.0020851939916610718,0.000271364813670516
1772867049962192000,7.21619189453125,-0.0013229565229266882,-0.0003641154617071152,-0.0007827143417671323
1772867049972259000,7.226259033203125,0.0013429143000394106,-0.0012610889971256256,-0.0031416111160069704
1772867049982324700,7.23632470703125,-0.00003180955536663532,-0.0009060893207788467,-0.0006345111760310829
1772867049992391000,7.246390869140625,-0.002224099589511752,0.0007208837196230888,0.0011771833524107933
1772867050002456300,7.256456298828125,-0.002783895703032613,0.0005355272442102432,0.0024749417789280415
1772867050012522500,7.2665224609375,-0.001258540665730834,0.0005243783816695213,0.00005577242700383067
1772867050022588400,7.27658837890625,-0.0004092587623745203,-0.00024234596639871597,0.00018600095063447952
1772867050032654600,7.286654541015625,-0.0017974162474274635,0.0010905973613262177,-0.00007567444117739797
1772867050042720500,7.296720458984375,0.000983456615358591,-0.0020644497126340866,0.0005853221518918872
1772867050052786700,7.30678662109375,-0.00028181495144963264,0.002357364632189274,-0.0005037493538111448
1772867050062852600,7.3168525390625,-0.0020283162593841553,-0.0006336309015750885,-0.0019602321553975344
1772867050072918500,7.32691845703125,0.00009009754285216331,0.0006609689444303513,-0.0010671622585505247
1772867050082984400,7.336984375,0.00004216074012219906,-0.001614435575902462,-0.0007401261245831847
1772867050093050400,7.34705029296875,0.00043345545418560505,-0.000002952292561531067,-0.0035241413861513138
1772867050103116500,7.357116455078125,0.001206304645165801,-0.0003486303612589836,0.001279135700315237
1772867050113182500,7.367182373046875,0.00016874191351234913,-0.0005114134401082993,-0.0012648520059883595
1772867050123248600,7.37724853515625,0.0005061645060777664,0.0000838031992316246,-0.0018257137853652239
1772867050133314600,7.387314453125,0.00024610012769699097,0.0006441120058298111,0.0016395216807723045
1772867050143380500,7.39738037109375,-0.0004580398090183735,-0.0015074564144015312,-0.001985040493309498
1772867050153446400,7.4074462890625,0.0016491753049194813,-0.0017446530982851982,0.001541519071906805
1772867050163512600,7.4175126953125,0.0002454230561852455,-0.000005342997610569,-0.0017839701613411307
1772867050173578500,7.42757861328125,-0.0009333170019090176,0.00026756059378385544,0.0010723494924604893
1772867050183644400,7.43764453125,0.0007479367777705193,0.0002526473253965378,-0.0032773916609585285
1772867050193710600,7.447710693359375,0.0018820974510163069,0.0009865956380963326,0.0017013215692713857
1772867050203776500,7.457776611328125,-0.00046760961413383484,0.0023698415607213974,-0.0012699671788141131
1772867050213842400,7.467842529296875,0.0019055698066949844,-0.0024281488731503487,0.003051322652027011
1772867050223908400,7.477908447265625,0.000967870932072401,0.0018848404288291931,0.0004028089460916817
1772867050233974500,7.487974609375,0.0012291157618165016,-0.0006631053984165192,-0.0008889224845916033
1772867050244040400,7.49804052734375,-0.0012979577295482159,-0.0001941230148077011,-0.0018069141078740358
1772867050254106600,7.508106689453125,0.0009907088242471218,0.0011206036433577538,-0.00008648022776469588
1772867050264172500,7.518172607421875,0.0007627422455698252,-0.0006016623228788376,0.0005199215956963599
1772867050274238500,7.528238525390625,0.004091566428542137,0.000024955719709396362,-0.00062194635393098
1772867050284304600,7.5383046875,-0.0017338322941213846,-0.0002078041434288025,-0.0015109095256775618
1772867050294370300,7.548370361328125,-0.000035404227674007416,-0.0012097526341676712,-0.00038832187419757247
1772867050304436500,7.5584365234375,0.0007792569231241941,0.001414259895682335,-0.00015955633716657758
1772867050314502400,7.56850244140625,0.00041943974792957306,0.00012750737369060516,-0.0013564941473305225
1772867050324568600,7.578568603515625,0.001737171784043312,-0.003912507556378841,-0.002268094103783369
1772867050334634500,7.588634521484375,0.0008983616717159748,-0.00005440413951873779,0.0021054630633443594
1772867050344700700,7.59870068359375,-0.0020913027692586184,-0.0006387010216712952,0.003117198124527931
1772867050354766600,7.6087666015625,-0.0016559157520532608,0.001554819755256176,0.0009220748906955123
1772867050364832500,7.61883251953125,-0.00015176227316260338,0.00006797630339860916,-0.0027336464263498783
1772867050374898400,7.6288984375,-0.0005781305953860283,-0.0017358148470520973,0.00024093384854495525
1772867050384964400,7.63896435546875,-0.0008593602105975151,-0.001191996969282627,-0.0032022669911384583
1772867050395030500,7.649030517578125,-0.00275611924007535,-0.0003578606992959976,0.0012110610259696841
1772867050405096400,7.659096435546875,-0.00138778705149889,0.0019444413483142853,-0.0003897651331499219
1772867050415162600,7.66916259765625,-0.0010404740460217,-0.002069788984954357,0.002003850881010294
1772867050425228500,7.679228515625,-0.001068171113729477,-0.0013557951897382736,0.0026363516226410866
1772867050435294700,7.689294677734375,-0.0006916960701346397,0.0007231514900922775,0.00044389901449903846
1772867050445360400,7.6993603515625,-0.00003735767677426338,-0.0024113887920975685,0.0033805668354034424
1772867050455426600,7.709426513671875,-0.0009000995196402073,0.001567494124174118,0.0013853847049176693
1772867050465492500,7.719492431640625,-0.00021673226729035378,-0.0001995135098695755,-0.0015704578254371881
1772867050475558400,7.729558349609375,-0.00047530094161629677,0.0014575617387890816,-0.0003311083128210157
1772867050485624600,7.73962451171875,-0.0007786345668137074,0.00023064389824867249,-0.0028861449100077152
1772867050495690500,7.7496904296875,-0.002933901734650135,-0.001860862597823143,-0.0006182488286867738
1772867050505756700,7.759756591796875,-0.00045875972136855125,0.0014278749004006386,0.0000648520071990788
1772867050515822300,7.769822265625,0.001876271329820156,0.00028808414936065674,-0.0006877523846924305
1772867050525888500,7.779888427734375,0.00029488629661500454,-0.00002989731729030609,-0.0015314418124035
1772867050535954400,7.789954345703125,-0.002028468530625105,0.000742926262319088,0.0001950975856743753
1772867050546020600,7.8000205078125,-0.00040900008752942085,0.00015197042375802994,-0.00008160484139807522
1772867050556086500,7.81008642578125,-0.0003237449564039707,0.0017395280301570892,-0.00009040517034009099
1772867050566152400,7.82015234375,-0.0001077624037861824,0.0003767888993024826,-0.0006712406175211072
1772867050576219600,7.8302197265625,0.002450279425829649,-0.00003672763705253601,-0.0007930725114420056
1772867050586284300,7.8402841796875,0.0007639657706022263,0.0012096324935555458,0.0006434365641325712
1772867050596351700,7.850351806640625,-0.00026851287111639977,-0.0011500697582960129,0.0015844909939914942
1772867050606417400,7.86041748046875,-0.0016605472192168236,0.002322426065802574,-0.0007716076797805727
1772867050616483300,7.8704833984375,-0.0018364633433520794,-0.0007884390652179718,-0.0002666327927727252
1772867050626549500,7.880549560546875,-0.0009522936306893826,-0.0021208180114626884,-0.0008125808089971542
1772867050636615400,7.890615478515625,0.0009507632348686457,0.0013281302526593208,0.0020109592005610466
1772867050646681600,7.900681640625,0.00040295091457664967,0.0012764651328325272,0.0003323687706142664
1772867050656747500,7.91074755859375,-0.000889183022081852,0.0021900171414017677,-0.002362229162827134
1772867050666813700,7.920813720703125,-0.0005022254772484303,-0.0037389788776636124,-0.00009401491843163967
1772867050676879400,7.93087939453125,0.0019965567626059055,0.00016451813280582428,0.0021198061294853687
1772867050686945500,7.940945556640625,0.00150413834489882,0.0012897038832306862,0.0019608153961598873
1772867050697011500,7.951011474609375,-0.001582752913236618,-0.0013221222907304764,0.001524792518466711
1772867050707077400,7.961077392578125,-0.0007710214704275131,-0.0023935120552778244,0.00037430686643347144
1772867050717143600,7.9711435546875,0.0014034982305020094,0.001125606708228588,0.0020897334907203913
1772867050727209500,7.98120947265625,0.0010644779540598392,0.0011274702847003937,-0.002897568279877305
1772867050737275600,7.991275634765625,-0.00004029087722301483,0.0007534865289926529,0.0008557914989069104
1772867050747340500,8.001340576171875,0.0014478834345936775,-0.0008563939481973648,0.0017229168443009257
1772867050757406500,8.011406494140624,0.001750951400026679,-0.0007963292300701141,-0.00004615201032720506
1772867050767472400,8.021472412109375,-0.0008328473195433617,-0.0015318943187594414,0.00006623339140787721
1772867050777538600,8.03153857421875,-0.001082402653992176,-0.00011341553181409836,-0.0009071328677237034
1772867050787604500,8.0416044921875,0.0004361316096037626,-0.0011451244354248047,-0.0020829185377806425
1772867050797671700,8.051671630859374,-0.0018338668160140514,-0.00037751905620098114,-0.0018618905451148748
1772867050807737600,8.061737548828125,0.0010522007942199707,0.0011780327185988426,-0.0012775929644703865
1772867050817803500,8.071803466796876,0.000457393703982234,-0.00023387931287288666,0.0001068048004526645
1772867050827869400,8.081869384765625,0.0009111964609473944,-0.0014767767861485481,0.0010876470478251576
1772867050837935400,8.091935302734376,-0.0005946648307144642,0.0029467549175024033,-0.0008308925898745656
1772867050848001500,8.10200146484375,0.0009036296978592873,-0.0011867377907037735,-0.00160587253049016
1772867050858067500,8.1120673828125,-0.0010128067806363106,0.00025405827909708023,0.00035786477383226156
1772867050868133600,8.122133544921875,-0.0015342533588409424,-0.0012266598641872406,0.0010846415534615517
1772867050878199600,8.132199462890625,-0.0004751700907945633,0.00023170560598373413,0.0008258490124717355
1772867050888265700,8.142265625,0.002106764353811741,-0.00008787307888269424,0.00063090561889112
1772867050898331400,8.152331298828125,0.0009104919154196978,-0.0025192387402057648,0.0019755223765969276
1772867050908397300,8.162397216796874,0.0011973143555223942,0.0011748317629098892,-0.0002732508582994342
1772867050918463500,8.17246337890625,0.0004911690484732389,-0.0012976089492440224,0.00022847333457320929
1772867050928529400,8.182529296875,-0.0007930072024464607,0.000528254546225071,0.0032181378919631243
1772867050938595600,8.192595703125,-0.0013685389421880245,0.0005184095352888107,-0.0005855759955011308
1772867050948661500,8.20266162109375,-0.0003522764891386032,-0.0009420681744813919,0.0007862182101234794
1772867050958727700,8.212727783203125,-0.001769819762557745,-0.0007003992795944214,-0.000905936467461288
1772867050968793300,8.22279345703125,-0.00028510764241218567,0.002475687302649021,0.0018160805338993669
1772867050978859500,8.232859619140624,-0.0024694539606571198,0.001066288910806179,-0.0013284055748954415
1772867050988925400,8.242925537109375,0.0009830682538449764,-0.00022561009973287582,0.0005555145908147097
1772867050998991600,8.25299169921875,-0.00016542896628379822,-0.0005696658045053482,-0.0007894193986430764
1772867051009057800,8.263057861328125,0.0007999669760465622,0.0015832344070076942,-0.00034254093770869076
1772867051019123700,8.273123779296874,0.0012121666222810745,0.001558508723974228,-0.0020790048874914646
1772867051029190000,8.28318994140625,-0.00029251957312226295,-0.0007520494982600212,0.00048055927618406713
1772867051039255800,8.293255859375,0.000861405162140727,0.000729740597307682,-0.0018268207786604762
1772867051049322000,8.303322021484375,-0.000316777266561985,-0.000667354092001915,0.0023855012841522694
1772867051059387600,8.3133876953125,-0.001339978538453579,0.0007921522483229637,-0.0011990339262410998
1772867051069453800,8.323453857421875,-0.0008430327288806438,-0.0016832565888762474,0.0038601732812821865
1772867051079519700,8.333519775390625,-0.0015272069722414017,-0.00047583412379026413,-0.00021284309332259
1772867051089585700,8.343585693359374,0.001686163479462266,-0.001324051059782505,0.0010742626618593931
1772867051099651800,8.35365185546875,0.001007555052638054,0.00009541027247905731,0.0009708774159662426
1772867051109717800,8.3637177734375,0.00084164016880095,0.0015761284157633781,-0.0004137000651098788
1772867051119784000,8.373783935546875,0.00018149055540561676,0.0017589917406439781,-0.0010989932343363762
1772867051129849900,8.383849853515626,0.0018957674037665129,0.00017760694026947021,-0.0007157643558457494
1772867051139915800,8.393915771484375,0.0011551172938197851,0.001058666966855526,-0.0005839733057655394
1772867051149981700,8.403981689453126,-0.00047020986676216125,-0.002208765596151352,-0.0002782424271572381
1772867051160047900,8.4140478515625,-0.0010382067412137985,0.0009958092123270035,-0.0023759857285767794
1772867051170113800,8.42411376953125,-0.0008520516566932201,-0.00019142776727676392,0.0009385845623910427
1772867051180179700,8.4341796875,0.0006626779213547707,-0.0029431255534291267,0.0003372275969013572
1772867051190246000,8.444245849609375,-0.0029738685116171837,0.0007711853832006454,-0.003158437553793192
1772867051200311800,8.454311767578124,0.0002622217871248722,-0.0005666585639119148,-0.0034046173095703125
1772867051210377700,8.464377685546875,-0.0002661491744220257,0.0007918206974864006,0.0013328799977898598
1772867051220443600,8.474443603515626,-0.0012578340247273445,0.0002129366621375084,0.0003171710413880646
1772867051230509800,8.484509765625,0.0014460734091699123,-0.0011628521606326103,0.0012996111763641238
1772867051240575700,8.49457568359375,-0.0007059141062200069,-0.000998103991150856,0.000864909146912396
1772867051250642000,8.504641845703125,0.0007606884464621544,-0.003060721792280674,0.0007844817591831088
1772867051260707800,8.514707763671876,-0.0009223935194313526,0.0017098356038331985,0.0015470635844394565
1772867051270773800,8.524773681640625,-0.0010920371860265732,-0.00029286183416843414,-0.0013573799515143037
1772867051280840000,8.53483984375,-0.0005976320244371891,-0.0015467451885342598,0.0022068177349865437
1772867051290905600,8.544905517578124,0.00030198367312550545,0.002368633635342121,0.00039773230673745275
1772867051300971800,8.5549716796875,0.0008036817889660597,0.00033704377710819244,0.00047635450027883053
1772867051311037700,8.56503759765625,0.00022417795844376087,-0.0009199688211083412,0.0010390804382041097
1772867051321104000,8.575103759765625,-0.001189949456602335,-0.0007035909220576286,0.0014301034389063716
1772867051331169800,8.585169677734376,-0.0012504030019044876,0.0011683451011776924,-0.0002556774707045406
1772867051341236000,8.595236083984375,-0.000253334641456604,0.00036653969436883926,-0.0019033419666811824
1772867051351302000,8.605302001953126,0.00045027234591543674,-0.0006987247616052628,0.0010032319696620107
1772867051361367800,8.615367919921875,0.002223935443907976,0.00013131555169820786,0.0007824164931662381
1772867051371433700,8.625433837890625,0.000305394409224391,0.0018724901601672173,0.0031901805195957422
1772867051381499600,8.635499755859374,0.00022941571660339832,-0.0023230519145727158,-0.0017452659085392952
1772867051391565800,8.64556591796875,-0.00031466828659176826,-0.00042821280658245087,-0.0018770922906696796
1772867051401631700,8.6556318359375,0.0015336161013692617,-0.0022747311741113663,-0.001868146238848567
1772867051411698000,8.665697998046875,-0.00018012803047895432,-0.001513599418103695,-0.0030125065241008997
1772867051421763800,8.675763916015624,0.0004155153874307871,0.00004255678504705429,0.0005521763814613223
1772867051431829800,8.685829833984375,-0.0002494761720299721,0.0020777443423867226,0.0009551126277074218
1772867051441895700,8.695895751953126,0.00035858224146068096,0.002346884459257126,0.0037686096038669348
1772867051451961900,8.7059619140625,0.0006770964246243238,0.0009045163169503212,-0.002861596178263426
1772867051462027800,8.71602783203125,-0.0008578277193009853,-0.0005231965333223343,0.0018780054524540901
1772867051472093700,8.72609375,0.0006732235196977854,0.0034552989527583122,-0.0019071453716605902
1772867051482159900,8.736159912109375,0.0008171151857823133,-0.0016942638903856277,-0.00044613020145334303
1772867051492225800,8.746225830078124,0.0010434838477522135,0.0019777026027441025,0.0009909115033224225
1772867051502292000,8.7562919921875,0.0003720975946635008,0.0008892025798559189,-0.000033259973861277103
1772867051512357600,8.766357666015624,-0.0002470873296260834,0.00038293562829494476,-0.0006420586141757667
1772867051522423800,8.776423828125,-0.0018412070348858833,-0.0006778957322239876,0.0007479136693291366
1772867051532489700,8.78648974609375,-0.0030492166988551617,0.0006084106862545013,-0.00047527626156806946
1772867051542556000,8.796555908203125,-0.00012338487431406975,0.0012621423229575157,-0.000826243543997407
1772867051552621800,8.806621826171876,0.0007799593731760979,0.0004919562488794327,-0.001052079489454627
1772867051562688000,8.81668798828125,-0.000334140844643116,0.0004644859582185745,0.00008939398685470223
1772867051572754000,8.82675390625,-0.000039861537516117096,0.0017976639792323112,0.0010127119021490216
1772867051582819600,8.836819580078124,-0.0013152537867426872,-0.00033950619399547577,0.00023906363639980555
1772867051592885800,8.8468857421875,-0.0051549989730119705,0.0016855616122484207,0.0006723599508404732
1772867051602951700,8.85695166015625,0.00017532962374389172,-0.0011927979066967964,0.0004122384707443416
1772867051613017900,8.867017822265625,-0.0013991310261189938,-0.0019238349050283432,-0.0006700701778754592
1772867051623083800,8.877083740234376,-0.0017722630873322487,-0.00003612041473388672,0.0010343119502067566
1772867051633149000,8.88714892578125,-0.0028407233767211437,-0.004095043987035751,0.0013552228920161724
1772867051643214600,8.897214599609375,0.0015625592786818743,-0.0004717838019132614,0.0011186259798705578
1772867051653280800,8.90728076171875,0.0005012894980609417,-0.00047604460269212723,-0.00041082751704379916
1772867051663346700,8.9173466796875,-0.0015651918947696686,-0.0004981169477105141,-0.0018178243190050125
1772867051673412900,8.927412841796874,0.0003581428900361061,-0.00012527499347925186,0.0006732965121045709
1772867051683478800,8.937478759765625,0.00009067612700164318,0.0002598492428660393,-0.0007750594522804022
1772867051693545000,8.947544921875,-0.0017386493273079395,-0.00012018345296382904,0.00034373445669189095
1772867051703611000,8.95761083984375,0.003251813817769289,0.0011843480169773102,0.0004535624757409096
1772867051713676800,8.9676767578125,-0.0027272491715848446,-0.0011648265644907951,0.0006735395872965455
1772867051723742700,8.97774267578125,0.0016721668653190136,0.0017950236797332764,0.00024227454559877515
1772867051733808600,8.98780859375,-0.0007289391942322254,0.0010373536497354507,0.00016024918295443058
1772867051743874800,8.997874755859375,-0.0018155844882130623,-0.0016834130510687828,-0.0017477691872045398
1772867051753940700,9.007940673828125,-0.0003441879525780678,-0.0012727538123726845,-0.0006276436615735292
1772867051764007000,9.0180068359375,0.0005392360035330057,-0.0012754639610648155,-0.001386960269883275
1772867051774072800,9.02807275390625,-0.0006032600067555904,0.001231103204190731,0.0005888389423489571
1772867051784139000,9.038138916015624,0.0005113186780363321,0.0003670826554298401,0.0003370859194546938
1772867051794204700,9.04820458984375,-0.0014058910310268402,-0.0007857996970415115,0.0010886299423873425
1772867051804270800,9.058270751953126,0.0030928263440728188,5.364418029785156e-7,0.000910452741663903
1772867051814336800,9.068336669921875,0.000778805697336793,-0.001814408227801323,-0.0005537531687878072
1772867051824402700,9.078402587890626,-0.0013040867634117603,0.0027643386274576187,0.0006383514846675098
1772867051834468900,9.08846875,0.00007862667553126812,0.00007481221109628677,-0.0021624949295073748
1772867051844534800,9.09853466796875,0.002141900360584259,0.0010995902121067047,0.0038905655965209007
1772867051854601000,9.10860107421875,0.00011709914542734623,-0.0009638266637921333,0.004192834720015526
1772867051864666600,9.11866650390625,0.0017953701317310333,0.00031436048448085785,0.0007651927298866212
1772867051874732800,9.12873291015625,0.0015429025515913963,0.000033663585782051086,0.0016003602650016546
1772867051884798700,9.138798828125,0.0018022600561380386,0.00021889247000217438,0.00045172462705522776
1772867051894865000,9.148864990234374,0.0008405926637351513,0.0013635195791721344,-0.0008526917081326246
1772867051904930800,9.158930908203125,-0.000853314995765686,0.0006844010204076767,0.00003793858923017979
1772867051914996700,9.168996826171876,0.0003086221404373646,-0.001010434702038765,-0.0005117378896102309
1772867051925063000,9.17906298828125,-0.0011487491428852081,0.0012794369831681252,0.0007961461669765413
1772867051935128600,9.189128662109376,-0.0018518236465752125,-0.0005472255870699883,0.0005636521964333951
1772867051945194800,9.19919482421875,-0.0007686684839427471,-0.00005574710667133331,0.0018239340279251337
1772867051955260700,9.2092607421875,-0.0005428320728242397,0.0010806238278746605,0.0013024869840592146
1772867051965326800,9.219326904296874,-0.0018592043779790401,-0.0009083887562155724,0.0020829224959015846
1772867051975392800,9.229392822265625,-0.0019502844661474228,0.00021892786026000977,0.0009007452172227204
1772867051985459000,9.239458984375,-0.00011091958731412888,0.0003147255629301071,0.00015747162979096174
1772867051995524900,9.24952490234375,-0.0009926920756697655,-0.0010626614093780518,0.0015644195955246687
1772867052005594400,9.259594482421875,0.00039901421405375004,-0.0004016933962702751,-0.00262609519995749
1772867052015660300,9.269660400390626,-0.001077176071703434,-0.0018227556720376015,0.0008943374268710613
1772867052025726200,9.279726318359375,-0.001419314183294773,0.0009031891822814941,0.00044942606473341584
1772867052035792400,9.28979248046875,0.0010100214276462793,-0.0014465181156992912,0.000987917184829712
1772867052045858000,9.299858154296874,-0.001737814862281084,-0.0004315907135605812,0.00014056777581572533
1772867052055924200,9.30992431640625,-0.0008288780227303505,-0.0011799391359090805,0.0017539106775075197
1772867052065990100,9.319990234375,0.0005920585244894028,-0.00220585148781538,0.0005921312840655446
1772867052076056300,9.330056396484375,-0.0002891817130148411,-0.0001685330644249916,0.0009343475103378296
1772867052086122200,9.340122314453126,-0.00015693530440330505,-0.0011264709755778313,-0.0019436171278357506
1772867052096188400,9.3501884765625,-0.0015092883259057999,-0.0005632126703858376,0.0006713406764902174
1772867052106254300,9.36025439453125,0.003324133576825261,0.00010916683822870255,-0.002711860928684473
1772867052116320300,9.3703203125,0.0009978623129427433,0.00027108751237392426,0.0019369529327377677
1772867052126386200,9.38038623046875,-0.0007998128421604633,-0.000730002298951149,0.0005551016656681895
1772867052136452000,9.3904521484375,0.0007501468062400818,0.002670854330062866,0.002011051867157221
1772867052146518300,9.400518310546875,0.0016524596139788628,0.0005925195291638374,-0.0020102565176784992
1772867052156584200,9.410584228515624,0.001231147674843669,0.0016045207157731056,0.000882735475897789
1772867052166650400,9.420650390625,-0.0012859804555773735,-0.0007974701002240181,-0.001803322578780353
1772867052176716300,9.43071630859375,-0.0034660440869629383,0.0013932464644312859,0.0003346630837768316
1772867052186782500,9.440782470703125,0.0006964760832488537,-0.0015073977410793304,-0.0017763932701200247
1772867052196848000,9.45084814453125,0.00017396407201886177,0.0015254095196723938,0.0030439281836152077
1772867052206914300,9.460914306640625,-0.0018957173451781273,0.0010856296867132187,-0.0007530132425017655
1772867052216980200,9.470980224609375,-0.00007677869871258736,0.0007468750700354576,-0.0011165346950292587
1772867052227046100,9.481046142578125,-0.0007289759814739227,0.00019897520542144775,-0.0002842338872142136
1772867052237112300,9.4911123046875,-0.00020007183775305748,-0.0016266219317913055,-0.0012576192384585738
1772867052247178200,9.50117822265625,-0.0012568929232656956,-0.0009292773902416229,0.0018226227257400751
1772867052257244400,9.511244384765625,0.0010371541138738394,0.0024350937455892563,0.0006497666472569108
1772867052267310000,9.52131005859375,-0.0008209827356040478,-0.0006172265857458115,0.000182997842784971
1772867052277376300,9.531376220703125,-0.0017735953442752361,0.001389731653034687,0.0009007197804749012
1772867052287442200,9.541442138671876,0.0003910539671778679,0.0023654457181692123,-0.0023070774041116238
1772867052297508400,9.55150830078125,-0.0005469112657010555,-0.000531274825334549,0.0006293240003287792
1772867052307574300,9.56157421875,-0.0005516586825251579,0.0017206603661179543,-0.0014354442246258259
1772867052317640200,9.57164013671875,-0.0002427319996058941,-0.0010093459859490395,-0.0018120150780305266
1772867052327706400,9.581706298828125,-0.0014075986109673977,0.0016488749533891678,0.0013704061275348067
1772867052337772300,9.591772216796874,-0.002649963367730379,0.0011665765196084976,-0.0005747667164541781
1772867052347838200,9.601838134765625,-0.000138020608574152,-0.00007863808423280716,0.0027178782038390636
1772867052357904100,9.611904052734374,0.0007093972526490688,0.0008912859484553337,0.0012659227941185236
1772867052367970300,9.62197021484375,-0.0004834490828216076,-0.00041481200605630875,-0.0008902427507564425
1772867052378036200,9.6320361328125,-0.002525561023503542,0.00096097681671381,-0.0007980974041856825
1772867052388102400,9.642102294921875,-0.00018048705533146858,0.0006321296095848083,-0.001316254842095077
1772867052398168300,9.652168212890626,-0.00007369415834546089,0.002030022442340851,-0.001976718893274665
1772867052408233200,9.662233154296874,-0.001597951166331768,-0.0000994587317109108,0.0030188763048499823
1772867052418299100,9.672299072265625,0.00028676772490143776,-0.00027709174901247025,-0.0018634968437254429
1772867052428365300,9.682365234375,-0.000046572182327508926,-0.00004611629992723465,0.0008724911604076624
1772867052438431200,9.69243115234375,0.001471696188673377,-0.0005222894251346588,-0.000020466744899749756
1772867052448497400,9.702497314453124,-0.00166290532797575,-0.002677273005247116,0.000904924119822681
1772867052458563300,9.712563232421875,-0.0028426856733858585,0.003490874543786049,-0.0006130777182988822
1772867052468629200,9.722629150390626,-0.00136846536770463,-0.0011654309928417206,-0.00169047387316823
1772867052478695200,9.732695068359375,0.001086969394236803,0.0007800078019499779,-0.0007911243592388928
1772867052488761000,9.742760986328125,-0.0009922794997692108,0.0026038484647870064,-0.0010712237562984228
1772867052498827300,9.7528271484375,0.00040454836562275887,0.001529528759419918,-0.0022787009365856647
1772867052508893200,9.76289306640625,-0.0019591054879128933,-0.00003668200224637985,0.00011600687867030501
1772867052518959400,9.77295947265625,0.0011543959844857454,-0.001018589362502098,-0.002032897900789976
1772867052529025300,9.783025390625,0.0011685800272971392,-0.0011658016592264175,0.0023922016844153404
1772867052539091500,9.793091552734374,-0.0004391702823340893,-0.0008683269843459129,-0.0005015890346840024
1772867052549157000,9.8031572265625,-0.0007526148110628128,-0.000812615267932415,0.0006100506288930774
1772867052559223300,9.813223388671876,0.001633577747270465,-0.00023444276303052902,0.0017903635744005442
1772867052569289200,9.823289306640625,-0.0010722591541707516,-0.00040075648576021194,-0.0016333842650055885
1772867052579355100,9.833355224609376,0.0034266188740730286,0.00023733731359243393,-0.0019931774586439133
1772867052589421300,9.84342138671875,-0.0006833495572209358,0.0009470004588365555,0.00019466475350782275
1772867052599487200,9.8534873046875,-0.000027146656066179276,-0.0014418549835681915,0.00014965730952098966
1772867052609553400,9.863553466796875,-0.0002465234138071537,0.0008205762133002281,-0.0010025459341704845
1772867052619619300,9.873619384765625,0.002016897313296795,-0.0014313925057649612,-0.00024381134426221251
1772867052629685200,9.883685302734374,0.00009064143523573875,-0.0009265551343560219,-0.0013134260661900043
1772867052639751200,9.893751220703125,0.0011865319684147835,-0.0007499875500798225,0.00076996476855129
1772867052649817300,9.9038173828125,-0.0002609705552458763,0.0004401812329888344,-0.0003267237334512174
1772867052659883300,9.91388330078125,-0.00013686716556549072,0.001389332115650177,-0.0009291307651437819
1772867052669949200,9.92394921875,0.0006080239545553923,-0.002194647677242756,-0.00016070681158453226
1772867052680015400,9.934015380859375,-0.0012804237194359303,-0.0013419035822153091,0.0014153518714010715
1772867052690081300,9.944081298828126,0.002175072208046913,-0.00035470351576805115,-0.00009244255488738418
1772867052700147200,9.954147216796875,-0.00015359604731202126,-0.00001009088009595871,0.001603191951289773
1772867052710213000,9.964213134765625,0.001232960494235158,0.0012298859655857086,0.0008294289582408965
1772867052720279300,9.974279296875,-0.0020371349528431892,-0.0035986918956041336,-0.0014710095711052418
1772867052730345200,9.98434521484375,0.0009534042328596115,-0.00134326983243227,0.0008332871366292238
1772867052740411400,9.994411376953124,0.0022383795585483313,-0.001065768301486969,0.0018082704627886415
1772867052750477300,10.004477294921875,-0.0013159792870283127,-0.002389819361269474,0.0006374726654030383
1772867052760543200,10.014543212890626,-0.000028341077268123627,-0.0007999120280146599,-0.0011630905792117119
1772867052770609400,10.024609375,-0.000052638817578554153,0.002949838526546955,-0.0017205157782882452
1772867052780675000,10.034675048828126,0.00015135947614908218,-0.000033700838685035706,-0.0031647479627281427
1772867052790741200,10.0447412109375,-0.0018430985510349274,0.0011597760021686554,0.0006885382463224232
1772867052800807200,10.05480712890625,-0.0007208422757685184,-0.0022589238360524178,-0.00016287434846162796
1772867052810873300,10.064873291015624,-0.0007398240268230438,0.0016595274209976196,0.0004902139771729708
1772867052820939300,10.074939208984375,-0.00048043206334114075,0.0006288839504122734,-0.0011521574342623353
1772867052831005400,10.08500537109375,-0.001787062268704176,0.0017012562602758408,-0.002111787209287286
1772867052841071400,10.0950712890625,0.00003800215199589729,-0.003442905843257904,-0.0011735556181520224
1772867052851137300,10.10513720703125,-0.0016456888988614082,-0.001081213355064392,0.001440550433471799
1772867052861202200,10.1152021484375,-0.002326393034309149,0.0007885927334427834,0.0017231118399649858
1772867052871268400,10.125268310546875,0.001563569763675332,0.001974955201148987,-0.0002914181095547974
1772867052881334300,10.135334228515624,-0.00030357250943779945,-0.0009276233613491058,-0.0012400361010804772
1772867052891400400,10.145400390625,-0.0008433833718299866,-0.0002882992848753929,-0.0027319975197315216
1772867052901466400,10.15546630859375,0.000021078623831272125,0.000017165206372737885,0.0005053411587141454
1772867052911532300,10.1655322265625,-0.00021896697580814362,0.002537207677960396,0.0006973996642045677
1772867052921598200,10.17559814453125,-0.0016477527096867561,-0.0015747128054499626,-0.00244672829285264
1772867052931664100,10.1856640625,0.0019168972503393888,0.0000726776197552681,-0.0013622583355754614
1772867052941730300,10.195730224609376,0.0009813287761062384,0.0017664479091763496,0.0018710854928940535
1772867052951796200,10.205796142578125,0.00038692750968039036,-0.001535838469862938,-0.0005138362757861614
1772867052961862400,10.2158623046875,-0.00006261421367526054,0.00009827688336372375,-0.0001132968463934958
1772867052971928300,10.22592822265625,-0.00034417537972331047,0.0007338076829910278,-0.0005349110579118133
1772867052981994200,10.235994140625,-0.00010076258331537247,0.000415826216340065,-4.146713763475418e-7
1772867052992060200,10.24606005859375,-0.0004420969635248184,0.0008925618603825569,0.0014113421784713864
1772867053002123300,10.256123291015625,-0.00020001595839858055,-0.0011484846472740173,0.0014984275912865996
1772867053012189400,10.266189453125,0.0011782676447182894,0.0014936523512005806,0.0008849182049743831
1772867053022255400,10.27625537109375,-0.0013751708902418613,0.0008353190496563911,-0.0004908708506263793
1772867053032321500,10.286321533203125,-0.0005087656900286674,-0.0022455723956227303,-0.00031146977562457323
1772867053042387500,10.296387451171874,-0.0006911922246217728,0.0024999137967824936,0.0020544826984405518
1772867053052453400,10.306453369140625,-0.00034901127219200134,0.000578148290514946,-0.000777093751821667
1772867053062519300,10.316519287109376,-0.0005980166606605053,-0.0002924390137195587,0.000605885754339397
1772867053072585500,10.32658544921875,0.0017148505430668592,0.0027207061648368835,0.0007847832166589797
1772867053082651400,10.3366513671875,0.0010005906224250793,-0.00160240288823843,0.000051082344725728035
1772867053092717300,10.34671728515625,0.0008696301374584436,0.001935451291501522,-0.0007786898640915751
1772867053102783500,10.356783447265625,-0.0024625170044600964,0.00026325229555368423,-0.00019519130000844598
1772867053112849400,10.366849365234375,-0.0005475631915032864,-1.7136335372924805e-7,-0.00015833685756660998
1772867053122915300,10.376915283203125,-0.0015880600549280643,0.0025665834546089172,-0.000463268777821213
1772867053132981200,10.386981201171874,0.0016358054708689451,0.001202174462378025,-0.002927562687546015
1772867053143047400,10.39704736328125,0.0006541642360389233,-0.00022927485406398773,0.00017448747530579567
1772867053153113300,10.40711328125,0.0005397889763116837,0.0028489623218774796,0.000419806397985667
1772867053163179500,10.417179443359375,-0.0015004584565758705,0.00003373529762029648,-0.00031069866963662207
1772867053173245400,10.427245361328126,0.001765059307217598,0.0018547838553786278,-0.0012372544733807445
1772867053183311400,10.437311279296875,0.0004497240297496319,-0.0005082394927740097,-0.000944306782912463
1772867053193377500,10.44737744140625,-0.001403522677719593,-0.0002251090481877327,-0.0024815015494823456
1772867053203443200,10.457443115234375,0.00026281713508069515,0.001630314625799656,0.0003481069579720497
1772867053213508400,10.46750830078125,0.0011183104943484068,0.0006079170852899551,0.00006427778862416744
1772867053223574300,10.47757421875,0.0012373537756502628,0.00102922972291708,-0.0004180206451565027
1772867053233640400,10.487640380859375,-0.001127888448536396,-0.0032187318429350853,0.0011424715630710125
1772867053243706400,10.497706298828126,-0.0002346644178032875,0.0005608266219496727,-0.00030202697962522507
1772867053253772500,10.5077724609375,0.001017529284581542,-0.0022157328203320503,-0.0015207401011139154
1772867053263838200,10.517838134765626,-0.00017290376126766205,-0.0023078788071870804,0.0018670670688152313
1772867053273904400,10.527904296875,-0.0009882692247629166,-0.0009824670851230621,-0.0014696009457111359
1772867053283970300,10.53797021484375,0.0008053698111325502,-0.0006114887073636055,-0.0026706864591687918
1772867053294036500,10.548036376953124,0.0004847587551921606,0.0034382976591587067,-0.0005791791481897235
1772867053304102400,10.558102294921875,0.0006629242561757565,-0.0010392749682068825,-4.7427602112293243e-7
1772867053314168600,10.56816845703125,0.001970504643395543,0.00037803128361701965,0.0007590847671963274
1772867053324234500,10.578234375,-0.00015576323494315147,0.0017655380070209503,0.0012650853022933006
1772867053334300200,10.588300048828126,0.0012386094313114882,-0.00025221798568964005,-0.0008299130713567138
1772867053344366300,10.598366455078125,-0.0003291936591267586,0.0013720439746975899,-0.0005833043833263218
1772867053354432300,10.608432373046876,0.0022927746176719666,0.0004164697602391243,-0.00043213547905907035
1772867053364498400,10.61849853515625,-0.0004460201598703861,-0.000916176475584507,0.00010555674089118838
1772867053374564400,10.628564453125,0.0002085571177303791,0.0017670933157205582,-0.0013581987004727125
1772867053384630500,10.638630615234375,0.00047700386494398117,-0.002699826844036579,0.0010748653439804912
1772867053394696400,10.648696533203125,-0.00029658572748303413,0.0012198295444250107,0.0015579914906993508
1772867053404762400,10.658762451171874,-0.0014284290373325348,-0.0011767484247684479,0.000057300261687487364
1772867053414828300,10.668828369140625,-0.0004821205511689186,0.000044726766645908356,-0.0010007141390815377
1772867053424894200,10.678894287109374,0.0007961967494338751,0.0009531313553452492,-0.0015264221001416445
1772867053434960400,10.68896044921875,-0.00040218932554125786,0.000009971670806407928,-0.00020190884242765605
1772867053445026300,10.6990263671875,-0.00014625955373048782,0.00044246856123209,0.00013977475464344025
1772867053455092500,10.709092529296875,0.002350243739783764,-0.0023117251694202423,-0.002640410792082548
1772867053465158400,10.719158447265626,0.0007811093237251043,0.0009274771437048912,0.0030917772091925144
1772867053475224600,10.729224609375,0.00013400567695498466,-0.0006809886544942856,-0.0005963239236734807
1772867053485290200,10.739290283203125,-0.0031885537318885326,-0.0014333315193653107,0.0002407075953669846
1772867053495356400,10.7493564453125,-0.0017818687483668327,0.0012535592541098595,0.0023568745236843824
1772867053505422300,10.75942236328125,-0.00140476506203413,0.0007566139101982117,0.0008111759671010077
1772867053515487500,10.769487548828126,-0.0012483680620789528,-0.0009516747668385506,-0.0007919479394331574
1772867053525554400,10.779554443359375,-0.00023157335817813873,0.002103770151734352,0.0004837062442675233
1772867053535619600,10.78961962890625,-0.0027544149197638035,-0.0012341924011707306,0.0009479266591370106
1772867053545685200,10.799685302734375,0.00036601070314645767,0.0019376324489712715,0.00025603739777579904
1772867053555751400,10.80975146484375,-0.00048443907871842384,0.000629151239991188,-0.0006915405974723399
1772867053565817300,10.8198173828125,-0.00003329990431666374,-0.0016734180971980095,-0.0005469309398904443
1772867053575883300,10.82988330078125,0.0005476516671478748,-0.0005464153364300728,-0.0016614421037957072
1772867053585949400,10.839949462890624,0.0003023745957762003,-0.00013176165521144867,0.0009508525254204869
1772867053596015400,10.850015380859375,-0.00040582986548542976,0.0007568234577775002,0.0025770938955247402
1772867053606081500,10.86008154296875,-0.0024111904203891754,0.0011709444224834442,-0.0011294938158243895
1772867053616147200,10.870147216796875,-0.0003668921999633312,-0.0007463619112968445,0.00011862628161907196
1772867053626213400,10.88021337890625,-0.0015490693040192127,0.0010179821401834488,0.0010102526284754276
1772867053636279300,10.890279296875,-0.0003444538451731205,-0.0018065087497234344,0.00022245431318879128
1772867053646345500,10.900345458984376,-0.002336498349905014,-0.0004845159128308296,-0.00021137460134923458
1772867053656411400,10.910411376953125,-0.0003112424165010452,0.0008406862616539001,0.0002467334270477295
1772867053666477600,10.9204775390625,0.0008027579169720411,-0.0003297729417681694,0.0013767126947641373
1772867053676543500,10.93054345703125,-0.0004528230056166649,0.0007248334586620331,0.00019928679103031754
1772867053686609200,10.940609130859375,0.0003242872189730406,-0.0017862608656287193,-0.0034953164868056774
1772867053696675300,10.95067529296875,0.000974664930254221,0.0005606422200798988,0.0009799660183489323
1772867053706741200,10.9607412109375,-0.00007382174953818321,0.0023878375068306923,-0.0002815733605530113
1772867053716807400,10.970807373046876,0.003095413325354457,-0.0004825703799724579,0.001234452472999692
1772867053726873300,10.980873291015625,-0.0019448851235210896,0.0013294443488121033,0.0004887674003839493
1772867053736939500,10.990939453125,0.0009967628866434097,-0.0002623647451400757,0.0004674424999393523
1772867053747005400,11.00100537109375,-0.0010293698869645596,0.0000018207356333732605,-0.0009296517819166183
1772867053757071600,11.011071533203125,-0.0017914166674017906,0.0011413367465138435,-0.0021404577419161797
1772867053767137300,11.02113720703125,-0.0006276150234043598,-0.003002275712788105,0.0033152939286082983
1772867053777203200,11.031203125,-0.0015551252290606499,0.0003019198775291443,0.00016616156790405512
1772867053787269400,11.041269287109374,0.003117923391982913,0.0005394741892814636,0.0016617928631603718
1772867053797335300,11.051335205078125,-0.0007007177919149399,-0.00002505909651517868,0.0006163777434267104
1772867053807400400,11.061400390625,0.00214966363273561,0.0015579238533973694,0.0004965355037711561
1772867053817466600,11.071466552734375,0.002031138865277171,0.0011702487245202065,-0.0005900496034882963
1772867053827532300,11.0815322265625,-0.00022349320352077484,-0.0005504200235009193,0.0007599067757837474
1772867053837598200,11.09159814453125,0.0008872610051184893,0.00018557999283075333,0.001801184145733714
1772867053847664400,11.101664306640625,-0.0015386124141514301,-0.0006581097841262817,-0.002932850969955325
1772867053857730300,11.111730224609374,0.00011813780292868614,0.001149272546172142,0.0007358096190728247
1772867053867796500,11.12179638671875,0.0007479754276573658,-0.0012560952454805374,-0.0017100374680012465
1772867053877862400,11.1318623046875,0.0007309312932193279,0.00034099631011486053,-0.0021357829682528973
1772867053887928600,11.141928466796875,-0.0003955857828259468,0.0004720240831375122,-0.00021750805899500847
1772867053897994200,11.151994140625,0.00036376924254000187,0.0004861559718847275,-0.0004978777724318206
1772867053908060400,11.162060302734375,0.00004924973472952843,0.0011982852593064308,-0.0002456764050293714
1772867053918126300,11.172126220703126,0.001198135083541274,-0.0010922281071543694,-0.001980776432901621
1772867053928192300,11.182192138671875,0.0004732224624603987,-0.00026238709688186646,0.0008256625733338296
1772867053938258400,11.192258544921875,-0.0014112885110080242,0.0006972663104534149,0.0007951752049848437
1772867053948324400,11.202324462890624,0.001602344447746873,-0.002274555154144764,0.0005554907256737351
1772867053958390500,11.212390625,0.0007953708991408348,0.0007572770118713379,-0.0027303406968712807
1772867053968456200,11.222456298828124,-0.0025727287866175175,-0.001160997897386551,-0.0010456250747665763
1772867053978522400,11.2325224609375,-0.001535292249172926,0.0007599126547574997,-0.0015620863996446133
1772867053988588300,11.24258837890625,-0.0013483380898833275,0.00024112872779369354,-0.0019493100699037313
1772867053998654500,11.252654541015625,-0.0002954034134745598,-0.0014653829857707024,0.00029833149164915085
1772867054008719000,11.262718994140625,-0.0010291039943695068,-0.0007817503064870834,0.0005760992062278092
1772867054018785300,11.272785400390624,-0.001392897218465805,-0.00048229657113552094,-0.0019271557684987783
1772867054028851200,11.282851318359375,0.0003986111842095852,-0.0007574008777737617,-0.0030254432931542397
1772867054038917000,11.292917236328124,-0.0008083349093794823,-0.00041541364043951035,0.0004913050215691328
1772867054048983000,11.302983154296875,0.0008984848391264677,-0.0006766701117157936,-0.0035628252662718296
1772867054059048200,11.313048095703126,0.002302934415638447,0.0010563349351286888,0.0035062001552432775
1772867054069114000,11.323114013671875,0.001413438469171524,0.0017258543521165848,0.00032691872911527753
1772867054079180300,11.33318017578125,0.0022554125171154737,0.001544283702969551,-0.0041506607085466385
1772867054089246200,11.34324609375,0.002306545153260231,0.0011493368074297905,0.0051429723389446735
1772867054099312000,11.35331201171875,0.0023428434506058693,0.0003944234922528267,-0.0022653948981314898
1772867054109378000,11.3633779296875,0.00065466552041471,0.0025529153645038605,0.003355738939717412
1772867054119444200,11.3734443359375,-0.000703904777765274,-0.003140467219054699,-0.004199320450425148
1772867054129510100,11.38351025390625,0.002323576482012868,-0.000475442036986351,-0.0012434779200702906
1772867054139576300,11.393576416015625,-0.00012832041829824448,0.0024959417060017586,0.0011575028765946627
1772867054149642200,11.403642333984376,0.0009891418740153313,-0.0020583299919962883,-0.0012888768687844276
1772867054159708200,11.413708251953125,-0.0019564316608011723,0.0001234114170074463,0.0008807971025817096
1772867054169774300,11.4237744140625,0.002992786932736635,0.0013282252475619316,-0.0011876800563186407
1772867054179840000,11.433840087890625,-0.0024551162496209145,-0.00007517542690038681,-0.0006593050202354789
1772867054189906200,11.44390625,-0.0000606682151556015,0.0011014090850949287,0.00035935413325205445
1772867054199972000,11.45397216796875,0.0005409519653767347,-0.002140122465789318,0.0007298091659322381
1772867054210038300,11.464038330078125,-0.002516623120754957,-0.00007191207259893417,0.0017743008211255074
1772867054220104200,11.474104248046874,-0.001405256800353527,-0.00169385876506567,-0.001986278221011162
1772867054230170400,11.48417041015625,0.0003870504442602396,-0.00007412396371364594,0.0011892750626429915
1772867054240236300,11.494236328125,-0.0002707778476178646,0.003935156390070915,-0.0008085586014203727
1772867054250302000,11.504302001953125,-0.0019139484502375126,-0.001392231322824955,0.0005784157547168434
1772867054260368100,11.5143681640625,-0.0005539758130908012,0.0008565280586481094,0.0007842479390092194
1772867054270434000,11.52443408203125,-0.00016435515135526657,0.0007513333112001419,0.003984035924077034
1772867054280500200,11.534500244140625,-0.0007465304806828499,-0.00007170438766479492,0.00035619543632492423
1772867054290565400,11.5445654296875,-0.0018821023404598236,0.0015307199209928513,0.0005005387938581407
1772867054300631300,11.55463134765625,-0.0006628911942243576,-0.0015071658417582512,-0.0022185449488461018
1772867054310697000,11.564697021484376,-0.002463720738887787,0.0007384121417999268,0.00021238857880234718
1772867054320763100,11.57476318359375,-0.002772266510874033,-0.0005987277254462242,0.0005387511919252574
1772867054330829000,11.5848291015625,-0.001707268413156271,0.0005429694429039955,0.000543811300303787
1772867054340895200,11.594895263671875,-0.0016137496568262577,0.0016701165586709976,0.0019419142045080662
1772867054350961200,11.604961181640626,-0.0027605067007243633,-0.001316618174314499,0.0022258071694523096
1772867054361027300,11.61502734375,-0.002771503757685423,-0.00011809077113866806,-0.0004630432231351733
1772867054371093200,11.62509326171875,0.0008533245418220758,-0.001810530200600624,0.0007830497925169766
1772867054381159200,11.6351591796875,-0.0007971241138875484,0.0005078036338090897,0.0026993444189429283
