time,seconds_elapsed,z,y,x
1772790754569469000,0.074468994140625,-0.22078677721619605,-0.06332768605053425,0.08047226106431335
1772790754579534000,0.0845341796875,-0.2405091302961111,-0.03218260620236397,0.05513363900519907
1772790754589599200,0.09459912109375,-0.24542320582270621,-0.0821954681277275,-0.0375965484093409
1772790754599663900,0.104663818359375,-0.2113818200111389,-0.21687983290553092,-0.15884351299507543
1772790754609729000,0.11472900390625,0.02130465383529663,-0.39579730716347694,-0.158841284505371
1772790754619795200,0.124795166015625,0.2669388720601797,-0.553125465425849,-0.2598939402510412
1772790754629859800,0.13485986328125,0.3557511279791593,-0.44313159752935166,-0.011748638820950872
1772790754639925000,0.144925048828125,0.7952075441271066,-0.25454817704260346,0.2470247410015203
1772790754649990100,0.154990234375,0.9419991108059883,0.016180150428414343,0.17520314817624166
1772790754660055000,0.165054931640625,0.8224147000044584,0.21187778683453798,0.15180094667295924
1772790754670120000,0.175119873046875,0.9494424125492572,0.20406740534454582,0.23380822615167124
1772790754680185000,0.18518505859375,0.8864461504101753,0.04820142858922481,0.2454833385121077
1772790754690250000,0.19525,0.7044815635412931,-0.18194500538557767,0.10495689664259553
1772790754700315000,0.20531494140625,0.4869926588267088,-0.19885902304649353,-0.6104069666473194
1772790754710380000,0.215380126953125,0.3559124560207128,-0.2877159948900342,-1.0713141305703668
1772790754720445000,0.22544482421875,0.5555307730019092,-0.707374362373352,-0.32522180540915574
1772790754730510000,0.235510009765625,0.6705681880235672,-0.7956044344902038,0.23065942499823866
1772790754740575000,0.245574951171875,0.38380700964033604,-0.7193871639892458,0.3744796477161348
1772790754750639900,0.255639892578125,0.20162381158471107,-0.5406546909093857,0.3308463307600468
1772790754760705000,0.265705078125,0.15921674848794937,-0.477353892865777,0.26767310461886223
1772790754770770200,0.275770263671875,0.0788712921410799,-0.5478635993748903,0.2399556611318141
1772790754780835000,0.2858349609375,0.024986557218432424,-0.5568731275215745,0.24224764452651143
1772790754790900000,0.29589990234375,-0.09102233318388461,-0.5535226480498909,0.17525398331433534
1772790754800965000,0.305965087890625,-0.06438742423653603,-0.5607292184278369,0.07518237449526786
1772790754811030300,0.3160302734375,0.045347208201885224,-0.6756590814217924,-0.061543944438919425
1772790754821095000,0.326094970703125,0.10830839902758597,-0.8761150182709098,-0.17926190378144383
1772790754831160000,0.33616015625,0.14057459186017512,-1.089137591226399,-0.18544848346188664
1772790754841225200,0.34622509765625,0.21486966212689876,-1.2882386063352227,-0.12310747036114335
1772790754851290000,0.3562900390625,0.34063188478052614,-1.3967837367281317,-0.05938764318786561
1772790754861355000,0.36635498046875,0.4439204098194837,-1.3685717877224086,-0.075203563413769
1772790754871421200,0.376421142578125,0.562892241680622,-1.2886769977524877,0.05803191772997379
1772790754881485800,0.38648583984375,0.5510276163637637,-1.2505597408041358,0.19946429546326397
1772790754891551000,0.396551025390625,0.5942910040289163,-1.0775991291239857,0.3195660812024027
1772790754901616000,0.4066162109375,0.6657926441848278,-0.9490215567886828,0.4031500080138445
1772790754911681000,0.416680908203125,0.7104191368967294,-0.9638540920004248,0.5117252778166905
1772790754921746000,0.426745849609375,0.6729150434106588,-1.1414870794057845,0.5466595573473721
1772790754931811000,0.43681103515625,0.4054378266900778,-1.380809630265832,0.4572382661519572
1772790754941876000,0.4468759765625,0.15957389136254788,-1.4396043490618466,0.42997126984614875
1772790754951941000,0.456941162109375,0.0032581250131130217,-1.2938497242152691,0.4968626397276297
1772790754962006000,0.467006103515625,0.10782499942481517,-1.0699284483656286,0.5699504165638238
1772790754972071000,0.47707080078125,0.10719722291529178,-1.1103063437223433,0.5847701288266107
1772790754982136000,0.487135986328125,0.08610591956973075,-1.3893316671565175,0.5597790780961514
1772790754992201200,0.497201171875,0.09608546179234981,-1.6180042291864751,0.5690850319061428
1772790755002265900,0.507265869140625,-0.039111528682708736,-1.7695315922155974,0.7107041643831878
1772790755012331000,0.5173310546875,0.11801380048394203,-1.6418030379250645,1.0054892939418554
1772790755022396200,0.527396240234375,0.35492753663659093,-1.3713462208718061,1.2826331875436008
1772790755032460800,0.537460693359375,0.3718541215181351,-1.1025348329380154,1.4282032496035098
1772790755042526000,0.54752587890625,0.2990326309353113,-0.901409618525207,1.4757530824162066
1772790755052591000,0.557591064453125,0.2021095492750406,-0.7564253935292363,1.4768132589936256
1772790755062656000,0.567656005859375,0.15265022957921026,-0.6935270388066769,1.56382153423056
1772790755072721000,0.577720947265625,0.20259762505292891,-0.5869914946705103,1.6059131016373633
1772790755082786000,0.5877861328125,0.10463350990712642,-0.5524088415890932,1.4278522442087531
1772790755092851000,0.597850830078125,-0.0006295300751924514,-0.4568915350735187,1.262248278901726
1772790755102916000,0.607916015625,-0.003562660917639732,-0.39781741481423377,1.1702264132864773
1772790755112982000,0.61798193359375,-0.14360475333631037,-0.6368325071603059,0.9298258579313754
1772790755123047200,0.628047119140625,-0.32322131577432156,-1.0887608668684958,0.7539888140320777
1772790755133112000,0.638112060546875,-0.31522564084529875,-1.449573954412341,0.7614962670527398
1772790755143177000,0.648177001953125,-0.460910123065114,-1.4593565127581356,0.7215295097801834
1772790755153242000,0.6582421875,-0.5198194081515074,-1.153687220287323,0.7051923421591519
1772790755163307000,0.66830712890625,-0.5359925443172454,-0.755012311860919,0.6698259913541377
1772790755173372000,0.678371826171875,-0.6164110659003258,-0.4596253439515829,0.6611383886381983
1772790755183437000,0.68843701171875,-0.7595067006707191,-0.2814624874532223,0.760567900161445
1772790755193502000,0.698501953125,-0.9395897115767001,-0.1404968504488468,0.7887853290598839
1772790755203567000,0.708567138671875,-0.9900497327476739,0.06049450845122337,0.7662876660477369
1772790755213632000,0.718632080078125,-0.9382131625264882,0.31924130622744556,0.6888440686222166
1772790755223697000,0.72869677734375,-0.8334580720663071,0.5283621955692768,0.4947731931677088
1772790755233762000,0.738761962890625,-0.6978606840968131,0.633881840661168,0.2995546089828014
1772790755243827200,0.7488271484375,-0.6169236915975809,0.7057733569175004,0.18989654891192911
1772790755253891800,0.758891845703125,-0.5692185220927,0.7800397856116295,0.13823252224605528
1772790755263957000,0.76895703125,-0.5354588758319616,0.8862789771497249,0.09694293713821098
1772790755274022100,0.779022216796875,-0.47478375011682505,0.9539297870963811,0.01116900773551315
1772790755284087000,0.789087158203125,-0.374689052683115,0.8797516212075949,-0.16733972132476047
1772790755294152000,0.79915185546875,-0.3223766816437244,0.7978618580281734,-0.3265389158897102
1772790755304217000,0.809217041015625,-0.3237994079232216,0.7306622989803552,-0.48712501650210466
1772790755314282000,0.819281982421875,-0.3297019099652767,0.6643471215516329,-0.639382264708355
1772790755324347100,0.82934716796875,-0.33400399107337,0.5824859999448061,-0.7853880147717892
1772790755334412000,0.839412109375,-0.36618542823195455,0.5068377615034579,-0.8637642899375408
1772790755344477000,0.849476806640625,-0.45837037545442577,0.45910044329464433,-0.8629929402388632
1772790755354542000,0.8595419921875,-0.6757832923233509,0.4760562542706728,-0.8249027904931455
1772790755364608000,0.86960791015625,-0.9205039028346538,0.5779816742628813,-0.6651260700348764
1772790755374673200,0.879673095703125,-1.0878870066434145,0.7178992635190486,-0.5344167829005048
1772790755384738000,0.889738037109375,-1.129052545246482,0.8327607374519109,-0.4940650448983535
1772790755394803000,0.899802978515625,-1.0395067143559455,0.881508109486103,-0.5164119012629613
1772790755404868000,0.9098681640625,-0.8928367282301187,0.8732710270166396,-0.5427636458873748
1772790755414933000,0.91993310546875,-0.7673077298104762,0.9867974529534578,-0.4635934803975746
1772790755424998100,0.929998046875,-0.6497217993497848,1.2045417937338352,-0.3765134550986811
1772790755435063000,0.94006298828125,-0.5440566083073616,1.4767209045350551,-0.3228426917202771
1772790755445128000,0.9501279296875,-0.47354222562313075,1.7387421939373016,-0.31838552964832634
1772790755455193000,0.960193115234375,-0.4057324257224798,1.8842244315832852,-0.35584508987292646
1772790755465258200,0.97025830078125,-0.2667886499345302,1.9494728565633297,-0.32637546895630654
1772790755475323000,0.980322998046875,0.012755436676740646,1.999101687607169,-0.2554685432905331
1772790755485388000,0.990387939453125,0.43419104296565053,1.9922610279321669,-0.2428294630024582
1772790755495453200,1.000453125,0.9747826055109501,1.9260709381878376,-0.29774538587005805
1772790755505518000,1.01051806640625,1.5567267536640166,1.7195733830869198,-0.4572302655085921
1772790755515583500,1.02058349609375,2.0385142450630664,1.4477923316925763,-0.5539409099945798
1772790755525648600,1.030648681640625,2.421975802266598,1.1606617354750632,-0.6263403392404318
1772790755535713500,1.040713623046875,2.2093775922030208,0.9026882601588964,-0.7431853882059455
1772790755545778400,1.0507783203125,2.980758270540833,0.8785679643809795,-0.40130142100509253
1772790755555843600,1.060843505859375,3.284976779681444,0.6854974616080522,-0.5393571253795176
1772790755565908500,1.070908447265625,2.9464228702187536,0.501136334991455,-0.6951641384892165
1772790755575973600,1.0809736328125,2.5040455981880423,0.41257366991937156,-0.6198956931456923
1772790755586038500,1.09103857421875,2.2412498172819615,0.6292968509584665,-0.05049978692578151
1772790755596103400,1.101103515625,1.7791940313130616,0.9174223034322261,0.4145517650593072
1772790755606169300,1.11116943359375,1.184711304104328,0.9052800302177667,0.40902116506956515
1772790755616234500,1.121234375,0.6278133344024419,1.0905647014200688,0.82706486389786
1772790755626299400,1.13129931640625,0.11767828491926192,1.3702221852779388,1.4597982651762664
1772790755636364500,1.141364501953125,-0.45484161680638785,1.8310995751172303,2.4107087044514715
1772790755646429400,1.151429443359375,-0.999570425286889,1.416786952576041,3.1354882290035486
1772790755656494300,1.161494384765625,-0.9731038586437701,1.2163169872015713,3.6525384647026655
1772790755666559500,1.1715595703125,-0.8888970506936311,2.0790905856013295,3.9796407135635614
1772790755676624600,1.181624755859375,-1.08073362775743,0.7594196069091558,3.0280504753306507
1772790755686689300,1.191689208984375,-0.679082333868742,-1.3864064273595809,2.232998121765256
1772790755696754400,1.20175439453125,-0.9138035284131765,-3.0678964557677504,1.6063050235643983
1772790755706819600,1.211819580078125,-2.955670591035485,-3.8063141911804674,0.916897914231941
1772790755716884500,1.221884521484375,-3.9651211898237464,-3.814923614093661,0.5772198961101472
1772790755726949400,1.231949462890625,-2.8415625658184287,-3.6330922982156273,0.22791385261714456
1772790755737014500,1.2420146484375,-4.231012014135718,-3.6262405326247213,-0.5555560535736381
1772790755747079700,1.25207958984375,-5.827008701914549,-3.9402065287977455,-1.6540020097628234
1772790755757144600,1.26214453125,-7.139713348725437,-4.608740580645203,-2.919397500649094
1772790755767209500,1.27220947265625,-7.957730106031894,-4.458773891061544,-3.62814548946321
1772790755777274600,1.282274658203125,-8.419391339725255,-2.3400141428947445,-2.9982705463558434
1772790755787339500,1.292339599609375,-8.666185249379277,-0.2158428910732269,-1.799202800118923
1772790755797404400,1.302404296875,-8.488699853751063,0.33335634081959725,-1.1326480855204164
1772790755807469600,1.312469482421875,-8.047073692348599,-0.20063830767869947,-1.2629517509959638
1772790755817534500,1.322534423828125,-7.2740072528809305,-0.9746002346813678,-1.5320026467740535
1772790755827599600,1.332599609375,-6.332855114293098,-1.405436706522107,-1.5051950116083026
1772790755837664500,1.34266455078125,-5.43238920635879,-1.3747335252225399,-1.2550031300790607
1772790755847730400,1.35273046875,-4.537640507027507,-1.1765244905173777,-0.8977933277241885
1772790755857795600,1.362795654296875,-3.6949732925891876,-0.9989239440768957,-0.6394042573444545
1772790755867860500,1.372860595703125,-2.8775825582265853,-0.8087748817086219,-0.7460048295408487
1772790755877925400,1.38292529296875,-2.029794347512722,-0.47405718940794467,-1.0974586987175046
1772790755887990500,1.392990478515625,-1.1611124018520116,0.2433709494680166,-1.2229973417483269
1772790755898055700,1.4030556640625,-0.18835048851370811,1.2171382404565811,-1.0726727786377073
1772790755908120300,1.413120361328125,0.9135270495593547,2.1634785953372715,-0.8295522967994212
1772790755918185500,1.423185546875,1.8922259517312048,2.7078216193705797,-0.7374881994776428
1772790755928250600,1.433250732421875,2.912380315363407,2.718016850170493,-0.8669842018321156
1772790755938315300,1.443315185546875,4.0471366252094505,2.500377723330259,-1.0565417280480265
1772790755948380400,1.45338037109375,4.9947635127693415,2.3332483020216226,-1.2806035814121364
1772790755958445600,1.463445556640625,5.712209187301993,2.2822703944563862,-1.4399895489871501
1772790755968510500,1.473510498046875,6.305068697223067,2.467027242392301,-1.3874766869395971
1772790755978575400,1.483575439453125,6.704549076813459,2.7487358135610815,-1.2409725588999687
1772790755988640500,1.493640625,6.962057272705436,2.9172856230616566,-1.1258123942814766
1772790755998705400,1.503705322265625,7.234586512118578,2.8650732052654027,-1.1516297032356262
1772790756008770600,1.5137705078125,7.527147901213168,2.7230867007806894,-1.2367322909817098
1772790756018835500,1.52383544921875,7.804872371181845,2.584545368313789,-1.3203782501786947
1772790756028900400,1.533900390625,7.92015762348473,2.570988552126288,-1.3644215361751615
1772790756038965500,1.543965576171875,7.861341861900687,2.6203169389188288,-1.3616039945363998
1772790756049030700,1.55403076171875,7.777873889619111,2.6436595283225177,-1.303831312264502
1772790756059095300,1.56409521484375,7.711794274511933,2.5998306157290934,-1.2065402740746736
1772790756069160400,1.574160400390625,7.592034507143497,2.569111067816615,-1.0752483282141387
1772790756079225600,1.5842255859375,7.412063724440336,2.581936354859173,-0.9908315307751298
1772790756089290500,1.59429052734375,7.1754340659260745,2.5539266504272815,-0.824668324150145
1772790756099356400,1.6043564453125,6.923969241851568,2.225795643040538,-0.42667160724624986
1772790756109421600,1.614421630859375,6.5154866406381124,1.5795640238940716,-0.014689619609713553
1772790756119486500,1.624486572265625,5.771949077993631,0.5527160078421235,0.05123056715205312
1772790756129551400,1.63455126953125,4.7725966793715955,-0.9067758217334747,0.13582476698458193
1772790756139616500,1.644616455078125,3.4766835928857325,-2.6467572020769117,0.3320842750571668
1772790756149681700,1.654681640625,2.4673311937749385,-4.579208488951624,0.3253112737908959
1772790756159746300,1.664746337890625,1.0974930393785238,-6.3193269396781915,1.0344245887860655
1772790756169811500,1.6748115234375,-1.0805904198944567,-6.468404571467637,2.2151159897245467
1772790756179876600,1.684876708984375,-3.6681098355829715,-6.293614990794659,3.133437433953583
1772790756189941500,1.69494140625,-6.067926997533441,-6.768903767824172,3.353490928459167
1772790756200006400,1.70500634765625,-7.940811704456806,-7.177673369285464,3.2020611805856225
1772790756210071600,1.715071533203125,-8.86553059463799,-7.178805003663897,2.900119384205341
1772790756220136400,1.725136474609375,-9.168633836013079,-6.958576444852352,2.3190593254104255
1772790756230201600,1.73520166015625,-9.259472044801711,-6.166447577518224,2.3029081088155507
1772790756240266500,1.7452666015625,-9.809451028895378,-4.796630465909838,2.647739783373475
1772790756250331400,1.755331298828125,-10.14212815527916,-3.5222841913267966,2.267149251561612
1772790756260396500,1.765396484375,-10.485336028027534,-2.582881819015741,1.735293953179568
1772790756270461400,1.77546142578125,-10.665831711387634,-1.8992685637190936,1.7233214835740625
1772790756280526300,1.7855263671875,-10.440458775424956,-1.5035437372699378,1.8106898242950438
1772790756290591500,1.795591552734375,-9.950540584540366,-1.027856900833547,2.0017808436885476
1772790756300656600,1.80565673828125,-9.535395602828263,-0.6296279826089739,2.2264321873784065
1772790756310721300,1.81572119140625,-9.489550966498255,-0.4973778592407703,1.9934367937132715
1772790756320786400,1.825786376953125,-9.139869513821601,-0.5757707202151418,1.339029466895759
1772790756330852600,1.8358525390625,-8.465550448831916,-0.4759595158979296,0.4579363679513335
1772790756340917500,1.84591748046875,-6.967393373036384,0.06399959396272897,-0.5217287489041685
1772790756350982400,1.855982421875,-4.310295394209027,0.777787622770667,-1.209779109865427
1772790756361047600,1.866047607421875,-2.027477302742004,1.3016153897807001,-1.9658941222712396
1772790756371112700,1.87611279296875,0.010488660788536072,1.904154582194984,-2.3772122391715644
1772790756381177300,1.88617724609375,1.8857202230989931,2.723550226639211,-2.371347438791394
1772790756391242500,1.896242431640625,3.6660897279322144,3.274215439431369,-2.5340429693058133
1772790756401307600,1.9063076171875,5.517520143416523,3.3916745286419987,-2.8625644373148678
1772790756411372500,1.91637255859375,7.4169339608252045,3.465033779363334,-3.0495459755629297
1772790756421437400,1.9264375,8.349860122859477,3.97976433994323,-2.9740792311683295
1772790756431502600,1.936502685546875,8.35326905452013,4.812746026669442,-2.82952112262994
1772790756441567500,1.9465673828125,8.096374022090435,5.45803276618123,-2.69027076511085
1772790756451632400,1.95663232421875,7.757249034741521,5.602777921724319,-2.529129186040163
1772790756461697500,1.966697509765625,7.779412351232767,5.307767970433831,-2.478239833541214
1772790756471762400,1.976762451171875,8.239925583934783,4.941598908814788,-2.350698326255381
1772790756481827600,1.98682763671875,8.674092661502957,4.571263082905113,-2.337821893547475
1772790756491892500,1.996892578125,8.975907032111287,4.295760088378191,-2.2587853278420864
1772790756501957400,2.006957275390625,9.49459772849381,4.044044504413009,-2.145223099939525
1772790756512022500,2.0170224609375,10.608381392937899,3.4770264149740338,-2.250491839010268
1772790756522087400,2.02708740234375,11.547173816657066,2.778368150758743,-2.346150599823147
1772790756532152300,2.03715234375,11.795251920902729,2.251438910602033,-2.393775397568196
1772790756542217500,2.047217529296875,11.215942797428369,2.1433517531096933,-2.154802683059126
1772790756552282400,2.057282470703125,9.75871803600192,2.385389408147335,-1.541535614272952
1772790756562348300,2.067348388671875,7.948674692916869,2.537012632766366,-0.6718588123559951
1772790756572413400,2.077413330078125,6.032198681548238,1.9596900069341063,0.06633461278155446
1772790756582478600,2.087478515625,4.2228526730775835,0.9782079037845134,1.1376352262832223
1772790756592543500,2.09754345703125,2.611946585458517,-0.47274873715788124,1.8066510702982543
1772790756602608400,2.1076083984375,0.6030617549836635,-1.6242343557476997,2.477361881662905
1772790756612673500,2.117673583984375,-2.6913988923579453,-1.7527695502460001,3.906103475926816
1772790756622738400,2.127738525390625,-6.726792472803592,-1.6068895454540848,5.794593456000089
1772790756632803300,2.13780322265625,-10.50421608506441,-1.2580053806349634,7.945587832817435
1772790756642868500,2.147868408203125,-13.295496324366331,-0.7007935226783156,9.658263273084163
1772790756652933400,2.157933349609375,-14.935968698209523,-1.05346743516922,10.405416688138246
1772790756662998500,2.16799853515625,-15.400429791754483,-2.3850305117070674,9.310459889239072
1772790756673063400,2.1780634765625,-14.8339591070652,-3.775065943218767,7.806250089275837
1772790756683128300,2.18812841796875,-14.214660503029823,-5.195145215338468,6.380844945958256
1772790756693193500,2.198193359375,-13.691122951138018,-6.6195724535346026,5.0590498147189615
1772790756703258600,2.208258544921875,-13.124994796276091,-7.665979448798298,4.230761838766933
1772790756713323300,2.2183232421875,-12.654608988857268,-8.174012557566165,3.660143386748433
1772790756723388400,2.228388427734375,-12.254424260389804,-8.23361040943861,3.063751903308928
1772790756733453600,2.23845361328125,-12.248619958025216,-7.996077080082893,2.257240874879062
1772790756743518500,2.2485185546875,-12.51538522708416,-7.435299638599157,1.2258993468001484
1772790756753583400,2.258583251953125,-12.602179713439941,-6.624745472258329,-0.27920214130580423
1772790756763648500,2.2686484375,-12.118320676463842,-4.97033458943367,-1.707567887994647
1772790756773713400,2.27871337890625,-10.905095225536822,-2.641870891340077,-2.8141151714444157
1772790756783778300,2.2887783203125,-9.532813185119629,-0.5043395149469375,-3.8959368866994977
1772790756793844500,2.298844482421875,-7.610309584024548,1.1745800784513354,-4.713657875929773
1772790756803909400,2.308909423828125,-4.7835418517559765,2.378599017354846,-5.268821861445903
1772790756813974300,2.318974365234375,-1.5388918217658996,3.2276319674327967,-5.649636703532934
1772790756824039400,2.329039306640625,1.5485896244376898,4.375673583048582,-5.66529136878252
1772790756834104300,2.339104248046875,3.7106823183745146,5.684607479149103,-5.490107820355892
1772790756844169500,2.34916943359375,4.840389528137445,6.704399439209699,-5.173439579486846
1772790756854234400,2.359234375,5.398312164711952,7.454471372058987,-4.798623393292725
1772790756864299300,2.36929931640625,5.85746112332344,8.037849352407456,-4.237101563182473
1772790756874364400,2.379364501953125,6.519224658122658,8.345541675138474,-3.4544811134278772
1772790756884429600,2.3894296875,7.201249475184083,8.432856385976075,-2.5856840169548985
1772790756894494200,2.399494140625,7.815422991290688,8.540436470729112,-1.499863587452471
1772790756904559400,2.409559326171875,8.696977278006075,8.592127494999765,-0.3509340830862522
1772790756914624500,2.41962451171875,10.14445805953145,8.22506879106462,0.4932501117862761
1772790756924689400,2.429689453125,11.680786168289185,7.5657298530638215,1.022347782023251
1772790756934754300,2.43975439453125,12.99442897273302,6.817019856217503,1.4365531447976827
1772790756944819500,2.4498193359375,13.901160370802879,6.318531405386328,1.6411600638464092
1772790756954884400,2.45988427734375,14.312848490059375,6.083637192362547,2.0716312095060943
1772790756964949200,2.46994921875,13.72415077599287,5.675355666679144,2.5635680467367172
1772790756975014400,2.480014404296875,12.445462380552291,5.321073442208767,3.1103496960937975
1772790756985079600,2.49007958984375,11.684777283751965,5.007573894503713,3.8940456661254164
1772790756995144400,2.50014453125,11.507896283757686,4.294794458216429,4.415112443989515
1772790757005210400,2.51021044921875,11.210348922944068,3.2305010931283236,4.7754631747186185
1772790757015275500,2.520275634765625,10.442834272384642,1.8855442820101975,5.202595531344413
1772790757025340400,2.53034033203125,8.987698592191935,0.39464170738756654,5.427177024668455
1772790757035405300,2.5404052734375,7.264896310186385,-1.039942183163762,5.616363379484414
1772790757045470500,2.550470458984375,5.794489995625614,-2.425304069906473,5.914241579687595
1772790757055535400,2.560535400390625,4.4751691455453635,-4.35532988319993,5.933803773769736
1772790757065600500,2.5706005859375,2.6830396448135376,-6.5408735953509805,5.793980877059698
1772790757075665400,2.58066552734375,-0.7105348722308874,-7.889657855802774,5.97900309793353
1772790757085730300,2.590730224609375,-6.346732832998037,-7.768201221388578,7.05593382627666
1772790757095795500,2.60079541015625,-13.20761579633951,-7.354832017177343,8.84799727603495
1772790757105860400,2.6108603515625,-19.725612373971938,-7.97107181816399,9.764514739581942
1772790757115925200,2.62092529296875,-23.976725511372088,-8.597931212842465,9.835846868389844
1772790757125990400,2.630990478515625,-24.199729964637754,-7.551146031916141,9.43349707084298
1772790757136055600,2.6410556640625,-21.494794129836556,-6.393933560112118,7.642689174103737
1772790757146120200,2.6511201171875,-18.098907828718424,-6.092681499561667,4.237649260193109
1772790757156185300,2.661185302734375,-14.72341900346279,-5.4429836656093595,1.2714903006300329
1772790757166250500,2.67125048828125,-11.819077033126353,-4.833021629717946,-0.7525937064118683
1772790757176315400,2.6813154296875,-10.157321048235893,-4.417084328584373,-1.7533733613580464
1772790757186380300,2.69138037109375,-9.482644840371607,-3.9255677625924346,-1.8508878330402074
1772790757196445400,2.701445556640625,-9.08511384128332,-3.836363877007365,-1.9835386461637914
1772790757206510300,2.71151025390625,-7.889759562611579,-3.6401717350825664,-2.1639017891854047
1772790757216576300,2.721576171875,-5.716797684136033,-2.9743372975826263,-2.1128004013709725
1772790757226641400,2.731641357421875,-3.262355782550573,-2.026129687525332,-1.9698044275827704
1772790757236706600,2.74170654296875,-0.6574900952637195,-0.9279358064010739,-1.9267210726596413
1772790757246771500,2.751771484375,1.1390870325267315,0.24943010337650776,-1.6774680794157086
1772790757256836400,2.76183642578125,1.3147078033268451,1.6344050366282463,-1.345805975293368
1772790757266901500,2.771901611328125,0.8307645951986312,3.3538726212531325,-0.9614518531642854
1772790757276966400,2.78196630859375,0.7676660417288541,4.6507554295539855,-0.8987233020506799
1772790757287031300,2.79203125,1.3873679658681153,5.334352610498667,-1.1753839421801269
1772790757297096400,2.802096435546875,2.5413515387535095,5.806897057256102,-1.4998039662197231
1772790757307161300,2.812161376953125,3.904373583394289,6.1702890553772445,-1.8713588125303386
1772790757317226500,2.8222265625,5.47034104361236,6.3327130754739045,-2.2476433177113533
1772790757327291400,2.83229150390625,7.298413964384793,6.316073490840196,-2.5460063788220286
1772790757337356300,2.842356201171875,8.960231324073671,6.072076518428325,-2.886331389610469
1772790757347421400,2.85242138671875,10.191599749934673,5.743917746251821,-3.049385232043266
1772790757357486600,2.862486572265625,10.89970944084525,5.364515693572163,-3.0680981158196925
1772790757367551200,2.87255126953125,10.980676243960858,4.969342071264982,-2.9838416235089302
1772790757377616400,2.882616455078125,10.556406875550746,4.629008877170086,-2.7711294316768647
1772790757387681500,2.892681640625,9.7409059004575,4.438342805190384,-2.496638244540989
1772790757397746400,2.902746337890625,8.952479394772649,4.338188486523926,-2.212319344743341
1772790757407811300,2.912811279296875,8.410219022232294,4.235113604235649,-1.8827113966718314
1772790757417877500,2.92287744140625,8.131465209215879,4.049922164274752,-1.452606453976035
1772790757427942400,2.9329423828125,7.960392018717527,3.7500522057324646,-0.9909755423557013
1772790757438007300,2.94300732421875,7.855259911638498,3.278065685118735,-0.5701034151684492
1772790757448072400,2.953072509765625,7.700454549852013,2.819196712492406,-0.22011457704305648
1772790757458137600,2.9631376953125,7.353405783766508,2.5886872904241085,0.005338949875161051
1772790757468202200,2.9732021484375,7.001779042240977,2.6815260253801942,0.19812289079166948
1772790757478267400,2.983267333984375,6.6498828361243,3.0410499498963355,0.3416482222162187
1772790757488332500,2.99333251953125,6.17555618212521,3.343869990415871,0.35044366922080517
1772790757498397400,3.0033974609375,5.398495704585313,3.3627693366751075,0.24493761426284907
1772790757508462300,3.01346240234375,4.31403808786869,3.1022511453121897,-0.03705803021900356
1772790757518527700,3.02352783203125,3.0352772117137907,2.2138141133457423,-0.5745382558107376
1772790757528592600,3.033592529296875,1.3176736673951148,0.8440572074919939,-1.0999064571958035
1772790757538657800,3.04365771484375,-1.3419336639046668,-0.7902779787704348,-1.6488117476433515
1772790757548722700,3.05372265625,-4.838717211011052,-2.4160958043172953,-1.6653610236451029
1772790757558787600,3.06378759765625,-9.325473918497561,-3.7376892755046485,-1.146243918544054
1772790757568852700,3.073852783203125,-14.818851554304361,-3.984120489326119,0.4476102042481303
1772790757578917600,3.083917724609375,-20.754504170811174,-4.891599490892887,1.6308128573551772
1772790757588982500,3.093982421875,-25.044915883898735,-6.637618982356786,2.0198424239493904
1772790757599047700,3.104047607421875,-25.70263861887455,-5.068327346152067,4.078482196065783
1772790757609112800,3.11411279296875,-23.041600377988814,-3.4558754903957247,4.945871179306507
1772790757619178800,3.1241787109375,-19.382451262974737,-4.788306289678812,3.1619957121789453
1772790757629243600,3.13424365234375,-15.05235051357746,-6.077794311553239,1.1046173383004962
1772790757639308800,3.144308837890625,-10.46781206177473,-7.16649146553576,-0.4431985618183389
1772790757649373700,3.154373779296875,-6.982804877179861,-8.354913314595818,-1.4564160753920674
1772790757659438600,3.1644384765625,-4.842201545995474,-8.72828310137391,-1.5545320200987158
1772790757669503700,3.174503662109375,-4.158009321767092,-8.404173896849155,-1.135727200704813
1772790757679568600,3.184568603515625,-4.0004643058836455,-7.648103015846013,-0.6744488288491964
1772790757689633500,3.194633544921875,-3.573545299747586,-6.411093369227648,-0.005381729570962488
1772790757699698700,3.20469873046875,-2.445828971540928,-4.871819562406838,0.731936556699872
1772790757709763800,3.214763916015625,-0.539393292671442,-3.4487177275955676,1.1934698531646282
1772790757719828500,3.224828369140625,1.7359376579105854,-2.081676802702248,1.3163199146986007
1772790757729893600,3.2348935546875,3.696613461011648,-0.35180940461605786,1.2587741730503736
1772790757739958800,3.244958740234375,5.040643220412731,1.7647101634085178,1.2146205585472285
1772790757750023700,3.255023681640625,5.7997758270740505,3.7897728062242266,1.0544959744993596
1772790757760088600,3.265088623046875,6.024768823808431,5.537242496496439,0.608114581393823
1772790757770153700,3.27515380859375,6.211610076802969,7.181846271055936,0.38757432628460226
1772790757780218600,3.285218505859375,6.768456608578562,8.482031043511629,0.4303380938645452
1772790757790283800,3.29528369140625,7.734742019379138,8.778217052844166,0.3199195342825725
1772790757800348700,3.3053486328125,8.858711562272905,8.237762268421053,0.10669111829036847
1772790757810413600,3.31541357421875,9.84210125260949,7.5019211054980754,-0.1744811175120063
1772790757820479700,3.325479736328125,10.675808331000804,6.929547918766737,-0.299842120687291
1772790757830544600,3.335544677734375,11.174569169032573,6.3603235514551395,-0.4635670673146844
1772790757840609500,3.345609619140625,11.558644474220275,5.778491631504893,-0.6922225320793688
1772790757850674700,3.3556748046875,11.88797696635127,5.313503883737325,-0.823626852273196
1772790757860739600,3.365739501953125,11.949834579849242,4.912953244566917,-0.8997389818992465
1772790757870804500,3.375804443359375,11.689460473132133,4.648149046447873,-0.7217837037369609
1772790757880869600,3.38586962890625,11.034621769160031,4.391424402149021,-0.3681224607091397
1772790757890934800,3.395934814453125,10.19220063843727,4.014118737226724,-0.033555428925529124
1772790757900999400,3.40599951171875,9.42549555069506,3.566322655017674,0.16244944679886103
1772790757911064600,3.416064697265625,8.759226521170138,3.276953632223606,0.4153145661253482
1772790757921129700,3.426129638671875,8.157806688174604,3.1936338362410663,0.7212402445100248
1772790757931194600,3.436194580078125,7.543122299936413,3.2018732567980885,0.997650417009741
1772790757941259500,3.446259521484375,6.876858531108498,3.3281399218425154,1.4558952663883566
1772790757951324700,3.45632470703125,5.839797456339001,3.32867183676213,2.0630102422855794
1772790757961389600,3.4663896484375,4.482710646966099,3.247956378059089,2.9177377507433295
1772790757971454700,3.476454833984375,2.7805250365316865,2.9795439263150096,3.5213948412716385
1772790757981519600,3.48651953125,0.6502157203465699,2.561527480819821,3.636262160423398
1772790757991584800,3.496584716796875,-1.7653759338408708,2.3607927270293234,3.367840940850973
1772790758001649700,3.506649658203125,-4.068551169160008,2.0287141510605813,3.1626892474010586
1772790758011715600,3.516715576171875,-6.675166330462694,0.2841407667517662,3.2226176464021203
1772790758021780700,3.52678076171875,-10.074662638771533,-2.8532749231830237,3.1599194904267787
1772790758031845600,3.536845703125,-14.37048702455759,-6.586743366122246,3.599903437580168
1772790758041910500,3.54691064453125,-18.562051409924027,-10.460144303625821,4.753382860335708
1772790758051975700,3.5569755859375,-21.112451347529888,-11.548010852003097,7.3678510732263325
1772790758062040600,3.56704052734375,-22.22406234411001,-9.752925424075126,9.94535119920373
1772790758072105700,3.577105712890625,-21.867188349580765,-11.399617110824584,9.667644264891743
1772790758082170600,3.587170654296875,-19.197619596236944,-14.40814075564742,6.485096178549528
1772790758092235500,3.597235595703125,-16.00661873884797,-15.087124889838694,3.385336557792127
1772790758102300700,3.60730078125,-11.837697562444209,-14.598171160072088,1.0650558738932012
1772790758112365800,3.61736572265625,-7.28747288365364,-14.015809663289785,-1.0119193269893527
1772790758122430500,3.627430419921875,-3.390942414975166,-13.369439512455463,-2.0733146325483918
1772790758132495600,3.63749560546875,-0.7854138798654079,-12.663026104068756,-2.8352091051384805
1772790758142560800,3.647560791015625,-0.009605448213219642,-10.326115772408246,-2.6136665411189197
1772790758152625700,3.657625732421875,-0.13422142344117163,-6.823990864273905,-1.9038339719384907
1772790758162690600,3.667690673828125,0.19945114372074602,-4.067063560950756,-1.9322575178682804
1772790758172755700,3.677755615234375,0.46753743225038047,-1.6161328823566437,-2.4782006705746054
1772790758182820600,3.687820556640625,1.0003881714105605,1.381195414713025,-2.7020491734489798
1772790758192885800,3.6978857421875,1.7850719834357498,4.734366609698534,-2.648482126173377
1772790758202951700,3.70795166015625,2.4803338832110167,6.713637807676196,-2.8982819396451114
1772790758213016800,3.718016845703125,3.3172721986085176,7.352406251335144,-3.585677343828976
1772790758223081500,3.72808154296875,4.449659441235661,7.921155986872315,-4.057939758774638
1772790758233146600,3.738146728515625,4.9836733789563175,8.313941252738237,-4.335884008973837
1772790758243211800,3.748211669921875,4.881827453941106,8.800754463344813,-4.273229107618332
1772790758253276700,3.758276611328125,5.171560341611504,8.838777027747035,-4.021371192573011
1772790758263341600,3.768341552734375,5.657344209170341,7.860511840817332,-3.9331118943616747
1772790758273406700,3.77840673828125,6.193556533718109,6.615950171384215,-3.915072087541222
1772790758283471600,3.7884716796875,6.702457072970271,5.8475534772932525,-3.741558518153429
1772790758293536800,3.798536865234375,6.9066890212267635,5.3024511593252415,-3.685193656852841
1772790758303601700,3.8086015625,6.687735889178514,4.864768182590604,-3.845743407510221
1772790758313666600,3.81866650390625,6.19679946116209,4.9351761822909115,-3.807986216045916
1772790758323731700,3.828731689453125,5.9089808826804155,5.289440871104598,-3.761477855110168
1772790758333796900,3.838796875,5.663303994357586,5.544890380901098,-3.704709381444752
1772790758343861500,3.848861572265625,5.753320365369319,5.679715615454316,-3.4500840475127097
1772790758353926700,3.8589267578125,6.5757578617274755,5.611442289695144,-3.0987860995501277
1772790758363991800,3.86899169921875,7.911001672604679,4.599542544189095,-2.7766999252855777
1772790758374056700,3.879056640625,5.380184971868991,4.75151355933249,-2.224584513685107
1772790758384122600,3.88912255859375,4.542664472669363,5.174474183231592,-1.8296610667467117
1772790758394187800,3.899187744140625,4.837194531488418,5.496785982945561,-1.4697396673455834
1772790758404252700,3.909252685546875,4.708064293706417,5.640178554835916,-1.0264578476905821
1772790758414317600,3.919317626953125,3.987192736378312,5.620319423633814,-0.6773170777618884
1772790758424382700,3.9293828125,3.4753970602065323,5.070393046510219,-0.6773499571181834
1772790758434448000,3.93944775390625,3.205678202039003,4.370061003863811,-0.44789121314659713
1772790758444512500,3.949512451171875,2.7073440649867058,3.63847749838531,0.3218783767327666
1772790758454577700,3.95957763671875,2.3240514346092938,2.5865228058665988,0.6756292708054185
1772790758464642800,3.969642822265625,1.81813838673532,0.9719342303425073,0.2779246687158942
1772790758474707700,3.979707763671875,1.5826836172193288,-1.4431389529287815,-0.6643127808906137
1772790758484772600,3.989772705078125,0.8979261603236198,-3.8352602996796366,-0.37273631118014455
1772790758494837800,3.999837646484375,0.8978852437913417,-3.886220671588182,-0.5241872479721903
1772790758504902700,4.009902587890625,-1.2909633551239967,-4.9433337697833775,2.3316560643941164
1772790758514967600,4.019967529296875,-5.784428620338439,-7.007244321909546,6.448232136532664
1772790758525032000,4.030031982421875,-12.338998732608555,-11.634855607241391,9.864878901606797
1772790758535097000,4.04009716796875,-17.518283530992267,-16.76396153948307,10.129862547945976
1772790758545162200,4.050162353515625,-18.118554778474568,-16.251984661525487,9.167688664117454
1772790758555227100,4.06022705078125,-15.585532676649093,-10.501153190362453,9.404392556911706
1772790758565292000,4.0702919921875,-12.595873891294001,-8.841519019931555,7.057124497365951
1772790758575357200,4.080357177734375,-11.853463286852836,-9.572093640628456,2.1640191319547593
1772790758585422300,4.09042236328125,-11.606914291870593,-10.060397966575621,-0.853831582531333
1772790758595487200,4.1004873046875,-11.406344957774877,-9.184171012362837,-0.7769941343054175
1772790758605552000,4.11055224609375,-10.843009648501873,-8.500451666343212,-0.48016222828477617
1772790758615617300,4.1206171875,-9.196998345232009,-8.480710608562827,-0.3424450716823339
1772790758625682200,4.13068212890625,-6.720175100490451,-7.326387428459524,0.10514496656060218
1772790758635748000,4.140748046875,-4.324737761059403,-5.435584203007817,-0.04659603921920061
1772790758645813200,4.150813232421875,-1.932882956290245,-3.4646734216183424,-0.49679479865580795
1772790758655878100,4.160878173828125,0.6896294468462467,-1.1105156025588512,-0.827650554831326
1772790758665943000,4.170943115234375,2.750592839604616,1.1063093830406665,-1.13281423586756
1772790758676008200,4.18100830078125,4.2817970294773575,2.8421611162334677,-1.5246896934121845
1772790758686073000,4.191072998046875,5.126210210800171,4.434949947881698,-1.8499457298845052
1772790758696138200,4.20113818359375,5.3570531026065344,5.897468139541149,-2.0559052325859666
1772790758706203100,4.211203125,5.165754285681247,7.1072332208812234,-2.3514324857488274
1772790758716268000,4.22126806640625,5.018156663316488,7.95818486406207,-2.5789108695581553
1772790758726333200,4.231333251953125,5.273440753418207,8.179091468265652,-2.923786383257806
1772790758736398300,4.2413984375,5.931673191481829,8.019739110699296,-3.383167104798555
1772790758746463000,4.251462890625,6.910790611326694,7.811236645516753,-3.8288361118510363
1772790758756528000,4.261528076171875,8.085475611457229,7.603641942828893,-4.026122186492383
1772790758766593300,4.27159326171875,9.328566623815894,7.234763037729262,-4.277605423006415
1772790758776658200,4.281658203125,10.371564687418937,6.616562750324607,-4.706967146119475
1772790758786723000,4.29172314453125,10.936598617303371,5.8593351005017755,-5.3140112487375735
1772790758796788200,4.301788330078125,10.861648882520198,5.503755821958184,-5.57416791331172
1772790758806853000,4.31185302734375,10.298010790908336,5.554783413884043,-5.176247622644901
1772790758816919000,4.3219189453125,9.469109066972136,5.802526587086915,-4.41203581302315
1772790758826984200,4.331984130859375,8.706277605792879,5.788506829562783,-3.5517575385704636
1772790758837049300,4.34204931640625,7.865543989765643,5.461758508706093,-2.668484757499397
1772790758847114000,4.352114013671875,6.79164166933298,5.044008897453546,-1.8244059226974845
1772790758857179100,4.36217919921875,5.568770438182353,4.505784064039588,-1.3684563446491955
1772790758867244300,4.372244384765625,4.3965632263422005,4.402377465578914,-0.9267492269650102
1772790758877309200,4.38230908203125,3.428312068426609,4.856212535691261,-0.1856654872134328
1772790758887374000,4.3923740234375,2.8799598087519405,5.154771119374036,0.1617506508797407
1772790758897439200,4.402439208984375,2.994505640864372,4.871026658463478,0.1313689566195011
1772790758907504000,4.412504150390625,3.545449086076021,4.327212042218447,0.22127572977691887
1772790758917569300,4.4225693359375,3.829168997067213,3.64280412941277,0.3439563530281186
1772790758927634200,4.43263427734375,3.6070395730704066,3.002299655741453,0.6463578758746386
1772790758937699000,4.442698974609375,2.955558362832665,2.2757032910257577,0.7308987380847335
1772790758947764200,4.45276416015625,1.8453800294041633,1.081138116905093,0.17647037336677313
1772790758957829000,4.4628291015625,0.6658616177678108,-0.6328600963979959,-0.7676040824085474
1772790758967894000,4.47289404296875,-0.5855512327343225,-2.81589796320796,-1.2650769264563917
1772790758977959200,4.482959228515625,-3.0382839923143385,-5.18133997734785,0.1150654720723629
1772790758988024300,4.4930244140625,-8.065463335520029,-8.762970968395472,2.808484472081065
1772790758998090200,4.50309033203125,-14.398342999732494,-13.832605305492876,5.771483798569441
1772790759008155100,4.513155029296875,-20.255105034875868,-16.744799742895363,10.246982029938698
1772790759018220300,4.52322021484375,-26.38200269229412,-17.727952701866627,13.518143050235508
1772790759028285200,4.53328515625,-30.49806555421352,-19.40031308287978,15.209189427018165
1772790759038350000,4.54335009765625,-30.44181818181276,-20.11241155116558,14.391928456515073
1772790759048415200,4.553415283203125,-28.329484667301177,-18.147652278143166,12.040782678753137
1772790759058480400,4.56348046875,-24.650185913705826,-15.1817847027421,8.425262277585267
1772790759068545000,4.573544921875,-20.039493614470956,-12.368918070054054,5.1243689668476575
1772790759078610200,4.583610107421875,-16.932075880175827,-9.699099141341447,3.524975037845969
1772790759088675300,4.59367529296875,-14.570177237731217,-7.61478293004632,2.65519068390131
1772790759098740200,4.603740234375,-11.794758584427832,-5.678387581720948,2.342534747413546
1772790759108805000,4.61380517578125,-8.61020909513533,-3.184456550312042,2.5709385755047203
1772790759118870300,4.623870361328125,-4.82352139544487,-0.5130564898878336,2.510868137684464
1772790759128936000,4.63393603515625,-0.361367214295268,2.098520093214512,2.020935041491687
1772790759139001000,4.6440009765625,3.525424535179138,5.3466860223710535,1.0512788390837609
1772790759149066200,4.654066162109375,5.844179032424092,9.530320783782004,0.08051569834724068
1772790759159131100,4.664131103515625,7.251426587760448,12.340012293565273,-0.7416162391930818
1772790759169196000,4.674196044921875,7.821293344628811,16.80707938119769,-1.0526464741751551
1772790759179261200,4.68426123046875,8.010259334692359,20.114130045521257,-0.7890984866622834
1772790759189326000,4.694326171875,8.983688187506795,20.867800879645348,-1.4359309212461113
1772790759199391200,4.70439111328125,10.784628771203757,20.513026487743854,-1.9710624648198485
1772790759209456000,4.7144560546875,12.713012077987193,19.844630383062363,-1.6917106859102844
1772790759219521000,4.72452099609375,14.239847551256418,18.555490736234187,-1.2214913210995495
1772790759229586200,4.734586181640625,15.440093109101056,16.31360145200491,-1.2356335359595716
1772790759239651300,4.7446513671875,16.593170088535548,14.414707274556159,-1.157201877344772
1772790759249716000,4.754716064453125,17.145108390003443,13.577061687672137,-0.9904648894198238
1772790759259781000,4.764781005859375,16.35554674280882,12.683763771671057,-1.2426263174563645
1772790759269846300,4.77484619140625,14.212939670586586,11.74780277198553,-1.594918391022831
1772790759279911200,4.7849111328125,11.621464210748671,10.47519691132903,-1.353715433243662
1772790759289976000,4.79497607421875,9.289172186538577,8.809615230670572,-0.43704540948346254
1772790759300041200,4.805041259765625,7.592173623353243,7.018682830768824,0.6053717124264687
1772790759310106400,4.8151064453125,6.245515269014239,5.409522125512361,1.3279863870948552
1772790759320172000,4.825172119140625,5.058673967143893,4.106992251235247,1.7736074633523822
1772790759330237200,4.8352373046875,4.289474724498391,3.372120810127258,1.8832760448172687
1772790759340302300,4.84530224609375,3.846484873527288,3.266711055150628,1.951838708911836
1772790759350367000,4.855366943359375,3.279740048071742,3.3990281062752006,1.5256041779085994
1772790759360432000,4.86543212890625,3.023963790538907,3.308653423345089,0.69306650862284
1772790759370497300,4.875497314453125,2.9266350506871937,2.894323265147209,0.2211443584822118
1772790759380562200,4.885562255859375,2.559970899027586,2.1547546061336993,0.3019683921262622
1772790759390627000,4.895626953125,1.954032127302885,1.3349205702722071,0.7546642290756106
1772790759400692200,4.905692138671875,1.243970133280754,0.6434224069446325,1.2404597870722411
1772790759410757000,4.915757080078125,0.8678408186614512,0.042373745349049564,1.5355607776470481
1772790759420822000,4.925822021484375,0.788177499359846,-0.9965665672957896,1.1696050665177404
1772790759430887200,4.93588720703125,0.5944610998988151,-2.2434143018394708,0.6934479822210967
1772790759440952000,4.9459521484375,-0.9519576102405786,-3.969508611127734,0.548089809346199
1772790759451017200,4.956017333984375,-3.968068933713436,-7.1173442805290215,0.9019678369298577
1772790759461082000,4.96608203125,-8.360178687778115,-11.30773377689719,2.4282225877016783
1772790759471147000,4.97614697265625,-13.23232938183546,-15.213701936006546,5.470929657155275
1772790759481212200,4.986212158203125,-18.147508485758305,-18.459336885380743,9.458163894587754
1772790759491277300,4.99627734375,-22.002867570614814,-20.934964782857893,12.668441114854812
1772790759501343200,5.00634326171875,-24.450162523055074,-22.155684973454473,13.987728062665461
1772790759511408000,5.016408203125,-25.316676477026938,-20.79552591702938,13.835924220782518
1772790759521473300,5.026473388671875,-24.21773557692766,-17.968757015717028,12.825806097996233
1772790759531538000,5.036537841796875,-22.161230917143822,-15.73712492160797,10.548290204590558
1772790759541603000,5.04660302734375,-19.480024332976342,-14.024253666508198,8.342647707262635
1772790759551668200,5.056668212890625,-17.077136677539347,-12.042298928534985,6.8457888545840975
1772790759561733000,5.066733154296875,-15.06842954171896,-9.940708926355839,5.531666742190718
1772790759571798000,5.076798095703125,-12.793235369259119,-7.838690469631552,4.09659828299284
1772790759581863200,5.08686328125,-9.996733011394738,-5.173468805581331,2.7966835596501824
1772790759591928000,5.096927978515625,-6.597720687210559,-2.170208488114178,1.517968422333151
1772790759601993000,5.106992919921875,-2.9383962156295773,0.9660989483177661,0.36954496779292817
1772790759612058000,5.11705810546875,0.5088116919249296,3.699530225241184,-0.6925986719153822
1772790759622123000,5.127123046875,3.4452561889648434,6.0199330742150545,-1.5116056093029677
1772790759632188200,5.137188232421875,5.366222497490048,8.278555466580391,-1.940027859608829
1772790759642253000,5.147253173828125,6.365313614827394,10.9519505002141,-1.808182079257816
1772790759652318000,5.15731787109375,6.936870224478841,13.431328690135478,-1.7114023515909909
1772790759662383000,5.167383056640625,7.773416325688362,14.912652120029925,-2.1109385530218483
1772790759672448300,5.1774482421875,9.416185286036134,15.961908659505843,-2.3120839334398506
1772790759682514200,5.18751416015625,11.474036099731922,16.325802761930227,-2.8098525455638765
1772790759692579000,5.1975791015625,13.714642942935228,16.06866807552576,-3.3440260577604173
1772790759702644200,5.207644287109375,15.48406201468706,15.629261928260325,-3.652498132692277
1772790759712709000,5.217709228515625,16.65677659152746,15.017321285772322,-4.067522702895104
1772790759722774000,5.22777392578125,17.30134758398533,14.22702898621559,-4.575706910571456
1772790759732839200,5.237839111328125,17.385518736100195,13.670732489538192,-4.634039272552728
1772790759742904000,5.247904052734375,16.800583004915712,13.000515014648437,-4.650189027842879
1772790759752969000,5.257968994140625,15.693935768222808,12.116189509654044,-4.440126181475818
1772790759763034000,5.2680341796875,13.927234723258017,11.196355468904972,-3.662644555914402
1772790759773099300,5.278099365234375,11.717938379597664,10.053827940535545,-2.770066770881414
1772790759783164000,5.288163818359375,9.817629659175871,8.490437637329102,-2.140478828021884
1772790759793229000,5.29822900390625,8.14220287632942,6.8414744985163205,-1.7181193848863243
1772790759803294200,5.308294189453125,6.538333263218402,5.482791359862685,-1.1812851290479303
1772790759813359000,5.318359130859375,5.657803643375635,4.346612908259034,-0.32063305284678933
1772790759823424000,5.328424072265625,5.216225997290015,2.9369600453466176,0.41258828296661376
1772790759833489200,5.3384892578125,4.814803251460194,1.1522615713983773,1.1660451820790767
1772790759843554000,5.348553955078125,3.946522287815809,-0.8115437619000673,1.827469109660387
1772790759853619200,5.358619140625,2.319696746531129,-2.6029946327179667,2.53741478382647
1772790759863685000,5.36868505859375,0.07055062304139137,-3.8437873050063844,3.6578184509322047
1772790759873750300,5.378750244140625,-2.0997551879674194,-4.7686096555620425,4.919897364616394
1772790759883815200,5.388815185546875,-3.7086060966223475,-5.87993423641622,5.637857418411969
1772790759893880000,5.398880126953125,-4.405585906231403,-7.112651738798618,5.678152603921294
1772790759903945200,5.4089453125,-4.546808148345351,-8.50198545178175,5.147408481651544
1772790759914010000,5.419010009765625,-4.828257776317,-9.97463223874569,4.445698720911145
1772790759924075000,5.429074951171875,-5.982168283966184,-11.181667602860927,4.545108066429197
1772790759934140200,5.43914013671875,-8.445895900291204,-12.243435248863696,5.449550184518099
1772790759944205000,5.449205078125,-11.044371594280005,-12.813893541884422,6.733993782484531
1772790759954270200,5.459270263671875,-12.881195392262935,-12.588366292142867,8.374143500244617
1772790759964335000,5.469335205078125,-14.673787249809502,-12.040288173234462,9.434404248815774
1772790759974400000,5.47939990234375,-15.500104802471398,-11.28925470187664,9.65638403520882
1772790759984465200,5.489465087890625,-15.118554631847143,-11.052038183385132,8.420378012675046
1772790759994530300,5.4995302734375,-13.544541227817534,-10.730039102882147,6.035950727558135
1772790760004595000,5.509594970703125,-11.918317159557342,-9.605086978691816,3.489510341233015
1772790760014660000,5.51966015625,-11.11547400598526,-9.751309221050143,1.6450483034566044
1772790760024725200,5.529725341796875,-10.185888971072435,-8.389463818973303,0.3324493089772761
1772790760034791200,5.539791259765625,-8.928589400619268,-6.909916166579723,-0.27537571488544343
1772790760044856000,5.54985595703125,-8.413412849837542,-5.241271006697416,-0.3089388156607747
1772790760054921200,5.559921142578125,-8.084014306733012,-3.752848558452725,-0.1316618020862341
1772790760064986000,5.569986083984375,-7.123395251131058,-2.406635025271773,0.09959873061031102
1772790760075051000,5.580051025390625,-5.588414465329051,-1.227940204977989,0.3269422359935939
1772790760085116200,5.5901162109375,-3.7088071721523996,0.11059095700681208,0.4044127214260399
1772790760095181300,5.600181396484375,-1.756871140345931,1.8716437669515609,0.3940829044610262
1772790760105246000,5.610245849609375,0.09639467387199402,3.9516485447883603,0.261892548456043
1772790760115311000,5.62031103515625,2.205166696509719,5.730163361665606,-0.07793503420427442
1772790760125376300,5.630376220703125,4.244216363623738,7.15625181107223,-0.4223958296231925
1772790760135441200,5.640441162109375,5.759637877953052,8.325303773751854,-0.7498216113500297
1772790760145506000,5.650506103515625,6.995902843683957,9.092080757686496,-1.2272658128477631
1772790760155571200,5.6605712890625,8.381189327102899,9.621933484074473,-1.496871858290583
1772790760165636000,5.670635986328125,10.057615642380714,9.851784442234038,-1.6677970186203717
1772790760175701200,5.680701171875,11.920637711459397,9.784855516821146,-1.9335639242917297
1772790760185766100,5.69076611328125,13.709598519027232,9.565255903562903,-2.342369473849237
1772790760195831000,5.7008310546875,14.953404986178874,9.259789440187811,-2.789716643247008
1772790760205897200,5.710897216796875,15.567691899532079,9.053342738491295,-3.124334674565494
1772790760215962000,5.720962158203125,15.573437749707699,8.855951449909806,-3.249739462083578
1772790760226027000,5.731027099609375,15.01201031988263,8.643132875093817,-3.3153730869889255
1772790760236092200,5.741092041015625,13.854529552531242,8.397703239530324,-3.262848826764524
1772790760246157000,5.751156982421875,12.252338686287402,7.897961573767661,-2.9661914005279537
1772790760256222000,5.761221923828125,10.740000524926185,7.410576700752973,-2.6971856590658425
1772790760266287000,5.771287109375,9.40157223879397,6.632814212423563,-2.2928740599267186
1772790760276352300,5.781352294921875,8.059289615321159,5.81437952196598,-2.2473180312797427
1772790760286417000,5.7914169921875,7.140936753040552,5.5761623019993305,-2.0200743330091235
1772790760296482000,5.80148193359375,6.324902109462022,5.7193730875819915,-1.586903865262866
1772790760306547200,5.811547119140625,5.733186508879065,5.799286582252383,-1.183990004092455
1772790760316612000,5.821612060546875,5.368019902300834,5.457552289187908,-0.7785907558470964
1772790760326677000,5.831677001953125,5.1648587981462475,4.953855748319626,-0.2876245172142982
1772790760336742100,5.8417421875,4.835630935433507,4.242240387375652,-0.09245148920416832
1772790760346807000,5.85180712890625,4.418977302724123,3.27227424223572,0.19576719451099633
1772790760356872200,5.8618720703125,4.0308991916358465,2.1641396895945073,0.7374138190671801
1772790760366937000,5.87193701171875,3.319133900827169,1.126331011328101,1.3181047522887588
1772790760377002000,5.882001953125,2.219297513192892,-0.0426946478664875,1.441491185721755
1772790760387068200,5.892068115234375,0.9628490066111087,-1.5276947204470634,1.1930153143301605
1772790760397133000,5.902133056640625,-0.5566641609460116,-3.0118808462962505,1.3530828344285488
1772790760407198200,5.9121982421875,-3.254989053174853,-4.677304121522605,2.6630206468746063
1772790760417263000,5.92226318359375,-7.71687201616764,-7.359903329092264,4.427179313880205
1772790760427328000,5.932327880859375,-13.639977285790442,-11.235078875052928,6.184068574404716
1772790760437393200,5.94239306640625,-20.791939290714264,-14.874337879204749,8.17902015659511
1772790760447458000,5.9524580078125,-27.68280471986532,-15.404880341422556,10.905700790214539
1772790760457523200,5.962523193359375,-30.73494421905279,-13.080049739134312,13.27757254514098
1772790760467588000,5.972588134765625,-30.584425156283377,-10.988767195957898,14.075945275300741
1772790760477653000,5.982653076171875,-28.58507738496065,-10.952761816596984,12.646578827136754
1772790760487718100,5.99271826171875,-25.433131942152976,-10.491429084205627,10.256107585680484
1772790760497783300,6.002783203125,-22.15711120686531,-8.857429705768823,8.672457753777504
1772790760507848000,6.012847900390625,-18.86285338861942,-7.350352241414785,7.720339400017261
1772790760517917200,6.022917236328125,-15.905326940584182,-6.5109174330264326,6.75777564008832
1772790760527982300,6.032982421875,-13.45547762748599,-6.227167711418867,5.605323514553904
1772790760538047200,6.043047119140625,-10.885307990527153,-5.690872969284653,4.191046206711232
1772790760548112100,6.053112060546875,-7.633457235378026,-4.435194278031587,3.0654271430447695
1772790760558178300,6.06317822265625,-4.1273318594306705,-3.041453854522109,1.9624571335598826
1772790760568243200,6.0732431640625,-0.7220733343333006,-1.6604525010764597,0.6596195085078478
1772790760578308400,6.083308349609375,2.910444378864765,0.5653238527417183,-0.42853608594387765
1772790760588373200,6.093373291015625,6.344536199736595,3.535146303248405,-0.9943832319073378
1772790760598438100,6.103438232421875,8.812783923834562,6.0552095547795295,-1.2663704733982681
1772790760608503300,6.11350341796875,10.203116000205277,8.54722919960916,-1.325005471587926
1772790760618568200,6.123568115234375,10.581326212751865,11.164580858981608,-1.6520546750873326
1772790760628633300,6.13363330078125,10.815477498453856,12.929418448162078,-2.1178684984154996
1772790760638698200,6.1436982421875,11.828597725665569,13.192262744385003,-2.6102391970187426
1772790760648763100,6.15376318359375,13.33745915082693,12.485537201309203,-3.09895882576853
1772790760658828300,6.163828369140625,14.465057990133761,11.66048338497281,-3.587629939201474
1772790760668893400,6.1738935546875,15.180321059930323,11.05845974086523,-3.8626650239557025
1772790760678958000,6.1839580078125,15.394085391163825,10.452290667515992,-4.0539889753222464
1772790760689023200,6.194023193359375,15.270713863039015,9.570988309735059,-4.5108518688231705
1772790760699088400,6.20408837890625,14.910737226319313,8.356753974026441,-5.010100782632827
1772790760709153300,6.2141533203125,14.206318206620216,7.072887299165129,-4.902677934268117
1772790760719218200,6.22421826171875,13.101715627497434,7.118060904365778,-4.33142059982419
1772790760729284400,6.234284423828125,10.910029759329557,7.27468062209785,-3.656644438716769
1772790760739349200,6.244349365234375,7.5067843276202675,6.74707012167871,-3.1704291940033436
1772790760749414100,6.2544140625,4.453400965851545,4.804995558673143,-2.8018545325472948
1772790760759479300,6.264479248046875,3.2552456582844256,3.1205104401022195,-1.9391114754162728
1772790760769544200,6.274544189453125,3.036236996656656,2.311223517218232,-1.1838868359789252
1772790760779609000,6.284609130859375,2.882932102560997,1.8450982898533344,-0.7266600776016712
1772790760789674200,6.29467431640625,3.135343267574906,1.8982956270337104,-0.016783961540460586
1772790760799739400,6.304739501953125,3.4879520058751106,2.103980112186074,0.6066160864643753
1772790760809804300,6.31480419921875,3.810621532985568,2.30727390280962,0.7793322218641638
1772790760819869200,6.324869140625,4.0892496737957,2.4602815675243734,0.8732569984912871
1772790760829934300,6.334934326171875,4.0914416308820245,2.6349425533816215,1.1474654231630266
1772790760839999200,6.344999267578125,3.5304800650030375,2.7339605614945293,1.5034670187719166
1772790760850064400,6.355064453125,2.480291213113069,2.3693679554119704,1.67051416862458
1772790760860129300,6.36512939453125,1.7629606893926857,1.4505430917054414,2.026273626040667
1772790760870194200,6.375194091796875,1.3360814307451248,0.07702887914478779,2.452365095311403
1772790760880259300,6.38525927734375,0.25256197166144845,-1.634064260366559,2.8363860399633642
1772790760890324500,6.395324462890625,-1.8072838152438402,-3.7367879427507518,3.47528892365694
1772790760900390100,6.40539013671875,-5.24954374500215,-6.047946285778283,4.344275405222177
1772790760910455300,6.415455322265625,-10.59560257538557,-7.9155767254352565,5.794529158592224
1772790760920520200,6.425520263671875,-16.952287478077412,-8.924684209874272,8.393217618548869
1772790760930585000,6.435585205078125,-22.519355788516997,-7.078550731754302,12.230735926288366
1772790760940650200,6.445650146484375,-26.270019988667965,-3.839672270902991,15.096909786272048
1772790760950715400,6.45571533203125,-26.133646355628965,-4.168047023917734,14.619593887329101
1772790760960780000,6.465780029296875,-23.700814812827108,-6.9141896061152215,11.980059037721157
1772790760970845200,6.47584521484375,-20.350414836120603,-8.838016564768552,8.426479836681485
1772790760980910300,6.485910400390625,-16.892112118577955,-10.76352636194229,4.443613146808743
1772790760990975200,6.495975341796875,-14.218310257709026,-12.835244957470893,1.6347294462770223
1772790761001040100,6.5060400390625,-12.60080024178028,-13.919773885858058,0.1498265504606068
1772790761011105300,6.516105224609375,-11.430351271784305,-13.573992947751282,-0.8659978211432695
1772790761021170200,6.526170166015625,-10.376542475831508,-12.358700627422332,-1.5249110810779034
1772790761031235300,6.5362353515625,-8.887491082033515,-9.964108506643772,-1.3029258878573775
1772790761041300200,6.54630029296875,-6.522815376091003,-7.061206213721633,-0.9051061349555849
1772790761051365000,6.556365234375,-3.821366214361787,-4.333935212993621,-0.7714805585157126
1772790761061430300,6.56643017578125,-0.6364917308986187,-1.7183505632936953,-1.0578654509324579
1772790761071496200,6.57649609375,2.6197119587630033,0.8665203837126493,-1.4383428046934306
1772790761081561300,6.586561279296875,5.719909678676724,3.534063184186816,-1.6984708276949823
1772790761091626200,6.596626220703125,8.447723700240253,6.1363102134078735,-1.9867244365930556
1772790761101691100,6.606691162109375,10.412870511275528,8.403653087845445,-2.181214450775087
1772790761111756300,6.61675634765625,11.487772364139555,9.94234792573452,-2.701259776636958
1772790761121821200,6.6268212890625,12.024015083825587,10.60065752068758,-3.5387101332098245
1772790761131886300,6.63688623046875,12.882004370558262,10.956403387969731,-4.067889198119938
1772790761141951200,6.646951171875,13.735446076989174,11.08203350867629,-4.688671610972285
1772790761152016100,6.65701611328125,14.175015890383719,11.004199742889403,-5.25443093252182
1772790761162081300,6.667081298828125,14.484415017032623,10.962022981417178,-5.657854496780038
1772790761172146400,6.677146484375,14.461663086998461,10.70250344570279,-6.081197982516884
1772790761182211000,6.687211181640625,14.009642957353591,10.399649795174598,-6.278555953350663
1772790761192276200,6.697276123046875,13.22050333496332,10.339358700340986,-6.081046591347455
1772790761202341400,6.70734130859375,12.065291681587695,10.297211164963246,-5.455890493455529
1772790761212406300,6.71740625,10.643900450086592,10.202062691760062,-4.6917196003660555
1772790761222471200,6.72747119140625,8.974000321707129,10.355821174842118,-3.945288069845736
1772790761232536300,6.737536376953125,7.019926693350076,9.826571675044297,-3.068408496943116
1772790761242602200,6.747602294921875,5.2839048642873765,8.682297595268487,-2.078916690339148
1772790761252667100,6.757667236328125,3.965629139345884,7.566025621140002,-0.7259085285820066
1772790761262732300,6.767732177734375,3.019729513970017,6.5595367947667835,0.8055277895461768
1772790761272797400,6.77779736328125,2.6463626498013735,5.466999916490912,2.241841353434324
1772790761282862000,6.787862060546875,2.465553078186512,4.110853602838516,3.296346314957738
1772790761292927200,6.79792724609375,1.9113520924836396,2.6817940286666153,4.1408021663784975
1772790761302992400,6.807992431640625,0.575244358253479,1.4151841935545206,5.062170577087998
1772790761313057300,6.818057373046875,-0.8769792338848114,0.8050818724095821,5.741559200426936
1772790761323122200,6.8281220703125,-1.790230389112234,0.5975549742609262,5.904158577090501
1772790761333187300,6.838187255859375,-1.9703367808938026,0.21997253822386265,5.957472818648815
1772790761343252200,6.848252197265625,-1.5491186167478561,-0.7357651750773191,5.9181508620858185
1772790761353317400,6.8583173828125,-1.5331424644589424,-2.8656700021147725,5.687694923770428
1772790761363382300,6.86838232421875,-2.1146838770300147,-6.424314085328579,5.446622898894548
1772790761373447200,6.878447265625,-3.767765557077527,-11.092890418255328,5.468865710362792
1772790761383512300,6.88851220703125,-7.042381686264276,-15.395621514689921,6.282807765576243
1772790761393577200,6.8985771484375,-11.178102019333839,-15.434003560054302,9.866593888831138
1772790761403643100,6.90864306640625,-16.278133832782505,-13.114980767261981,14.09246970912218
1772790761413708300,6.918708251953125,-20.681789647734163,-12.757616943389177,15.263931071031093
1772790761423773200,6.928773193359375,-22.513929087293146,-13.449028012955187,14.159098190283775
1772790761433838000,6.938838134765625,-22.32436863846779,-12.538444615632296,12.276207053130864
1772790761443903200,6.9489033203125,-20.746302159655094,-11.449262893003224,8.687149126952885
1772790761453968400,6.958968505859375,-16.94279250450134,-11.443400138449668,4.351178901000321
1772790761464033000,6.969032958984375,-12.36383156057,-11.342993306326866,1.214732640619576
1772790761474098200,6.97909814453125,-7.843388272058963,-11.246965712201595,-1.2051198858827352
1772790761484163300,6.989163330078125,-4.235954731234908,-10.80562012130618,-2.7629256669551134
1772790761494228200,6.999228271484375,-2.227680141612887,-9.318864144968986,-3.6609722387880086
1772790761504293000,7.009293212890625,-1.2559843962013721,-6.818606833148002,-4.460440362969041
1772790761514358300,7.019358154296875,-0.44388066233098505,-3.6677737354964015,-5.277359388166666
1772790761524422700,7.029422607421875,0.4566477894455194,-0.2551929046869278,-6.167741708981991
1772790761534487800,7.03948779296875,1.6200763592854142,3.0107845754921434,-7.208744799375534
1772790761544552400,7.049552490234375,2.810306426811218,6.029557227128744,-7.91033005695343
1772790761554617600,7.05961767578125,3.4388948372393844,8.981818886503577,-8.301284600260853
1772790761564682800,7.069682861328125,3.73931863027215,11.296561225497722,-8.429406537783146
1772790761574748400,7.07974853515625,4.174298193266988,12.764354142689704,-8.691689108470081
1772790761584813600,7.0898134765625,5.052777894842625,13.513793038332462,-8.964143529081344
1772790761594878700,7.099878662109375,6.373643051755428,13.742591272568703,-9.021997752156853
1772790761604943600,7.109943603515625,7.7638582237482066,13.479835823673008,-9.13825155723095
1772790761615008500,7.120008544921875,8.761475176879763,13.027587730491161,-8.901863306257129
1772790761625073700,7.13007373046875,9.410236022242904,12.558014408499002,-8.229536291867493
1772790761635138600,7.140138671875,9.2937332108438,11.8182072645545,-7.519459100276231
1772790761645203700,7.15020361328125,8.11950939848423,10.663007301616668,-6.649840166026354
1772790761655268600,7.1602685546875,6.384009547469019,9.458019517681002,-5.489201811426877
1772790761665333500,7.17033349609375,4.5095337719619275,8.270805290845036,-4.230267040987313
1772790761675398700,7.180398681640625,2.7473668632954356,7.154273204475641,-2.8868758717507124
1772790761685463600,7.190463623046875,1.5206488935887812,6.1887371507376425,-1.404581697127968
1772790761695528400,7.200528564453125,0.9747183081030845,5.425303632012009,0.4916666419871151
1772790761705593600,7.210593505859375,1.2992296636879443,4.5873540937453505,1.994791715453565
1772790761715658800,7.22065869140625,1.9300357501655816,3.6385026328265666,2.2794189505480227
1772790761725723400,7.230723388671875,2.7095547267735003,3.6052287242561576,2.644009949195385
1772790761735788500,7.24078857421875,3.115425684183836,4.3990667335957285,2.7231244024425743
1772790761745854700,7.250854736328125,3.2185008587330577,5.300580689278244,2.51902572517693
1772790761755919600,7.260919677734375,3.7474019834846257,5.8366579892694945,2.314639755402505
1772790761765984500,7.270984619140625,4.708854567301273,5.853098836460709,2.06247803510502
1772790761776049700,7.281049560546875,5.55322332496047,5.594097771662473,1.785829669935256
1772790761786114800,7.29111474609375,6.079862934520841,5.184464831370115,1.4551342188879848
1772790761796179500,7.301179443359375,6.358969214236736,4.554933002611994,1.2613842094182968
1772790761806244600,7.31124462890625,6.638235068428516,3.3319027815073725,0.9065037267938256
1772790761816309800,7.321309814453125,6.802846953958272,1.9327847566127776,0.7043058416482061
1772790761826374700,7.331374755859375,6.232568109157681,0.7435626970857382,0.7912517191734164
1772790761836439600,7.341439453125,4.93471148738861,-0.4925596453040838,0.9757492585860192
1772790761846504700,7.351504638671875,2.360217557489872,-2.0154086792856454,1.4398545244306324
1772790761856569600,7.361569580078125,-1.2936048095434904,-3.8554584535777567,2.1743584474004805
1772790761866634500,7.371634521484375,-5.410627456405758,-4.923381115078926,4.280632954134047
1772790761876699600,7.38169970703125,-9.831129776740074,-5.37716591630876,8.081457023465633
1772790761886764500,7.3917646484375,-13.53410634304285,-7.175597147533297,11.570959181392192
1772790761896829700,7.40182958984375,-16.546056455183027,-10.678244618237018,13.051865262657403
1772790761906894600,7.41189453125,-19.328658882510663,-13.65460436155796,13.58421974273324
1772790761916960800,7.421960693359375,-22.17350587682724,-14.45473065738678,13.730725478208065
1772790761927025700,7.432025634765625,-24.179692554259297,-14.339306288874148,12.844732916784286
1772790761937090600,7.442090576171875,-24.71610361624956,-14.27872760927081,11.341781007927656
1772790761947155700,7.45215576171875,-24.042096101427077,-14.06374747250676,9.785791920888423
1772790761957220600,7.462220703125,-22.104522941493986,-13.764688538086414,7.997412128078937
1772790761967285800,7.47228564453125,-19.515076941657064,-13.05151805665493,6.339802741473913
1772790761977350700,7.4823505859375,-16.38730264803171,-11.63459841760993,4.952035547155141
1772790761987415600,7.49241552734375,-12.707996880173683,-9.777954651391505,3.656806935802102
1772790761997480700,7.502480712890625,-8.833823789253831,-7.5523156602174035,2.416201018257439
1772790762007545600,7.512545654296875,-5.124776963126659,-5.091860781952739,1.2238234173089264
1772790762017610500,7.522610595703125,-1.649034450483322,-2.6784721907675264,-0.14629121594130992
1772790762027675600,7.532675537109375,1.5907073491990564,-0.1260235039383173,-1.6475635011479257
1772790762037740800,7.54274072265625,4.1244373070329425,2.8857991824299094,-2.9571549843743443
1772790762047805400,7.552805419921875,6.147877317082882,6.151275727349519,-4.210904168869555
1772790762057870600,7.56287060546875,7.6709478848606345,9.269640972116589,-5.437125587230921
1772790762067935700,7.572935791015625,8.552661746051907,11.912266188955305,-6.225974702242016
1772790762078000600,7.583000732421875,8.931205720597506,14.018212048256396,-6.846694278991222
1772790762088066600,7.593066650390625,9.446418511736393,15.460047517371176,-7.378937699908017
1772790762098131700,7.603131591796875,10.09514662387371,16.104499267363547,-7.850289137488603
1772790762108196600,7.613196533203125,10.696887359386682,16.699083116859196,-8.270249995049834
1772790762118261500,7.623261474609375,10.969158824646472,16.89055495226383,-8.477454237115383
1772790762128326700,7.63332666015625,11.190438938337564,16.83023930751085,-8.38370510931611
1772790762138391800,7.643391845703125,11.259203262484073,16.665588843536376,-8.05689892079234
1772790762148456400,7.65345654296875,10.800068332397936,16.25833490733504,-7.559158657979965
1772790762158521600,7.663521484375,10.062707997083663,15.721547413247823,-6.9612325123190875
1772790762168586800,7.673586669921875,9.371118063819408,15.023035571765899,-6.180195532363653
1772790762178651600,7.683651611328125,8.73620980271995,14.276811546516418,-5.2093075962036846
1772790762188716500,7.693716552734375,8.080060016149282,13.607295497894286,-4.181747924751043
1772790762198781700,7.70378173828125,7.375109081530571,12.842349236518144,-3.030571810501814
1772790762208846600,7.7138466796875,6.635757864660024,11.882649633848667,-1.888776249668747
1772790762218911700,7.723911865234375,5.909902089178562,10.905323189073801,-0.726477706772089
1772790762228976600,7.7339765625,5.182556951922178,9.817360779106616,0.4154074320405721
1772790762239042600,7.74404248046875,4.516818083751201,8.49765589814484,1.3365227447718382
1772790762249107700,7.754107666015625,3.823303319904208,7.045292605274915,2.0867297021776436
1772790762259172600,7.764172607421875,2.9652585035920143,5.437382192340493,2.6379934653848407
1772790762269237500,7.774237548828125,2.096373144313693,3.754057349720597,3.2020614728465673
1772790762279302700,7.784302734375,1.360527305215597,1.723776679995656,3.6820299321249124
1772790762289367600,7.794367431640625,0.28008652292490005,-0.7162807224065065,3.9646202545642852
1772790762299432400,7.804432373046875,-1.4428326634585857,-3.292980053395033,4.231264819853007
1772790762309497600,7.81449755859375,-3.9713083540260787,-6.328852308392524,4.951779526567459
1772790762319562800,7.824562744140625,-7.503210560786724,-10.19816977597475,6.478966882014274
1772790762329627400,7.83462744140625,-11.488137105798721,-14.483759183472394,8.525216689765452
1772790762339692500,7.844692626953125,-15.317101520204544,-17.048828282421827,12.270333777183293
1772790762349757700,7.8547578125,-19.373130476921794,-18.585123657953737,15.574196459120511
1772790762359822600,7.864822509765625,-22.79250052947998,-20.926110445272922,16.628670440983772
1772790762369887500,7.874887451171875,-24.718556270098684,-21.77972517018318,16.405589999872443
1772790762379952600,7.88495263671875,-25.260185943520067,-20.085158802580832,15.137929194402695
1772790762390017500,7.895017578125,-24.277298357486725,-17.39209811449051,12.949001100510358
1772790762400082700,7.905082763671875,-22.002860556352136,-14.986444501471519,10.115077651268242
1772790762410148600,7.915148681640625,-18.96298666449785,-13.132443943238258,7.809015462335943
1772790762420213800,7.9252138671875,-16.19106929731369,-11.356202331990003,6.61385115327835
1772790762430278700,7.935278564453125,-13.828541709315775,-9.44692353864908,6.047310325962305
1772790762440343600,7.945343505859375,-11.562371385788916,-7.3345140362918375,5.605027161955833
1772790762450408700,7.95540869140625,-9.0650857832551,-4.828023967561125,4.998194656261801
1772790762460473600,7.9654736328125,-6.408854065868258,-1.9303122290194032,3.912292393694818
1772790762470538500,7.97553857421875,-3.753500300359726,0.9728466690123081,2.4282252180501818
1772790762480603600,7.985603759765625,-1.053916932502389,3.9860932507038114,0.8004244019925594
1772790762490668500,7.99566845703125,1.7687684988886117,7.000921548628806,-1.0283554980054497
1772790762500733700,8.005733642578125,4.368066030654311,9.749996969407796,-2.906513469156623
1772790762510798600,8.015798583984376,6.342488035035133,12.325461205643414,-4.3978544351965185
1772790762520863500,8.025863525390625,7.69139621412754,14.75385388921499,-5.2885056360811
1772790762530929700,8.0359296875,8.551232005509734,16.901739194101093,-5.7655257669478654
1772790762540994300,8.045994384765624,8.99279737663567,18.390076886671782,-6.250147604990005
1772790762551059500,8.0560595703125,9.425131393557786,19.18939888038039,-6.669332217481732
1772790762561124600,8.06612451171875,10.074145921421051,19.55177556397915,-6.951520096600055
1772790762571189500,8.076189453125,10.92542957303524,19.536318467128275,-7.314955933862924
1772790762581254400,8.08625439453125,11.698830359023809,19.30009095967412,-7.549502940884232
1772790762591319600,8.096319580078125,12.187481306451557,18.904162719607353,-7.605752066850662
1772790762601384400,8.106384521484374,12.265403919565676,18.313543097567557,-7.408025262704491
1772790762611450400,8.116450439453125,11.857139929538965,17.465654349088666,-6.860624020144343
1772790762621515500,8.126515625,10.9089787889719,16.2963042802453,-6.145680683821439
1772790762631580700,8.13658056640625,9.763030053982138,14.870891538143157,-5.4175546253204345
1772790762641645300,8.146645263671875,8.755421283668278,13.453438815134763,-4.542075859126449
1772790762651710500,8.15671044921875,7.942709647032618,12.032902154636382,-3.639432314892113
1772790762661775600,8.166775634765624,7.286085813209414,10.718260986804962,-2.6209146125510334
1772790762671840500,8.176840576171875,6.430189699363708,9.267989697778225,-1.6966553027056157
1772790762681905400,8.186905517578126,5.107437121269107,7.643814378741383,-0.8252601525634526
1772790762691970600,8.196970458984374,3.282580239933729,6.092281686589121,0.2908452328264713
1772790762702035500,8.207035400390625,1.114594980826974,4.551670785945654,1.6652213229134678
1772790762712100600,8.2171005859375,-1.0790940438568593,2.5880560067832468,2.9110794618979097
1772790762722165500,8.22716552734375,-3.0388264286279676,0.5186889428168535,4.295577133026719
1772790762732230400,8.23723046875,-4.738078323698043,-1.0408937848001718,5.687102218574285
1772790762742295600,8.247295654296876,-5.529456080403923,-2.5741087299734353,6.401901177990436
1772790762752360700,8.257360595703124,-5.143995458337664,-4.529401670992375,6.054095456057786
1772790762762425300,8.26742529296875,-4.145403522694111,-6.242535376420617,5.357295094668865
1772790762772490500,8.277490478515626,-3.885210617762804,-7.565595413029193,5.122513694369792
1772790762782556400,8.287556396484375,-5.623572872471809,-8.887346120604873,5.737273485931754
1772790762792621300,8.297621337890625,-8.882817245003581,-10.570390977239608,7.149812133413553
1772790762802686500,8.3076865234375,-12.370455362623929,-12.75673431533575,9.469370932778716
1772790762812751600,8.317751708984375,-15.722218444377184,-14.001542653006315,12.875586320209502
1772790762822816500,8.32781640625,-17.96789192332029,-14.710828401958942,15.767159994387626
1772790762832881400,8.33788134765625,-18.512448882365227,-15.767629949986933,16.80062742857933
1772790762842946600,8.347946533203125,-17.67518557279706,-16.312488522326944,15.674342594480514
1772790762853011700,8.35801171875,-16.33564377246499,-15.100662416803836,13.738270486760138
1772790762863076400,8.368076416015626,-15.28385391511917,-12.504630024313926,11.134772580695152
1772790762873141500,8.3781416015625,-14.454238489955662,-10.15935986058712,8.317371227186918
1772790762883206700,8.38820654296875,-13.543514807379244,-8.376102817618847,6.14823387543559
1772790762893271600,8.398271484375,-12.504316720581054,-6.995070484513044,4.4756499147996305
1772790762903336400,8.40833642578125,-10.939476803088187,-5.673390504086017,2.9739582351371645
1772790762913401600,8.418401611328125,-8.771286376798152,-4.228712505021691,1.618623822389543
1772790762923466500,8.428466552734376,-6.467741139122843,-2.4760680424600836,0.5109554259553551
1772790762933531600,8.43853173828125,-4.332237176904082,-0.5473322689771651,-0.5546896460026502
1772790762943596500,8.448596435546875,-2.4074048406004906,1.4263368712097406,-1.3577785910293458
1772790762953662500,8.458662353515624,-0.8957833030760288,3.3306741164952514,-1.9783119975566863
1772790762963727400,8.468727294921875,0.2989969751000404,5.0557899361401795,-2.4790531957507134
1772790762973792500,8.47879248046875,1.4752455712854862,6.6030129483997815,-3.091608755266666
1772790762983857400,8.488857421875,2.885097171640396,8.027909557673334,-3.595539104890823
1772790762993922600,8.498922607421875,4.43916201261878,9.35104558212757,-3.92087638990581
1772790763003987500,8.508987548828125,6.036677288267016,10.538819780933856,-4.206153467211127
1772790763014052400,8.51905224609375,7.715103252929449,11.486750619876384,-4.574127532425522
1772790763024117500,8.529117431640625,9.436177688229083,12.157746677923202,-5.112851547533273
1772790763034182700,8.5391826171875,10.945191089081764,12.77728844306469,-5.702204510638118
1772790763044247300,8.549247314453124,12.186572959434985,13.487400705969334,-6.317368206825852
1772790763054312400,8.5593125,13.133126664805411,14.125321008366345,-6.944505249401926
1772790763064377600,8.569377685546876,13.827204323232174,14.564951612037419,-7.538027022624015
1772790763074442500,8.5794423828125,14.229703758382797,14.715146849679947,-7.995285637444257
1772790763084507400,8.58950732421875,14.355815525126456,14.55357564702034,-7.975119047728181
1772790763094572500,8.599572509765625,14.090391149282455,13.852329412138461,-7.665803507709502
1772790763104638500,8.609638427734374,13.279105161535739,12.742682409107685,-6.892091171553731
1772790763114703400,8.619703369140625,12.128670221042633,11.528659670323133,-5.5990662077248095
1772790763124768500,8.6297685546875,8.895674388489127,8.817428534770011,-2.456807461673021
1772790763134833700,8.639833740234375,7.398139243984222,7.40580758665502,-0.9776128605008124
1772790763144898300,8.649898193359375,6.078383509618043,6.101411333984136,0.5105240488007664
1772790763154963500,8.65996337890625,5.001711724472045,4.599225148802995,1.6793617842078208
1772790763165028600,8.670028564453125,3.8102065224438904,3.1277409758776424,2.6906948357418177
1772790763175093500,8.680093505859375,2.2996277719706297,1.9313935945153236,3.5412057494178413
1772790763185158400,8.690158447265626,0.7154191371411085,0.8342652967959642,4.325414345146715
1772790763195223600,8.7002236328125,-0.618051818844676,-0.3104875064074993,4.799144786818325
1772790763205289700,8.710289794921875,-1.6594985613524913,-1.3838999974966049,4.847157999359071
1772790763215354400,8.720354248046876,-2.435646015700698,-2.473139295531809,4.575307389859855
1772790763225419500,8.73041943359375,-3.409780970957875,-3.5616342049404976,4.200511369670927
1772790763235484700,8.740484619140625,-5.119209976649284,-4.500099004140496,4.242793637344241
1772790763245549600,8.750549560546874,-7.903837187802791,-5.592488582900166,5.0444297532141205
1772790763255614500,8.760614501953125,-11.8311859885931,-7.139377833160758,6.527582736623287
1772790763265679600,8.7706796875,-15.657343528884649,-8.888100153842569,8.66824802712798
1772790763275744500,8.78074462890625,-18.548925386369227,-9.856634804874657,11.174008028018473
1772790763285809400,8.790809326171875,-20.450073480224606,-10.053121838092803,12.738202633345127
1772790763295874600,8.80087451171875,-21.154059953725337,-10.18563879570365,12.612277913606166
1772790763305939500,8.810939453125,-21.084866590511798,-10.146194089543819,11.632316444152593
1772790763316004600,8.821004638671875,-20.926306844627856,-9.98244378927946,9.74622037347853
1772790763326069500,8.831069580078125,-20.300594866418837,-9.602308161628246,7.466812967237829
1772790763336134400,8.841134521484374,-19.221490301167965,-9.083351507785915,5.583114605355262
1772790763346199600,8.851199462890625,-17.920985210716722,-8.401192835211754,4.412713566154241
1772790763356264700,8.8612646484375,-16.695302429276705,-7.6425886363387106,3.6110400408834216
1772790763366330400,8.871330322265624,-15.278756884241103,-6.7369058705389495,2.7633929922059175
1772790763376395500,8.8813955078125,-13.328197986006735,-5.436182168900967,1.9018387064680455
1772790763386460400,8.89146044921875,-10.834978317737578,-3.853063082873821,1.1149369261324404
1772790763396525300,8.901525390625,-7.498076705029606,-2.183742507947981,0.4449687498286366
1772790763406590500,8.911590576171875,-3.9192034882575273,-0.7798471856489777,-0.27760025906711816
1772790763416655600,8.921655517578126,0.0114677349537611,0.4926540455892682,-0.8521770933225751
1772790763426720300,8.93172021484375,3.5279765577495095,1.4412912792354822,-1.6060804210282862
1772790763436785400,8.941785400390625,6.115156950742006,2.368975156702101,-2.028226221413165
1772790763446850600,8.9518505859375,7.788654811352491,3.665075874714553,-1.9118791850976644
1772790763456915500,8.96191552734375,8.679872998470067,4.932463416200876,-1.8773769037760792
1772790763466980400,8.97198046875,9.180626471623778,5.875580717381835,-1.837961569841206
1772790763477045500,8.98204541015625,9.755685536438227,6.579318184557557,-1.674132797513157
1772790763487110400,8.9921103515625,10.493505305957793,7.114881105285883,-1.5159018451921642
1772790763497175600,9.002175537109375,11.419238341617584,7.550819868701696,-1.3791155396990478
1772790763507240400,9.012240478515626,12.593588410705328,7.818292993769049,-1.2624332800798117
1772790763517305300,9.022305419921874,13.738349981737136,8.017107008630036,-1.1333423513948917
1772790763527367400,9.032367431640624,14.491101947450638,8.178727895650267,-0.9685907651335001
1772790763537432300,9.042432373046875,14.539425541114806,8.09556095214188,-0.9442172252468765
1772790763547497200,9.052497314453126,14.028278684240579,7.827060237592458,-0.8883984535217284
1772790763557562400,9.062562255859374,13.282065180385112,7.379937816861271,-0.9985062301214784
1772790763567627300,9.072627197265625,12.51368543742895,6.932551776757836,-1.1745962258685378
1772790763577692200,9.082692138671876,11.764321360588074,6.666461045959592,-1.0650688795052468
1772790763587757300,9.09275732421875,10.923781221306323,6.344810340502858,-0.7539262701898812
1772790763597822200,9.102822265625,9.971937592834234,5.6956414988607165,-0.38621933147907256
1772790763607887400,9.112887451171876,9.00240340937078,4.876092125159501,0.12985840592607856
1772790763617952300,9.1229521484375,7.998896813678741,4.048483948165178,0.7053622918985784
1772790763628017200,9.13301708984375,6.785736244681477,3.1564246340483426,1.080369032228738
1772790763638082300,9.143082275390626,5.294971617224812,2.371269697380066,1.252438540288061
1772790763648147500,9.1531474609375,3.607964286699891,1.9866186381310222,1.4025466841690242
1772790763658212000,9.163212158203125,1.993033181348443,2.054566969719529,1.8019085519462823
1772790763668277200,9.17327734375,0.19492226811945437,1.9649264462828635,2.1833340732775626
1772790763678342400,9.18334228515625,-1.8164695767402648,1.43439450545907,2.199929964900017
1772790763688408000,9.193407958984375,-3.3499119009286162,0.8250795352995395,1.7352385697305202
1772790763698473200,9.20347314453125,-4.323820646214485,0.19394845465123653,1.0099418894365428
1772790763708538400,9.213538330078125,-5.12169770181179,-0.7754629792153834,0.16565101931914686
1772790763718603000,9.22360302734375,-6.416064143377542,-2.2417121740967034,-0.7333266958840191
1772790763728668200,9.233668212890626,-8.356749297851323,-3.7859108700990673,-1.010086120212823
1772790763738733300,9.2437333984375,-11.239892997336387,-5.2802603703051805,-0.9374513843737542
1772790763748798200,9.253798095703125,-14.724530764096974,-6.87433690367639,-0.9399584718238562
1772790763758863000,9.263863037109376,-17.412962038820982,-7.9841276990920305,-1.0574766708105803
1772790763768928300,9.27392822265625,-18.105053491866588,-7.253293550676107,-0.8993445757541805
1772790763778993200,9.2839931640625,-16.79860732092857,-5.570481918275356,-0.8728811509162187
1772790763789058300,9.294058349609376,-13.950920719271897,-5.495459702777862,-2.141218248212337
1772790763799123200,9.304123291015625,-10.717353808832168,-7.499851313486695,-4.3992093569368125
1772790763809188000,9.31418798828125,-7.8607900732368226,-9.231979057720302,-5.617651665729284
1772790763819253200,9.324253173828126,-6.406984180343151,-9.17483970491588,-4.601601522545516
1772790763829319200,9.334319091796875,-6.407810694295168,-7.840356941539048,-2.0571210381165144
1772790763839384300,9.34438427734375,-7.5322911093205205,-6.587726531940699,0.8089997034404426
1772790763849449200,9.35444921875,-8.561799576753378,-5.500903355136513,2.834087407632172
1772790763859514000,9.36451416015625,-8.083475377550721,-4.039203494122624,3.7768633480295537
1772790763869579300,9.374579345703125,-6.01054097649157,-2.416625673410296,4.150073268070817
1772790763879644200,9.38464404296875,-2.68788416223526,-1.2607044104605913,3.8618914092347025
1772790763889709300,9.394709228515625,0.7427075415611266,-0.42735038329064845,2.955335075470805
1772790763899774200,9.404774169921875,3.569175414100289,0.7501473361730575,2.217406292618811
1772790763909839000,9.414839111328124,5.417499680262804,2.092646817266941,1.7627680894300342
1772790763919904300,9.424904296875,6.138005911409855,3.348459948554635,1.2991821712844074
1772790763929969400,9.434969482421875,5.908714340698719,4.727601353347302,1.0354385881341994
1772790763940034000,9.445033935546874,5.436652124500275,6.152621881261467,1.1806086180258542
1772790763950099200,9.45509912109375,5.429511605095863,7.008042778810858,1.182808246961981
1772790763960164400,9.465164306640625,6.0416170827567575,7.131655129954218,0.8335573677223175
1772790763970229200,9.475229248046874,7.390164611843228,6.8660834545940155,0.47781698033288117
1772790763980295200,9.485295166015625,8.898008384394645,6.524734945976734,0.16184147096835075
1772790763990360300,9.4953603515625,10.021838226556778,6.235228852799534,-0.0756473799248226
1772790764000425200,9.50542529296875,10.651807862210273,5.9220005232512944,-0.2695092705374583
1772790764010490000,9.515489990234375,10.750248362696171,5.552842801210284,-0.41892862843666223
1772790764020555300,9.52555517578125,10.29045175383091,5.218001190268993,-0.5115741423755884
1772790764030620400,9.535620361328125,9.423087320509552,4.9823552820950745,-0.38655612568538633
1772790764040685000,9.54568505859375,8.326526009023189,4.765976384449005,-0.09469997138385661
1772790764050750200,9.555750244140626,7.225402504187822,4.439633721783757,0.16371177661856637
1772790764060815400,9.5658154296875,6.426368679770827,4.124200575667619,0.466263612922281
1772790764070880300,9.57588037109375,6.04457827064991,3.793514915362,0.7794538024172186
1772790764080945200,9.585945068359376,5.959755376628041,3.448250694605708,0.9116679776892066
1772790764091010300,9.59601025390625,5.9572016004920005,3.2136604329645633,1.0174993190787731
1772790764101075200,9.6060751953125,5.828146766033768,3.0472113951355215,1.1236307393934577
1772790764111140400,9.616140380859376,5.452450582134723,2.9455858348727224,1.195511441994831
1772790764121205200,9.626205322265625,4.860142860877514,2.889965069937706,1.3028792722366749
1772790764131270100,9.636270263671875,4.2434529780358075,2.890179589471221,1.435265735335648
1772790764141336300,9.64633642578125,3.4396909560531377,2.7377134842872617,1.3331662739507852
1772790764151401200,9.656401123046875,2.3217910884618758,2.379068972954154,1.2186273099705576
1772790764161466400,9.66646630859375,0.982078607738018,1.6903420279055832,1.1405790246501564
1772790764171531300,9.67653125,-0.7150754382699728,0.46244624659121036,0.6497581858374178
1772790764181596200,9.68659619140625,-2.5577462087154386,-1.764209812670946,-0.9581810878653079
1772790764191661300,9.696661376953125,-3.8193683185428378,-4.44080276556313,-3.1553897380426523
1772790764201726200,9.706726318359374,-4.727314937621355,-5.6850669133543965,-4.6659696575596925
1772790764211791400,9.716791259765625,-6.750766053587198,-4.589384138268232,-4.12757618958056
1772790764221856300,9.726856201171875,-12.023465633249282,-5.860394838687777,-4.902968149386346
1772790764231921200,9.736921142578124,-16.60905505540967,-11.07401386834979,-8.159005542570352
1772790764241986300,9.746986328125,-16.954088974541424,-10.623640921390056,-6.961009224957228
1772790764252051500,9.757051513671875,-15.200501093649864,-7.337527246633171,-3.6831568903282284
1772790764262116000,9.7671162109375,-12.123756730037927,-8.585925717750191,-3.593670388409495
1772790764272181200,9.77718115234375,-8.57598826110363,-10.17795467094183,-3.09829685472846
1772790764282246400,9.787246337890625,-8.07991622376442,-9.59929670485258,-0.917162337321788
1772790764292312000,9.79731201171875,-10.072849451869725,-7.552235580718516,2.0075177799053487
1772790764302377200,9.807377197265625,-12.112175013315676,-5.007034965321421,4.377310536600649
1772790764312442400,9.8174423828125,-12.329638199067116,-2.8281121326148506,5.576662652736902
1772790764322507300,9.82750732421875,-10.093726235681771,-0.9724678988277912,5.6130789509862655
1772790764332572200,9.837572265625,-6.1741691116809845,0.42060207807421685,4.5630444128751755
1772790764342637300,9.84763720703125,-1.6778893735677003,1.1384452274918555,3.2242791498735546
1772790764352702200,9.8577021484375,2.2756495150119065,1.0239943801864981,1.6880262983091174
1772790764362767000,9.86776708984375,5.791876598256826,0.8667512698590755,1.1973331775292753
1772790764372832300,9.877832275390626,8.035038386639952,1.1333692394018173,1.7313377628996967
1772790764382897200,9.887897216796874,8.049667215973138,1.3056988597020507,1.9835713793896137
1772790764392962300,9.89796240234375,7.1979761526018375,1.4423720602095127,2.3418314214497804
1772790764403027200,9.908027099609376,6.442164214795827,1.447968272781372,2.536046418082714
1772790764413092000,9.918092041015624,6.115267425379157,1.3896703975915907,2.3235806022271515
1772790764423157200,9.9281572265625,6.49656157541573,1.620352545878291,2.114463512277603
1772790764433222400,9.938222412109376,7.358733116269112,1.9926617176875472,1.8147785549134015
1772790764443288300,9.948288330078125,8.283934237009287,2.243902669878304,1.367151691791415
1772790764453353200,9.958353271484375,9.031734717795253,2.3522826728373762,0.9120738550763576
1772790764463418400,9.96841845703125,9.311783246797322,2.3650667510867116,0.4520286052122712
1772790764473483300,9.978483154296875,8.984314210450648,2.285809674498439,0.28846805536635217
1772790764483548200,9.988548095703125,8.110953167062997,2.191828199248016,0.22641177749112248
1772790764493613300,9.99861328125,7.191045476555824,2.1821023395255206,0.31126075580231843
1772790764503678200,10.00867822265625,6.444607516294718,2.2137086071446537,0.5171543536607176
1772790764513743000,10.0187431640625,5.868088315799832,2.2108821515470742,0.7255266165923326
1772790764523812400,10.028812255859375,5.3161862546890974,2.1877669411584733,0.9978704164359719
1772790764533877200,10.038877197265625,4.9453456941276785,2.04034409083873,1.0950568982727824
1772790764543942400,10.0489423828125,4.7637540322244165,1.7102549351215361,1.0040805961877106
1772790764554007300,10.05900732421875,4.585604035207629,1.2532178540974854,0.6918696269884705
1772790764564072400,10.069072509765626,4.51531001727581,0.6815151139736175,0.26742607105523347
1772790764574137300,10.079137451171874,4.376913353976607,0.023232407027482985,-0.09869345233365892
1772790764584203500,10.08920361328125,3.4068191985428333,-0.8527385265976191,-0.3094766853971407
1772790764594268400,10.099268310546876,1.862269789406657,-2.182120167443156,-0.4341248093290254
1772790764604333300,10.109333251953124,1.004555812484026,-3.8400831897914407,-0.8485871790718287
1772790764614398500,10.1193984375,-0.22764964872300625,-5.908800265416502,-1.6352200062729418
1772790764624463400,10.12946337890625,-2.4952263319164514,-7.797612609311938,-2.5110616144299507
1772790764634528500,10.139528564453125,-5.292266449919342,-8.546462306889891,-2.9203412112399936
1772790764644593400,10.149593505859375,-8.177504491335153,-7.9125027248173945,-2.232562945218384
1772790764654658300,10.159658203125,-10.949812319141627,-7.763661239871382,-1.6876523504301906
1772790764664723500,10.169723388671875,-12.953830420362948,-8.30513543047011,-2.0733654859527944
1772790764674788400,10.179788330078125,-14.098469241797924,-8.201765072366594,-2.905996459545195
1772790764684853200,10.189853271484376,-14.292235910141468,-6.660957187846303,-2.776328169363737
1772790764694918400,10.19991845703125,-13.934992497777937,-4.608772144827246,-1.6750553191855548
1772790764704983600,10.209983642578125,-12.647661361676453,-3.1901082924634214,-0.4919224433790892
1772790764715048200,10.220048095703126,-10.5802530305624,-2.841011946198344,-0.30593649203963574
1772790764725113300,10.23011328125,-8.081182298177481,-3.197052997034788,-0.6873832753546536
1772790764735179500,10.240179443359375,-6.303983240073919,-3.379985552152991,-0.5905149195563048
1772790764745244200,10.250244140625,-5.652238994985819,-3.1032553539186716,0.12869507950143888
1772790764755309300,10.260309326171875,-5.076466228944063,-2.3089900590777397,1.2290404213048518
1772790764765374500,10.27037451171875,-4.091424095225334,-1.2418395509928464,2.2430020677767692
1772790764775439400,10.280439453125,-3.0166011528164147,-0.4342454035013914,2.6703166491016743
1772790764785504300,10.290504150390625,-1.8713690416634081,-0.18562018676698205,2.427700317393243
1772790764795569400,10.3005693359375,-0.4766606499046087,-0.10476152020096778,1.949928052984923
1772790764805634300,10.31063427734375,0.9632453124523163,0.3930868791610002,1.5993138495028019
1772790764815699500,10.320699462890625,2.4599381609141826,1.1724112099796533,1.388192287863046
1772790764825764400,10.330764404296875,3.9179128639250993,1.8895225379914045,1.425341284301132
1772790764835829200,10.340829345703124,4.7251323328852655,2.1738801623642443,1.4863858278505504
1772790764845894400,10.350894287109375,4.975319976630806,2.057254601368308,1.4458515728883445
1772790764855959300,10.360959228515625,4.9908413708895445,1.9364298351168632,1.4930033462941645
1772790764866024200,10.371024169921874,4.967362880146503,1.8744500565439461,1.6053940461993217
1772790764876090400,10.38109033203125,5.022286894989014,1.8713427381783723,1.8421043687343597
1772790764886155300,10.3911552734375,5.40657671971023,1.9735218406707047,2.241057363449782
1772790764896220400,10.401220458984374,6.456236579290032,2.36415548146069,2.8782380995258685
1772790764906285300,10.411285400390625,7.419677122053503,2.839371193253994,3.441623969942331
1772790764916350500,10.4213505859375,7.851315557926893,3.0331033748060463,3.747686645644903
1772790764926415400,10.431415283203124,8.031320242899655,2.9000387201845643,3.8932662061855194
1772790764936480300,10.441480224609375,8.074557327079772,2.7811352773845193,3.9605502286463974
1772790764946545400,10.45154541015625,7.979996298375725,2.80935131804347,4.062575894142687
1772790764956610600,10.461610595703124,7.535886503463983,3.084363606444001,3.810729961796105
1772790764966675200,10.47167529296875,7.0249138341128825,3.5049551631242033,4.525040553173422
1772790764976740400,10.481740234375,6.535810466742515,3.712737497338652,5.070156315144896
1772790764986805500,10.491805419921874,6.332670989897847,3.7794331985175607,5.170313556420803
1772790764996870400,10.501870361328125,6.354642583209276,3.6570085958540437,5.1497126669406885
1772790765006935300,10.511935302734376,6.291047770655155,3.4106752894490957,4.956977679732441
1772790765017000400,10.52200048828125,6.018443127918243,2.8921698865056036,4.296308662171661
1772790765027066400,10.53206640625,5.382587941357493,2.3297353254646063,3.2824110208466646
1772790765037131300,10.54213134765625,4.294920130422711,2.2045067712962627,2.618173497149348
1772790765047196400,10.552196533203125,3.5087037020027636,2.31564717887938,2.314595331738889
1772790765057261600,10.562261474609375,2.915539071655273,2.312359827771783,1.7679548444181679
1772790765067326200,10.572326171875,2.0709353361964227,1.9452210443377493,1.0788429917052387
1772790765077391400,10.582391357421875,0.9147592217028141,1.1934838086247443,0.4316542179644108
1772790765087456500,10.59245654296875,-0.21083412300050258,0.44433834297060965,-0.07877250794172287
1772790765097521400,10.602521484375,-1.1370762772262095,0.15363748705089092,-0.7444093770429492
1772790765107586300,10.61258642578125,-2.153854442423582,-0.1247638592660427,-2.102343450894952
1772790765117651500,10.6226513671875,-2.880846528458595,-0.8182289387524128,-3.644446928183734
1772790765127716400,10.63271630859375,-3.773474582374096,-1.6018863303393125,-4.6800277012675995
1772790765137781500,10.642781494140625,-5.213283514097332,-2.293170558655262,-4.938054368075728
1772790765147846400,10.652846435546875,-6.5868327979713674,-2.7730414027780292,-4.755931083513796
1772790765157911300,10.662911376953126,-7.712454199725389,-2.9417852735459804,-4.029459514221549
1772790765167977200,10.672977294921875,-8.958037028899788,-3.0424896273106334,-2.8531676634162664
1772790765178042400,10.68304248046875,-8.72824627649486,-3.6223598917990922,-1.9329802791848778
1772790765188107300,10.693107177734374,-7.424111889630556,-4.758239652717113,-1.8147928756996987
1772790765198172400,10.70317236328125,-7.0064365126579995,-6.208840027567744,-2.231348893253505
1772790765208237300,10.7132373046875,-6.7245765503197905,-7.543833663076162,-2.344216124629229
1772790765218302200,10.72330224609375,-6.154306473347544,-7.575565018379688,-1.85270131220296
1772790765228367400,10.733367431640625,-5.651319542053342,-6.33104192739129,-1.008842988283932
1772790765238432500,10.7434326171875,-4.559877473276853,-4.219570582666993,-0.15883542102016507
1772790765248497400,10.753497314453124,-3.2292040390551087,-1.939434277629852,0.13322612879350781
1772790765258562300,10.763562255859375,-2.826767147746682,-0.2990577653765678,0.5181766093805432
1772790765268627500,10.77362744140625,-3.9863890187799926,0.48719724148809906,1.5566428747728467
1772790765278692600,10.783692626953124,-5.241335888627171,1.0085627100378274,1.9989903361871837
1772790765288757200,10.79375732421875,-5.514253835096955,1.8355206064298748,1.6441424406580627
1772790765298822400,10.803822509765626,-4.800496493688225,2.6838585599809885,1.213550883489102
1772790765308888300,10.813888427734375,-3.143727065038681,3.2609862477630376,1.013898371977359
1772790765318953200,10.823953125,-0.9964327117830515,3.2446900697395202,0.6380452439509332
1772790765329018400,10.834018310546876,0.991881039828062,2.577335290804505,0.43038215220198034
1772790765339083500,10.84408349609375,3.2587773395419117,1.4239008762344718,0.043627983193844554
1772790765349148200,10.854148193359375,5.298745290544629,0.70093439245373,-0.5778551252737641
1772790765359213300,10.86421337890625,6.764120625200867,-0.14661708689481018,-0.7063358131058514
1772790765369278500,10.874278564453125,7.3843369286030525,-1.0881053255692124,0.016388751677796243
1772790765379343400,10.88434326171875,9.017580520236491,-0.40226299604624505,0.03626146616396727
1772790765389408300,10.894408203125,9.525856205588578,0.9561185293123126,0.6035149786438793
1772790765399473400,10.904473388671875,8.35459299660027,1.0130495000630617,2.1028740506403145
1772790765409538300,10.914538330078125,5.694300021123886,0.904895414814353,3.294292012776434
1772790765419603500,10.924603515625,4.8355572856754065,0.0373398428350687,3.3007404582634567
1772790765429668400,10.93466845703125,4.9826913821816445,-0.2699909531071782,2.2268017513431606
1772790765439733200,10.944733154296875,5.166247622156143,0.3901622238859534,0.8479495387554168
1772790765449799400,10.95479931640625,5.517571581342816,0.8043392373487352,-0.061103598526585846
1772790765459864300,10.9648642578125,5.661017929247022,1.1018038883149623,-0.38418599902056155
1772790765469929500,10.974929443359375,5.535917385372519,1.4162477311328052,-0.3382891210466623
1772790765479994400,10.984994384765624,5.314070869970322,1.4369862755179403,-0.31005839427523313
1772790765490059300,10.995059326171875,5.180289006990194,1.1287293046414852,-0.3051318793921731
1772790765500124400,11.00512451171875,5.221910472667217,0.7562479911357164,-0.058271553438436235
1772790765510189300,11.015189208984374,5.220322326692939,0.39712680220156904,0.36737467454914
1772790765520254500,11.02525439453125,3.2915129034519195,0.3599196458354592,0.2684852064530365
1772790765530319400,11.0353193359375,1.370341427743435,0.30019524497389793,0.5270097215143963
1772790765540384500,11.045384521484374,-0.21926877386868,0.012306231604516505,1.121025013874471
1772790765550449700,11.05544970703125,-1.8570885873764753,-0.5123500951841473,0.8473953389387577
1772790765560514600,11.0655146484375,-2.488507837316394,-1.0936457163006066,0.07120824669990689
1772790765570579500,11.075579345703124,-3.4895793148159977,-1.9398212311208247,-0.44851047755610196
1772790765580644600,11.08564453125,-6.1156806823551655,-2.357382334063947,-0.6671345603130757
1772790765590710500,11.09571044921875,-8.485662093490362,-2.2752570085629817,-0.527346807981655
1772790765600775400,11.105775390625,-8.792130427384375,-2.150152080774307,-0.28204731987016274
1772790765610840600,11.115840576171875,-8.697166663098335,-2.350916352920234,0.036226401700451966
1772790765620905500,11.125905517578126,-8.523900346469878,-2.4604905340999363,0.9048237378176301
1772790765630970400,11.135970458984374,-7.666020365330576,-2.16753839212209,0.7129096385382115
1772790765641035500,11.146035400390625,-7.854095544034243,-2.5468565659105775,-0.8395859072968364
1772790765651100400,11.156100341796876,-10.204854368305206,-3.0759540900170803,-2.1646037999749184
1772790765661165600,11.16616552734375,-11.2979453733325,-2.848307948425412,-1.8058707335755229
1772790765671230500,11.17623046875,-9.991887324929237,-3.1650685437530277,-1.72019736020416
1772790765681295400,11.18629541015625,-7.91646519870758,-3.8146336912363767,-2.5441525676488874
1772790765691360500,11.196360595703124,-6.309420462691784,-3.7885645994782444,-2.9720430491656065
1772790765701425700,11.20642578125,-4.937000475108623,-3.335420141978562,-2.9129519777715203
1772790765711490300,11.216490234375,-3.4518484268367287,-2.3013345758885144,-3.050327189068496
1772790765721555500,11.226555419921874,-1.8746213214576244,-1.6524188322246074,-2.8945202490240334
1772790765731621400,11.236621337890625,-0.832478997901082,-1.5706547412514686,-2.5299033852830526
1772790765741686500,11.2466865234375,0.08378536766767501,-1.6698744094163178,-2.452104398548603
1772790765751751400,11.25675146484375,0.6681336543530225,-1.5960791053652763,-2.23585321893543
1772790765761816600,11.266816650390625,0.9553519288539886,-1.4036810950264333,-1.6686401914462445
1772790765771881500,11.276881591796876,1.277982292997837,-0.4854831310465932,-0.8311307981625199
1772790765781946400,11.2869462890625,1.61084295925498,0.9554179798275232,-0.31797377050966025
1772790765792011500,11.297011474609375,2.462948448646068,1.4540937699243426,0.5437823214106261
1772790765802076700,11.30707666015625,4.361771314424276,1.6639637240678071,0.817205587054044
1772790765812141300,11.317141357421875,5.182150124686956,1.8952149044141173,0.8492625210501253
1772790765822206500,11.32720654296875,5.461348174339532,1.8428946423292158,0.7776461684733629
1772790765832271600,11.337271728515624,5.928796174740791,1.451750421668589,0.6517670414417982
1772790765842336500,11.34733642578125,6.500835599473119,1.1884803012490273,0.48862376715987915
1772790765852401400,11.3574013671875,6.926608942705393,1.193840366977453,0.3132420292800292
1772790765862466600,11.367466552734374,7.114886950504779,1.0305378104805947,0.11057004208294674
1772790765872532500,11.377532470703125,7.201261165621876,0.7901423696920276,-0.06353610463682562
1772790765882597400,11.387597412109375,6.927212753817439,0.5952323765322566,-0.3495518349476158
1772790765892662500,11.39766259765625,6.870100873541832,0.5087742825239896,-0.3038557402428239
1772790765902727700,11.407727783203125,6.725548610222339,0.39705402922630306,-0.23414741324447094
1772790765912792300,11.417792236328125,6.501089866495132,0.3439166055396199,-0.3253296131651848
1772790765922857500,11.427857421875,6.279172039422392,0.438142118678987,-0.4769684737447649
1772790765932922600,11.437922607421875,5.975103167885542,0.5106587810963392,-0.6305985812067986
1772790765942987500,11.447987548828126,5.1655783445924515,0.4036962437197566,-1.0082759289857
1772790765953052400,11.458052490234374,4.526821006849408,0.21759850256890056,-0.8189882326871156
1772790765963117600,11.46811767578125,4.452257056513428,0.2150374199092388,-0.42262269718162715
1772790765973182500,11.478182373046875,3.4790187578350302,0.4233773880064487,-0.3102717447649687
1772790765983247600,11.48824755859375,2.2728145838469267,0.9286091756179928,-0.3902783976115286
1772790765993312500,11.4983125,1.1438327657490968,1.387508543382585,-0.5655800194598734
1772790766003377400,11.50837744140625,0.6705997522056102,1.1479831634268165,-0.7214435850623995
1772790766013443600,11.518443603515625,0.40511926226019856,-0.23478666099607942,-0.4756508152749389
1772790766023508500,11.528508544921875,-1.1790525476902722,-1.5442694231510161,0.06117693775743246
1772790766033573400,11.538573486328126,-3.9656139417767524,-1.8997794358506797,0.3662092474989593
1772790766043638500,11.548638427734375,-5.921529398608207,-1.55446406942904,0.2840352970832959
1772790766053703400,11.558703369140625,-6.494024165892601,-1.1379355244040488,0.1115421933170408
1772790766063768300,11.568768310546876,-6.551204435229301,-1.121407583451271,0.34944724206198
1772790766073833500,11.57883349609375,-6.67813862427175,-1.3469880246847867,0.45416667668689037
1772790766083898600,11.588898681640625,-6.5625675407648085,-1.3562848453402518,0.45981553276143966
1772790766093963300,11.59896337890625,-6.466835130193829,-1.649010485085845,0.7838353785023092
1772790766104028400,11.6090283203125,-6.863213452115654,-2.4029826402440664,1.2506778142258523
1772790766114093600,11.619093505859375,-7.081736960574984,-3.1739369098633525,1.6432083746783435
1772790766124158500,11.629158447265626,-7.007006421500444,-4.015388026510179,1.8337649949342012
1772790766134223400,11.639223388671875,-7.198724340620637,-4.70174531981796,1.638972782935202
1772790766144288500,11.64928857421875,-7.43275696837902,-5.015446819835901,1.2813999924868344
1772790766154354700,11.659354736328124,-7.4760133417814965,-4.800336042429507,1.0753065612073986
1772790766164419300,11.66941943359375,-7.45989339710772,-4.146685963720083,0.6784123987179249
1772790766174484500,11.679484375,-7.286240711510181,-3.2610937997907397,0.0016160386282019316
1772790766184549600,11.689549560546874,-6.797505008408427,-2.2227558369532225,-0.4181173851190135
1772790766194614500,11.699614501953125,-6.0402341039657585,-1.2951704514250157,-0.6480871108200401
1772790766204679400,11.709679443359375,-4.980321145918965,-0.6695753775939345,-0.7589056660376489
1772790766214744600,11.71974462890625,-3.8559360079616307,-0.1331862351745367,-0.7771588964130729
1772790766224809500,11.7298095703125,-2.4899177041143177,0.2303577386379242,-0.580686257046461
1772790766234874400,11.739874267578125,-0.8726642932951449,0.46583676581233735,-0.2575887685812078
1772790766244939500,11.749939453125,0.6470353367447853,0.560098519308865,-0.0532152381632477
1772790766255004400,11.76000439453125,1.8870821591019629,0.5294488217622041,0.1461972540475428
1772790766265069600,11.770069580078125,2.8870559044927355,0.5670303643986583,0.2753808659845963
1772790766275134500,11.780134521484374,3.7386481836646794,0.8033341519594192,0.3469801578287035
1772790766285200600,11.79020068359375,4.488115136358141,1.2108297879621386,0.43897824070956554
1772790766295265500,11.800265625,5.130376098307967,1.7685630394443868,0.49868645762130615
1772790766305330400,11.810330322265624,5.692645824176073,2.350618246756494,0.420210156147182
1772790766315395600,11.8203955078125,6.200493639504909,2.824140014113486,0.33056846366673703
1772790766325460500,11.83046044921875,6.689018330204487,3.166489516466856,0.2519156731145456
1772790766335525600,11.840525634765624,7.162356557688117,3.3711060801267623,0.2626250639816746
1772790766345590500,11.850590576171875,7.5881562044054265,3.3286747593715784,0.22182046764548866
1772790766355655400,11.860655517578126,7.914857763510942,3.2012782135143873,0.10424311321689747
1772790766365720600,11.870720458984374,8.109447438675165,3.1673768206954,-0.018314185048732907
1772790766375785500,11.880785400390625,8.108304698380827,3.019822160689533,-0.08177298666564747
1772790766385850400,11.890850341796876,7.946166509488225,2.7703686764374376,-0.18550954773304984
1772790766395915500,11.90091552734375,7.693246810430288,2.5342972363278267,-0.3354638344928622
1772790766405980700,11.910980712890625,7.363700383287668,2.256147526684403,-0.4672999337000772
1772790766416045300,11.92104541015625,7.001214978617429,1.9050190900698303,-0.5493707890674472
1772790766426111500,11.931111572265625,6.619511078736186,1.641774104091525,-0.6939101929053664
1772790766436176600,11.9411767578125,6.0966749531120055,1.3429299814656377,-0.8985938304521143
1772790766446241300,11.9512412109375,5.298238510066271,0.8877525568336248,-0.9315062852989882
1772790766456306400,11.961306396484375,4.36868328576982,0.3683095807790756,-0.8171257998161018
1772790766466371600,11.97137158203125,3.306237594375014,-0.053638943468034266,-0.726972285356
1772790766476436500,11.9814365234375,2.122574338018894,-0.5843646532982587,-0.5946820491731166
1772790766486501400,11.99150146484375,0.9097042764008044,-1.588356402158737,-0.3978325027855113
1772790766496566500,12.00156640625,0.8530237732797861,-1.491896846356988,-0.42029520408213134
1772790766506631400,12.01163134765625,-0.5858171901941299,-2.767309581127763,-0.18904694634526967
1772790766516696600,12.021696533203125,-2.354741171905398,-3.9283752212285994,0.09108323305826634
1772790766526757400,12.03175732421875,-4.144923630222678,-4.560487714129686,0.4903857353311032
1772790766536822500,12.041822509765625,-5.876859066754579,-4.142853838211297,0.7821483021982014
1772790766546887400,12.051887451171876,-7.363681094065308,-2.870383586633205,0.9037509209543466
1772790766556952600,12.06195263671875,-8.184221232369541,-2.360359011787176,1.316232674806565
1772790766567017500,12.072017578125,-8.818443264770508,-2.2994284500062463,1.2688210814207792
1772790766577082400,12.082082275390626,-9.388820893770456,-2.388757423275709,1.1962338379852473
1772790766587147500,12.0921474609375,-9.533338085776567,-3.1427181802570816,1.7579904997646807
1772790766597212700,12.102212646484375,-9.260920490044354,-4.228239042291045,2.6414406832292676
1772790766607277300,12.11227734375,-9.31221579299569,-5.165872943624854,3.3458462589249014
1772790766617343500,12.122343505859375,-9.743046419617533,-5.995485446178913,3.40452173525542
1772790766627408400,12.132408447265625,-10.342138686448335,-6.236800047639012,2.7366926168069243
1772790766637473500,12.1424736328125,-10.274845019376277,-5.700638576495647,1.7136610903032123
1772790766647538400,12.152538330078125,-9.740289814385772,-4.96026269275248,0.2198651505929418
1772790766657603600,12.162603515625,-9.012425621691346,-3.874423266288638,-1.375833303157985
1772790766667668500,12.17266845703125,-7.744540944337844,-2.2194757923692463,-2.335582882449031
1772790766677733400,12.1827333984375,-5.854969891029596,-0.6038730713665486,-2.1071306851714846
1772790766687798500,12.192798583984375,-3.724181851416826,0.1677589513838291,-1.2402965593345463
1772790766697863700,12.20286376953125,-1.69954240244925,0.1533843890726566,-0.4502846110891551
1772790766707928300,12.21292822265625,0.2287795295357704,0.0020507950499653814,0.22578853102624416
1772790766717993500,12.222993408203125,1.930077835741639,0.4972960261762142,0.6077804540686309
1772790766728058600,12.23305859375,3.306101400774717,1.8433797954976558,0.5510306120384484
1772790766738123500,12.24312353515625,4.850755439329147,2.6095208196163178,0.11019161895830183
1772790766748188400,12.2531884765625,5.5260021405577655,3.0274332202151415,-0.3385607045296579
1772790766758254600,12.263254638671874,5.928539569631218,3.411722168153524,-0.42911110935285685
1772790766768319500,12.273319580078125,6.82498922766149,3.616863632470369,-0.4221908816356212
1772790766778384400,12.28338427734375,7.661745756751299,3.5570278801888224,-0.23612331642732023
1772790766788449500,12.293449462890624,8.424836161127686,3.3468922608464955,0.17020369592113418
1772790766798514700,12.3035146484375,8.888481262114643,2.9487708946496247,0.32109621337912975
1772790766808579300,12.313579345703126,9.4143282599926,2.8565482457652687,0.29952288040397684
1772790766818644500,12.32364453125,9.643544427379965,2.8538986080393194,0.07170804944820702
1772790766828709600,12.333709716796875,9.886633637297153,2.5077026593908665,-0.10160974163915962
1772790766838774500,12.3437744140625,9.888305369901657,2.1096859226122495,-0.003663052552193403
1772790766848839400,12.35383935546875,9.531327330476046,2.0497280052557585,0.08320479130074382
1772790766858904600,12.363904541015625,9.181320299106837,2.0563018306881187,0.07881780838817358
1772790766868969500,12.373969482421876,8.77925399467647,1.9882988463029265,0.0011945070141926408
1772790766879034600,12.38403466796875,8.3176102966398,1.7666519451260565,-0.01230011239098385
1772790766889100500,12.3941005859375,7.5812185140967365,1.5824916017785668,-0.05321299140723422
1772790766899165400,12.40416552734375,7.024968194648623,1.2106745974004267,-0.08972710574157536
1772790766909230600,12.414230712890625,6.527977288898826,0.5986059446185827,-0.0993434041423723
1772790766919295500,12.42429541015625,5.844998532113433,0.20516981362849473,-0.27833430896271016
1772790766929360400,12.4343603515625,4.918922966626286,-0.033738895733654496,-0.5761051032686606
1772790766939425500,12.444425537109375,3.7507442796498536,-0.5692702522799372,-0.41970436204951256
1772790766949490400,12.454490478515625,1.473442321255803,-1.5307330652296542,-0.09457226248411461
1772790766959555300,12.464555419921876,0.38800679941773414,-2.2732214110821483,0.04999636744828895
1772790766969620500,12.474620361328125,-1.5372925698757172,-2.758770885363221,0.2963730198046192
1772790766979685600,12.484685546875,-4.470409968319535,-2.976484831005335,-0.04426734967646189
1772790766989750300,12.494750244140626,-6.056006258115172,-2.88298237144351,-0.7980286659624427
1772790766999815400,12.5048154296875,-7.698665912869572,-2.280148579996824,-1.4833658955074847
1772790767009880600,12.514880615234375,-9.033052230134606,-1.6463029796928166,-1.5655943891219795
1772790767019945500,12.524945556640626,-9.677388829314708,-2.015501033744216,-1.0801567046523093
1772790767030011400,12.535011474609375,-10.096913049024343,-2.4922253965348005,-0.8862132184371352
1772790767040076500,12.54507666015625,-10.660459955221414,-2.0372277123838662,-0.6960653251126409
1772790767050141700,12.5551416015625,-10.790671558499335,-2.142550373598933,-0.105294969490543
1772790767060206300,12.565206298828125,-10.539822820496559,-2.8322248286306855,0.5246864661986008
1772790767070271500,12.575271484375,-10.099638090074063,-3.3997201801925896,1.2781293002530931
1772790767080336600,12.585336669921874,-9.625325464600325,-3.990699283194542,1.9934911542490124
1772790767090401500,12.595401611328125,-9.308349180695414,-3.7858266989469525,2.284797428715974
1772790767100466400,12.605466552734375,-8.728324602428078,-3.1452438993424177,1.5180995013669132
1772790767110532600,12.61553271484375,-7.4756006693273775,-2.5749142011374233,0.6844486832074821
1772790767120597500,12.625597412109375,-6.139771752038597,-1.78201318038702,0.11360621317476033
1772790767130662400,12.635662353515626,-4.510206556656956,-1.0082824317917227,-0.3058923789032735
1772790767140727600,12.6457275390625,-2.678597862973809,-0.7639356230288743,-0.6710475690383464
1772790767150792700,12.655792724609375,-1.0101800821065903,-0.9669844989806413,-0.9691038292221724
1772790767160857300,12.665857421875,0.48558162298500535,-1.12895346878618,-0.9972432975135743
1772790767170922500,12.675922607421874,1.8943138639211654,-1.1215744644507766,-0.9893062209039926
1772790767180987600,12.685987548828125,3.1572213373839855,-0.980170728290081,-1.0097590802155434
1772790767191052500,12.696052490234376,4.25378147982657,-0.6625654988318681,-1.1208853862080723
1772790767201117400,12.706117431640624,5.1319852870702745,-0.12129209150224923,-1.3083943823963402
1772790767211182600,12.7161826171875,5.895267999148368,0.5397153642326593,-1.4480441144965588
1772790767221247500,12.72624755859375,6.581343552905321,1.1605360632687807,-1.5502710016533732
1772790767231312600,12.736312744140625,7.2453756171584125,1.6091741492599247,-1.432560714160651
1772790767241378600,12.746378662109375,7.7899354988127945,1.8108374160721896,-1.2148179808154702
1772790767251443500,12.756443359375,8.362211070388556,1.9689429884478449,-1.037327324490249
1772790767261508400,12.76650830078125,8.918351499721407,2.087043590432405,-0.8605012695536017
1772790767271573500,12.776573486328125,9.363118881759046,1.654316482539475,-0.644374958429113
1772790767281638400,12.786638427734376,9.439127185684441,1.8079802730754018,-0.9484523785986005
1772790767291703600,12.79670361328125,8.687721373882889,2.244111344192922,-0.7038093633681536
1772790767301768400,12.8067685546875,8.986483955705165,2.2525366427108646,-0.8071515913557261
1772790767311833300,12.816833251953126,8.507824240937829,1.8147268247261643,-1.1222435958839951
1772790767321898500,12.8268984375,7.858665336167812,1.1685042656689881,-0.26418511637263
1772790767331963600,12.836963623046875,7.552567004629969,0.6504585891917347,0.2267284422248602
1772790767342028300,12.8470283203125,6.67825085247457,0.5269134580656886,0.06103599491678178
1772790767352093400,12.857093505859375,6.013503917950391,0.7020613506570458,-0.05125650531090796
