time,seconds_elapsed,z,y,x
1772790754559404000,0.064404052734375,0.25794366002082825,0.8278825283050537,-0.2335570901632309
1772790754569469000,0.074468994140625,0.30224481225013733,0.7958276271820068,-0.2873800992965698
1772790754579534000,0.0845341796875,0.33716604113578796,0.7257444262504578,-0.3482133746147156
1772790754589599200,0.09459912109375,0.37570518255233765,0.6462602615356445,-0.43821755051612854
1772790754599663900,0.104663818359375,0.4316169023513794,0.5878352522850037,-0.5835428237915039
1772790754609729000,0.11472900390625,0.4829530715942383,0.5434685945510864,-0.7264800071716309
1772790754619795200,0.124795166015625,0.5248262286186218,0.4722362458705902,-0.784747838973999
1772790754629859800,0.13485986328125,0.5596680641174316,0.5367259979248047,-0.7953634262084961
1772790754639925000,0.144925048828125,0.5770609378814697,0.7329887747764587,-0.7315546274185181
1772790754649990100,0.154990234375,0.5768558382987976,0.9180832505226135,-0.6195940375328064
1772790754660055000,0.165054931640625,0.5492420792579651,1.0504779815673828,-0.5063601136207581
1772790754670120000,0.175119873046875,0.5002833008766174,1.2110871076583862,-0.3831995725631714
1772790754680185000,0.18518505859375,0.4480893611907959,1.3169488906860352,-0.28743496537208557
1772790754690250000,0.19525,0.42351317405700684,1.3147459030151367,-0.21192529797554016
1772790754700315000,0.20531494140625,0.5714091658592224,1.0235244035720825,-0.10973315685987473
1772790754710380000,0.215380126953125,0.7493991255760193,0.6759414672851562,-0.02437404915690422
1772790754720445000,0.22544482421875,0.7677752375602722,0.676863431930542,-0.03419046103954315
1772790754730510000,0.235510009765625,0.6486698985099792,0.900861382484436,-0.1233842521905899
1772790754740575000,0.245574951171875,0.5063084363937378,1.0551739931106567,-0.21941012144088745
1772790754750639900,0.255639892578125,0.4109971225261688,1.025575876235962,-0.2849755585193634
1772790754760705000,0.265705078125,0.36741235852241516,0.8433346748352051,-0.30587682127952576
1772790754770770200,0.275770263671875,0.3270750641822815,0.5629402995109558,-0.268017053604126
1772790754780835000,0.2858349609375,0.2615967094898224,0.25581684708595276,-0.2013368457555771
1772790754790900000,0.29589990234375,0.1742711365222931,-0.005142563953995705,-0.15321725606918335
1772790754800965000,0.305965087890625,0.07840532809495926,-0.18265290558338165,-0.13321158289909363
1772790754811030300,0.3160302734375,-0.008685367181897163,-0.2628635764122009,-0.1532611846923828
1772790754821095000,0.326094970703125,-0.07232852280139923,-0.269880473613739,-0.21067841351032257
1772790754831160000,0.33616015625,-0.11294998973608017,-0.24555464088916779,-0.2746656537055969
1772790754841225200,0.34622509765625,-0.13648220896720886,-0.23065611720085144,-0.3285405933856964
1772790754851290000,0.3562900390625,-0.1355397254228592,-0.22674472630023956,-0.3732641339302063
1772790754861355000,0.36635498046875,-0.095002681016922,-0.23899739980697632,-0.38865187764167786
1772790754871421200,0.376421142578125,-0.05337534099817276,-0.24478578567504883,-0.38499322533607483
1772790754881485800,0.38648583984375,-0.040456078946590424,-0.22858284413814545,-0.3700829744338989
1772790754891551000,0.396551025390625,-0.06339655071496964,-0.19213642179965973,-0.32658451795578003
1772790754901616000,0.4066162109375,-0.09063109755516052,-0.1726790964603424,-0.22946035861968994
1772790754911681000,0.416680908203125,-0.11527971923351288,-0.1404372751712799,-0.0690443143248558
1772790754921746000,0.426745849609375,-0.12188329547643661,-0.08145783841609955,0.09170888364315033
1772790754931811000,0.43681103515625,-0.09862244874238968,-0.0357513390481472,0.2249596118927002
1772790754941876000,0.4468759765625,-0.04332137480378151,-0.05273431912064552,0.3245519697666168
1772790754951941000,0.456941162109375,0.030587470158934593,-0.12417787313461304,0.39925363659858704
1772790754962006000,0.467006103515625,0.1310030221939087,-0.19089378416538239,0.46709713339805603
1772790754972071000,0.47707080078125,0.26684659719467163,-0.267417848110199,0.5186045169830322
1772790754982136000,0.487135986328125,0.4127231240272522,-0.32651180028915405,0.570399284362793
1772790754992201200,0.497201171875,0.5768577456474304,-0.39937642216682434,0.6148221492767334
1772790755002265900,0.507265869140625,0.7426192760467529,-0.5026487708091736,0.6693636775016785
1772790755012331000,0.5173310546875,0.8877655267715454,-0.574639081954956,0.7355387210845947
1772790755022396200,0.527396240234375,0.9748631715774536,-0.5554368495941162,0.8078033328056335
1772790755032460800,0.537460693359375,1.0164521932601929,-0.47905421257019043,0.8535814881324768
1772790755042526000,0.54752587890625,1.0413827896118164,-0.4208492338657379,0.8684315085411072
1772790755052591000,0.557591064453125,1.0367790460586548,-0.4242689907550812,0.8894409537315369
1772790755062656000,0.567656005859375,0.9947247505187988,-0.452452152967453,0.9498291611671448
1772790755072721000,0.577720947265625,0.9085991978645325,-0.44104263186454773,1.0231598615646362
1772790755082786000,0.5877861328125,0.8055098056793213,-0.38383448123931885,1.0661948919296265
1772790755092851000,0.597850830078125,0.6791462898254395,-0.34280502796173096,1.0927131175994873
1772790755102916000,0.607916015625,0.5353369116783142,-0.31433743238449097,1.1013734340667725
1772790755112982000,0.61798193359375,0.40624818205833435,-0.3329167068004608,1.0750044584274292
1772790755123047200,0.628047119140625,0.24822844564914703,-0.32252052426338196,1.0146510601043701
1772790755133112000,0.638112060546875,0.028719263151288033,-0.101502925157547,0.9079986214637756
1772790755143177000,0.648177001953125,-0.19309888780117035,0.12386282533407211,0.7803099155426025
1772790755153242000,0.6582421875,-0.3566332161426544,0.27237293124198914,0.6433044075965881
1772790755163307000,0.66830712890625,-0.4244929552078247,0.3674909174442291,0.5032349228858948
1772790755173372000,0.678371826171875,-0.4195629060268402,0.3996483385562897,0.3830310106277466
1772790755183437000,0.68843701171875,-0.38998985290527344,0.37377890944480896,0.273802250623703
1772790755193502000,0.698501953125,-0.34764131903648376,0.29887378215789795,0.1698681265115738
1772790755203567000,0.708567138671875,-0.3081085681915283,0.19854557514190674,0.06919478625059128
1772790755213632000,0.718632080078125,-0.2769959270954132,0.08825582265853882,-0.01750229485332966
1772790755223697000,0.72869677734375,-0.2549329698085785,0.01486656442284584,-0.07465533167123795
1772790755233762000,0.738761962890625,-0.2384330779314041,-0.023146597668528557,-0.09042444080114365
1772790755243827200,0.7488271484375,-0.24065148830413818,-0.04908871650695801,-0.05153270065784454
1772790755253891800,0.758891845703125,-0.25255101919174194,-0.10248935967683792,0.034273818135261536
1772790755263957000,0.76895703125,-0.2673187851905823,-0.16782894730567932,0.1384710669517517
1772790755274022100,0.779022216796875,-0.28213873505592346,-0.22237607836723328,0.23273365199565887
1772790755284087000,0.789087158203125,-0.2805379331111908,-0.23765303194522858,0.2976711094379425
1772790755294152000,0.79915185546875,-0.28075870871543884,-0.20138931274414062,0.3411075174808502
1772790755304217000,0.809217041015625,-0.2707209885120392,-0.12319517135620117,0.3722236454486847
1772790755314282000,0.819281982421875,-0.25033900141716003,-0.008458998054265976,0.3954613208770752
1772790755324347100,0.82934716796875,-0.21046695113182068,0.12264496088027954,0.40203797817230225
1772790755334412000,0.839412109375,-0.1508033573627472,0.25761184096336365,0.389766663312912
1772790755344477000,0.849476806640625,-0.0741591826081276,0.38374659419059753,0.34808847308158875
1772790755354542000,0.8595419921875,0.009698700159788132,0.48200711607933044,0.28081730008125305
1772790755364608000,0.86960791015625,0.08586457371711731,0.5205438733100891,0.20117118954658508
1772790755374673200,0.879673095703125,0.14214995503425598,0.5202407836914062,0.10286059975624084
1772790755384738000,0.889738037109375,0.20466658473014832,0.5065193772315979,0.0007797735743224621
1772790755394803000,0.899802978515625,0.2794385552406311,0.49588778614997864,-0.11066260188817978
1772790755404868000,0.9098681640625,0.3679870665073395,0.48939287662506104,-0.22689519822597504
1772790755414933000,0.91993310546875,0.45991140604019165,0.5212455987930298,-0.36131399869918823
1772790755424998100,0.929998046875,0.5386525392532349,0.5487560629844666,-0.4941151738166809
1772790755435063000,0.94006298828125,0.5974322557449341,0.5244736075401306,-0.6127454042434692
1772790755445128000,0.9501279296875,0.627255916595459,0.43361136317253113,-0.7008851170539856
1772790755455193000,0.960193115234375,0.6331992745399475,0.2930563688278198,-0.761748731136322
1772790755465258200,0.97025830078125,0.6170322895050049,0.13339747488498688,-0.7907489538192749
1772790755475323000,0.980322998046875,0.5800785422325134,-0.031800806522369385,-0.8059103488922119
1772790755485388000,0.990387939453125,0.5306311249732971,-0.17200052738189697,-0.8122574687004089
1772790755495453200,1.000453125,0.48344630002975464,-0.2506695091724396,-0.8246640563011169
1772790755505518000,1.01051806640625,0.43924421072006226,-0.2868488132953644,-0.8260489106178284
1772790755515583500,1.02058349609375,0.40076738595962524,-0.2788896858692169,-0.7833805680274963
1772790755525648600,1.030648681640625,0.39614999294281006,-0.2109852135181427,-0.7204647064208984
1772790755535713500,1.040713623046875,0.4329836368560791,-0.1738695353269577,-0.6637510657310486
1772790755545778400,1.0507783203125,0.44053396582603455,0.10240653157234192,-0.5728089213371277
1772790755555843600,1.060843505859375,0.48266011476516724,0.4546162486076355,-0.4983123242855072
1772790755565908500,1.070908447265625,0.5446678400039673,0.7742640376091003,-0.47794580459594727
1772790755575973600,1.0809736328125,0.5683470964431763,1.0921263694763184,-0.4844124913215637
1772790755586038500,1.09103857421875,0.4608893096446991,1.3960071802139282,-0.4656566381454468
1772790755596103400,1.101103515625,0.3226560652256012,1.5945583581924438,-0.38258466124534607
1772790755606169300,1.11116943359375,0.24292956292629242,1.7003588676452637,-0.27427443861961365
1772790755616234500,1.121234375,0.20013415813446045,1.748376727104187,-0.15618108212947845
1772790755626299400,1.13129931640625,0.09549802541732788,1.6825140714645386,0.0070219566114246845
1772790755636364500,1.141364501953125,-0.07770971208810806,1.509979248046875,0.2484779804944992
1772790755646429400,1.151429443359375,-0.20743201673030853,1.24591863155365,0.7517089247703552
1772790755656494300,1.161494384765625,-0.2867603898048401,0.9617540240287781,1.404154896736145
1772790755666559500,1.1715595703125,-0.1139228418469429,1.0283615589141846,1.893105387687683
1772790755676624600,1.181624755859375,0.13081926107406616,0.7562314867973328,2.3736612796783447
1772790755686689300,1.191689208984375,0.282919317483902,0.31474968791007996,2.7948360443115234
1772790755696754400,1.20175439453125,0.38960954546928406,-0.06984486430883408,2.9407546520233154
1772790755706819600,1.211819580078125,0.549016535282135,-0.39862728118896484,2.5115537643432617
1772790755716884500,1.221884521484375,0.7658622860908508,-0.26678454875946045,1.8072072267532349
1772790755726949400,1.231949462890625,0.9581443667411804,0.13494104146957397,1.1311877965927124
1772790755737014500,1.2420146484375,1.1079211235046387,0.4257614314556122,0.46744176745414734
1772790755747079700,1.25207958984375,1.1934916973114014,0.518608033657074,-0.013186109252274036
1772790755757144600,1.26214453125,1.2052791118621826,0.5119029879570007,-0.20206362009048462
1772790755767209500,1.27220947265625,1.181942343711853,0.6065818071365356,-0.1498052030801773
1772790755777274600,1.282274658203125,1.0966767072677612,0.7729300260543823,-0.038657646626234055
1772790755787339500,1.292339599609375,0.8297643065452576,0.7962167263031006,0.09457071125507355
1772790755797404400,1.302404296875,0.3972674608230591,0.7153990864753723,0.19761374592781067
1772790755807469600,1.312469482421875,-0.03780117630958557,0.7402599453926086,0.16979089379310608
1772790755817534500,1.322534423828125,-0.3987226188182831,0.9617116451263428,0.014902782626450062
1772790755827599600,1.332599609375,-0.6758967041969299,1.2449148893356323,-0.16962285339832306
1772790755837664500,1.34266455078125,-0.862378716468811,1.445635199546814,-0.34061136841773987
1772790755847730400,1.35273046875,-0.9635990262031555,1.5145039558410645,-0.49614691734313965
1772790755857795600,1.362795654296875,-0.9740117192268372,1.4311412572860718,-0.6348419189453125
1772790755867860500,1.372860595703125,-0.8935680389404297,1.180026650428772,-0.7528362274169922
1772790755877925400,1.38292529296875,-0.7648947238922119,0.8172919154167175,-0.8897229433059692
1772790755887990500,1.392990478515625,-0.6804339289665222,0.4197693169116974,-1.0703872442245483
1772790755898055700,1.4030556640625,-0.700034499168396,0.07971186935901642,-1.2905750274658203
1772790755908120300,1.413120361328125,-0.798344075679779,-0.14382560551166534,-1.5112448930740356
1772790755918185500,1.423185546875,-0.8891104459762573,-0.2780585289001465,-1.6824167966842651
1772790755928250600,1.433250732421875,-0.9080822467803955,-0.3432431221008301,-1.7592765092849731
1772790755938315300,1.443315185546875,-0.8330527544021606,-0.3546936511993408,-1.7254968881607056
1772790755948380400,1.45338037109375,-0.6803441643714905,-0.35097187757492065,-1.6106356382369995
1772790755958445600,1.463445556640625,-0.4823639690876007,-0.33057764172554016,-1.477695107460022
1772790755968510500,1.473510498046875,-0.26973533630371094,-0.2450355887413025,-1.3903311491012573
1772790755978575400,1.483575439453125,-0.08731120079755783,-0.10166670382022858,-1.347536325454712
1772790755988640500,1.493640625,0.0672493427991867,0.05247252807021141,-1.3340502977371216
1772790755998705400,1.503705322265625,0.21693390607833862,0.1495082676410675,-1.29460871219635
1772790756008770600,1.5137705078125,0.35508114099502563,0.19812560081481934,-1.2106831073760986
1772790756018835500,1.52383544921875,0.4655389189720154,0.2226482480764389,-1.0855414867401123
1772790756028900400,1.533900390625,0.5490567088127136,0.21094845235347748,-0.9481964111328125
1772790756038965500,1.543965576171875,0.6013143658638,0.1603289544582367,-0.8324815034866333
1772790756049030700,1.55403076171875,0.6278306245803833,0.07328513264656067,-0.7452448606491089
1772790756059095300,1.56409521484375,0.6201820373535156,-0.03825550898909569,-0.6722851991653442
1772790756069160400,1.574160400390625,0.5709785223007202,-0.19057820737361908,-0.5805736184120178
1772790756079225600,1.5842255859375,0.5042911171913147,-0.30331194400787354,-0.4627697765827179
1772790756089290500,1.59429052734375,0.4181807339191437,-0.3501580059528351,-0.3130868077278137
1772790756099356400,1.6043564453125,0.2850514352321625,-0.4100836515426636,-0.11397450417280197
1772790756109421600,1.614421630859375,0.10838905721902847,-0.46957308053970337,0.10016654431819916
1772790756119486500,1.624486572265625,-0.011658254079520702,-0.432236909866333,0.2686530351638794
1772790756129551400,1.63455126953125,-0.014607172459363937,-0.16049647331237793,0.3727525472640991
1772790756139616500,1.644616455078125,0.13323742151260376,0.282063364982605,0.4523376524448395
1772790756149681700,1.654681640625,0.34136611223220825,0.8874736428260803,0.618657112121582
1772790756159746300,1.664746337890625,0.5260003805160522,1.481119990348816,0.8581410646438599
1772790756169811500,1.6748115234375,0.801650881767273,1.9564529657363892,0.9601590633392334
1772790756179876600,1.684876708984375,1.185076355934143,2.196619749069214,0.8130819797515869
1772790756189941500,1.69494140625,1.6184847354888916,2.202523708343506,0.42314913868904114
1772790756200006400,1.70500634765625,2.0926268100738525,2.0926005840301514,-0.1676265448331833
1772790756210071600,1.715071533203125,2.559016466140747,2.1184744834899902,-0.7985153198242188
1772790756220136400,1.725136474609375,2.876735210418701,2.086623430252075,-1.1139168739318848
1772790756230201600,1.73520166015625,2.938387155532837,1.9665875434875488,-1.0368913412094116
1772790756240266500,1.7452666015625,2.7678332328796387,1.885347604751587,-0.8948714137077332
1772790756250331400,1.755331298828125,2.4696173667907715,1.8662463426589966,-0.7858543395996094
1772790756260396500,1.765396484375,2.1271846294403076,2.0230836868286133,-0.8226515054702759
1772790756270461400,1.77546142578125,1.728292465209961,2.286832809448242,-0.9211040735244751
1772790756280526300,1.7855263671875,1.3354243040084839,2.533377170562744,-0.9328395128250122
1772790756290591500,1.795591552734375,1.0040441751480103,2.6620728969573975,-0.796791136264801
1772790756300656600,1.80565673828125,0.7429641485214233,2.5415456295013428,-0.532666027545929
1772790756310721300,1.81572119140625,0.5554400682449341,2.012131452560425,-0.2524671256542206
1772790756320786400,1.825786376953125,0.42067238688468933,1.2422144412994385,0.0014109427575021982
1772790756330852600,1.8358525390625,0.30222323536872864,0.25222399830818176,0.08794397115707397
1772790756340917500,1.84591748046875,0.17024576663970947,-0.6420886516571045,0.08393511176109314
1772790756350982400,1.855982421875,-0.007860053330659866,-1.3238542079925537,0.05816743150353432
1772790756361047600,1.866047607421875,-0.19194146990776062,-1.784873127937317,-0.013762417249381542
1772790756371112700,1.87611279296875,-0.3812355101108551,-2.0423543453216553,-0.11337503045797348
1772790756381177300,1.88617724609375,-0.5519092679023743,-2.1006176471710205,-0.22267568111419678
1772790756391242500,1.896242431640625,-0.6529921889305115,-1.9766186475753784,-0.3068099915981293
1772790756401307600,1.9063076171875,-0.6585685610771179,-1.6231013536453247,-0.3341186046600342
1772790756411372500,1.91637255859375,-0.6170583963394165,-1.111638069152832,-0.27966681122779846
1772790756421437400,1.9264375,-0.6012938618659973,-0.6587936282157898,-0.16413567960262299
1772790756431502600,1.936502685546875,-0.6400966048240662,-0.4303242266178131,-0.02431812323629856
1772790756441567500,1.9465673828125,-0.7515594959259033,-0.43081796169281006,0.09145162254571915
1772790756451632400,1.95663232421875,-0.8634935021400452,-0.6307795643806458,0.1623910367488861
1772790756461697500,1.966697509765625,-0.9367709159851074,-0.9444421529769897,0.23245960474014282
1772790756471762400,1.976762451171875,-0.9599974155426025,-1.2599492073059082,0.31909996271133423
1772790756481827600,1.98682763671875,-0.9284296035766602,-1.5954561233520508,0.38735705614089966
1772790756491892500,1.996892578125,-0.8829239010810852,-1.907820463180542,0.36134782433509827
1772790756501957400,2.006957275390625,-0.7956843376159668,-2.0735480785369873,0.203064426779747
1772790756512022500,2.0170224609375,-0.6274458169937134,-1.938079833984375,-0.055984970182180405
1772790756522087400,2.02708740234375,-0.4113462567329407,-1.538273572921753,-0.35158705711364746
1772790756532152300,2.03715234375,-0.21332745254039764,-0.9473103880882263,-0.6323471069335938
1772790756542217500,2.047217529296875,-0.11548398435115814,-0.3254052698612213,-0.8402289152145386
1772790756552282400,2.057282470703125,-0.17480535805225372,0.11667069047689438,-0.9386846423149109
1772790756562348300,2.067348388671875,-0.33001813292503357,0.375716894865036,-0.9447087049484253
1772790756572413400,2.077413330078125,-0.5195414423942566,0.46595412492752075,-0.8527026176452637
1772790756582478600,2.087478515625,-0.6406382918357849,0.5056357383728027,-0.6531400084495544
1772790756592543500,2.09754345703125,-0.5918310880661011,0.777576744556427,-0.4289601445198059
1772790756602608400,2.1076083984375,-0.47322773933410645,1.4207916259765625,-0.28851354122161865
1772790756612673500,2.117673583984375,-0.4318789839744568,2.1784467697143555,-0.21237750351428986
1772790756622738400,2.127738525390625,-0.4924384653568268,2.615823984146118,-0.09553131461143494
1772790756632803300,2.13780322265625,-0.5572385191917419,2.5968830585479736,-0.014948057010769844
1772790756642868500,2.147868408203125,-0.5052818059921265,2.101001739501953,0.05618364363908768
1772790756652933400,2.157933349609375,-0.3359633684158325,1.4683431386947632,0.20343753695487976
1772790756662998500,2.16799853515625,-0.11763741821050644,0.9581568837165833,0.5187707543373108
1772790756673063400,2.1780634765625,-0.04593073949217796,0.6527482271194458,1.045164704322815
1772790756683128300,2.18812841796875,-0.10424358397722244,0.6081517338752747,1.5869076251983643
1772790756693193500,2.198193359375,-0.1882186383008957,0.8475739359855652,1.909480094909668
1772790756703258600,2.208258544921875,-0.25702112913131714,1.272505283355713,1.9460093975067139
1772790756713323300,2.2183232421875,-0.25438886880874634,1.7104125022888184,1.7778501510620117
1772790756723388400,2.228388427734375,-0.1924634575843811,2.045647144317627,1.546944499015808
1772790756733453600,2.23845361328125,-0.10083580017089844,2.195197105407715,1.2973746061325073
1772790756743518500,2.2485185546875,0.004816326778382063,2.084608793258667,1.0781760215759277
1772790756753583400,2.258583251953125,0.11035527288913727,1.5935953855514526,0.9584407806396484
1772790756763648500,2.2686484375,0.09984936565160751,0.8281429409980774,0.9218558669090271
1772790756773713400,2.27871337890625,-0.06145776808261871,-0.11785127222537994,0.8674203157424927
1772790756783778300,2.2887783203125,-0.331149160861969,-1.15355384349823,0.7005229592323303
1772790756793844500,2.298844482421875,-0.6488972902297974,-2.147763967514038,0.4780166447162628
1772790756803909400,2.308909423828125,-0.9083320498466492,-2.8527650833129883,0.26371899247169495
1772790756813974300,2.318974365234375,-1.0236549377441406,-3.1041440963745117,0.0724736675620079
1772790756824039400,2.329039306640625,-1.0167474746704102,-2.8932671546936035,-0.00869095977395773
1772790756834104300,2.339104248046875,-0.9814744591712952,-2.4657135009765625,0.0648287981748581
1772790756844169500,2.34916943359375,-1.0175400972366333,-2.0852999687194824,0.3004125654697418
1772790756854234400,2.359234375,-1.1593477725982666,-1.9079160690307617,0.6396760940551758
1772790756864299300,2.36929931640625,-1.3669768571853638,-1.9210467338562012,0.9819183945655823
1772790756874364400,2.379364501953125,-1.5509802103042603,-2.0458054542541504,1.2494819164276123
1772790756884429600,2.3894296875,-1.654624342918396,-2.240760087966919,1.3983923196792603
1772790756894494200,2.399494140625,-1.694736123085022,-2.5176355838775635,1.4034475088119507
1772790756904559400,2.409559326171875,-1.7049705982208252,-2.8040645122528076,1.3466297388076782
1772790756914624500,2.41962451171875,-1.651019811630249,-2.9646129608154297,1.293213129043579
1772790756924689400,2.429689453125,-1.5307655334472656,-2.8996763229370117,1.2303516864776611
1772790756934754300,2.43975439453125,-1.3567806482315063,-2.592315912246704,1.131882905960083
1772790756944819500,2.4498193359375,-1.1617825031280518,-2.0591225624084473,0.9948056936264038
1772790756954884400,2.45988427734375,-1.0144587755203247,-1.429790735244751,0.8360264301300049
1772790756964949200,2.46994921875,-0.9139665365219116,-0.994570255279541,0.6259616017341614
1772790756975014400,2.480014404296875,-0.8686842322349548,-0.8669742345809937,0.3406635820865631
1772790756985079600,2.49007958984375,-0.8564110994338989,-0.8679037094116211,0.021742580458521843
1772790756995144400,2.50014453125,-0.781538724899292,-0.7495757341384888,-0.347881019115448
1772790757005210400,2.51021044921875,-0.6201918721199036,-0.5155602693557739,-0.7248234748840332
1772790757015275500,2.520275634765625,-0.3867860734462738,-0.3132857382297516,-1.0694993734359741
1772790757025340400,2.53034033203125,-0.11434575170278549,-0.25600433349609375,-1.3712611198425293
1772790757035405300,2.5404052734375,0.1429307907819748,-0.2442837804555893,-1.6287482976913452
1772790757045470500,2.550470458984375,0.37635472416877747,-0.10231439024209976,-1.7967196702957153
1772790757055535400,2.560535400390625,0.6722468137741089,0.28566956520080566,-1.8195089101791382
1772790757065600500,2.5706005859375,0.9929007291793823,0.9596602320671082,-1.7808294296264648
1772790757075665400,2.58066552734375,1.2014802694320679,1.8976178169250488,-1.8727564811706543
1772790757085730300,2.590730224609375,1.1538445949554443,2.6166532039642334,-2.091972589492798
1772790757095795500,2.60079541015625,0.9952957034111023,2.767847776412964,-2.248936653137207
1772790757105860400,2.6108603515625,1.057996392250061,2.178541421890259,-2.0922396183013916
1772790757115925200,2.62092529296875,1.468355417251587,0.9628592133522034,-1.469757080078125
1772790757125990400,2.630990478515625,2.034468650817871,-0.39157629013061523,-0.44272923469543457
1772790757136055600,2.6410556640625,2.476276159286499,-1.1998307704925537,0.5612478852272034
1772790757146120200,2.6511201171875,2.6838645935058594,-1.3024934530258179,1.1580497026443481
1772790757156185300,2.661185302734375,2.627892017364502,-0.8502677083015442,1.2457913160324097
1772790757166250500,2.67125048828125,2.3110158443450928,-0.10705801099538803,0.9313356280326843
1772790757176315400,2.6813154296875,1.7824217081069946,0.6440759301185608,0.34371474385261536
1772790757186380300,2.69138037109375,1.212128758430481,1.1437203884124756,-0.29119110107421875
1772790757196445400,2.701445556640625,0.8260627388954163,1.2332826852798462,-0.7509432435035706
1772790757206510300,2.71151025390625,0.6565259099006653,1.0810497999191284,-0.9058383107185364
1772790757216576300,2.721576171875,0.576291561126709,0.9218901991844177,-0.817187488079071
1772790757226641400,2.731641357421875,0.5548733472824097,0.8304697871208191,-0.6233330965042114
1772790757236706600,2.74170654296875,0.6262407302856445,1.0081055164337158,-0.46818476915359497
1772790757246771500,2.751771484375,0.772136390209198,1.415528655052185,-0.41205573081970215
1772790757256836400,2.76183642578125,0.890857994556427,1.4924615621566772,-0.4078620672225952
1772790757266901500,2.771901611328125,0.903329074382782,1.13339364528656,-0.4540146291255951
1772790757276966400,2.78196630859375,0.8598127365112305,0.5237007737159729,-0.5355899333953857
1772790757287031300,2.79203125,0.7988201975822449,-0.1439715474843979,-0.5927685499191284
1772790757297096400,2.802096435546875,0.7240248322486877,-0.7780909538269043,-0.591383695602417
1772790757307161300,2.812161376953125,0.6361048221588135,-1.3084619045257568,-0.5389779806137085
1772790757317226500,2.8222265625,0.5254504680633545,-1.6329494714736938,-0.43201372027397156
1772790757327291400,2.83229150390625,0.3943853974342346,-1.6606228351593018,-0.2506468594074249
1772790757337356300,2.842356201171875,0.2540927231311798,-1.441296100616455,0.008749282918870449
1772790757347421400,2.85242138671875,0.1061922162771225,-1.0569151639938354,0.30898499488830566
1772790757357486600,2.862486572265625,-0.03735189884901047,-0.6017822623252869,0.5588119029998779
1772790757367551200,2.87255126953125,-0.14925898611545563,-0.15875795483589172,0.6839125752449036
1772790757377616400,2.882616455078125,-0.24257242679595947,0.1798914670944214,0.6593267917633057
1772790757387681500,2.892681640625,-0.31740298867225647,0.34965652227401733,0.5053382515907288
1772790757397746400,2.902746337890625,-0.3971700072288513,0.3262558877468109,0.30773651599884033
1772790757407811300,2.912811279296875,-0.48760563135147095,0.20848503708839417,0.1079549640417099
1772790757417877500,2.92287744140625,-0.5529939532279968,0.07283133268356323,-0.054066963493824005
1772790757427942400,2.9329423828125,-0.5432422757148743,-0.035404860973358154,-0.17383544147014618
1772790757438007300,2.94300732421875,-0.42505887150764465,-0.1123233437538147,-0.23422367870807648
1772790757448072400,2.953072509765625,-0.20489002764225006,-0.15089550614356995,-0.2510327696800232
1772790757458137600,2.9631376953125,0.06803923845291138,-0.16493435204029083,-0.23796595633029938
1772790757468202200,2.9732021484375,0.3299017548561096,-0.20489375293254852,-0.19371993839740753
1772790757478267400,2.983267333984375,0.509950578212738,-0.28209400177001953,-0.14759132266044617
1772790757488332500,2.99333251953125,0.5777831673622131,-0.4124693274497986,-0.1437281370162964
1772790757498397400,3.0033974609375,0.5412382483482361,-0.5996719598770142,-0.24895308911800385
1772790757508462300,3.01346240234375,0.4315364956855774,-0.7619695067405701,-0.4482369124889374
1772790757518527700,3.02352783203125,0.27477750182151794,-0.8634487390518188,-0.6591984033584595
1772790757528592600,3.033592529296875,0.10950332134962082,-0.7178012728691101,-0.8850815892219543
1772790757538657800,3.04365771484375,-0.007816111668944359,-0.2326899766921997,-1.0685957670211792
1772790757548722700,3.05372265625,-0.15474191308021545,0.22236089408397675,-1.0284526348114014
1772790757558787600,3.06378759765625,-0.2967168986797333,0.6182818412780762,-0.9347437024116516
1772790757568852700,3.073852783203125,-0.4009556770324707,1.0142608880996704,-0.9942278265953064
1772790757578917600,3.083917724609375,-0.3829497694969177,0.8262659907341003,-0.9532558917999268
1772790757588982500,3.093982421875,-0.1827423870563507,-0.03748319298028946,-0.5315490961074829
1772790757599047700,3.104047607421875,-0.05867663025856018,-1.2587367296218872,0.296368807554245
1772790757609112800,3.11411279296875,-0.07806337624788284,-2.2405407428741455,1.259440302848816
1772790757619178800,3.1241787109375,-0.10893047600984573,-2.5779659748077393,1.9108412265777588
1772790757629243600,3.13424365234375,-0.12981098890304565,-2.2763314247131348,2.138485908508301
1772790757639308800,3.144308837890625,-0.1989610344171524,-1.5155799388885498,2.0332019329071045
1772790757649373700,3.154373779296875,-0.3505963683128357,-0.5523686408996582,1.6857415437698364
1772790757659438600,3.1644384765625,-0.5285799503326416,0.3162543773651123,1.1884907484054565
1772790757669503700,3.174503662109375,-0.6425520777702332,0.7361531257629395,0.6137824654579163
1772790757679568600,3.184568603515625,-0.6465739607810974,0.7260234951972961,0.021252291277050972
1772790757689633500,3.194633544921875,-0.5642244815826416,0.37972575426101685,-0.4918357729911804
1772790757699698700,3.20469873046875,-0.38653093576431274,-0.11998392641544342,-0.8409942984580994
1772790757709763800,3.214763916015625,-0.0621403343975544,-0.4694202244281769,-1.006430983543396
1772790757719828500,3.224828369140625,0.4063062369823456,-0.5256267786026001,-0.9632432460784912
1772790757729893600,3.2348935546875,0.851929783821106,-0.379454642534256,-0.7587494850158691
1772790757739958800,3.244958740234375,1.1341915130615234,-0.17356513440608978,-0.5014439225196838
1772790757750023700,3.255023681640625,1.2207413911819458,-0.01341380923986435,-0.27807557582855225
1772790757760088600,3.265088623046875,1.1363370418548584,0.12497282773256302,-0.14228789508342743
1772790757770153700,3.27515380859375,0.8726486563682556,0.1669812649488449,-0.002573146251961589
1772790757780218600,3.285218505859375,0.4782041311264038,0.09600163251161575,0.22525975108146667
1772790757790283800,3.29528369140625,0.09624451398849487,0.036505281925201416,0.4815908670425415
1772790757800348700,3.3053486328125,-0.16560333967208862,0.06679500639438629,0.721026599407196
1772790757810413600,3.31541357421875,-0.31740885972976685,0.1260029375553131,0.9393184781074524
1772790757820479700,3.325479736328125,-0.41117236018180847,0.16901539266109467,1.1111773252487183
1772790757830544600,3.335544677734375,-0.46902528405189514,0.1853291094303131,1.1683268547058105
1772790757840609500,3.345609619140625,-0.507859468460083,0.23726235330104828,1.1000019311904907
1772790757850674700,3.3556748046875,-0.532062292098999,0.3644530475139618,0.8988866209983826
1772790757860739600,3.365739501953125,-0.5395228862762451,0.538933277130127,0.6017583012580872
1772790757870804500,3.375804443359375,-0.5434712767601013,0.6939122080802917,0.25712260603904724
1772790757880869600,3.38586962890625,-0.5318638682365417,0.7378431558609009,-0.093004509806633
1772790757890934800,3.395934814453125,-0.47223570942878723,0.671120822429657,-0.4155484735965729
1772790757900999400,3.40599951171875,-0.351808100938797,0.5572877526283264,-0.680222749710083
1772790757911064600,3.416064697265625,-0.2104368656873703,0.4390985369682312,-0.8683862686157227
1772790757921129700,3.426129638671875,-0.047203999012708664,0.356887549161911,-0.9735321402549744
1772790757931194600,3.436194580078125,0.12379464507102966,0.31122153997421265,-0.9780195355415344
1772790757941259500,3.446259521484375,0.2757095992565155,0.3009803295135498,-0.89303058385849
1772790757951324700,3.45632470703125,0.445833683013916,0.29774194955825806,-0.7171916961669922
1772790757961389600,3.4663896484375,0.6502179503440857,0.25347965955734253,-0.4536939859390259
1772790757971454700,3.476454833984375,0.9559493660926819,0.20963364839553833,-0.08773943781852722
1772790757981519600,3.48651953125,1.2424815893173218,0.18074581027030945,0.3731117844581604
1772790757991584800,3.496584716796875,1.3484731912612915,0.14708611369132996,0.9747126698493958
1772790758001649700,3.506649658203125,1.1498538255691528,0.21274715662002563,1.7385464906692505
1772790758011715600,3.516715576171875,0.7383795380592346,0.7869316339492798,2.4165525436401367
1772790758021780700,3.52678076171875,0.2599732577800751,2.0667147636413574,2.6268978118896484
1772790758031845600,3.536845703125,-0.19387812912464142,3.750065803527832,2.320242404937744
1772790758041910500,3.54691064453125,-0.4376567006111145,4.901516437530518,2.1721134185791016
1772790758051975700,3.5569755859375,-0.2452201396226883,4.922056198120117,2.564828872680664
1772790758062040600,3.56704052734375,0.2875167429447174,3.9360876083374023,3.060941219329834
1772790758072105700,3.577105712890625,0.9043279886245728,2.7385342121124268,3.2764856815338135
1772790758082170600,3.587170654296875,1.4086289405822754,1.6929816007614136,3.0820088386535645
1772790758092235500,3.597235595703125,1.5752270221710205,0.8178434371948242,2.4961485862731934
1772790758102300700,3.60730078125,1.3556698560714722,0.2800561487674713,1.7659037113189697
1772790758112365800,3.61736572265625,0.9065014123916626,0.32159027457237244,0.9621180891990662
1772790758122430500,3.627430419921875,0.4411989748477936,1.0628290176391602,0.10073219984769821
1772790758132495600,3.63749560546875,0.2238008677959442,2.069232225418091,-0.6883328557014465
1772790758142560800,3.647560791015625,0.21380336582660675,2.675743818283081,-1.3239686489105225
1772790758152625700,3.657625732421875,0.33564138412475586,2.585085868835449,-1.6839438676834106
1772790758162690600,3.667690673828125,0.6093629598617554,2.14050030708313,-1.8143309354782104
1772790758172755700,3.677755615234375,0.9093472957611084,1.6350834369659424,-1.835502028465271
1772790758182820600,3.687820556640625,1.0780504941940308,1.1087356805801392,-1.7145910263061523
1772790758192885800,3.6978857421875,1.0660178661346436,0.5444353222846985,-1.5074790716171265
1772790758202951700,3.70795166015625,0.9251453876495361,0.12192483991384506,-1.3808602094650269
1772790758213016800,3.718016845703125,0.8043878078460693,-0.0011656655697152019,-1.3432068824768066
1772790758223081500,3.72808154296875,0.7821232676506042,0.17767785489559174,-1.2718956470489502
1772790758233146600,3.738146728515625,0.7954965829849243,0.5090278387069702,-1.1189582347869873
1772790758243211800,3.748211669921875,0.7354127764701843,0.6663332581520081,-0.7499839663505554
1772790758253276700,3.758276611328125,0.6679146885871887,0.696587085723877,-0.2011328488588333
1772790758263341600,3.768341552734375,0.7610563039779663,0.7288454174995422,0.35786253213882446
1772790758273406700,3.77840673828125,1.025146245956421,0.8332951068878174,0.8222991824150085
1772790758283471600,3.7884716796875,1.338871717453003,0.9762663841247559,1.1162070035934448
1772790758293536800,3.798536865234375,1.6000170707702637,1.118512511253357,1.2424181699752808
1772790758303601700,3.8086015625,1.7578256130218506,1.2561390399932861,1.1912431716918945
1772790758313666600,3.81866650390625,1.779015064239502,1.2792190313339233,1.050903081893921
1772790758323731700,3.828731689453125,1.6610705852508545,1.1232305765151978,0.9238505959510803
1772790758333796900,3.838796875,1.4745256900787354,0.8905038237571716,0.7809831500053406
1772790758343861500,3.848861572265625,1.2556895017623901,0.7545310258865356,0.6095829010009766
1772790758353926700,3.8589267578125,1.2183765172958374,0.8847939968109131,0.5195105671882629
1772790758363991800,3.86899169921875,1.3379827737808228,1.2313481569290161,0.48027926683425903
1772790758374056700,3.879056640625,1.4358265399932861,1.2438740730285645,0.14563842117786407
1772790758384122600,3.88912255859375,1.4775997400283813,1.0823853015899658,-0.20470839738845825
1772790758394187800,3.899187744140625,1.493546485900879,0.8501225709915161,-0.45496219396591187
1772790758404252700,3.909252685546875,1.4444676637649536,0.5805661678314209,-0.6694316267967224
1772790758414317600,3.919317626953125,1.2727534770965576,0.270324170589447,-0.8801755309104919
1772790758424382700,3.9293828125,0.9997522830963135,-0.0024378576781600714,-1.0088725090026855
1772790758434448000,3.93944775390625,0.6720279455184937,-0.21628250181674957,-1.0460816621780396
1772790758444512500,3.949512451171875,0.330964595079422,-0.620081901550293,-0.9762850403785706
1772790758454577700,3.95957763671875,0.08376093953847885,-1.0489124059677124,-0.895338773727417
1772790758464642800,3.969642822265625,-0.005799033213406801,-1.083247423171997,-0.962803840637207
1772790758474707700,3.979707763671875,-0.008628642186522484,-0.4087589979171753,-0.978950560092926
1772790758484772600,3.989772705078125,-0.1336563378572464,1.0386419296264648,-0.8016069531440735
1772790758494837800,3.999837646484375,-0.5304390788078308,2.5523223876953125,-0.38388028740882874
1772790758504902700,4.009902587890625,-1.018761157989502,2.8951761722564697,0.24228507280349731
1772790758514967600,4.019967529296875,-1.1507269144058228,1.7736213207244873,0.8354411125183105
1772790758525032000,4.030031982421875,-0.45267584919929504,0.030495325103402138,1.2707946300506592
1772790758535097000,4.04009716796875,0.7923069000244141,-1.1994690895080566,1.5546107292175293
1772790758545162200,4.050162353515625,1.5445787906646729,-1.260404348373413,1.818610429763794
1772790758555227100,4.06022705078125,1.4929786920547485,-0.5309352278709412,2.1620776653289795
1772790758565292000,4.0702919921875,1.057183861732483,0.45010191202163696,2.1916067600250244
1772790758575357200,4.080357177734375,0.42000633478164673,1.1437128782272339,1.8381425142288208
1772790758585422300,4.09042236328125,-0.3369298279285431,1.0976767539978027,1.230817437171936
1772790758595487200,4.1004873046875,-0.9141002297401428,0.4980050027370453,0.49625343084335327
1772790758605552000,4.11055224609375,-1.2487181425094604,-0.11024581640958786,-0.26934438943862915
1772790758615617300,4.1206171875,-1.4203757047653198,-0.5428635478019714,-0.9134658575057983
1772790758625682200,4.13068212890625,-1.4499311447143555,-0.8770588636398315,-1.351335883140564
1772790758635748000,4.140748046875,-1.4033671617507935,-1.0258784294128418,-1.533350944519043
1772790758645813200,4.150813232421875,-1.3257108926773071,-0.8688262104988098,-1.4472477436065674
1772790758655878100,4.160878173828125,-1.1827356815338135,-0.5211180448532104,-1.189287781715393
1772790758665943000,4.170943115234375,-0.9801082611083984,-0.0748036652803421,-0.8728843331336975
1772790758676008200,4.18100830078125,-0.8020002841949463,0.3081226646900177,-0.5652018785476685
1772790758686073000,4.191072998046875,-0.692188024520874,0.4798446297645569,-0.3091772794723511
1772790758696138200,4.20113818359375,-0.6408729553222656,0.41564488410949707,-0.13317003846168518
1772790758706203100,4.211203125,-0.6448895335197449,0.10396235436201096,0.01164280716329813
1772790758716268000,4.22126806640625,-0.6584641933441162,-0.37954944372177124,0.18199430406093597
1772790758726333200,4.231333251953125,-0.6543887257575989,-0.9084433913230896,0.3300205171108246
1772790758736398300,4.2413984375,-0.6403629183769226,-1.3237346410751343,0.4443635940551758
1772790758746463000,4.251462890625,-0.6165561676025391,-1.536252498626709,0.526840090751648
1772790758756528000,4.261528076171875,-0.5611853003501892,-1.4906524419784546,0.5799168944358826
1772790758766593300,4.27159326171875,-0.47046470642089844,-1.1845556497573853,0.5868488550186157
1772790758776658200,4.281658203125,-0.33151108026504517,-0.6939846277236938,0.561204195022583
1772790758786723000,4.29172314453125,-0.17600777745246887,-0.20690391957759857,0.46976909041404724
1772790758796788200,4.301788330078125,-0.06982515007257462,0.16854959726333618,0.3200416564941406
1772790758806853000,4.31185302734375,-0.02520948275923729,0.3827420473098755,0.15315227210521698
1772790758816919000,4.3219189453125,-0.003102049930021167,0.4918126165866852,0.011581022292375565
1772790758826984200,4.331984130859375,0.08865370601415634,0.5570054650306702,-0.1488691121339798
1772790758837049300,4.34204931640625,0.25742673873901367,0.5651081204414368,-0.35875576734542847
1772790758847114000,4.352114013671875,0.44935864210128784,0.4744701087474823,-0.6466176509857178
1772790758857179100,4.36217919921875,0.5473911762237549,0.22881746292114258,-0.9917467832565308
1772790758867244300,4.372244384765625,0.4738626480102539,-0.1955426037311554,-1.3331992626190186
1772790758877309200,4.38230908203125,0.2980159819126129,-0.694865882396698,-1.6198996305465698
1772790758887374000,4.3923740234375,0.10743804275989532,-1.0270166397094727,-1.782238245010376
1772790758897439200,4.402439208984375,-0.023086143657565117,-1.109636902809143,-1.7809906005859375
1772790758907504000,4.412504150390625,-0.06488445401191711,-1.0353765487670898,-1.6313997507095337
1772790758917569300,4.4225693359375,-0.059850018471479416,-0.9100921750068665,-1.336866855621338
1772790758927634200,4.43263427734375,-0.04627615213394165,-0.7751306295394897,-0.938008189201355
1772790758937699000,4.442698974609375,-0.09464102238416672,-0.5732272863388062,-0.4920682907104492
1772790758947764200,4.45276416015625,-0.2959650754928589,-0.1346057504415512,-0.010935738682746887
1772790758957829000,4.4628291015625,-0.7142677903175354,0.7372782826423645,0.4280133843421936
1772790758967894000,4.47289404296875,-1.280140995979309,1.8329941034317017,0.6687706112861633
1772790758977959200,4.482959228515625,-1.6604479551315308,2.482966899871826,0.6148874163627625
1772790758988024300,4.4930244140625,-1.6937412023544312,2.3200225830078125,0.32556450366973877
1772790758998090200,4.50309033203125,-1.49203622341156,1.6374189853668213,-0.2949666678905487
1772790759008155100,4.513155029296875,-1.125080943107605,0.3267568051815033,-1.1329127550125122
1772790759018220300,4.52322021484375,-0.6487372517585754,-1.488299012184143,-1.5626190900802612
1772790759028285200,4.53328515625,-0.03617211803793907,-2.8042287826538086,-1.4795902967453003
1772790759038350000,4.54335009765625,0.3471158742904663,-3.2216832637786865,-0.9776182174682617
1772790759048415200,4.553415283203125,0.515765905380249,-2.9758493900299072,0.08017552644014359
1772790759058480400,4.56348046875,0.5243468284606934,-2.096877336502075,1.4204601049423218
1772790759068545000,4.573544921875,0.4796896278858185,-1.1149404048919678,2.632420778274536
1772790759078610200,4.583610107421875,0.4871387779712677,-0.49177587032318115,3.6771273612976074
1772790759088675300,4.59367529296875,0.4979613125324249,-0.2501866817474365,4.445229530334473
1772790759098740200,4.603740234375,0.5044663548469543,-0.41954001784324646,4.825212001800537
1772790759108805000,4.61380517578125,0.6248250007629395,-0.8111993670463562,4.861257553100586
1772790759118870300,4.623870361328125,0.925075113773346,-1.0269907712936401,4.609418869018555
1772790759128936000,4.63393603515625,1.3318662643432617,-0.9871544241905212,4.076235771179199
1772790759139001000,4.6440009765625,1.7068928480148315,-0.8490258455276489,3.2687430381774902
1772790759149066200,4.654066162109375,1.87892746925354,-0.8941781520843506,2.4986412525177
1772790759159131100,4.664131103515625,1.8119043111801147,-1.1706438064575195,1.6887898445129395
1772790759169196000,4.674196044921875,1.5399630069732666,-1.55607008934021,0.8256603479385376
1772790759179261200,4.68426123046875,1.231938362121582,-2.027135133743286,0.19518813490867615
1772790759189326000,4.694326171875,0.9217384457588196,-2.3511457443237305,-0.06019063666462898
1772790759199391200,4.70439111328125,0.6852076649665833,-2.4467856884002686,-0.020327908918261528
1772790759209456000,4.7144560546875,0.6529503464698792,-2.3363966941833496,0.14105112850666046
1772790759219521000,4.72452099609375,0.7769178748130798,-1.943245768547058,0.3151710033416748
1772790759229586200,4.734586181640625,0.882259726524353,-1.2525835037231445,0.4307692348957062
1772790759239651300,4.7446513671875,0.8145464658737183,-0.24859116971492767,0.340902179479599
1772790759249716000,4.754716064453125,0.5437727570533752,0.8817427754402161,-0.1446480005979538
1772790759259781000,4.764781005859375,0.08779536932706833,1.7368295192718506,-0.9423856139183044
1772790759269846300,4.77484619140625,-0.42046812176704407,2.060108184814453,-1.8006212711334229
1772790759279911200,4.7849111328125,-0.7801074981689453,1.9871485233306885,-2.5351881980895996
1772790759289976000,4.79497607421875,-0.9142626523971558,1.756456732749939,-3.104168176651001
1772790759300041200,4.805041259765625,-0.8526219129562378,1.4863286018371582,-3.494438886642456
1772790759310106400,4.8151064453125,-0.6277843117713928,1.177911639213562,-3.71657395362854
1772790759320172000,4.825172119140625,-0.37821707129478455,0.9533352255821228,-3.759864568710327
1772790759330237200,4.8352373046875,-0.23126624524593353,0.8796862959861755,-3.613248586654663
1772790759340302300,4.84530224609375,-0.23073600232601166,0.871658980846405,-3.2605578899383545
1772790759350367000,4.855366943359375,-0.3696883022785187,0.936577558517456,-2.687631368637085
1772790759360432000,4.86543212890625,-0.627099335193634,1.1065300703048706,-1.9813090562820435
1772790759370497300,4.875497314453125,-0.8975383043289185,1.3105285167694092,-1.211686134338379
1772790759380562200,4.885562255859375,-1.0395798683166504,1.4922258853912354,-0.4602504372596741
1772790759390627000,4.895626953125,-1.0222588777542114,1.5679224729537964,0.3049311339855194
1772790759400692200,4.905692138671875,-0.8996962308883667,1.5423237085342407,1.090509057044983
1772790759410757000,4.915757080078125,-0.7797895669937134,1.6267807483673096,1.7994204759597778
1772790759420822000,4.925822021484375,-0.8205246925354004,1.9093067646026611,2.216031074523926
1772790759430887200,4.93588720703125,-1.0849275588989258,2.323028564453125,2.0961241722106934
1772790759440952000,4.9459521484375,-1.4546265602111816,2.7277376651763916,1.3897240161895752
1772790759451017200,4.956017333984375,-1.7912325859069824,2.868638038635254,0.35936084389686584
1772790759461082000,4.96608203125,-1.917313814163208,2.6489462852478027,-0.7110762596130371
1772790759471147000,4.97614697265625,-1.6336599588394165,2.032763957977295,-1.657696008682251
1772790759481212200,4.986212158203125,-0.9151966571807861,1.1348762512207031,-2.3279221057891846
1772790759491277300,4.99627734375,0.08073346316814423,0.04999925196170807,-2.857645273208618
1772790759501343200,5.00634326171875,0.905347466468811,-0.9298748970031738,-3.220186948776245
1772790759511408000,5.016408203125,1.2829805612564087,-1.6338019371032715,-3.2930376529693604
1772790759521473300,5.026473388671875,1.3425605297088623,-1.9592641592025757,-3.112915277481079
1772790759531538000,5.036537841796875,1.2690478563308716,-1.8934705257415771,-2.712161064147949
1772790759541603000,5.04660302734375,1.2488033771514893,-1.7099707126617432,-2.16581130027771
1772790759551668200,5.056668212890625,1.3678008317947388,-1.6585099697113037,-1.5325509309768677
1772790759561733000,5.066733154296875,1.5688711404800415,-1.788886308670044,-0.8524139523506165
1772790759571798000,5.076798095703125,1.7467314004898071,-2.014047622680664,-0.22790080308914185
1772790759581863200,5.08686328125,1.8356420993804932,-2.167860984802246,0.2914701998233795
1772790759591928000,5.096927978515625,1.826611876487732,-2.148538589477539,0.7007911205291748
1772790759601993000,5.106992919921875,1.7623971700668335,-1.8733381032943726,1.0396677255630493
1772790759612058000,5.11705810546875,1.628993272781372,-1.4532982110977173,1.337805151939392
1772790759622123000,5.127123046875,1.3985222578048706,-1.1159685850143433,1.5736744403839111
1772790759632188200,5.137188232421875,1.0765208005905151,-1.0172241926193237,1.6683670282363892
1772790759642253000,5.147253173828125,0.6908498406410217,-1.214901328086853,1.597989559173584
1772790759652318000,5.15731787109375,0.2650337815284729,-1.5631331205368042,1.4670648574829102
1772790759662383000,5.167383056640625,-0.2451021671295166,-1.8639951944351196,1.3824235200881958
1772790759672448300,5.1774482421875,-0.7635887265205383,-1.9866350889205933,1.39317786693573
1772790759682514200,5.18751416015625,-1.2421585321426392,-1.8254051208496094,1.525952935218811
1772790759692579000,5.1975791015625,-1.6275962591171265,-1.4745912551879883,1.7552766799926758
1772790759702644200,5.207644287109375,-1.8973238468170166,-0.9734625816345215,1.9967387914657593
1772790759712709000,5.217709228515625,-2.1239638328552246,-0.3074142634868622,2.1757659912109375
1772790759722774000,5.22777392578125,-2.381412982940674,0.43685081601142883,2.2160940170288086
1772790759732839200,5.237839111328125,-2.611158609390259,1.1531060934066772,2.0976884365081787
1772790759742904000,5.247904052734375,-2.7374839782714844,1.69721257686615,1.7915403842926025
1772790759752969000,5.257968994140625,-2.7966699600219727,1.960879921913147,1.2837046384811401
1772790759763034000,5.2680341796875,-2.753375291824341,1.9220861196517944,0.5704008936882019
1772790759773099300,5.278099365234375,-2.6032724380493164,1.6615490913391113,-0.22179417312145233
1772790759783164000,5.288163818359375,-2.3876070976257324,1.219675064086914,-0.9901859164237976
1772790759793229000,5.29822900390625,-2.2051727771759033,0.6405065059661865,-1.633790135383606
1772790759803294200,5.308294189453125,-2.0693881511688232,0.12085691094398499,-2.1038691997528076
1772790759813359000,5.318359130859375,-1.9288586378097534,-0.11030174046754837,-2.3857805728912354
1772790759823424000,5.328424072265625,-1.7144006490707397,-0.026204971596598625,-2.4447340965270996
1772790759833489200,5.3384892578125,-1.4117883443832397,0.2625509202480316,-2.25801420211792
1772790759843554000,5.348553955078125,-1.1068089008331299,0.4941633939743042,-1.854034423828125
1772790759853619200,5.358619140625,-0.8817989826202393,0.531460702419281,-1.3281501531600952
1772790759863685000,5.36868505859375,-0.6861118078231812,0.3384004235267639,-0.7485405206680298
1772790759873750300,5.378750244140625,-0.4180307984352112,-0.060991980135440826,-0.14312759041786194
1772790759883815200,5.388815185546875,-0.06850103288888931,-0.3729163110256195,0.41345521807670593
1772790759893880000,5.398880126953125,0.2927165627479553,-0.3299480676651001,0.8631765842437744
1772790759903945200,5.4089453125,0.5794697403907776,0.06516887992620468,1.2031091451644897
1772790759914010000,5.419010009765625,0.690314769744873,0.5669702291488647,1.4215258359909058
1772790759924075000,5.429074951171875,0.6810579299926758,0.8304556608200073,1.5261447429656982
1772790759934140200,5.43914013671875,0.6822832226753235,0.5585711598396301,1.6248688697814941
1772790759944205000,5.449205078125,0.6983141303062439,0.08441421389579773,1.5548887252807617
1772790759954270200,5.459270263671875,0.740005373954773,-0.507863461971283,1.1787664890289307
1772790759964335000,5.469335205078125,0.7554208040237427,-1.112316608428955,0.6227993965148926
1772790759974400000,5.47939990234375,0.8323936462402344,-1.5074021816253662,0.09526020288467407
1772790759984465200,5.489465087890625,0.9962254166603088,-1.523693561553955,-0.23479093611240387
1772790759994530300,5.4995302734375,1.1071993112564087,-1.4301832914352417,-0.2870994210243225
1772790760004595000,5.509594970703125,0.8561255931854248,-1.1975399255752563,-0.4566650092601776
1772790760014660000,5.51966015625,0.5023699402809143,-0.7306691408157349,-0.8179856538772583
1772790760024725200,5.529725341796875,0.1310110092163086,-0.22210150957107544,-1.0635994672775269
1772790760034791200,5.539791259765625,-0.17513905465602875,-0.06716172397136688,-1.143485188484192
1772790760044856000,5.54985595703125,-0.39459311962127686,-0.16161978244781494,-1.22536039352417
1772790760054921200,5.559921142578125,-0.43806761503219604,-0.32891345024108887,-1.3008249998092651
1772790760064986000,5.569986083984375,-0.2986122667789459,-0.5141964554786682,-1.2845853567123413
1772790760075051000,5.580051025390625,-0.06666664779186249,-0.6614152193069458,-1.160827398300171
1772790760085116200,5.5901162109375,0.14956605434417725,-0.7912430167198181,-0.982981264591217
1772790760095181300,5.600181396484375,0.30129778385162354,-0.9743942022323608,-0.7351653575897217
1772790760105246000,5.610245849609375,0.39431801438331604,-1.131823182106018,-0.427834689617157
1772790760115311000,5.62031103515625,0.42693373560905457,-1.197280764579773,-0.14783553779125214
1772790760125376300,5.630376220703125,0.390135258436203,-1.2263758182525635,0.06651031970977783
1772790760135441200,5.640441162109375,0.31249186396598816,-1.3187742233276367,0.24625851213932037
1772790760145506000,5.650506103515625,0.1905433088541031,-1.4375804662704468,0.4535035789012909
1772790760155571200,5.6605712890625,0.04699946567416191,-1.4756433963775635,0.7091934084892273
1772790760165636000,5.670635986328125,-0.0696757510304451,-1.325407862663269,1.0060338973999023
1772790760175701200,5.680701171875,-0.15505322813987732,-0.9561914801597595,1.2992266416549683
1772790760185766100,5.69076611328125,-0.23668444156646729,-0.4193863570690155,1.490021824836731
1772790760195831000,5.7008310546875,-0.3454117178916931,0.1944752037525177,1.4983439445495605
1772790760205897200,5.710897216796875,-0.4983019232749939,0.806419312953949,1.277143955230713
1772790760215962000,5.720962158203125,-0.6796416640281677,1.3284742832183838,0.843407392501831
1772790760226027000,5.731027099609375,-0.8505539894104004,1.6996978521347046,0.22960256040096283
1772790760236092200,5.741092041015625,-0.9926040768623352,1.8485575914382935,-0.46389496326446533
1772790760246157000,5.751156982421875,-1.1385655403137207,1.81950843334198,-1.1538358926773071
1772790760256222000,5.761221923828125,-1.2478264570236206,1.6539007425308228,-1.7899305820465088
1772790760266287000,5.771287109375,-1.3193472623825073,1.3199124336242676,-2.3476054668426514
1772790760276352300,5.781352294921875,-1.39481520652771,0.9419901371002197,-2.838038921356201
1772790760286417000,5.7914169921875,-1.5040558576583862,0.5625032782554626,-3.263287305831909
1772790760296482000,5.80148193359375,-1.6132718324661255,0.23673105239868164,-3.5827128887176514
1772790760306547200,5.811547119140625,-1.692138433456421,-0.02261689491569996,-3.71659779548645
1772790760316612000,5.821612060546875,-1.7239272594451904,-0.14842702448368073,-3.65940523147583
1772790760326677000,5.831677001953125,-1.6978203058242798,-0.16028182208538055,-3.4068689346313477
1772790760336742100,5.8417421875,-1.6356741189956665,-0.14604854583740234,-2.9605038166046143
1772790760346807000,5.85180712890625,-1.5319788455963135,-0.1168706938624382,-2.3628547191619873
1772790760356872200,5.8618720703125,-1.3203315734863281,-0.11915568262338638,-1.6159350872039795
1772790760366937000,5.87193701171875,-0.9881728291511536,-0.11019734293222427,-0.7817450761795044
1772790760377002000,5.882001953125,-0.6334198117256165,0.11121493577957153,0.07009387016296387
1772790760387068200,5.892068115234375,-0.45598936080932617,0.7934678196907043,0.834453821182251
1772790760397133000,5.902133056640625,-0.5129107236862183,1.905065655708313,1.3766063451766968
1772790760407198200,5.9121982421875,-0.5897029638290405,2.9189958572387695,1.5559535026550293
1772790760417263000,5.92226318359375,-0.46963727474212646,3.520773410797119,1.3119535446166992
1772790760427328000,5.932327880859375,-0.10188028961420059,3.4124011993408203,0.725496232509613
1772790760437393200,5.94239306640625,0.30352792143821716,2.281257152557373,0.2316257655620575
1772790760447458000,5.9524580078125,0.46686890721321106,0.46570298075675964,0.2609706223011017
1772790760457523200,5.962523193359375,0.519138514995575,-1.0993320941925049,0.6555120348930359
1772790760467588000,5.972588134765625,0.697044849395752,-1.8867614269256592,1.1680771112442017
1772790760477653000,5.982653076171875,0.8188482522964478,-2.105968475341797,1.6780258417129517
1772790760487718100,5.99271826171875,0.6178520321846008,-2.068117380142212,2.0938382148742676
1772790760497783300,6.002783203125,0.15488572418689728,-1.8418406248092651,2.3235583305358887
1772790760507848000,6.012847900390625,-0.2678346335887909,-1.5301588773727417,2.3342204093933105
1772790760517917200,6.022917236328125,-0.42430388927459717,-1.3713321685791016,2.192707061767578
1772790760527982300,6.032982421875,-0.278916597366333,-1.5278358459472656,2.0101990699768066
1772790760538047200,6.043047119140625,-0.019696205854415894,-1.8952546119689941,1.8189302682876587
1772790760548112100,6.053112060546875,0.3000391721725464,-2.2726261615753174,1.528403878211975
1772790760558178300,6.06317822265625,0.7131335735321045,-2.420375108718872,1.1142370700836182
1772790760568243200,6.0732431640625,1.216838002204895,-2.1297452449798584,0.6836022734642029
1772790760578308400,6.083308349609375,1.6810085773468018,-1.4925366640090942,0.39694148302078247
1772790760588373200,6.093373291015625,1.934504508972168,-0.9754232168197632,0.3215753734111786
1772790760598438100,6.103438232421875,1.935483455657959,-0.7006435990333557,0.32781141996383667
1772790760608503300,6.11350341796875,1.7194230556488037,-0.6209969520568848,0.2615740895271301
1772790760618568200,6.123568115234375,1.3231133222579956,-0.6538366675376892,0.1928996741771698
1772790760628633300,6.13363330078125,0.8118672966957092,-0.6224875450134277,0.311798095703125
1772790760638698200,6.1436982421875,0.32436317205429077,-0.46842631697654724,0.7221824526786804
1772790760648763100,6.15376318359375,-0.02923937886953354,-0.34200260043144226,1.333845853805542
1772790760658828300,6.163828369140625,-0.24344967305660248,-0.23194214701652527,1.92765212059021
1772790760668893400,6.1738935546875,-0.34674009680747986,-0.10388991236686707,2.3271026611328125
1772790760678958000,6.1839580078125,-0.36741742491722107,0.010425476357340813,2.472407102584839
1772790760689023200,6.194023193359375,-0.38014599680900574,0.14694656431674957,2.3719825744628906
1772790760699088400,6.20408837890625,-0.3776809871196747,0.40006113052368164,2.0596423149108887
1772790760709153300,6.2141533203125,-0.4346260130405426,0.7422176599502563,1.520865797996521
1772790760719218200,6.22421826171875,-0.6214038729667664,0.8935765624046326,0.6866816878318787
1772790760729284400,6.234284423828125,-0.8810599446296692,0.706602156162262,-0.31772682070732117
1772790760739349200,6.244349365234375,-1.0687239170074463,0.20037969946861267,-1.352477788925171
1772790760749414100,6.2544140625,-1.1622322797775269,-0.42687010765075684,-2.144868850708008
1772790760759479300,6.264479248046875,-1.0435223579406738,-0.9306943416595459,-2.6498985290527344
1772790760769544200,6.274544189453125,-0.7470235824584961,-1.2465604543685913,-2.906465768814087
1772790760779609000,6.284609130859375,-0.39227935671806335,-1.354848861694336,-2.94901967048645
1772790760789674200,6.29467431640625,-0.023454992100596428,-1.2765313386917114,-2.8139824867248535
1772790760799739400,6.304739501953125,0.32374584674835205,-1.0853244066238403,-2.5343432426452637
1772790760809804300,6.31480419921875,0.572939395904541,-0.8234603404998779,-2.1962697505950928
1772790760819869200,6.324869140625,0.6660371422767639,-0.5816769599914551,-1.8644319772720337
1772790760829934300,6.334934326171875,0.6224899291992188,-0.43993476033210754,-1.5966832637786865
1772790760839999200,6.344999267578125,0.4903300404548645,-0.3926466107368469,-1.3530434370040894
1772790760850064400,6.355064453125,0.309743732213974,-0.31258055567741394,-1.0954878330230713
1772790760860129300,6.36512939453125,0.15447185933589935,-0.05807315558195114,-0.8040509223937988
1772790760870194200,6.375194091796875,0.0452047623693943,0.4147878587245941,-0.4713691174983978
1772790760880259300,6.38525927734375,-0.06486395001411438,1.1119682788848877,-0.06060875207185745
1772790760890324500,6.395324462890625,-0.20111100375652313,1.9553866386413574,0.3423919677734375
1772790760900390100,6.40539013671875,-0.38655462861061096,2.662555456161499,0.6543466448783875
1772790760910455300,6.415455322265625,-0.6510840058326721,2.6896908283233643,0.9566341042518616
1772790760920520200,6.425520263671875,-0.8560853600502014,2.047604560852051,1.1458966732025146
1772790760930585000,6.435585205078125,-0.935687243938446,0.7997997403144836,1.4543277025222778
1772790760940650200,6.445650146484375,-0.7788345217704773,-0.4697619080543518,2.0779898166656494
1772790760950715400,6.45571533203125,-0.24507233500480652,-1.0094144344329834,2.7251265048980713
1772790760960780000,6.465780029296875,0.522947371006012,-0.9138720035552979,3.2164463996887207
1772790760970845200,6.47584521484375,1.3053377866744995,-0.4629383683204651,3.3341236114501953
1772790760980910300,6.485910400390625,1.738878846168518,0.020971860736608505,2.865527868270874
1772790760990975200,6.495975341796875,1.7634648084640503,0.425218403339386,1.8434779644012451
1772790761001040100,6.5060400390625,1.692220687866211,0.5581346154212952,0.6365327835083008
1772790761011105300,6.516105224609375,1.7285540103912354,0.3391951024532318,-0.39833885431289673
1772790761021170200,6.526170166015625,1.9324471950531006,0.04994092881679535,-1.0959019660949707
1772790761031235300,6.5362353515625,2.2665576934814453,-0.14845098555088043,-1.4345495700836182
1772790761041300200,6.54630029296875,2.6874020099639893,-0.319004625082016,-1.4688467979431152
1772790761051365000,6.556365234375,3.1407358646392822,-0.4091595411300659,-1.3452821969985962
1772790761061430300,6.56643017578125,3.5275075435638428,-0.36762115359306335,-1.1769191026687622
1772790761071496200,6.57649609375,3.7568435668945312,-0.19567708671092987,-0.9825199842453003
1772790761081561300,6.586561279296875,3.7864625453948975,0.0679316446185112,-0.7324848771095276
1772790761091626200,6.596626220703125,3.5760445594787598,0.2955546975135803,-0.3650067448616028
1772790761101691100,6.606691162109375,3.1965537071228027,0.3531396985054016,0.0877053514122963
1772790761111756300,6.61675634765625,2.7517125606536865,0.307243287563324,0.5394938588142395
1772790761121821200,6.6268212890625,2.324936866760254,0.3529423475265503,0.9429049491882324
1772790761131886300,6.63688623046875,1.9655438661575317,0.42128652334213257,1.304409146308899
1772790761141951200,6.646951171875,1.6143728494644165,0.46796372532844543,1.6042487621307373
1772790761152016100,6.65701611328125,1.2632797956466675,0.5419575572013855,1.8008748292922974
1772790761162081300,6.667081298828125,0.9050062894821167,0.6255000829696655,1.858966588973999
1772790761172146400,6.677146484375,0.5109865665435791,0.6752628684043884,1.761306881904602
1772790761182211000,6.687211181640625,0.04267369583249092,0.689422070980072,1.495029091835022
1772790761192276200,6.697276123046875,-0.48931562900543213,0.6789838075637817,1.0891226530075073
1772790761202341400,6.70734130859375,-1.1045122146606445,0.6044731140136719,0.6321697235107422
1772790761212406300,6.71740625,-1.7847166061401367,0.47628292441368103,0.1330653727054596
1772790761222471200,6.72747119140625,-2.460631847381592,0.24169065058231354,-0.3744939863681793
1772790761232536300,6.737536376953125,-3.0220792293548584,-0.08341100066900253,-0.8219804167747498
1772790761242602200,6.747602294921875,-3.385810375213623,-0.3781196177005768,-1.156783938407898
1772790761252667100,6.757667236328125,-3.482959747314453,-0.502174437046051,-1.3059207201004028
1772790761262732300,6.767732177734375,-3.278517246246338,-0.4377056956291199,-1.1913208961486816
1772790761272797400,6.77779736328125,-2.8076703548431396,-0.2318824976682663,-0.8039864897727966
1772790761282862000,6.787862060546875,-2.1466732025146484,0.005453621037304401,-0.2523680627346039
1772790761292927200,6.79792724609375,-1.3746981620788574,0.13996589183807373,0.3246135115623474
1772790761302992400,6.807992431640625,-0.6423618793487549,-0.03635241463780403,0.8312058448791504
1772790761313057300,6.818057373046875,-0.16602198779582977,-0.5144910216331482,1.1930795907974243
1772790761323122200,6.8281220703125,-0.09737369418144226,-0.956451416015625,1.3927035331726074
1772790761333187300,6.838187255859375,-0.418084055185318,-1.1149606704711914,1.4345157146453857
1772790761343252200,6.848252197265625,-1.0130161046981812,-0.9981067180633545,1.2910757064819336
1772790761353317400,6.8583173828125,-1.6807150840759277,-0.5961470007896423,0.9659895300865173
1772790761363382300,6.86838232421875,-2.1313765048980713,0.1255137175321579,0.41919752955436707
1772790761373447200,6.878447265625,-2.1982200145721436,1.1871216297149658,-0.19510823488235474
1772790761383512300,6.88851220703125,-1.991658091545105,2.360527515411377,-0.5760140419006348
1772790761393577200,6.8985771484375,-1.5625336170196533,2.999040126800537,-0.477666974067688
1772790761403643100,6.90864306640625,-0.8882611393928528,2.708834648132324,0.18358048796653748
1772790761413708300,6.918708251953125,-0.22286289930343628,1.791640281677246,1.205706000328064
1772790761423773200,6.928773193359375,0.13684199750423431,0.8033849000930786,2.0192270278930664
1772790761433838000,6.938838134765625,0.1584485024213791,-0.07598264515399933,2.456707239151001
1772790761443903200,6.9489033203125,-0.04615258052945137,-0.6189231872558594,2.6848926544189453
1772790761453968400,6.958968505859375,-0.2753966748714447,-0.5180961489677429,2.7043797969818115
1772790761464033000,6.969032958984375,-0.36906033754348755,0.1737683266401291,2.632312536239624
1772790761474098200,6.97909814453125,-0.2898232936859131,1.1053063869476318,2.5691001415252686
1772790761484163300,6.989163330078125,-0.017313743010163307,1.8929996490478516,2.517733573913574
1772790761494228200,6.999228271484375,0.42555662989616394,2.2583885192871094,2.4731967449188232
1772790761504293000,7.009293212890625,0.9455947279930115,2.2563960552215576,2.4021079540252686
1772790761514358300,7.019358154296875,1.4347732067108154,2.059812307357788,2.2376835346221924
1772790761524422700,7.029422607421875,1.78903329372406,1.7755268812179565,1.9645569324493408
1772790761534487800,7.03948779296875,1.9774000644683838,1.505540132522583,1.5027406215667725
1772790761544552400,7.049552490234375,2.0022270679473877,1.205579161643982,0.8408012390136719
1772790761554617600,7.05961767578125,1.883760929107666,0.7812238931655884,0.1095224991440773
1772790761564682800,7.069682861328125,1.6828736066818237,0.21025416254997253,-0.5204581022262573
1772790761574748400,7.07974853515625,1.441536545753479,-0.36400750279426575,-0.9691118001937866
1772790761584813600,7.0898134765625,1.161010980606079,-0.754653811454773,-1.2196327447891235
1772790761594878700,7.099878662109375,0.896979033946991,-0.8737946152687073,-1.3401862382888794
1772790761604943600,7.109943603515625,0.6040760278701782,-0.752405047416687,-1.4095467329025269
1772790761615008500,7.120008544921875,0.2819659113883972,-0.41964706778526306,-1.4621092081069946
1772790761625073700,7.13007373046875,-0.05986865982413292,0.015931028872728348,-1.5930252075195312
1772790761635138600,7.140138671875,-0.39455583691596985,0.41106343269348145,-1.833492636680603
1772790761645203700,7.15020361328125,-0.7026119232177734,0.5683108568191528,-2.1258323192596436
1772790761655268600,7.1602685546875,-0.9586676955223083,0.4667312204837799,-2.440887689590454
1772790761665333500,7.17033349609375,-1.1272135972976685,0.1593044400215149,-2.757763385772705
1772790761675398700,7.180398681640625,-1.1918503046035767,-0.27018168568611145,-2.9929258823394775
1772790761685463600,7.190463623046875,-1.1217037439346313,-0.7245273590087891,-3.067918300628662
1772790761695528400,7.200528564453125,-0.7729087471961975,-1.0759812593460083,-2.909334659576416
1772790761705593600,7.210593505859375,-0.16371729969978333,-1.323390245437622,-2.5423779487609863
1772790761715658800,7.22065869140625,0.42715850472450256,-1.4103957414627075,-2.0570461750030518
1772790761725723400,7.230723388671875,0.821290135383606,-1.4110356569290161,-1.5584192276000977
1772790761735788500,7.24078857421875,0.9810736775398254,-1.4355982542037964,-1.0835531949996948
1772790761745854700,7.250854736328125,0.9915454387664795,-1.4503923654556274,-0.6207101345062256
1772790761755919600,7.260919677734375,0.953097939491272,-1.3469566106796265,-0.172127828001976
1772790761765984500,7.270984619140625,0.9229280352592468,-1.1277538537979126,0.22223733365535736
1772790761776049700,7.281049560546875,0.8925171494483948,-0.8813278675079346,0.5576795339584351
1772790761786114800,7.29111474609375,0.8242901563644409,-0.6477111577987671,0.8236275911331177
1772790761796179500,7.301179443359375,0.7354915738105774,-0.39164260029792786,1.0385441780090332
1772790761806244600,7.31124462890625,0.5909256339073181,-0.011492338962852955,1.0952109098434448
1772790761816309800,7.321309814453125,0.36121731996536255,0.51420658826828,0.9016296863555908
1772790761826374700,7.331374755859375,0.03689064085483551,1.0931499004364014,0.4389350116252899
1772790761836439600,7.341439453125,-0.4423164427280426,1.5511832237243652,-0.1973343789577484
1772790761846504700,7.351504638671875,-1.0729748010635376,1.815774917602539,-0.9107065200805664
1772790761856569600,7.361569580078125,-1.8724637031555176,1.8942060470581055,-1.5839589834213257
1772790761866634500,7.371634521484375,-2.75717830657959,1.707878828048706,-2.0615718364715576
1772790761876699600,7.38169970703125,-3.3034849166870117,1.4421658515930176,-2.2797257900238037
1772790761886764500,7.3917646484375,-3.2125067710876465,1.375476598739624,-2.1927623748779297
1772790761896829700,7.40182958984375,-2.650371789932251,1.2528748512268066,-1.7509021759033203
1772790761906894600,7.41189453125,-1.9903043508529663,1.0479965209960938,-1.1492009162902832
1772790761916960800,7.421960693359375,-1.547832727432251,0.8265402913093567,-0.49927666783332825
1772790761927025700,7.432025634765625,-1.3209710121154785,0.6332445740699768,0.1100013330578804
1772790761937090600,7.442090576171875,-1.1649532318115234,0.47810664772987366,0.6958701610565186
1772790761947155700,7.45215576171875,-0.917384147644043,0.2903687059879303,1.3679207563400269
1772790761957220600,7.462220703125,-0.5647909641265869,0.04363536089658737,2.0760672092437744
1772790761967285800,7.47228564453125,-0.18478582799434662,-0.1126120314002037,2.74474835395813
1772790761977350700,7.4823505859375,0.16875332593917847,-0.19092680513858795,3.420151710510254
1772790761987415600,7.49241552734375,0.4885249435901642,-0.2516269087791443,4.0490031242370605
1772790761997480700,7.502480712890625,0.8044152855873108,-0.27872857451438904,4.482972621917725
1772790762007545600,7.512545654296875,1.1469006538391113,-0.28680726885795593,4.71750020980835
1772790762017610500,7.522610595703125,1.5199824571609497,-0.3234694004058838,4.775252342224121
1772790762027675600,7.532675537109375,1.8433266878128052,-0.32106056809425354,4.621974468231201
1772790762037740800,7.54274072265625,2.085392951965332,-0.24225737154483795,4.262803554534912
1772790762047805400,7.552805419921875,2.1909735202789307,-0.13631203770637512,3.7555992603302
1772790762057870600,7.56287060546875,2.1193480491638184,-0.0515284389257431,3.117936372756958
1772790762067935700,7.572935791015625,1.9497716426849365,-0.07696349173784256,2.4086148738861084
1772790762078000600,7.583000732421875,1.741665244102478,-0.20724959671497345,1.7224457263946533
1772790762088066600,7.593066650390625,1.5470497608184814,-0.37019455432891846,1.1538605690002441
1772790762098131700,7.603131591796875,1.384371280670166,-0.410834401845932,0.6298195123672485
1772790762108196600,7.613196533203125,1.1867048740386963,-0.3242156207561493,0.1046726182103157
1772790762118261500,7.623261474609375,0.9236868023872375,-0.18045686185359955,-0.36566558480262756
1772790762128326700,7.63332666015625,0.6208323836326599,0.016294019296765327,-0.8120582699775696
1772790762138391800,7.643391845703125,0.2792758345603943,0.18869587779045105,-1.2965985536575317
1772790762148456400,7.65345654296875,-0.0771682858467102,0.3098292350769043,-1.7862939834594727
1772790762158521600,7.663521484375,-0.4294253885746002,0.41092389822006226,-2.2546792030334473
1772790762168586800,7.673586669921875,-0.7685999870300293,0.524746298789978,-2.6751186847686768
1772790762178651600,7.683651611328125,-1.080650806427002,0.6330291032791138,-3.0378963947296143
1772790762188716500,7.693716552734375,-1.344315528869629,0.7182561159133911,-3.3156168460845947
1772790762198781700,7.70378173828125,-1.5053774118423462,0.7643935680389404,-3.498530864715576
1772790762208846600,7.7138466796875,-1.5734800100326538,0.7705931067466736,-3.570685386657715
1772790762218911700,7.723911865234375,-1.5583689212799072,0.7463391423225403,-3.5115737915039062
1772790762228976600,7.7339765625,-1.4827489852905273,0.7286089062690735,-3.3424012660980225
1772790762239042600,7.74404248046875,-1.3703646659851074,0.7484409213066101,-3.0836551189422607
1772790762249107700,7.754107666015625,-1.2418735027313232,0.7708452939987183,-2.7032382488250732
1772790762259172600,7.764172607421875,-1.1134873628616333,0.7084450721740723,-2.1769683361053467
1772790762269237500,7.774237548828125,-1.0105788707733154,0.6553152799606323,-1.5885816812515259
1772790762279302700,7.784302734375,-0.940994381904602,0.7532343864440918,-1.0989584922790527
1772790762289367600,7.794367431640625,-0.9589100480079651,1.0779064893722534,-0.784529447555542
1772790762299432400,7.804432373046875,-1.1254873275756836,1.5041887760162354,-0.6092244386672974
1772790762309497600,7.81449755859375,-1.371063232421875,1.872495412826538,-0.5536293983459473
1772790762319562800,7.824562744140625,-1.5257313251495361,1.9738050699234009,-0.511663019657135
1772790762329627400,7.83462744140625,-1.4731494188308716,1.8092328310012817,-0.6233975291252136
1772790762339692500,7.844692626953125,-1.07060968875885,1.2977410554885864,-0.9796512722969055
1772790762349757700,7.8547578125,-0.4475082755088806,0.39889171719551086,-1.3402706384658813
1772790762359822600,7.864822509765625,0.20143458247184753,-0.5621531009674072,-1.5188289880752563
1772790762369887500,7.874887451171875,0.6840837597846985,-1.401407241821289,-1.390560507774353
1772790762379952600,7.88495263671875,0.9103715419769287,-1.920375108718872,-0.921113908290863
1772790762390017500,7.895017578125,0.9004493951797485,-2.0487585067749023,-0.12350436300039291
1772790762400082700,7.905082763671875,0.703758180141449,-1.6976200342178345,0.8440718650817871
1772790762410148600,7.915148681640625,0.5022322535514832,-1.0884560346603394,1.8455010652542114
1772790762420213800,7.9252138671875,0.5110704898834229,-0.5501893758773804,2.838090419769287
1772790762430278700,7.935278564453125,0.7634372115135193,-0.23744477331638336,3.7816669940948486
1772790762440343600,7.945343505859375,1.0966849327087402,-0.14132116734981537,4.569215297698975
1772790762450408700,7.95540869140625,1.4045937061309814,-0.19270873069763184,5.046593189239502
1772790762460473600,7.9654736328125,1.6303049325942993,-0.35000887513160706,5.15721321105957
1772790762470538500,7.97553857421875,1.770505666732788,-0.5735157132148743,4.96415901184082
1772790762480603600,7.985603759765625,1.8751399517059326,-0.7692705988883972,4.582798957824707
1772790762490668500,7.99566845703125,1.9503974914550781,-0.86210036277771,4.0367608070373535
1772790762500733700,8.005733642578125,1.9427027702331543,-0.833476722240448,3.3500607013702393
1772790762510798600,8.015798583984376,1.8302571773529053,-0.7567489147186279,2.6154162883758545
1772790762520863500,8.025863525390625,1.65445876121521,-0.7094408273696899,1.8920323848724365
1772790762530929700,8.0359296875,1.4638594388961792,-0.7681397795677185,1.1984823942184448
1772790762540994300,8.045994384765624,1.248280644416809,-0.8702507019042969,0.5535430908203125
1772790762551059500,8.0560595703125,1.0190881490707397,-0.9148474931716919,-0.011217501014471054
1772790762561124600,8.06612451171875,0.7670053243637085,-0.8550406098365784,-0.4567638039588928
1772790762571189500,8.076189453125,0.47324877977371216,-0.6678376793861389,-0.809412956237793
1772790762581254400,8.08625439453125,0.13836292922496796,-0.38672322034835815,-1.1114611625671387
1772790762591319600,8.096319580078125,-0.2482079416513443,-0.048346757888793945,-1.4031317234039307
1772790762601384400,8.106384521484374,-0.6621529459953308,0.29346197843551636,-1.7662534713745117
1772790762611450400,8.116450439453125,-1.0275365114212036,0.5419082641601562,-2.2249701023101807
1772790762621515500,8.126515625,-1.3120750188827515,0.6796781420707703,-2.717017412185669
1772790762631580700,8.13658056640625,-1.5220474004745483,0.7444664239883423,-3.1547019481658936
1772790762641645300,8.146645263671875,-1.66022527217865,0.8025584816932678,-3.477802038192749
1772790762651710500,8.15671044921875,-1.7318475246429443,0.9418705701828003,-3.646066427230835
1772790762661775600,8.166775634765624,-1.7282661199569702,1.1224664449691772,-3.6828763484954834
1772790762671840500,8.176840576171875,-1.6949573755264282,1.2704654932022095,-3.647956132888794
1772790762681905400,8.186905517578126,-1.7216747999191284,1.3275048732757568,-3.598926544189453
1772790762691970600,8.196970458984374,-1.814072608947754,1.207729697227478,-3.570462226867676
1772790762702035500,8.207035400390625,-1.8804659843444824,0.9314720034599304,-3.5419669151306152
1772790762712100600,8.2171005859375,-1.8805781602859497,0.5129889845848083,-3.3904967308044434
1772790762722165500,8.22716552734375,-1.7689160108566284,-0.08829950541257858,-3.0319814682006836
1772790762732230400,8.23723046875,-1.495539665222168,-0.7023237943649292,-2.386078357696533
1772790762742295600,8.247295654296876,-1.0674338340759277,-0.9759641289710999,-1.4853218793869019
1772790762752360700,8.257360595703124,-0.654754638671875,-0.6356989145278931,-0.4275484085083008
1772790762762425300,8.26742529296875,-0.4329786002635956,0.1701192706823349,0.5666857957839966
1772790762772490500,8.277490478515626,-0.4088045358657837,0.981264591217041,1.2554117441177368
1772790762782556400,8.287556396484375,-0.4732173681259155,1.4433283805847168,1.5860055685043335
1772790762792621300,8.297621337890625,-0.5343659520149231,1.5307596921920776,1.5986356735229492
1772790762802686500,8.3076865234375,-0.466121107339859,1.3091257810592651,1.3598129749298096
1772790762812751600,8.317751708984375,-0.09461705386638641,0.8035630583763123,1.1389548778533936
1772790762822816500,8.32781640625,0.6269752383232117,0.2136470377445221,1.1340304613113403
1772790762832881400,8.33788134765625,1.497782588005066,-0.14764618873596191,1.2778695821762085
1772790762842946600,8.347946533203125,2.1218440532684326,-0.11467438191175461,1.3975470066070557
1772790762853011700,8.35801171875,2.3219833374023438,0.06629753112792969,1.4107272624969482
1772790762863076400,8.368076416015626,2.1053690910339355,0.22294040024280548,1.3153482675552368
1772790762873141500,8.3781416015625,1.6491049528121948,0.28979161381721497,1.1394391059875488
1772790762883206700,8.38820654296875,1.2464693784713745,0.1550827920436859,0.9473034143447876
1772790762893271600,8.398271484375,1.0842649936676025,-0.10400309413671494,0.8359990119934082
1772790762903336400,8.40833642578125,1.106873869895935,-0.31922194361686707,0.8388651013374329
1772790762913401600,8.418401611328125,1.162920355796814,-0.37560024857521057,0.9106208086013794
1772790762923466500,8.428466552734376,1.1785041093826294,-0.30870723724365234,1.01131010055542
1772790762933531600,8.43853173828125,1.1216187477111816,-0.1786152869462967,1.1115334033966064
1772790762943596500,8.448596435546875,1.0258747339248657,-0.09516432881355286,1.1943025588989258
1772790762953662500,8.458662353515624,0.9215322732925415,-0.16112416982650757,1.2358747720718384
1772790762963727400,8.468727294921875,0.8311792016029358,-0.3525351583957672,1.2262306213378906
1772790762973792500,8.47879248046875,0.7384354472160339,-0.5295629501342773,1.161760926246643
1772790762983857400,8.488857421875,0.624113917350769,-0.6110321879386902,1.0630414485931396
1772790762993922600,8.498922607421875,0.5184791088104248,-0.6233352422714233,0.9969277381896973
1772790763003987500,8.508987548828125,0.47296142578125,-0.5900955200195312,1.0112898349761963
1772790763014052400,8.51905224609375,0.5125450491905212,-0.4914080798625946,1.0993411540985107
1772790763024117500,8.529117431640625,0.5578044056892395,-0.34087130427360535,1.2043317556381226
1772790763034182700,8.5391826171875,0.527351975440979,-0.14010091125965118,1.2209397554397583
1772790763044247300,8.549247314453124,0.3773882985115051,0.09077224880456924,1.0938142538070679
1772790763054312400,8.5593125,0.08874797821044922,0.3305419683456421,0.7761191725730896
1772790763064377600,8.569377685546876,-0.3365444540977478,0.5879346132278442,0.2669707238674164
1772790763074442500,8.5794423828125,-0.8700547218322754,0.9004805088043213,-0.3926450312137604
1772790763084507400,8.58950732421875,-1.3711875677108765,1.1913273334503174,-1.1416844129562378
1772790763094572500,8.599572509765625,-1.7717376947402954,1.4033074378967285,-1.9083186388015747
1772790763104638500,8.609638427734374,-2.0446360111236572,1.5094530582427979,-2.627821445465088
1772790763114703400,8.619703369140625,-2.152437686920166,1.4884172677993774,-3.273482322692871
1772790763124768500,8.6297685546875,-2.1076788902282715,1.3113106489181519,-3.816150665283203
1772790763134833700,8.639833740234375,-1.9631681442260742,1.0208152532577515,-4.2562150955200195
1772790763144898300,8.649898193359375,-1.7428239583969116,0.7183754444122314,-4.579857349395752
1772790763154963500,8.65996337890625,-1.4594812393188477,0.536098301410675,-4.7670578956604
1772790763165028600,8.670028564453125,-1.168413758277893,0.4595436155796051,-4.772764205932617
1772790763175093500,8.680093505859375,-0.8915075659751892,0.3242041766643524,-4.565090656280518
1772790763185158400,8.690158447265626,-0.6431217193603516,0.1686321645975113,-4.134844779968262
1772790763195223600,8.7002236328125,-0.36229056119918823,0.08845343440771103,-3.5141031742095947
1772790763205289700,8.710289794921875,-0.07945247739553452,0.07822982221841812,-2.701962947845459
1772790763215354400,8.720354248046876,0.1260463446378708,0.22766272723674774,-1.7810834646224976
1772790763225419500,8.73041943359375,0.16408507525920868,0.6902064085006714,-0.910437822341919
1772790763235484700,8.740484619140625,0.031978704035282135,1.3078230619430542,-0.1413520723581314
1772790763245549600,8.750549560546874,-0.1998840868473053,1.745326280593872,0.4083336889743805
1772790763255614500,8.760614501953125,-0.4030025899410248,1.7144533395767212,0.6115291714668274
1772790763265679600,8.7706796875,-0.41680946946144104,1.2817128896713257,0.48706498742103577
1772790763275744500,8.78074462890625,-0.1441499888896942,0.5839361548423767,0.19128313660621643
1772790763285809400,8.790809326171875,0.3864915072917938,-0.25662699341773987,-0.1150062158703804
1772790763295874600,8.80087451171875,0.9572207927703857,-1.0207598209381104,-0.29313334822654724
1772790763305939500,8.810939453125,1.3128124475479126,-1.5484880208969116,-0.4261435866355896
1772790763316004600,8.821004638671875,1.4200915098190308,-1.8437303304672241,-0.6376547813415527
1772790763326069500,8.831069580078125,1.3627760410308838,-2.0361826419830322,-0.8721138834953308
1772790763336134400,8.841134521484374,1.1905869245529175,-2.1656529903411865,-1.1010125875473022
1772790763346199600,8.851199462890625,0.9624089002609253,-2.1604182720184326,-1.3504503965377808
1772790763356264700,8.8612646484375,0.8067092895507812,-2.1236369609832764,-1.5154552459716797
1772790763366330400,8.871330322265624,0.7950481176376343,-2.2279372215270996,-1.4388012886047363
1772790763376395500,8.8813955078125,0.8560238480567932,-2.452463388442993,-1.104787826538086
1772790763386460400,8.89146044921875,0.8965422511100769,-2.7210819721221924,-0.624563992023468
1772790763396525300,8.901525390625,0.9051812887191772,-2.940743923187256,-0.11229591816663742
1772790763406590500,8.911590576171875,0.8863711357116699,-3.015430212020874,0.3029297888278961
1772790763416655600,8.921655517578126,0.8584902286529541,-2.797907590866089,0.5985337495803833
1772790763426720300,8.93172021484375,0.8466657996177673,-2.3130736351013184,0.84730064868927
1772790763436785400,8.941785400390625,0.7906749248504639,-1.7762339115142822,1.1151446104049683
1772790763446850600,8.9518505859375,0.6588468551635742,-1.3062613010406494,1.3687846660614014
1772790763456915500,8.96191552734375,0.488132119178772,-1.0252538919448853,1.5534125566482544
1772790763466980400,8.97198046875,0.3130364716053009,-0.931577205657959,1.6422127485275269
1772790763477045500,8.98204541015625,0.1426335871219635,-0.9437398314476013,1.6500933170318604
1772790763487110400,8.9921103515625,0.0017768610268831253,-1.0094016790390015,1.6147054433822632
1772790763497175600,9.002175537109375,-0.10163687914609909,-1.033995509147644,1.5763213634490967
1772790763507240400,9.012240478515626,-0.1916634440422058,-0.9499426484107971,1.611354112625122
1772790763517305300,9.022305419921874,-0.2874419093132019,-0.742385983467102,1.7248455286026
1772790763527367400,9.032367431640624,-0.37334907054901123,-0.4883321225643158,1.8581314086914062
1772790763537432300,9.042432373046875,-0.4156928062438965,-0.273505300283432,1.884461522102356
1772790763547497200,9.052497314453126,-0.43013885617256165,-0.11652182042598724,1.7219693660736084
1772790763557562400,9.062562255859374,-0.42235204577445984,-0.034743599593639374,1.393256664276123
1772790763567627300,9.072627197265625,-0.4190497398376465,-0.04017698019742966,0.9497053623199463
1772790763577692200,9.082692138671876,-0.46329307556152344,-0.05793600529432297,0.4591180384159088
1772790763587757300,9.09275732421875,-0.5507851243019104,-0.09491479396820068,-0.015587748028337955
1772790763597822200,9.102822265625,-0.6266692280769348,-0.13192661106586456,-0.45723387598991394
1772790763607887400,9.112887451171876,-0.6445608735084534,-0.11628027260303497,-0.8506192564964294
1772790763617952300,9.1229521484375,-0.5661704540252686,-0.03988909348845482,-1.153468370437622
1772790763628017200,9.13301708984375,-0.36057737469673157,0.03495878353714943,-1.3475509881973267
1772790763638082300,9.143082275390626,-0.07316449284553528,0.07007043063640594,-1.4044177532196045
1772790763648147500,9.1531474609375,0.1879938691854477,0.0367010235786438,-1.3102302551269531
1772790763658212000,9.163212158203125,0.32289814949035645,-0.04398050531744957,-1.0984636545181274
1772790763668277200,9.17327734375,0.3866925835609436,-0.18910014629364014,-0.842670738697052
1772790763678342400,9.18334228515625,0.4247393012046814,-0.4932997226715088,-0.5569066405296326
1772790763688408000,9.193407958984375,0.41329118609428406,-0.8551615476608276,-0.23285508155822754
1772790763698473200,9.20347314453125,0.32374024391174316,-0.9771937131881714,0.08338996767997742
1772790763708538400,9.213538330078125,0.18452057242393494,-0.7620545029640198,0.38030898571014404
1772790763718603000,9.22360302734375,0.07661914080381393,-0.3456980288028717,0.614917516708374
1772790763728668200,9.233668212890626,0.02839462272822857,0.07770278304815292,0.7048586010932922
1772790763738733300,9.2437333984375,0.08488106727600098,0.272833913564682,0.6113254427909851
1772790763748798200,9.253798095703125,0.190360888838768,-0.029220735654234886,0.4705464839935303
1772790763758863000,9.263863037109376,0.2844860553741455,-0.74134361743927,0.3839489817619324
1772790763768928300,9.27392822265625,0.24799223244190216,-1.4664757251739502,0.39051368832588196
1772790763778993200,9.2839931640625,-0.04296877235174179,-2.1313884258270264,0.6002762317657471
1772790763789058300,9.294058349609376,-0.4638923108577728,-2.465797185897827,0.926570475101471
1772790763799123200,9.304123291015625,-0.8058485984802246,-2.119479179382324,1.1111829280853271
1772790763809188000,9.31418798828125,-1.083173394203186,-0.9914354681968689,0.9672906994819641
1772790763819253200,9.324253173828126,-1.318385362625122,0.43015217781066895,0.5741596817970276
1772790763829319200,9.334319091796875,-1.4843412637710571,1.3879423141479492,0.2686586380004883
1772790763839384300,9.34438427734375,-1.4887515306472778,1.5998886823654175,0.025693379342556
1772790763849449200,9.35444921875,-1.293432354927063,1.1040490865707397,-0.21307046711444855
1772790763859514000,9.36451416015625,-1.0306828022003174,0.2666971981525421,-0.45174694061279297
1772790763869579300,9.374579345703125,-0.8156673908233643,-0.5048956871032715,-0.63547283411026
1772790763879644200,9.38464404296875,-0.5709670782089233,-0.9608874320983887,-0.6708143353462219
1772790763889709300,9.394709228515625,-0.2738286256790161,-1.0638513565063477,-0.5962287783622742
1772790763899774200,9.404774169921875,0.026382604613900185,-0.8096688985824585,-0.5256707072257996
1772790763909839000,9.414839111328124,0.2900821566581726,-0.35279321670532227,-0.5089623332023621
1772790763919904300,9.424904296875,0.47600436210632324,0.09938117861747742,-0.5571242570877075
1772790763929969400,9.434969482421875,0.5188977718353271,0.30072495341300964,-0.615598201751709
1772790763940034000,9.445033935546874,0.4047301709651947,0.11275237798690796,-0.6102012991905212
1772790763950099200,9.45509912109375,0.21588967740535736,-0.29151707887649536,-0.5260467529296875
1772790763960164400,9.465164306640625,0.052915677428245544,-0.6871922016143799,-0.36807388067245483
1772790763970229200,9.475229248046874,-0.05861164629459381,-0.841990053653717,-0.12692731618881226
1772790763980295200,9.485295166015625,-0.11691037565469742,-0.7472744584083557,0.1706010401248932
1772790763990360300,9.4953603515625,-0.146389439702034,-0.4731169641017914,0.4639037549495697
1772790764000425200,9.50542529296875,-0.1548849195241928,-0.06822965294122696,0.6744444966316223
1772790764010490000,9.515489990234375,-0.1541150063276291,0.394315630197525,0.7615141272544861
1772790764020555300,9.52555517578125,-0.16728858649730682,0.7708492875099182,0.7133090496063232
1772790764030620400,9.535620361328125,-0.22292734682559967,0.9532974362373352,0.558960497379303
1772790764040685000,9.54568505859375,-0.28837746381759644,0.9182619452476501,0.317664235830307
1772790764050750200,9.555750244140626,-0.3087301552295685,0.7160733938217163,0.01543381717056036
1772790764060815400,9.5658154296875,-0.2871990203857422,0.41719910502433777,-0.27768728137016296
1772790764070880300,9.57588037109375,-0.21927297115325928,0.14090119302272797,-0.491755872964859
1772790764080945200,9.585945068359376,-0.10303956270217896,-0.042633213102817535,-0.5835862159729004
1772790764091010300,9.59601025390625,0.039862193167209625,-0.11403309553861618,-0.5520133972167969
1772790764101075200,9.6060751953125,0.18706576526165009,-0.09756384044885635,-0.4017738103866577
1772790764111140400,9.616140380859376,0.3247983157634735,-0.07943516969680786,-0.18024487793445587
1772790764121205200,9.626205322265625,0.42607834935188293,-0.11510554701089859,0.06836254894733429
1772790764131270100,9.636270263671875,0.4892149567604065,-0.1485135704278946,0.29983413219451904
1772790764141336300,9.64633642578125,0.5370945930480957,-0.13310745358467102,0.4962204098701477
1772790764151401200,9.656401123046875,0.5653419494628906,-0.14077389240264893,0.704883873462677
1772790764161466400,9.66646630859375,0.6097011566162109,-0.1710582971572876,0.9927180409431458
1772790764171531300,9.67653125,0.7961658239364624,-0.1906823366880417,1.3843148946762085
1772790764181596200,9.68659619140625,1.1326485872268677,-0.39725762605667114,1.9810030460357666
1772790764191661300,9.696661376953125,1.533874750137329,-0.7239190936088562,2.7443296909332275
1772790764201726200,9.706726318359374,1.7730865478515625,-0.5700799822807312,3.2643773555755615
1772790764211791400,9.716791259765625,1.5603485107421875,0.06402026116847992,2.9614498615264893
1772790764221856300,9.726856201171875,0.9238905310630798,0.007020625285804272,1.8810465335845947
1772790764231921200,9.736921142578124,0.20557686686515808,-0.8446111679077148,0.6266748309135437
1772790764241986300,9.746986328125,-0.4848218262195587,-1.5209318399429321,-0.6019457578659058
1772790764252051500,9.757051513671875,-1.2867594957351685,-1.9474290609359741,-1.6522504091262817
1772790764262116000,9.7671162109375,-1.8100227117538452,-1.6422529220581055,-2.396944761276245
1772790764272181200,9.77718115234375,-1.7583049535751343,-0.23190060257911682,-2.9307334423065186
1772790764282246400,9.787246337890625,-1.2143385410308838,1.1791566610336304,-3.2176952362060547
1772790764292312000,9.79731201171875,-0.5342003107070923,1.6361196041107178,-3.270214319229126
1772790764302377200,9.807377197265625,-0.0190192312002182,0.9858564138412476,-3.166027069091797
1772790764312442400,9.8174423828125,0.17178720235824585,-0.24519245326519012,-2.986708164215088
1772790764322507300,9.82750732421875,0.12002627551555634,-1.4054152965545654,-2.7628941535949707
1772790764332572200,9.837572265625,-0.04429689049720764,-2.1159090995788574,-2.5150585174560547
1772790764342637300,9.84763720703125,-0.23940779268741608,-2.1945064067840576,-2.2240607738494873
1772790764352702200,9.8577021484375,-0.3180690407752991,-1.7305060625076294,-1.8810851573944092
1772790764362767000,9.86776708984375,-0.3721836805343628,-0.8721607327461243,-1.3903471231460571
1772790764372832300,9.877832275390626,-0.46014657616615295,-0.026548519730567932,-0.8292902708053589
1772790764382897200,9.887897216796874,-0.5485193133354187,0.4180353283882141,-0.3795100450515747
1772790764392962300,9.89796240234375,-0.6056406497955322,0.45008033514022827,-0.10405050218105316
1772790764403027200,9.908027099609376,-0.5855833292007446,0.19519080221652985,0.02907373011112213
1772790764413092000,9.918092041015624,-0.49573466181755066,-0.20806078612804413,0.11634871363639832
1772790764423157200,9.9281572265625,-0.4325633943080902,-0.6069504022598267,0.21292665600776672
1772790764433222400,9.938222412109376,-0.4187946021556854,-0.835272490978241,0.3419698476791382
1772790764443288300,9.948288330078125,-0.4518771767616272,-0.8385924100875854,0.4799727201461792
1772790764453353200,9.958353271484375,-0.5308537483215332,-0.6694702506065369,0.6161121726036072
1772790764463418400,9.96841845703125,-0.6266924142837524,-0.40357887744903564,0.6794933080673218
1772790764473483300,9.978483154296875,-0.7398181557655334,-0.09792602807283401,0.6269126534461975
1772790764483548200,9.988548095703125,-0.8206794261932373,0.1434788703918457,0.4814137816429138
1772790764493613300,9.99861328125,-0.8575711250305176,0.2862192392349243,0.3246734142303467
1772790764503678200,10.00867822265625,-0.8490314483642578,0.32820796966552734,0.22483018040657043
1772790764513743000,10.0187431640625,-0.8106286525726318,0.3192421793937683,0.20033682882785797
1772790764523812400,10.028812255859375,-0.745305597782135,0.28013551235198975,0.2592294216156006
1772790764533877200,10.038877197265625,-0.6473497152328491,0.19617164134979248,0.4269324243068695
1772790764543942400,10.0489423828125,-0.5546832084655762,0.10821381956338882,0.6736505627632141
1772790764554007300,10.05900732421875,-0.4961940348148346,0.04421113803982735,0.965424120426178
1772790764564072400,10.069072509765626,-0.487042635679245,0.06962568312883377,1.2889195680618286
1772790764574137300,10.079137451171874,-0.5349624752998352,0.2007932960987091,1.6176048517227173
1772790764584203500,10.08920361328125,-0.6200693845748901,0.267898827791214,1.942041277885437
1772790764594268400,10.099268310546876,-0.7298813462257385,0.25180402398109436,2.2898643016815186
1772790764604333300,10.109333251953124,-0.7841786742210388,0.18837283551692963,2.7096517086029053
1772790764614398500,10.1193984375,-0.7330138087272644,0.09792416542768478,3.101088047027588
1772790764624463400,10.12946337890625,-0.4575752913951874,0.13130369782447815,3.2014408111572266
1772790764634528500,10.139528564453125,-0.038786012679338455,0.25572073459625244,2.857362747192383
1772790764644593400,10.149593505859375,0.2453668862581253,0.4432898163795471,2.065901279449463
1772790764654658300,10.159658203125,0.2833597958087921,0.5116742253303528,1.144682765007019
1772790764664723500,10.169723388671875,0.22433696687221527,0.4685416519641876,0.38814106583595276
1772790764674788400,10.179788330078125,0.19601477682590485,0.20699766278266907,0.06606823205947876
1772790764684853200,10.189853271484376,0.11687309294939041,-0.2312188446521759,0.13642708957195282
1772790764694918400,10.19991845703125,-0.14069373905658722,-0.6606197357177734,0.3826483190059662
1772790764704983600,10.209983642578125,-0.5312361717224121,-0.8424510359764099,0.6180874705314636
1772790764715048200,10.220048095703126,-0.8556036353111267,-0.7026806473731995,0.736640214920044
1772790764725113300,10.23011328125,-1.03134024143219,-0.24006399512290955,0.6546374559402466
1772790764735179500,10.240179443359375,-1.069959282875061,0.3870531916618347,0.3273885250091553
1772790764745244200,10.250244140625,-1.0847673416137695,0.8165786862373352,-0.14135552942752838
1772790764755309300,10.260309326171875,-1.1063271760940552,0.8300852179527283,-0.5932303071022034
1772790764765374500,10.27037451171875,-1.0079660415649414,0.5366759300231934,-0.993372917175293
1772790764775439400,10.280439453125,-0.7502551078796387,0.02851952612400055,-1.3669416904449463
1772790764785504300,10.290504150390625,-0.4217139482498169,-0.5973116159439087,-1.704382300376892
1772790764795569400,10.3005693359375,-0.11078057438135147,-1.140049934387207,-2.006490707397461
1772790764805634300,10.31063427734375,0.15882879495620728,-1.5466262102127075,-2.2732479572296143
1772790764815699500,10.320699462890625,0.3443264961242676,-1.7461888790130615,-2.4338128566741943
1772790764825764400,10.330764404296875,0.42185908555984497,-1.7061314582824707,-2.42581844329834
1772790764835829200,10.340829345703124,0.43441590666770935,-1.6607052087783813,-2.1716792583465576
1772790764845894400,10.350894287109375,0.40324094891548157,-1.7131507396697998,-1.6959856748580933
1772790764855959300,10.360959228515625,0.38928624987602234,-1.9004772901535034,-1.1184512376785278
1772790764866024200,10.371024169921874,0.40113064646720886,-2.206313133239746,-0.5668876767158508
1772790764876090400,10.38109033203125,0.4307766854763031,-2.4625723361968994,-0.16923242807388306
1772790764886155300,10.3911552734375,0.4412889778614044,-2.5940842628479004,0.12226918339729309
1772790764896220400,10.401220458984374,0.3555530309677124,-2.607828378677368,0.39297738671302795
1772790764906285300,10.411285400390625,0.23026010394096375,-2.5283241271972656,0.5862025022506714
1772790764916350500,10.4213505859375,0.12623170018196106,-2.3404994010925293,0.6447268128395081
1772790764926415400,10.431415283203124,0.041064344346523285,-2.097959280014038,0.5927152633666992
1772790764936480300,10.441480224609375,-0.06862539798021317,-1.8098464012145996,0.4976364076137543
1772790764946545400,10.45154541015625,-0.15861840546131134,-1.4607810974121094,0.4184473156929016
1772790764956610600,10.461610595703124,-0.13655118644237518,-1.2562601566314697,0.37971803545951843
1772790764966675200,10.47167529296875,-0.08599879592657089,-1.0805978775024414,0.34973376989364624
1772790764976740400,10.481740234375,0.022815832868218422,-0.9097477793693542,0.31991541385650635
1772790764986805500,10.491805419921874,0.2067718207836151,-0.6904239654541016,0.328535795211792
1772790764996870400,10.501870361328125,0.4646313190460205,-0.40159961581230164,0.390656977891922
1772790765006935300,10.511935302734376,0.7973315119743347,-0.07317247986793518,0.4716421067714691
1772790765017000400,10.52200048828125,1.1766306161880493,0.27377721667289734,0.560592770576477
1772790765027066400,10.53206640625,1.5579819679260254,0.5416717529296875,0.6392372250556946
1772790765037131300,10.54213134765625,1.8881406784057617,0.7299607396125793,0.6461699604988098
1772790765047196400,10.552196533203125,2.1170437335968018,0.9424088001251221,0.5826639533042908
1772790765057261600,10.562261474609375,2.2049431800842285,1.2479878664016724,0.5181419253349304
1772790765067326200,10.572326171875,2.088855266571045,1.5736660957336426,0.49972566962242126
1772790765077391400,10.582391357421875,1.7502187490463257,1.720351219177246,0.5603154897689819
1772790765087456500,10.59245654296875,1.2504827976226807,1.7415605783462524,0.6506917476654053
1772790765097521400,10.602521484375,0.7477959394454956,1.8826884031295776,0.6523628830909729
1772790765107586300,10.61258642578125,0.3612351715564728,2.2508914470672607,0.559108555316925
1772790765117651500,10.6226513671875,0.11489170044660568,2.929044723510742,0.45813000202178955
1772790765127716400,10.63271630859375,-0.09244657307863235,3.6331729888916016,0.4263603687286377
1772790765137781500,10.642781494140625,-0.40863996744155884,4.012911796569824,0.48378103971481323
1772790765147846400,10.652846435546875,-0.7827072739601135,4.05922794342041,0.5765876770019531
1772790765157911300,10.662911376953126,-1.1391277313232422,3.8301408290863037,0.6112772226333618
1772790765167977200,10.672977294921875,-1.5187005996704102,3.2919857501983643,0.5879839062690735
1772790765178042400,10.68304248046875,-1.8596845865249634,2.872441291809082,0.5691547989845276
1772790765188107300,10.693107177734374,-2.0540735721588135,2.800619602203369,0.4594504237174988
1772790765198172400,10.70317236328125,-1.9923046827316284,2.8719348907470703,0.10440497100353241
1772790765208237300,10.7132373046875,-1.6745474338531494,2.952542781829834,-0.5108675360679626
1772790765218302200,10.72330224609375,-1.201393723487854,3.035912275314331,-1.3082847595214844
1772790765228367400,10.733367431640625,-0.7245169878005981,3.032075881958008,-2.0975985527038574
1772790765238432500,10.7434326171875,-0.3569565415382385,2.9423532485961914,-2.616300106048584
1772790765248497400,10.753497314453124,-0.10265074670314789,2.9209723472595215,-2.813772201538086
1772790765258562300,10.763562255859375,0.009138370864093304,2.882702112197876,-2.825852632522583
1772790765268627500,10.77362744140625,0.09607673436403275,2.389192581176758,-2.8588876724243164
1772790765278692600,10.783692626953124,0.24350160360336304,1.3583061695098877,-2.9632651805877686
1772790765288757200,10.79375732421875,0.41332685947418213,0.055991631001234055,-3.087399482727051
1772790765298822400,10.803822509765626,0.5516700744628906,-1.0785698890686035,-3.2143008708953857
1772790765308888300,10.813888427734375,0.6582173109054565,-1.8395981788635254,-3.3076560497283936
1772790765318953200,10.823953125,0.76092928647995,-2.209089756011963,-3.2326276302337646
1772790765329018400,10.834018310546876,0.9508587718009949,-2.4211316108703613,-2.8089494705200195
1772790765339083500,10.84408349609375,1.1788111925125122,-2.5965993404388428,-2.2532870769500732
1772790765349148200,10.854148193359375,1.2248088121414185,-2.6807754039764404,-1.8158042430877686
1772790765359213300,10.86421337890625,1.1717522144317627,-2.4124374389648438,-1.4939579963684082
1772790765369278500,10.874278564453125,1.3300079107284546,-1.6576273441314697,-0.5900763273239136
1772790765379343400,10.88434326171875,1.3464704751968384,-0.6216752529144287,-0.10954327136278152
1772790765389408300,10.894408203125,1.3238976001739502,0.4140421748161316,0.3425147235393524
1772790765399473400,10.904473388671875,1.2652896642684937,0.9001295566558838,0.8367337584495544
1772790765409538300,10.914538330078125,1.1129701137542725,0.6323345899581909,1.0822311639785767
1772790765419603500,10.924603515625,0.9922666549682617,0.4005604684352875,1.1688928604125977
1772790765429668400,10.93466845703125,0.8717993497848511,0.263789564371109,1.0831624269485474
1772790765439733200,10.944733154296875,0.7700804471969604,0.1469433754682541,0.914311945438385
1772790765449799400,10.95479931640625,0.7175373435020447,0.0803997665643692,0.7536618113517761
1772790765459864300,10.9648642578125,0.6599656939506531,0.03200453892350197,0.5893362164497375
1772790765469929500,10.974929443359375,0.5923932790756226,-0.01555365975946188,0.4117899537086487
1772790765479994400,10.984994384765624,0.5540770292282104,-0.05207332223653793,0.22989977896213531
1772790765490059300,10.995059326171875,0.5942620038986206,-0.006698648910969496,0.07960880547761917
1772790765500124400,11.00512451171875,0.6959692239761353,0.4194585084915161,0.05056197568774223
1772790765510189300,11.015189208984374,0.7079800367355347,1.206898808479309,0.20728927850723267
1772790765520254500,11.02525439453125,0.6489620208740234,1.1888846158981323,0.32918429374694824
1772790765530319400,11.0353193359375,0.5662223696708679,1.0577937364578247,0.40865060687065125
1772790765540384500,11.045384521484374,0.47701528668403625,0.9936863780021667,0.4216729402542114
1772790765550449700,11.05544970703125,0.5152153968811035,0.7908051609992981,0.48043400049209595
1772790765560514600,11.0655146484375,0.6788557171821594,0.6216608881950378,0.5983201265335083
1772790765570579500,11.075579345703124,0.8182770013809204,0.4400567412376404,0.5798247456550598
1772790765580644600,11.08564453125,0.8406108021736145,-0.14660409092903137,0.3492485284805298
1772790765590710500,11.09571044921875,0.7079209685325623,-1.1077402830123901,0.18707135319709778
1772790765600775400,11.105775390625,0.442810982465744,-2.067127227783203,0.47865551710128784
1772790765610840600,11.115840576171875,0.05782787874341011,-2.2361693382263184,1.1141915321350098
1772790765620905500,11.125905517578126,-0.42783257365226746,-1.8113809823989868,1.96983003616333
1772790765630970400,11.135970458984374,-0.7149479389190674,-1.3843721151351929,2.669299840927124
1772790765641035500,11.146035400390625,-0.527873694896698,-1.2024742364883423,2.8396573066711426
1772790765651100400,11.156100341796876,0.06542880833148956,-1.4483671188354492,2.1645004749298096
1772790765661165600,11.16616552734375,0.7224165201187134,-1.7286854982376099,0.8110353350639343
1772790765671230500,11.17623046875,1.214216947555542,-1.9966051578521729,-0.5951064825057983
1772790765681295400,11.18629541015625,1.4054651260375977,-2.248671770095825,-1.5742008686065674
1772790765691360500,11.196360595703124,1.3434816598892212,-2.4830617904663086,-1.968051791191101
1772790765701425700,11.20642578125,1.2294608354568481,-2.479891300201416,-1.891855239868164
1772790765711490300,11.216490234375,1.0214471817016602,-2.2881417274475098,-1.5757015943527222
1772790765721555500,11.226555419921874,0.7663205862045288,-1.7913883924484253,-1.1832197904586792
1772790765731621400,11.236621337890625,0.5261183977127075,-1.350975751876831,-0.8776766657829285
1772790765741686500,11.2466865234375,0.36835432052612305,-0.9470065236091614,-0.7354617714881897
1772790765751751400,11.25675146484375,0.23135413229465485,-0.5253633856773376,-0.7449839115142822
1772790765761816600,11.266816650390625,0.08471675217151642,-0.025895247235894203,-0.8298500180244446
1772790765771881500,11.276881591796876,0.05017128959298134,0.811208188533783,-0.9767052531242371
1772790765781946400,11.2869462890625,0.11865022033452988,1.8343541622161865,-1.21841561794281
1772790765792011500,11.297011474609375,0.23579974472522736,2.37699556350708,-1.4048733711242676
1772790765802076700,11.30707666015625,0.384234756231308,2.9391469955444336,-1.4328675270080566
1772790765812141300,11.317141357421875,0.5132712721824646,3.412789821624756,-1.3406283855438232
1772790765822206500,11.32720654296875,0.6085264682769775,3.6914584636688232,-1.1666672229766846
1772790765832271600,11.337271728515624,0.6682448983192444,3.8718483448028564,-0.9343607425689697
1772790765842336500,11.34733642578125,0.6613891124725342,3.9669644832611084,-0.6947526931762695
1772790765852401400,11.3574013671875,0.5733903050422668,3.9602742195129395,-0.4751819670200348
1772790765862466600,11.367466552734374,0.46476367115974426,3.8284759521484375,-0.29884448647499084
1772790765872532500,11.377532470703125,0.35614877939224243,3.5635435581207275,-0.16724252700805664
1772790765882597400,11.387597412109375,0.26797205209732056,3.082247257232666,-0.11836419254541397
1772790765892662500,11.39766259765625,0.14885684847831726,2.506850242614746,-0.07194290310144424
1772790765902727700,11.407727783203125,0.013439642265439034,1.8440512418746948,0.003221359569579363
1772790765912792300,11.417792236328125,-0.11784914135932922,1.143701434135437,0.15733769536018372
1772790765922857500,11.427857421875,-0.2196255624294281,0.486148864030838,0.40337756276130676
1772790765932922600,11.437922607421875,-0.266181617975235,-0.03749171644449234,0.6985633969306946
1772790765942987500,11.447987548828126,-0.2052396982908249,-0.12367027252912521,0.8399077653884888
1772790765953052400,11.458052490234374,-0.13159717619419098,-0.44910934567451477,0.9829202890396118
1772790765963117600,11.46811767578125,-0.06608660519123077,-0.8107895255088806,1.0506372451782227
1772790765973182500,11.478182373046875,-0.022252574563026428,-1.169762372970581,0.9648065567016602
1772790765983247600,11.48824755859375,-0.058524828404188156,-1.44443941116333,0.8291072845458984
1772790765993312500,11.4983125,-0.21078839898109436,-1.5878357887268066,0.9340336918830872
1772790766003377400,11.50837744140625,-0.4338129460811615,-1.560765266418457,1.4301393032073975
1772790766013443600,11.518443603515625,-0.642199695110321,-1.23634672164917,2.033961296081543
1772790766023508500,11.528508544921875,-0.8328434228897095,-0.7936038970947266,2.210801601409912
1772790766033573400,11.538573486328126,-0.9448296427726746,-0.4588339030742645,1.7354505062103271
1772790766043638500,11.548638427734375,-0.9438032507896423,-0.30357053875923157,0.9722756147384644
1772790766053703400,11.558703369140625,-0.8868646025657654,-0.2651805281639099,0.4709547460079193
1772790766063768300,11.568768310546876,-0.7864293456077576,-0.2614251971244812,0.4533941149711609
1772790766073833500,11.57883349609375,-0.6348544359207153,-0.3005489110946655,0.8112508058547974
1772790766083898600,11.588898681640625,-0.4872356951236725,-0.30479559302330017,1.3016226291656494
1772790766093963300,11.59896337890625,-0.3272862434387207,-0.31782591342926025,1.6276260614395142
1772790766104028400,11.6090283203125,-0.19475430250167847,-0.43956297636032104,1.6097434759140015
1772790766114093600,11.619093505859375,-0.09955375641584396,-0.6234779357910156,1.3027467727661133
1772790766124158500,11.629158447265626,-0.016950488090515137,-0.8401740789413452,0.8275730609893799
1772790766134223400,11.639223388671875,0.009358081966638565,-1.1016041040420532,0.24708782136440277
1772790766144288500,11.64928857421875,-0.05296041816473007,-1.2374756336212158,-0.36246901750564575
1772790766154354700,11.659354736328124,-0.1889885663986206,-1.1688233613967896,-0.9568684697151184
1772790766164419300,11.66941943359375,-0.30543288588523865,-0.9902490377426147,-1.4524049758911133
1772790766174484500,11.679484375,-0.31097039580345154,-0.7771977782249451,-1.7434780597686768
1772790766184549600,11.689549560546874,-0.22575350105762482,-0.5701524019241333,-1.7749364376068115
1772790766194614500,11.699614501953125,-0.10944207012653351,-0.3738870322704315,-1.5535541772842407
1772790766204679400,11.709679443359375,0.002698314841836691,-0.18709105253219604,-1.1529303789138794
1772790766214744600,11.71974462890625,0.11010892689228058,-0.09662933647632599,-0.6860422492027283
1772790766224809500,11.7298095703125,0.19272683560848236,-0.09221354871988297,-0.23730576038360596
1772790766234874400,11.739874267578125,0.22302056849002838,-0.11337689310312271,0.13425473868846893
1772790766244939500,11.749939453125,0.22358755767345428,-0.140916645526886,0.38313648104667664
1772790766255004400,11.76000439453125,0.20946161448955536,-0.19225093722343445,0.47006815671920776
1772790766265069600,11.770069580078125,0.16751869022846222,-0.25372201204299927,0.38466617465019226
1772790766275134500,11.780134521484374,0.0965702161192894,-0.2471511960029602,0.16479161381721497
1772790766285200600,11.79020068359375,0.009555421769618988,-0.07087017595767975,-0.14402535557746887
1772790766295265500,11.800265625,-0.06472893059253693,0.27609017491340637,-0.45548948645591736
1772790766305330400,11.810330322265624,-0.09660962969064713,0.6832292079925537,-0.6773422360420227
1772790766315395600,11.8203955078125,-0.05498442053794861,1.0319451093673706,-0.765329897403717
1772790766325460500,11.83046044921875,0.02004081942141056,1.2156480550765991,-0.704800009727478
1772790766335525600,11.840525634765624,0.07572751492261887,1.2199578285217285,-0.524735152721405
1772790766345590500,11.850590576171875,0.1097419410943985,1.0552376508712769,-0.2524831295013428
1772790766355655400,11.860655517578126,0.1303742527961731,0.792377233505249,0.06063458323478699
1772790766365720600,11.870720458984374,0.1285039186477661,0.5095354318618774,0.3444729745388031
1772790766375785500,11.880785400390625,0.11274838447570801,0.23697632551193237,0.5737218856811523
1772790766385850400,11.890850341796876,0.09163085371255875,-0.03386981785297394,0.7530527114868164
1772790766395915500,11.90091552734375,0.0653582364320755,-0.2696804702281952,0.8872683048248291
1772790766405980700,11.910980712890625,0.015980830416083336,-0.4465649724006653,0.9870502948760986
1772790766416045300,11.92104541015625,-0.0475749745965004,-0.550511360168457,1.0778836011886597
1772790766426111500,11.931111572265625,-0.1239890530705452,-0.5323371291160583,1.1720795631408691
1772790766436176600,11.9411767578125,-0.17560537159442902,-0.3760841488838196,1.2454904317855835
1772790766446241300,11.9512412109375,-0.20682081580162048,-0.15668414533138275,1.2330560684204102
1772790766456306400,11.961306396484375,-0.2087060809135437,0.06455156207084656,1.1335095167160034
1772790766466371600,11.97137158203125,-0.19200699031352997,0.2031049132347107,1.0145474672317505
1772790766476436500,11.9814365234375,-0.16719138622283936,0.25293612480163574,0.9706742763519287
1772790766486501400,11.99150146484375,-0.13554957509040833,0.23437654972076416,1.0686596632003784
1772790766496566500,12.00156640625,-0.16139449179172516,0.14475852251052856,1.190106749534607
1772790766506631400,12.01163134765625,-0.28136616945266724,0.05411223694682121,1.1308101415634155
1772790766516696600,12.021696533203125,-0.5069835782051086,0.09572385996580124,0.7952041625976562
1772790766526757400,12.03175732421875,-0.7954151034355164,0.16163469851016998,0.29411739110946655
1772790766536822500,12.041822509765625,-1.014515995979309,0.25033581256866455,0.020263459533452988
1772790766546887400,12.051887451171876,-0.9826915264129639,0.4250948429107666,0.15614646673202515
1772790766556952600,12.06195263671875,-0.6411603093147278,0.6049631237983704,0.5043728947639465
1772790766567017500,12.072017578125,-0.10920238494873047,0.8049878478050232,0.7627040147781372
1772790766577082400,12.082082275390626,0.3947553038597107,0.9027546048164368,0.7948672771453857
1772790766587147500,12.0921474609375,0.7120863795280457,0.7174745202064514,0.6296831369400024
1772790766597212700,12.102212646484375,0.8158119916915894,0.04736405238509178,0.33285677433013916
1772790766607277300,12.11227734375,0.7018119096755981,-1.005862832069397,-0.01980246603488922
1772790766617343500,12.122343505859375,0.40533551573753357,-1.9633063077926636,-0.40366649627685547
1772790766627408400,12.132408447265625,0.08110124617815018,-2.4006872177124023,-0.7732943296432495
1772790766637473500,12.1424736328125,-0.08243415504693985,-2.312098979949951,-1.1247488260269165
1772790766647538400,12.152538330078125,-0.04680665209889412,-1.8151624202728271,-1.370158076286316
1772790766657603600,12.162603515625,0.08803372085094452,-1.0320700407028198,-1.4300695657730103
1772790766667668500,12.17266845703125,0.1674097627401352,-0.12741760909557343,-1.3844064474105835
1772790766677733400,12.1827333984375,0.1308773159980774,0.5919530391693115,-1.3414674997329712
1772790766687798500,12.192798583984375,-0.01423273142427206,0.8733280301094055,-1.3425575494766235
1772790766697863700,12.20286376953125,-0.2369382381439209,0.748299777507782,-1.3399401903152466
1772790766707928300,12.21292822265625,-0.4088383615016937,0.3519303500652313,-1.2482233047485352
1772790766717993500,12.222993408203125,-0.41863080859184265,-0.11173052340745926,-0.9126666188240051
1772790766728058600,12.23305859375,-0.32241877913475037,-0.29757604002952576,-0.38698872923851013
1772790766738123500,12.24312353515625,-0.1469966322183609,-0.3556739389896393,0.022368421778082848
1772790766748188400,12.2531884765625,-0.006340986583381891,-0.23718059062957764,0.256134033203125
1772790766758254600,12.263254638671874,0.10899892449378967,0.13353249430656433,0.3189265727996826
1772790766768319500,12.273319580078125,0.1766940802335739,0.6138588786125183,0.2696583867073059
1772790766778384400,12.28338427734375,0.1678052395582199,1.1037486791610718,0.1799418032169342
1772790766788449500,12.293449462890624,0.09348893910646439,1.3259087800979614,0.1073288545012474
1772790766798514700,12.3035146484375,-0.021287178620696068,1.3087068796157837,0.055337291210889816
1772790766808579300,12.313579345703126,-0.11604324728250504,1.0456331968307495,0.055151935666799545
1772790766818644500,12.32364453125,-0.16138596832752228,0.7380666136741638,0.08140803873538971
1772790766828709600,12.333709716796875,-0.1447601169347763,0.44802597165107727,0.060807425528764725
1772790766838774500,12.3437744140625,-0.07874008268117905,0.19074678421020508,-0.02677089348435402
1772790766848839400,12.35383935546875,0.04103079065680504,-0.022612102329730988,-0.12483354657888412
1772790766858904600,12.363904541015625,0.17062979936599731,-0.2357986718416214,-0.18380391597747803
1772790766868969500,12.373969482421876,0.26746073365211487,-0.43859198689460754,-0.19154652953147888
1772790766879034600,12.38403466796875,0.28199148178100586,-0.612001359462738,-0.11906327307224274
1772790766889100500,12.3941005859375,0.23778006434440613,-0.6802208423614502,0.047386158257722855
1772790766899165400,12.40416552734375,0.18437330424785614,-0.6623870134353638,0.29729345440864563
1772790766909230600,12.414230712890625,0.14132463932037354,-0.6620093584060669,0.5917834043502808
1772790766919295500,12.42429541015625,0.0935635045170784,-0.6710721254348755,0.9189589023590088
1772790766929360400,12.4343603515625,0.06288788467645645,-0.3460756540298462,1.3026388883590698
1772790766939425500,12.444425537109375,0.04998673498630524,-0.26191070675849915,1.4977988004684448
1772790766949490400,12.454490478515625,-0.016590427607297897,-0.19017234444618225,1.398772120475769
1772790766959555300,12.464555419921876,-0.13045254349708557,-0.10638902336359024,1.006070613861084
1772790766969620500,12.474620361328125,-0.24728170037269592,-0.12536324560642242,0.47856417298316956
1772790766979685600,12.484685546875,-0.33591729402542114,-0.12445458024740219,0.07105047255754471
1772790766989750300,12.494750244140626,-0.39641445875167847,-0.08067380636930466,-0.0999087542295456
1772790766999815400,12.5048154296875,-0.45342206954956055,0.10961917042732239,-0.007851531729102135
1772790767009880600,12.514880615234375,-0.462726891040802,0.47653165459632874,0.29891613125801086
1772790767019945500,12.524945556640626,-0.3841143846511841,0.8257511854171753,0.5723181366920471
1772790767030011400,12.535011474609375,-0.2910888195037842,1.0368061065673828,0.6417176723480225
1772790767040076500,12.54507666015625,-0.17668688297271729,1.0813238620758057,0.5635813474655151
1772790767050141700,12.5551416015625,-0.026455841958522797,1.0293503999710083,0.40537306666374207
1772790767060206300,12.565206298828125,0.10826202481985092,0.8621107935905457,0.18061691522598267
1772790767070271500,12.575271484375,0.2250373810529709,0.5825185179710388,-0.10369417071342468
1772790767080336600,12.585336669921874,0.2928462624549866,0.20412251353263855,-0.47804298996925354
1772790767090401500,12.595401611328125,0.3234230577945709,-0.1692044734954834,-0.9316653609275818
1772790767100466400,12.605466552734375,0.40588119626045227,-0.3692518174648285,-1.2877938747406006
1772790767110532600,12.61553271484375,0.5182764530181885,-0.3627294600009918,-1.4184166193008423
