time,seconds_elapsed,z,y,x
1772788667047236600,0.060236572265625,-0.996734619140625,-0.0467987060546875,0.042236328125
1772788667057301800,0.0703017578125,-1.0003662109375,-0.051788330078125,0.0418853759765625
1772788667067366700,0.08036669921875,-1.0052490234375,-0.053314208984375,0.04364013671875
1772788667077432600,0.0904326171875,-1.0095367431640625,-0.0553741455078125,0.0441131591796875
1772788667087497700,0.100497802734375,-1.0131988525390625,-0.052734375,0.044525146484375
1772788667097563000,0.11056298828125,-1.014190673828125,-0.05047607421875,0.0438690185546875
1772788667107627500,0.12062744140625,-1.0091400146484375,-0.0504913330078125,0.0395660400390625
1772788667117692700,0.130692626953125,-1.0028839111328125,-0.0477142333984375,0.0372314453125
1772788667127757800,0.1407578125,-1.003814697265625,-0.0444793701171875,0.0348968505859375
1772788667137822700,0.15082275390625,-1.0083465576171875,-0.04498291015625,0.0327911376953125
1772788667147887600,0.1608876953125,-1.01275634765625,-0.0428466796875,0.031951904296875
1772788667157953800,0.170953857421875,-1.01214599609375,-0.04486083984375,0.033477783203125
1772788667168019000,0.18101904296875,-1.012176513671875,-0.046142578125,0.033538818359375
1772788667178083600,0.19108349609375,-1.012115478515625,-0.0450439453125,0.033905029296875
1772788667188148700,0.201148681640625,-1.0135498046875,-0.0439300537109375,0.033782958984375
1772788667198214000,0.2112138671875,-1.0121307373046875,-0.0459442138671875,0.0356903076171875
1772788667208278800,0.22127880859375,-1.0134429931640625,-0.0468597412109375,0.0346832275390625
1772788667218343700,0.23134375,-1.01361083984375,-0.0452880859375,0.0372772216796875
1772788667228408800,0.241408935546875,-1.0076751708984375,-0.0471038818359375,0.0378570556640625
1772788667238474500,0.251474609375,-1.0024261474609375,-0.048065185546875,0.03741455078125
1772788667248539600,0.26153955078125,-1.0015106201171875,-0.049835205078125,0.0384674072265625
1772788667258604800,0.271604736328125,-1.002532958984375,-0.05340576171875,0.0402984619140625
1772788667268669700,0.281669677734375,-1.003326416015625,-0.056121826171875,0.0428619384765625
1772788667278734600,0.291734619140625,-1.0070648193359375,-0.0537109375,0.04278564453125
1772788667288799700,0.3017998046875,-1.0094146728515625,-0.054229736328125,0.0433807373046875
1772788667298864600,0.31186474609375,-1.0111083984375,-0.054962158203125,0.04058837890625
1772788667308929800,0.3219296875,-1.0131378173828125,-0.0536956787109375,0.0393524169921875
1772788667318995700,0.33199560546875,-1.011566162109375,-0.0508575439453125,0.03900146484375
1772788667329060900,0.342060791015625,-1.0083160400390625,-0.0468902587890625,0.0365753173828125
1772788667339125800,0.352125732421875,-1.0070037841796875,-0.0455474853515625,0.034576416015625
1772788667349190700,0.362190673828125,-1.0063323974609375,-0.04705810546875,0.03515625
1772788667359255800,0.372255859375,-1.007781982421875,-0.049285888671875,0.0366973876953125
1772788667369320700,0.38232080078125,-1.01129150390625,-0.0498809814453125,0.0374298095703125
1772788667379385600,0.392385498046875,-1.015380859375,-0.04742431640625,0.037078857421875
1772788667389450800,0.40245068359375,-1.0136871337890625,-0.0495758056640625,0.037933349609375
1772788667399517000,0.412516845703125,-1.0133514404296875,-0.04962158203125,0.037872314453125
1772788667409581600,0.42258154296875,-1.011871337890625,-0.0480194091796875,0.039794921875
1772788667419646700,0.432646728515625,-1.01141357421875,-0.05084228515625,0.04229736328125
1772788667429712000,0.4427119140625,-1.0095367431640625,-0.055023193359375,0.045196533203125
1772788667439776800,0.45277685546875,-1.006256103515625,-0.0592803955078125,0.04595947265625
1772788667449841700,0.462841552734375,-1.0030975341796875,-0.0590667724609375,0.046661376953125
1772788667459906800,0.47290673828125,-1.0033721923828125,-0.0565948486328125,0.04876708984375
1772788667469971700,0.4829716796875,-1.001678466796875,-0.054168701171875,0.0480499267578125
1772788667480037600,0.49303759765625,-1.002288818359375,-0.05487060546875,0.0455474853515625
1772788667490102800,0.503102783203125,-1.00823974609375,-0.053253173828125,0.0458526611328125
1772788667500167700,0.513167724609375,-1.011383056640625,-0.0546112060546875,0.0441436767578125
1772788667510232600,0.523232666015625,-1.0068359375,-0.0537261962890625,0.04083251953125
1772788667520297700,0.533297607421875,-0.9997406005859375,-0.0523529052734375,0.037841796875
1772788667530362600,0.543362548828125,-0.9992218017578125,-0.0514984130859375,0.0353851318359375
1772788667540427800,0.553427734375,-1.0025177001953125,-0.0498046875,0.0345001220703125
1772788667550492700,0.56349267578125,-1.014495849609375,-0.0504302978515625,0.036834716796875
1772788667560558800,0.573558837890625,-1.02252197265625,-0.048309326171875,0.0369720458984375
1772788667570623700,0.583623779296875,-1.014251708984375,-0.0569610595703125,0.0345458984375
1772788667580688600,0.593688720703125,-1.020355224609375,-0.0571441650390625,0.0381317138671875
1772788667590753800,0.60375390625,-1.0263824462890625,-0.051513671875,0.036651611328125
1772788667600818700,0.613818603515625,-1.0177764892578125,-0.0548553466796875,0.0363922119140625
1772788667610883800,0.6238837890625,-1.01507568359375,-0.0559234619140625,0.038055419921875
1772788667620948700,0.63394873046875,-1.0126953125,-0.0533447265625,0.0365447998046875
1772788667631013600,0.644013671875,-1.0045928955078125,-0.0551910400390625,0.035400390625
1772788667641079600,0.65407958984375,-1.0059661865234375,-0.05633544921875,0.0342254638671875
1772788667651144700,0.664144775390625,-1.0057830810546875,-0.05499267578125,0.036529541015625
1772788667661209900,0.6742099609375,-1.00311279296875,-0.0560150146484375,0.037750244140625
1772788667671274800,0.684274658203125,-1.0033416748046875,-0.0565338134765625,0.040435791015625
1772788667681339600,0.694339599609375,-0.9993743896484375,-0.0582427978515625,0.0409393310546875
1772788667691404800,0.70440478515625,-0.999053955078125,-0.0605316162109375,0.0412750244140625
1772788667701469700,0.7144697265625,-1.0039215087890625,-0.0626983642578125,0.044921875
1772788667711534800,0.724534912109375,-1.009490966796875,-0.06304931640625,0.0469512939453125
1772788667721600800,0.734600830078125,-1.0416412353515625,-0.0558929443359375,0.055633544921875
1772788667731665700,0.744665771484375,-1.024200439453125,-0.0660247802734375,0.0505523681640625
1772788667741730800,0.754730712890625,-0.9647216796875,-0.0709381103515625,0.0341339111328125
1772788667751795700,0.764795654296875,-1.0076446533203125,-0.04595947265625,0.0444183349609375
1772788667761860600,0.774860595703125,-1.0245361328125,-0.0479278564453125,0.0433197021484375
1772788667771925800,0.78492578125,-1.0017242431640625,-0.0509185791015625,0.036163330078125
1772788667781990700,0.79499072265625,-1.0063934326171875,-0.05059814453125,0.0352020263671875
1772788667792055600,0.8050556640625,-1.0133056640625,-0.0520172119140625,0.034271240234375
1772788667802121700,0.815121826171875,-1.0119171142578125,-0.054351806640625,0.033416748046875
1772788667812186600,0.8251865234375,-1.012725830078125,-0.060638427734375,0.0336456298828125
1772788667822251800,0.835251708984375,-1.0179290771484375,-0.065704345703125,0.0365142822265625
1772788667832316700,0.845316650390625,-1.0191192626953125,-0.0661468505859375,0.0375518798828125
1772788667842381800,0.8553818359375,-1.0123138427734375,-0.0643310546875,0.0355377197265625
1772788667852446700,0.86544677734375,-1.0053253173828125,-0.0635223388671875,0.0348358154296875
1772788667862511600,0.87551171875,-1.0032501220703125,-0.0620880126953125,0.034820556640625
1772788667872576800,0.88557666015625,-1.0001678466796875,-0.0620269775390625,0.03387451171875
1772788667882642700,0.895642578125,-1.003387451171875,-0.061309814453125,0.0325469970703125
1772788667892707800,0.905707763671875,-1.0102691650390625,-0.062255859375,0.0333251953125
1772788667902772700,0.915772705078125,-1.006591796875,-0.0616912841796875,0.03369140625
1772788667912837600,0.925837646484375,-1.0021514892578125,-0.0635528564453125,0.0344696044921875
1772788667922902800,0.93590283203125,-1.005706787109375,-0.0679168701171875,0.0359344482421875
1772788667932967700,0.9459677734375,-1.006988525390625,-0.0701141357421875,0.0389404296875
1772788667943032800,0.95603271484375,-0.999267578125,-0.0791015625,0.0399627685546875
1772788667953097700,0.96609765625,-1.021087646484375,-0.0618743896484375,0.0395660400390625
1772788667963163600,0.97616357421875,-1.0186920166015625,-0.0609588623046875,0.0356903076171875
1772788667973228800,0.986228759765625,-0.9946746826171875,-0.063507080078125,0.0298309326171875
1772788667983293700,0.996293701171875,-0.992706298828125,-0.0595245361328125,0.029083251953125
1772788667993358600,1.006358642578125,-1.0083465576171875,-0.057342529296875,0.0276641845703125
1772788668003423700,1.016423828125,-1.0130157470703125,-0.0624847412109375,0.0304718017578125
1772788668013488400,1.02648828125,-1.0094146728515625,-0.06402587890625,0.0293121337890625
1772788668023553300,1.03655322265625,-1.006988525390625,-0.0605010986328125,0.0268707275390625
1772788668033618400,1.046618408203125,-1.0063018798828125,-0.064727783203125,0.0322113037109375
1772788668043684400,1.056684326171875,-1.010711669921875,-0.07025146484375,0.0351104736328125
1772788668053749200,1.066749267578125,-1.015838623046875,-0.0708160400390625,0.0374603271484375
1772788668063814400,1.076814453125,-1.014434814453125,-0.0712432861328125,0.0368194580078125
1772788668073879300,1.08687939453125,-1.011474609375,-0.06689453125,0.0352325439453125
1772788668083944400,1.0969443359375,-1.0079345703125,-0.0670623779296875,0.0337066650390625
1772788668094009300,1.10700927734375,-1.00518798828125,-0.0680694580078125,0.0311431884765625
1772788668104074200,1.11707421875,-0.9980010986328125,-0.0691680908203125,0.028656005859375
1772788668114140200,1.12714013671875,-0.987457275390625,-0.067535400390625,0.0252838134765625
1772788668124205300,1.137205322265625,-1.009735107421875,-0.067535400390625,0.0350341796875
1772788668134270500,1.1472705078125,-1.009796142578125,-0.07550048828125,0.03253173828125
1772788668144335400,1.15733544921875,-1.0099334716796875,-0.071746826171875,0.031463623046875
1772788668154400300,1.167400146484375,-1.0086517333984375,-0.0720367431640625,0.0343170166015625
1772788668164465400,1.17746533203125,-1.0139007568359375,-0.077117919921875,0.03436279296875
1772788668174530300,1.1875302734375,-1.0142364501953125,-0.0709228515625,0.0347747802734375
1772788668184595500,1.197595458984375,-1.004791259765625,-0.0624847412109375,0.0303802490234375
1772788668194661400,1.207661376953125,-1.0063018798828125,-0.06317138671875,0.02752685546875
1772788668204726500,1.2177265625,-1.011444091796875,-0.064697265625,0.02618408203125
1772788668214791400,1.22779150390625,-1.0053253173828125,-0.0659027099609375,0.02435302734375
1772788668224856300,1.237856201171875,-1.0028839111328125,-0.0680389404296875,0.0268402099609375
1772788668234921500,1.24792138671875,-1.002227783203125,-0.072509765625,0.030426025390625
1772788668244986400,1.257986328125,-1.0026702880859375,-0.075225830078125,0.0312347412109375
1772788668255051300,1.26805126953125,-1.0032806396484375,-0.073516845703125,0.03057861328125
1772788668265116400,1.278116455078125,-1.0002593994140625,-0.0703887939453125,0.0283203125
1772788668275182300,1.288182373046875,-1.004974365234375,-0.0679473876953125,0.0301361083984375
1772788668285247200,1.298247314453125,-1.0079803466796875,-0.06884765625,0.030853271484375
1772788668295312400,1.3083125,-1.008758544921875,-0.071136474609375,0.0318756103515625
1772788668305377300,1.318377197265625,-1.0102386474609375,-0.0717315673828125,0.03204345703125
1772788668315442400,1.3284423828125,-1.01300048828125,-0.071197509765625,0.0328216552734375
1772788668325507300,1.33850732421875,-1.0112762451171875,-0.0723419189453125,0.0332794189453125
1772788668335572200,1.348572265625,-1.010711669921875,-0.0726470947265625,0.0327301025390625
1772788668345638400,1.358638427734375,-1.013031005859375,-0.07080078125,0.0301055908203125
1772788668355703300,1.368703369140625,-1.010528564453125,-0.0678558349609375,0.0289459228515625
1772788668365768400,1.3787685546875,-1.0062103271484375,-0.0683135986328125,0.0280914306640625
1772788668375833300,1.388833251953125,-1.00775146484375,-0.0671539306640625,0.02703857421875
1772788668385898200,1.398898193359375,-1.0109405517578125,-0.06829833984375,0.0283355712890625
1772788668395963400,1.40896337890625,-1.0124359130859375,-0.07037353515625,0.02825927734375
1772788668406028300,1.4190283203125,-1.007537841796875,-0.0713043212890625,0.0281982421875
1772788668416093400,1.429093505859375,-1.00689697265625,-0.0690155029296875,0.0276031494140625
1772788668426159400,1.439159423828125,-1.0076141357421875,-0.0689544677734375,0.0260772705078125
1772788668436224500,1.449224609375,-1.001708984375,-0.0710296630859375,0.0258331298828125
1772788668446289400,1.459289306640625,-1.0017242431640625,-0.0713958740234375,0.026641845703125
1772788668456354300,1.469354248046875,-1.0045166015625,-0.0684356689453125,0.027191162109375
1772788668466419500,1.47941943359375,-1.00836181640625,-0.0655670166015625,0.0267791748046875
1772788668476484400,1.489484375,-1.0087432861328125,-0.0665283203125,0.0254364013671875
1772788668486549500,1.499549560546875,-1.005279541015625,-0.0685272216796875,0.027435302734375
1772788668496615400,1.509615478515625,-1.0061187744140625,-0.06964111328125,0.028472900390625
1772788668506680300,1.519680419921875,-1.009796142578125,-0.0698699951171875,0.0297698974609375
1772788668516745200,1.5297451171875,-1.0115814208984375,-0.0680694580078125,0.0326080322265625
1772788668526810400,1.539810302734375,-1.009857177734375,-0.0709381103515625,0.0314483642578125
1772788668536875300,1.549875244140625,-1.005218505859375,-0.067352294921875,0.0290679931640625
1772788668546940400,1.5599404296875,-1.009307861328125,-0.065338134765625,0.028839111328125
1772788668557005300,1.57000537109375,-1.0088653564453125,-0.0697021484375,0.028564453125
1772788668567071500,1.580071533203125,-1.0056915283203125,-0.0732574462890625,0.02984619140625
1772788668577136400,1.590136474609375,-1.00762939453125,-0.0731048583984375,0.0324249267578125
1772788668587201300,1.600201171875,-1.0107879638671875,-0.072021484375,0.0348052978515625
1772788668597266400,1.610266357421875,-1.0074462890625,-0.07135009765625,0.034637451171875
1772788668607331300,1.620331298828125,-1.0072174072265625,-0.0694122314453125,0.0354156494140625
1772788668617396500,1.630396484375,-1.009002685546875,-0.068603515625,0.0362548828125
1772788668627461400,1.64046142578125,-1.0062408447265625,-0.0669097900390625,0.0322418212890625
1772788668637527300,1.65052734375,-1.00531005859375,-0.065582275390625,0.030364990234375
1772788668647592200,1.66059228515625,-1.0106048583984375,-0.068817138671875,0.0316162109375
1772788668657657300,1.6706572265625,-1.01043701171875,-0.0709381103515625,0.0319671630859375
1772788668667722200,1.68072216796875,-1.0088958740234375,-0.071136474609375,0.0315704345703125
1772788668677787400,1.690787353515625,-1.0068817138671875,-0.0683746337890625,0.0309295654296875
1772788668687852300,1.700852294921875,-1.0087890625,-0.0666961669921875,0.030914306640625
1772788668697917400,1.71091748046875,-1.0092010498046875,-0.066375732421875,0.0315093994140625
1772788668707983400,1.7209833984375,-1.0092315673828125,-0.0686187744140625,0.0323333740234375
1772788668718048300,1.73104833984375,-1.0084228515625,-0.0688629150390625,0.0321807861328125
1772788668728113400,1.741113525390625,-1.00738525390625,-0.0692596435546875,0.0301666259765625
1772788668738178300,1.75117822265625,-1.0074005126953125,-0.0687408447265625,0.0305023193359375
1772788668748243500,1.761243408203125,-1.008392333984375,-0.069793701171875,0.030364990234375
1772788668758308400,1.771308349609375,-1.0062255859375,-0.06951904296875,0.0291900634765625
1772788668768373200,1.781373291015625,-1.0030517578125,-0.069671630859375,0.0311279296875
1772788668778439200,1.791439208984375,-1.001556396484375,-0.0700531005859375,0.0294342041015625
1772788668788504300,1.80150439453125,-1.0038604736328125,-0.0688323974609375,0.0291595458984375
1772788668798569500,1.811569580078125,-1.006103515625,-0.068115234375,0.03216552734375
1772788668808634400,1.82163427734375,-1.008697509765625,-0.06927490234375,0.0320892333984375
1772788668818699300,1.83169921875,-1.0109405517578125,-0.0702972412109375,0.033203125
1772788668828764400,1.841764404296875,-1.0127105712890625,-0.0725250244140625,0.034576416015625
1772788668838829300,1.851829345703125,-1.0135498046875,-0.0713043212890625,0.0335845947265625
1772788668848895200,1.861895263671875,-1.0101776123046875,-0.0692138671875,0.0331268310546875
1772788668858960400,1.87196044921875,-1.0087127685546875,-0.0670013427734375,0.0323944091796875
1772788668869025300,1.882025390625,-1.0020904541015625,-0.06298828125,0.0310516357421875
1772788668879090400,1.89209033203125,-1.0032806396484375,-0.06396484375,0.030242919921875
1772788668889155300,1.9021552734375,-1.0068817138671875,-0.0675506591796875,0.0314178466796875
1772788668899220200,1.91222021484375,-1.005950927734375,-0.06781005859375,0.031982421875
1772788668909285400,1.922285400390625,-1.008392333984375,-0.0670928955078125,0.0312347412109375
1772788668919351300,1.932351318359375,-1.0082550048828125,-0.0673675537109375,0.031951904296875
1772788668929416400,1.94241650390625,-1.01031494140625,-0.069091796875,0.0330810546875
1772788668939481300,1.9524814453125,-1.0097808837890625,-0.069610595703125,0.0331268310546875
1772788668949546200,1.962546142578125,-1.00616455078125,-0.0706634521484375,0.0320281982421875
1772788668959611400,1.972611328125,-1.0059814453125,-0.0691986083984375,0.0320587158203125
1772788668969676300,1.98267626953125,-1.00482177734375,-0.0674591064453125,0.03070068359375
1772788668979742200,1.9927421875,-1.0048065185546875,-0.0664520263671875,0.0308380126953125
1772788668989807400,2.002807373046875,-1.0032806396484375,-0.067962646484375,0.03057861328125
1772788668999872500,2.01287255859375,-1.0029754638671875,-0.06781005859375,0.0310516357421875
1772788669009937400,2.0229375,-1.00390625,-0.067169189453125,0.030120849609375
1772788669020006000,2.033005859375,-1.0080413818359375,-0.065582275390625,0.032073974609375
1772788669030070800,2.04307080078125,-1.012542724609375,-0.06536865234375,0.0325469970703125
1772788669040136000,2.053135986328125,-1.0126495361328125,-0.0670166015625,0.03558349609375
1772788669050201900,2.063201904296875,-1.0116119384765625,-0.0699005126953125,0.0359649658203125
1772788669060267000,2.07326708984375,-1.0138092041015625,-0.0693206787109375,0.0350189208984375
1772788669070332000,2.083331787109375,-1.01043701171875,-0.0653839111328125,0.03466796875
1772788669080396800,2.093396728515625,-1.009063720703125,-0.0655517578125,0.033721923828125
1772788669090462000,2.1034619140625,-1.008392333984375,-0.06585693359375,0.0346832275390625
1772788669100526800,2.11352685546875,-1.0073699951171875,-0.065277099609375,0.0341949462890625
1772788669110592800,2.1235927734375,-1.0097198486328125,-0.0653533935546875,0.03497314453125
1772788669120658000,2.133657958984375,-1.0126190185546875,-0.066864013671875,0.0358123779296875
1772788669130723000,2.14372314453125,-1.011016845703125,-0.068115234375,0.0347137451171875
1772788669140787700,2.15378759765625,-1.0064697265625,-0.0683135986328125,0.0342559814453125
1772788669150852900,2.163852783203125,-1.0041046142578125,-0.0665283203125,0.032623291015625
1772788669160918000,2.17391796875,-1.0044403076171875,-0.0667572021484375,0.032440185546875
1772788669170983700,2.183983642578125,-1.00396728515625,-0.0663909912109375,0.0316314697265625
1772788669181048800,2.194048828125,-1.004913330078125,-0.06573486328125,0.03131103515625
1772788669191114000,2.204114013671875,-1.010894775390625,-0.06427001953125,0.029632568359375
1772788669201179000,2.214178955078125,-1.0120086669921875,-0.0643157958984375,0.0317230224609375
1772788669211243800,2.224243896484375,-1.0077056884765625,-0.0680389404296875,0.0327606201171875
1772788669221309000,2.234308837890625,-1.0073089599609375,-0.06829833984375,0.0341033935546875
1772788669231375000,2.244375,-1.006439208984375,-0.0661773681640625,0.0315399169921875
1772788669241439700,2.254439697265625,-1.004852294921875,-0.063873291015625,0.0298614501953125
1772788669251505000,2.2645048828125,-1.0047760009765625,-0.064483642578125,0.0300750732421875
1772788669261570000,2.274570068359375,-1.0060577392578125,-0.0693511962890625,0.0313262939453125
1772788669271635000,2.284635009765625,-1.007171630859375,-0.070098876953125,0.0326385498046875
1772788669281699800,2.294699951171875,-1.009033203125,-0.070343017578125,0.0323333740234375
1772788669291765000,2.304764892578125,-1.0101318359375,-0.070526123046875,0.0335540771484375
1772788669301830700,2.31483056640625,-1.0085296630859375,-0.0712890625,0.0334320068359375
1772788669311895800,2.324895751953125,-1.0051727294921875,-0.069976806640625,0.0317535400390625
1772788669321961000,2.3349609375,-1.0052490234375,-0.068359375,0.031524658203125
1772788669332025900,2.34502587890625,-1.0086669921875,-0.0663909912109375,0.03131103515625
1772788669342090800,2.3550908203125,-1.0106353759765625,-0.066070556640625,0.032257080078125
1772788669352156000,2.365156005859375,-1.0096435546875,-0.06610107421875,0.0324249267578125
1772788669362222000,2.37522216796875,-1.006561279296875,-0.0656890869140625,0.032379150390625
1772788669372286700,2.38528662109375,-1.008331298828125,-0.0648956298828125,0.0331268310546875
1772788669382352000,2.395351806640625,-1.0091552734375,-0.0652313232421875,0.0322113037109375
1772788669392417000,2.4054169921875,-1.0085296630859375,-0.0655975341796875,0.030548095703125
1772788669402482000,2.41548193359375,-1.0084228515625,-0.06597900390625,0.031494140625
1772788669412546800,2.425546875,-1.0079193115234375,-0.06561279296875,0.030792236328125
1772788669422613000,2.435613037109375,-1.010528564453125,-0.064483642578125,0.0301361083984375
1772788669432678000,2.445677978515625,-1.0091400146484375,-0.0660247802734375,0.0310211181640625
1772788669442742800,2.45574267578125,-1.0073089599609375,-0.06561279296875,0.03106689453125
1772788669452808000,2.465807861328125,-1.0068511962890625,-0.065948486328125,0.0307159423828125
1772788669462873000,2.475873046875,-1.00726318359375,-0.066436767578125,0.0306243896484375
1772788669472937700,2.485937744140625,-1.0040435791015625,-0.0643157958984375,0.0294036865234375
1772788669483004000,2.49600390625,-1.0045623779296875,-0.0622406005859375,0.0323028564453125
1772788669493069000,2.506069091796875,-1.0101318359375,-0.0666351318359375,0.0329437255859375
1772788669503133700,2.5161337890625,-1.0106201171875,-0.067169189453125,0.034088134765625
1772788669513198800,2.52619873046875,-1.0099639892578125,-0.0662994384765625,0.0342559814453125
1772788669523264000,2.536263916015625,-1.00799560546875,-0.0670318603515625,0.0330810546875
1772788669533329000,2.546328857421875,-1.006927490234375,-0.06640625,0.032470703125
1772788669543394800,2.556394775390625,-1.005889892578125,-0.0651397705078125,0.0315399169921875
1772788669553460000,2.5664599609375,-1.00518798828125,-0.063568115234375,0.030181884765625
1772788669563524900,2.57652490234375,-1.005645751953125,-0.0632781982421875,0.0287628173828125
1772788669573589800,2.58658984375,-1.0069580078125,-0.06353759765625,0.0310211181640625
1772788669583655000,2.596655029296875,-1.008697509765625,-0.065338134765625,0.030120849609375
1772788669593720000,2.606719970703125,-1.010711669921875,-0.0641021728515625,0.029296875
1772788669603786000,2.616785888671875,-1.0099334716796875,-0.062713623046875,0.029541015625
1772788669613851000,2.626850830078125,-1.008636474609375,-0.0641937255859375,0.0296783447265625
1772788669623916000,2.636916015625,-1.0084381103515625,-0.0655364990234375,0.02972412109375
1772788669633981000,2.64698095703125,-1.006103515625,-0.0640716552734375,0.029998779296875
1772788669644045800,2.6570458984375,-1.00885009765625,-0.0649261474609375,0.0314178466796875
1772788669654111700,2.66711181640625,-1.0110015869140625,-0.0650177001953125,0.033538818359375
1772788669664177000,2.677177001953125,-1.0106658935546875,-0.0644378662109375,0.034332275390625
1772788669674241800,2.68724169921875,-1.0071258544921875,-0.0635223388671875,0.0331878662109375
1772788669684307000,2.697306884765625,-1.0062408447265625,-0.0619049072265625,0.0316009521484375
1772788669694371800,2.707371826171875,-1.0080413818359375,-0.062225341796875,0.031494140625
1772788669704436700,2.717436767578125,-1.008453369140625,-0.0628204345703125,0.031341552734375
1772788669714503000,2.7275029296875,-1.0095062255859375,-0.063385009765625,0.0323638916015625
1772788669724567800,2.73756787109375,-1.008331298828125,-0.0636444091796875,0.030670166015625
1772788669734633000,2.747633056640625,-1.0052337646484375,-0.06304931640625,0.030059814453125
1772788669744697900,2.75769775390625,-1.0071258544921875,-0.063385009765625,0.0296630859375
1772788669754763000,2.767762939453125,-1.009033203125,-0.06561279296875,0.0322113037109375
1772788669764829000,2.777828857421875,-1.00762939453125,-0.0669708251953125,0.032257080078125
1772788669774894000,2.78789404296875,-1.00775146484375,-0.0652313232421875,0.031097412109375
1772788669784958700,2.797958740234375,-1.006561279296875,-0.06329345703125,0.031341552734375
1772788669795024000,2.80802392578125,-1.0063934326171875,-0.062225341796875,0.0308380126953125
1772788669805089000,2.818089111328125,-1.007598876953125,-0.061737060546875,0.0317535400390625
1772788669815154000,2.82815380859375,-1.0101776123046875,-0.06207275390625,0.031768798828125
1772788669825219800,2.8382197265625,-1.0100250244140625,-0.0636138916015625,0.0329437255859375
1772788669835285000,2.848284912109375,-1.010162353515625,-0.0633392333984375,0.0328521728515625
1772788669845350000,2.858349853515625,-1.0100250244140625,-0.06341552734375,0.0322723388671875
1772788669855414800,2.868414794921875,-1.010406494140625,-0.0629425048828125,0.0322265625
1772788669865480000,2.87847998046875,-1.0098114013671875,-0.0615081787109375,0.0307159423828125
1772788669875544800,2.888544921875,-1.0074005126953125,-0.05999755859375,0.0282440185546875
1772788669885610800,2.89861083984375,-1.01080322265625,-0.059539794921875,0.0295257568359375
1772788669895676000,2.908676025390625,-1.0123443603515625,-0.062347412109375,0.0318603515625
1772788669905741000,2.918740966796875,-1.010040283203125,-0.06231689453125,0.03070068359375
1772788669915805700,2.9288056640625,-1.007080078125,-0.0623626708984375,0.0302276611328125
1772788669925870800,2.938870849609375,-1.00518798828125,-0.061279296875,0.0301055908203125
1772788669935937000,2.94893701171875,-1.00164794921875,-0.0610198974609375,0.0312042236328125
1772788669946001700,2.959001708984375,-1.0023956298828125,-0.060028076171875,0.030181884765625
1772788669956066800,2.96906689453125,-1.0053558349609375,-0.0593414306640625,0.0307464599609375
1772788669966132000,2.979132080078125,-1.0082244873046875,-0.059722900390625,0.0327301025390625
1772788669976196900,2.98919677734375,-1.007537841796875,-0.0608673095703125,0.032440185546875
1772788669986261800,2.99926171875,-1.0066070556640625,-0.0594940185546875,0.031280517578125
1772788669996328000,3.009327880859375,-1.0091552734375,-0.059295654296875,0.0313873291015625
1772788670006392800,3.019392822265625,-1.0084228515625,-0.0593414306640625,0.031158447265625
1772788670016454000,3.029453857421875,-1.00714111328125,-0.0592803955078125,0.031097412109375
1772788670026519000,3.03951904296875,-1.0068359375,-0.06109619140625,0.0321807861328125
1772788670036584000,3.049583984375,-1.0078582763671875,-0.0612335205078125,0.0297088623046875
1772788670046649900,3.05964990234375,-1.0091400146484375,-0.0605316162109375,0.0302276611328125
1772788670056715000,3.069715087890625,-1.009307861328125,-0.06011962890625,0.031158447265625
1772788670066780000,3.07977978515625,-1.0096435546875,-0.0597686767578125,0.0314788818359375
1772788670076845000,3.089844970703125,-1.0105133056640625,-0.06048583984375,0.033355712890625
1772788670086910000,3.099909912109375,-1.0116119384765625,-0.0619964599609375,0.034942626953125
1772788670096976100,3.10997607421875,-1.0105133056640625,-0.0615081787109375,0.0337371826171875
1772788670107040800,3.120040771484375,-1.00933837890625,-0.0598297119140625,0.034088134765625
1772788670117106000,3.13010595703125,-1.0094146728515625,-0.058013916015625,0.0335235595703125
1772788670127171000,3.140171142578125,-1.01129150390625,-0.05743408203125,0.0335845947265625
1772788670137236000,3.150236083984375,-1.0117950439453125,-0.0577545166015625,0.032623291015625
1772788670147300900,3.16030078125,-1.0088043212890625,-0.056610107421875,0.032867431640625
1772788670157367000,3.170366943359375,-1.008636474609375,-0.0571136474609375,0.03240966796875
1772788670167432200,3.18043212890625,-1.0080108642578125,-0.059478759765625,0.0313568115234375
1772788670177496800,3.190496826171875,-1.006866455078125,-0.05975341796875,0.0317535400390625
1772788670187562000,3.20056201171875,-1.0084228515625,-0.0603179931640625,0.0310516357421875
1772788670197627100,3.210627197265625,-1.0080413818359375,-0.06036376953125,0.03253173828125
1772788670207692800,3.22069287109375,-1.0057525634765625,-0.06072998046875,0.0338897705078125
1772788670217758000,3.230758056640625,-1.006561279296875,-0.0604400634765625,0.0316925048828125
1772788670227823000,3.240822998046875,-1.0088958740234375,-0.060394287109375,0.0330963134765625
1772788670237887700,3.2508876953125,-1.0091552734375,-0.060516357421875,0.0325164794921875
1772788670247953000,3.260952880859375,-1.0077362060546875,-0.058929443359375,0.033447265625
1772788670258019000,3.27101904296875,-1.00592041015625,-0.0603485107421875,0.0342254638671875
1772788670268084000,3.281083984375,-1.007110595703125,-0.0612945556640625,0.0337066650390625
1772788670278148900,3.29114892578125,-1.009063720703125,-0.0603790283203125,0.0324249267578125
1772788670288214000,3.301214111328125,-1.009765625,-0.06201171875,0.0332183837890625
1772788670298279200,3.311279052734375,-1.0101318359375,-0.06024169921875,0.0330963134765625
1772788670308345000,3.321344970703125,-1.009918212890625,-0.058258056640625,0.03277587890625
1772788670318410000,3.331409912109375,-1.0082244873046875,-0.05841064453125,0.03375244140625
1772788670328475000,3.341474853515625,-1.00933837890625,-0.0607757568359375,0.032989501953125
1772788670338540000,3.3515400390625,-1.0111541748046875,-0.0602264404296875,0.0328216552734375
1772788670348605000,3.36160498046875,-1.009368896484375,-0.058746337890625,0.0334625244140625
1772788670358670800,3.3716708984375,-1.007659912109375,-0.0590972900390625,0.0336151123046875
1772788670368736000,3.381736083984375,-1.0061798095703125,-0.058807373046875,0.0335235595703125
1772788670378801000,3.39180078125,-1.00421142578125,-0.0584869384765625,0.031890869140625
1772788670388866000,3.401865966796875,-1.00628662109375,-0.057861328125,0.03173828125
1772788670398931000,3.411930908203125,-1.0081634521484375,-0.0577545166015625,0.0329132080078125
1772788670408997000,3.4219970703125,-1.009857177734375,-0.0588531494140625,0.033538818359375
1772788670419062000,3.43206201171875,-1.0110321044921875,-0.0592041015625,0.0338592529296875
1772788670429127000,3.442126953125,-1.0095977783203125,-0.0577239990234375,0.032684326171875
1772788670439192000,3.452192138671875,-1.0093536376953125,-0.0563812255859375,0.03326416015625
1772788670449257000,3.462257080078125,-1.009002685546875,-0.0552978515625,0.03350830078125
1772788670459323000,3.472322998046875,-1.0106964111328125,-0.056915283203125,0.033538818359375
1772788670469388000,3.482387939453125,-1.010284423828125,-0.0583343505859375,0.0326995849609375
1772788670479453000,3.492452880859375,-1.0108184814453125,-0.062408447265625,0.0343475341796875
1772788670489517800,3.502517822265625,-1.0115966796875,-0.0609893798828125,0.033935546875
1772788670499583000,3.5125830078125,-1.0098114013671875,-0.060638427734375,0.032989501953125
1772788670509648100,3.522648193359375,-1.009307861328125,-0.0601043701171875,0.0328826904296875
1772788670519713800,3.5327138671875,-1.0076446533203125,-0.0580596923828125,0.0330963134765625
1772788670529779000,3.542779052734375,-1.0086822509765625,-0.0589752197265625,0.0328826904296875
1772788670539844000,3.552843994140625,-1.009521484375,-0.0590972900390625,0.0325775146484375
1772788670549909000,3.562908935546875,-1.0077667236328125,-0.05841064453125,0.0323333740234375
1772788670559974000,3.572973876953125,-1.00616455078125,-0.0573577880859375,0.03216552734375
1772788670570040000,3.5830400390625,-1.0072784423828125,-0.0583648681640625,0.0323028564453125
1772788670580105000,3.59310498046875,-1.0074310302734375,-0.0594329833984375,0.0325164794921875
1772788670590169900,3.603169921875,-1.0074462890625,-0.0595855712890625,0.0333099365234375
1772788670600235000,3.613235107421875,-1.0076751708984375,-0.059661865234375,0.0332794189453125
1772788670610301000,3.623301025390625,-1.007965087890625,-0.0596923828125,0.0328826904296875
1772788670620365800,3.63336572265625,-1.007781982421875,-0.0597686767578125,0.0335845947265625
1772788670630431000,3.643430908203125,-1.009307861328125,-0.0607452392578125,0.0340576171875
1772788670640496000,3.65349609375,-1.0089263916015625,-0.0594635009765625,0.0352020263671875
1772788670650560800,3.663560791015625,-1.006256103515625,-0.0583343505859375,0.034088134765625
1772788670660627000,3.673626953125,-1.0084686279296875,-0.057891845703125,0.033203125
1772788670670691800,3.68369189453125,-1.009735107421875,-0.0598602294921875,0.0353851318359375
1772788670680757000,3.693757080078125,-1.0104522705078125,-0.060089111328125,0.03424072265625
1772788670690822000,3.70382177734375,-1.0101165771484375,-0.0595245361328125,0.032470703125
1772788670700887000,3.713886962890625,-1.010345458984375,-0.06024169921875,0.03167724609375
1772788670710953000,3.723952880859375,-1.00823974609375,-0.0607147216796875,0.032562255859375
1772788670721018000,3.73401806640625,-1.0045623779296875,-0.06146240234375,0.0307769775390625
1772788670731083000,3.7440830078125,-1.0016632080078125,-0.0596771240234375,0.0292205810546875
1772788670741148000,3.75414794921875,-1.00341796875,-0.0612335205078125,0.029052734375
1772788670751213000,3.764213134765625,-1.008392333984375,-0.0604248046875,0.0289764404296875
1772788670761279000,3.774279052734375,-1.0100250244140625,-0.0588836669921875,0.0304412841796875
1772788670771344000,3.78434375,-1.011871337890625,-0.06085205078125,0.03253173828125
1772788670781409000,3.794408935546875,-1.01263427734375,-0.061798095703125,0.0355072021484375
1772788670791474000,3.804473876953125,-1.011199951171875,-0.0606231689453125,0.0348968505859375
1772788670801539000,3.8145390625,-1.0115966796875,-0.059539794921875,0.0350494384765625
1772788670811605000,3.82460498046875,-1.0104217529296875,-0.0592803955078125,0.0345001220703125
1772788670821670100,3.834670166015625,-1.0074920654296875,-0.0610809326171875,0.0338287353515625
1772788670831734800,3.84473486328125,-1.005706787109375,-0.0603179931640625,0.0335235595703125
1772788670841800000,3.854800048828125,-1.003997802734375,-0.0618896484375,0.0315399169921875
1772788670851865000,3.864864990234375,-1.00457763671875,-0.0616302490234375,0.0313262939453125
1772788670861931000,3.874930908203125,-1.0089874267578125,-0.061614990234375,0.032196044921875
1772788670871996000,3.884995849609375,-1.0044708251953125,-0.0586090087890625,0.032806396484375
1772788670882061000,3.89506103515625,-1.0087890625,-0.0572967529296875,0.0343017578125
1772788670892126200,3.905126220703125,-1.009674072265625,-0.063140869140625,0.0345306396484375
1772788670902190800,3.91519091796875,-1.012542724609375,-0.0639801025390625,0.033050537109375
1772788670912257000,3.925257080078125,-1.0107879638671875,-0.061004638671875,0.0325469970703125
1772788670922322000,3.935322021484375,-1.0069580078125,-0.0603179931640625,0.032958984375
1772788670932386800,3.94538671875,-1.00665283203125,-0.05853271484375,0.03240966796875
1772788670942452000,3.955451904296875,-1.007049560546875,-0.0603485107421875,0.031982421875
1772788670952517000,3.96551708984375,-1.007049560546875,-0.060150146484375,0.031707763671875
1772788670962583000,3.9755830078125,-1.0069580078125,-0.057403564453125,0.030914306640625
1772788670972648000,3.98564794921875,-1.005767822265625,-0.05718994140625,0.032012939453125
1772788670982713000,3.995713134765625,-1.0086517333984375,-0.0588531494140625,0.03302001953125
1772788670992778000,4.005778076171875,-1.0099029541015625,-0.0603485107421875,0.0335693359375
1772788671002843000,4.0158427734375,-1.0101318359375,-0.0610198974609375,0.0335540771484375
1772788671012908000,4.025907958984375,-1.0102996826171875,-0.0599365234375,0.0345916748046875
1772788671022973400,4.035973388671875,-1.0092315673828125,-0.061676025390625,0.033935546875
1772788671033039600,4.04603955078125,-1.0083160400390625,-0.0618438720703125,0.0328216552734375
1772788671043104500,4.0561044921875,-1.008514404296875,-0.0614013671875,0.0325164794921875
1772788671053169400,4.06616943359375,-1.00640869140625,-0.062286376953125,0.0331573486328125
1772788671063234600,4.076234619140625,-1.0049285888671875,-0.06146240234375,0.03424072265625
1772788671073300500,4.086300537109375,-1.006866455078125,-0.0618743896484375,0.034210205078125
1772788671083365400,4.096365478515625,-1.0075225830078125,-0.0613555908203125,0.033905029296875
1772788671093430500,4.106430419921875,-1.0052490234375,-0.060394287109375,0.03411865234375
1772788671103495400,4.116495361328125,-1.0060577392578125,-0.058807373046875,0.034271240234375
1772788671113560300,4.126560302734375,-1.0093536376953125,-0.060089111328125,0.0337677001953125
1772788671123626500,4.13662646484375,-1.0120086669921875,-0.0591583251953125,0.0341796875
1772788671133691600,4.146691650390625,-1.0125885009765625,-0.05926513671875,0.0343475341796875
1772788671143756300,4.15675634765625,-1.0116729736328125,-0.057769775390625,0.0329742431640625
1772788671153821400,4.166821533203125,-1.0109100341796875,-0.0583038330078125,0.0328216552734375
1772788671163886600,4.176886474609375,-1.0095062255859375,-0.05902099609375,0.03155517578125
1772788671173952500,4.186952392578125,-1.0096282958984375,-0.05712890625,0.0305023193359375
1772788671184017400,4.197017333984375,-1.00732421875,-0.0562744140625,0.031005859375
1772788671194082600,4.20708251953125,-1.0083160400390625,-0.0561981201171875,0.03106689453125
1772788671204147500,4.2171474609375,-1.0096435546875,-0.05718994140625,0.0322113037109375
1772788671214213400,4.22721337890625,-1.0107879638671875,-0.0585174560546875,0.0317230224609375
1772788671224278500,4.237278564453125,-1.009490966796875,-0.0593414306640625,0.0326690673828125
1772788671234343400,4.247343505859375,-1.0088958740234375,-0.0591278076171875,0.03411865234375
1772788671244408300,4.257408203125,-1.0079193115234375,-0.0589752197265625,0.0343475341796875
1772788671254473500,4.267473388671875,-1.0065155029296875,-0.0600433349609375,0.0339508056640625
1772788671264539400,4.277539306640625,-1.0054779052734375,-0.0599517822265625,0.0324554443359375
1772788671274604500,4.2876044921875,-1.0074310302734375,-0.06072998046875,0.0325927734375
1772788671284669400,4.29766943359375,-1.009979248046875,-0.0614013671875,0.0330810546875
1772788671294734600,4.307734619140625,-1.009185791015625,-0.0607757568359375,0.034515380859375
1772788671304799500,4.317799560546875,-1.0073089599609375,-0.0596466064453125,0.0339508056640625
1772788671314865400,4.327865478515625,-1.006317138671875,-0.0586090087890625,0.032470703125
1772788671324930300,4.337930419921875,-1.0074005126953125,-0.058258056640625,0.031768798828125
1772788671334995500,4.347995361328125,-1.0079498291015625,-0.05914306640625,0.03326416015625
1772788671345060400,4.358060302734375,-1.0090789794921875,-0.060394287109375,0.0329132080078125
1772788671355126300,4.368126220703125,-1.0086669921875,-0.060455322265625,0.032257080078125
1772788671365191400,4.37819140625,-1.007110595703125,-0.059661865234375,0.032806396484375
1772788671375256600,4.388256591796875,-1.010498046875,-0.0590972900390625,0.0313873291015625
1772788671385321500,4.398321533203125,-1.0078125,-0.064605712890625,0.0316162109375
1772788671395386400,4.408386474609375,-1.0063323974609375,-0.0607757568359375,0.0299530029296875
1772788671405452500,4.41845263671875,-1.0072784423828125,-0.05841064453125,0.0294189453125
1772788671415517700,4.428517578125,-1.0081787109375,-0.057464599609375,0.0301666259765625
1772788671425582300,4.438582275390625,-1.0084228515625,-0.0579681396484375,0.030975341796875
1772788671435647500,4.4486474609375,-1.0111083984375,-0.0587310791015625,0.030914306640625
1772788671445713400,4.45871337890625,-1.014678955078125,-0.05987548828125,0.0335235595703125
1772788671455778300,4.4687783203125,-1.0121002197265625,-0.0628814697265625,0.0312652587890625
1772788671465843500,4.478843505859375,-1.0069427490234375,-0.059783935546875,0.0284423828125
1772788671475908600,4.48890869140625,-1.0083465576171875,-0.0566253662109375,0.0300750732421875
1772788671485973200,4.49897314453125,-1.0082244873046875,-0.0595550537109375,0.0302276611328125
1772788671496039400,4.509039306640625,-1.010009765625,-0.0604095458984375,0.0299835205078125
1772788671506104600,4.5191044921875,-1.0088043212890625,-0.059906005859375,0.030792236328125
1772788671516169500,4.52916943359375,-1.00390625,-0.0569915771484375,0.0296478271484375
1772788671526234400,4.539234375,-1.006439208984375,-0.0584259033203125,0.0301055908203125
1772788671536300500,4.549300537109375,-1.0059814453125,-0.0585784912109375,0.0310516357421875
1772788671546365400,4.559365478515625,-1.0025177001953125,-0.0598602294921875,0.0309295654296875
1772788671556430600,4.5694306640625,-1.0038299560546875,-0.0612030029296875,0.0300140380859375
1772788671566495500,4.57949560546875,-1.003814697265625,-0.05975341796875,0.0316314697265625
1772788671576560400,4.589560302734375,-1.0025787353515625,-0.0592803955078125,0.03216552734375
1772788671586626600,4.59962646484375,-1.00555419921875,-0.0588226318359375,0.0316162109375
1772788671596691500,4.60969140625,-1.0095977783203125,-0.060150146484375,0.0315399169921875
1772788671606756400,4.61975634765625,-1.0111541748046875,-0.0611572265625,0.0316162109375
1772788671616822500,4.629822509765625,-1.0130157470703125,-0.0619964599609375,0.031341552734375
1772788671626887700,4.6398876953125,-1.0124053955078125,-0.0616302490234375,0.0308990478515625
1772788671636952300,4.649952392578125,-1.0091094970703125,-0.061065673828125,0.0300750732421875
1772788671647017500,4.660017578125,-1.005523681640625,-0.061187744140625,0.02801513671875
1772788671657083400,4.67008349609375,-1.004150390625,-0.0602264404296875,0.0274200439453125
1772788671667148300,4.680148193359375,-1.0040130615234375,-0.0584869384765625,0.0275115966796875
1772788671677213400,4.69021337890625,-1.0074005126953125,-0.059783935546875,0.0284423828125
1772788671687278600,4.700278564453125,-1.009490966796875,-0.0615234375,0.0324554443359375
1772788671697344500,4.710344482421875,-1.0115509033203125,-0.061676025390625,0.03326416015625
1772788671707409400,4.720409423828125,-1.011199951171875,-0.06011962890625,0.0335845947265625
1772788671717474600,4.730474609375,-1.01397705078125,-0.0578460693359375,0.031951904296875
1772788671727539500,4.74053955078125,-1.011077880859375,-0.05853271484375,0.0325469970703125
1772788671737604400,4.750604248046875,-1.00933837890625,-0.059234619140625,0.03125
1772788671747670500,4.76067041015625,-1.009490966796875,-0.0560302734375,0.0312652587890625
1772788671757735400,4.7707353515625,-1.0099945068359375,-0.0563507080078125,0.03076171875
1772788671767800600,4.780800537109375,-1.0124359130859375,-0.059234619140625,0.0311431884765625
1772788671777865500,4.790865478515625,-1.0106658935546875,-0.0613861083984375,0.03106689453125
1772788671787931400,4.800931396484375,-1.009002685546875,-0.0592498779296875,0.029052734375
1772788671797996500,4.81099658203125,-1.0104522705078125,-0.0583953857421875,0.0291290283203125
1772788671808061400,4.8210615234375,-1.009796142578125,-0.0597381591796875,0.02911376953125
1772788671818126300,4.831126220703125,-1.0101318359375,-0.0596923828125,0.028350830078125
1772788671828191500,4.84119140625,-1.0080413818359375,-0.0601348876953125,0.028228759765625
1772788671838257700,4.851257568359375,-1.0073394775390625,-0.0611114501953125,0.0267486572265625
1772788671848322300,4.861322265625,-1.0072174072265625,-0.06097412109375,0.0286865234375
1772788671858387500,4.871387451171875,-1.00531005859375,-0.0599365234375,0.0284881591796875
1772788671868452600,4.88145263671875,-1.0043487548828125,-0.0580902099609375,0.0293731689453125
1772788671878518500,4.8915185546875,-1.0085601806640625,-0.0594482421875,0.0287933349609375
1772788671888583400,4.90158349609375,-1.0067138671875,-0.06146240234375,0.0285186767578125
1772788671898648600,4.911648681640625,-1.0056915283203125,-0.0590667724609375,0.027862548828125
1772788671908713500,4.92171337890625,-1.00634765625,-0.0576324462890625,0.0286865234375
1772788671918778400,4.9317783203125,-1.0084381103515625,-0.0579681396484375,0.0261688232421875
1772788671928844500,4.941844482421875,-1.01019287109375,-0.058990478515625,0.026611328125
1772788671938909400,4.951909423828125,-1.01068115234375,-0.0610504150390625,0.026641845703125
1772788671948974300,4.961974365234375,-1.0119781494140625,-0.0592498779296875,0.027008056640625
1772788671959039500,4.97203955078125,-1.0103302001953125,-0.0584869384765625,0.0265045166015625
1772788671969105400,4.98210546875,-1.0081024169921875,-0.0594940185546875,0.0247344970703125
1772788671979170600,4.992170654296875,-1.0082244873046875,-0.0589141845703125,0.02447509765625
1772788671989235500,5.0022353515625,-1.0084991455078125,-0.0597076416015625,0.025299072265625
1772788671999300400,5.01230029296875,-1.00836181640625,-0.058258056640625,0.02496337890625
1772788672009366500,5.022366455078125,-1.0062255859375,-0.0599822998046875,0.0271453857421875
1772788672019432000,5.032431884765625,-1.0091705322265625,-0.0599822998046875,0.0288543701171875
1772788672029496600,5.04249658203125,-1.008087158203125,-0.059600830078125,0.0280609130859375
1772788672039561700,5.052561767578125,-1.0076141357421875,-0.0567169189453125,0.0279693603515625
1772788672049627000,5.062626953125,-1.0081024169921875,-0.0545196533203125,0.0267181396484375
1772788672059692500,5.072692626953125,-1.0066375732421875,-0.0558929443359375,0.0260772705078125
1772788672069757700,5.0827578125,-1.0084075927734375,-0.0560302734375,0.0263214111328125
1772788672079822800,5.09282275390625,-1.0079345703125,-0.056671142578125,0.0264739990234375
1772788672089887700,5.1028876953125,-1.0093994140625,-0.05694580078125,0.02490234375
1772788672099953700,5.11295361328125,-1.0093841552734375,-0.056610107421875,0.026275634765625
1772788672110018800,5.123018798828125,-1.011688232421875,-0.055419921875,0.025146484375
1772788672120083700,5.133083740234375,-1.013824462890625,-0.0561676025390625,0.0250396728515625
1772788672130148600,5.143148681640625,-1.012420654296875,-0.060577392578125,0.025115966796875
1772788672140214800,5.15321484375,-1.010528564453125,-0.0587615966796875,0.0250244140625
1772788672150279700,5.16327978515625,-1.006744384765625,-0.05810546875,0.0245361328125
1772788672160344600,5.173344482421875,-1.0074005126953125,-0.059112548828125,0.0250701904296875
1772788672170409700,5.18340966796875,-1.007476806640625,-0.0593719482421875,0.0261993408203125
1772788672180475600,5.1934755859375,-1.0119171142578125,-0.059906005859375,0.0273590087890625
1772788672190540800,5.203540771484375,-1.0095367431640625,-0.0623626708984375,0.027374267578125
1772788672200605700,5.213605712890625,-1.006500244140625,-0.060577392578125,0.0283050537109375
1772788672210670600,5.223670654296875,-1.0081634521484375,-0.0576324462890625,0.028045654296875
1772788672220735700,5.23373583984375,-1.0088958740234375,-0.0589141845703125,0.0284423828125
1772788672230802000,5.243802001953125,-1.00653076171875,-0.058624267578125,0.028350830078125
1772788672240866600,5.253866455078125,-1.006622314453125,-0.0570068359375,0.029083251953125
1772788672250931700,5.263931640625,-1.0099945068359375,-0.0576629638671875,0.0293426513671875
1772788672260996900,5.273996826171875,-1.00970458984375,-0.0586700439453125,0.02899169921875
1772788672271062500,5.2840625,-1.007415771484375,-0.057403564453125,0.0279541015625
1772788672281127700,5.294127685546875,-1.00726318359375,-0.054443359375,0.0284271240234375
1772788672291192800,5.30419287109375,-1.0058746337890625,-0.0534210205078125,0.0311431884765625
1772788672301257700,5.3142578125,-1.008575439453125,-0.0543365478515625,0.0316619873046875
1772788672311323600,5.32432373046875,-1.0098419189453125,-0.0579833984375,0.0306549072265625
1772788672321388800,5.334388916015625,-1.01373291015625,-0.0589141845703125,0.030303955078125
1772788672331453700,5.34445361328125,-1.01348876953125,-0.06109619140625,0.0300750732421875
1772788672341518600,5.3545185546875,-1.011810302734375,-0.0617523193359375,0.029266357421875
1772788672351583700,5.364583740234375,-1.0092620849609375,-0.059783935546875,0.0269775390625
1772788672361649700,5.374649658203125,-1.0064849853515625,-0.0593414306640625,0.025360107421875
1772788672371714800,5.38471484375,-1.0055999755859375,-0.0567169189453125,0.0265350341796875
1772788672381779700,5.39477978515625,-1.007598876953125,-0.0552978515625,0.0267486572265625
1772788672391844900,5.404844970703125,-1.0091400146484375,-0.0574798583984375,0.0256500244140625
1772788672401910800,5.414910888671875,-1.0093536376953125,-0.0582427978515625,0.0264739990234375
1772788672411975700,5.4249755859375,-1.01055908203125,-0.0574188232421875,0.0264892578125
1772788672422040600,5.43504052734375,-1.0110015869140625,-0.055999755859375,0.0260009765625
1772788672432105700,5.445105712890625,-1.0096893310546875,-0.0566864013671875,0.0262908935546875
1772788672442172000,5.455171875,-1.0102386474609375,-0.056243896484375,0.0272216796875
1772788672452236500,5.465236572265625,-1.009368896484375,-0.05682373046875,0.025909423828125
1772788672462301700,5.4753017578125,-1.00738525390625,-0.0560150146484375,0.0275421142578125
1772788672472366800,5.485366943359375,-1.0092010498046875,-0.055145263671875,0.027557373046875
1772788672482432500,5.4954326171875,-1.0116729736328125,-0.05609130859375,0.0291900634765625
1772788672492497700,5.50549755859375,-1.0121917724609375,-0.0575408935546875,0.031524658203125
1772788672502562800,5.515562744140625,-1.01220703125,-0.058441162109375,0.0319671630859375
1772788672512627700,5.525627685546875,-1.0093231201171875,-0.0570220947265625,0.0305328369140625
1772788672522693600,5.535693603515625,-1.00653076171875,-0.056549072265625,0.0311431884765625
1772788672532758800,5.5457587890625,-1.005126953125,-0.0577392578125,0.031036376953125
1772788672542823700,5.55582373046875,-1.003692626953125,-0.058349609375,0.0312652587890625
1772788672552888600,5.565888671875,-1.0035400390625,-0.0588226318359375,0.0324554443359375
1772788672562953700,5.57595361328125,-1.0031585693359375,-0.0575714111328125,0.034271240234375
1772788672573019600,5.58601953125,-1.004730224609375,-0.0564422607421875,0.033477783203125
1772788672583084800,5.596084716796875,-1.0091094970703125,-0.057708740234375,0.0332183837890625
1772788672593149700,5.606149658203125,-1.010528564453125,-0.05902099609375,0.031707763671875
1772788672603214800,5.61621484375,-1.0114898681640625,-0.0579833984375,0.031097412109375
1772788672613280800,5.62628076171875,-1.007843017578125,-0.0579376220703125,0.0301055908203125
1772788672623345700,5.636345703125,-1.00634765625,-0.0573883056640625,0.02734375
1772788672633410800,5.646410888671875,-1.0080108642578125,-0.056976318359375,0.0269622802734375
1772788672643475700,5.656475830078125,-1.0070953369140625,-0.05865478515625,0.0263824462890625
1772788672653542000,5.6665419921875,-1.008392333984375,-0.0597381591796875,0.0273590087890625
1772788672663606500,5.6766064453125,-1.010101318359375,-0.0606231689453125,0.0291748046875
1772788672673671700,5.686671630859375,-1.0121307373046875,-0.0589752197265625,0.0283660888671875
1772788672683736800,5.69673681640625,-1.0086212158203125,-0.0580902099609375,0.02752685546875
1772788672693802800,5.706802734375,-1.0098114013671875,-0.0579681396484375,0.028839111328125
1772788672703867600,5.71686767578125,-1.009857177734375,-0.0582427978515625,0.027130126953125
1772788672713932800,5.726932861328125,-1.0096893310546875,-0.0584259033203125,0.027923583984375
1772788672723998000,5.736998046875,-1.0081939697265625,-0.055755615234375,0.0291900634765625
1772788672734063600,5.747063720703125,-1.0066680908203125,-0.0565185546875,0.0294647216796875
1772788672744128800,5.757128662109375,-1.0073699951171875,-0.05584716796875,0.0291290283203125
1772788672754193700,5.767193603515625,-1.0091094970703125,-0.0557861328125,0.029052734375
1772788672764258600,5.777258544921875,-1.0135650634765625,-0.0591583251953125,0.0295867919921875
1772788672774323700,5.78732373046875,-1.0129852294921875,-0.060821533203125,0.03021240234375
1772788672784389600,5.7973896484375,-1.010986328125,-0.0607452392578125,0.0303802490234375
1772788672794454800,5.807454833984375,-1.0086517333984375,-0.060760498046875,0.0289459228515625
1772788672804519700,5.817519775390625,-1.0058746337890625,-0.0609893798828125,0.0283966064453125
1772788672814584800,5.827584716796875,-1.005523681640625,-0.0599212646484375,0.0278167724609375
1772788672824650800,5.837650634765625,-1.00262451171875,-0.0579833984375,0.0274658203125
1772788672834715600,5.847715576171875,-1.0037078857421875,-0.0571441650390625,0.0299835205078125
1772788672844780800,5.85778076171875,-1.0066070556640625,-0.057647705078125,0.0299530029296875
1772788672854845700,5.867845703125,-1.0103912353515625,-0.0594329833984375,0.03204345703125
1772788672864912000,5.877911865234375,-1.0102386474609375,-0.0586700439453125,0.03411865234375
1772788672874976500,5.8879765625,-1.0087890625,-0.058380126953125,0.03204345703125
1772788672885041700,5.898041748046875,-1.007965087890625,-0.058990478515625,0.0309906005859375
1772788672895106800,5.90810693359375,-1.0083465576171875,-0.0594635009765625,0.0308990478515625
1772788672905172700,5.9181728515625,-1.0085601806640625,-0.061370849609375,0.029754638671875
1772788672915237600,5.928237548828125,-1.00982666015625,-0.06085205078125,0.027984619140625
1772788672925302800,5.938302734375,-1.0081024169921875,-0.06048583984375,0.0289154052734375
1772788672935368000,5.948367919921875,-1.0088348388671875,-0.060943603515625,0.0296478271484375
1772788672945433600,5.95843359375,-1.008392333984375,-0.0600433349609375,0.0291748046875
1772788672955498800,5.968498779296875,-1.0074005126953125,-0.0591278076171875,0.030029296875
1772788672965563600,5.978563720703125,-1.0090484619140625,-0.060272216796875,0.03143310546875
1772788672975628500,5.988628662109375,-1.0098114013671875,-0.06195068359375,0.0312652587890625
1772788672985694700,5.99869482421875,-1.0096588134765625,-0.0618133544921875,0.0306549072265625
1772788672995759600,6.008759521484375,-1.0096588134765625,-0.061767578125,0.030120849609375
1772788673005824800,6.01882470703125,-1.00933837890625,-0.059600830078125,0.02960205078125
1772788673015889700,6.0288896484375,-1.006439208984375,-0.0578765869140625,0.0296173095703125
1772788673025955300,6.038955322265625,-1.0071258544921875,-0.05841064453125,0.0296783447265625
1772788673036020200,6.049020263671875,-1.010406494140625,-0.061553955078125,0.030517578125
1772788673046085000,6.059085205078125,-1.0100250244140625,-0.0616912841796875,0.0285491943359375
1772788673056150300,6.069150390625,-1.0088653564453125,-0.060089111328125,0.0283050537109375
1772788673066216200,6.07921630859375,-1.0067291259765625,-0.0615081787109375,0.0269012451171875
1772788673076281300,6.08928125,-1.00726318359375,-0.0589447021484375,0.0262451171875
1772788673086346200,6.09934619140625,-1.00701904296875,-0.059295654296875,0.0257415771484375
1772788673096411100,6.1094111328125,-1.0076751708984375,-0.0599822998046875,0.0270538330078125
1772788673106477300,6.119477294921875,-1.0074462890625,-0.059661865234375,0.0284881591796875
1772788673116542200,6.129542236328125,-1.0057830810546875,-0.0615997314453125,0.0298614501953125
1772788673126607000,6.139607177734375,-1.006927490234375,-0.0625,0.030487060546875
1772788673136672300,6.14967236328125,-1.0081329345703125,-0.0624542236328125,0.031005859375
1772788673146738200,6.15973828125,-1.007232666015625,-0.061187744140625,0.0300750732421875
1772788673156803000,6.169802978515625,-1.0069122314453125,-0.0624847412109375,0.0309906005859375
1772788673166868200,6.1798681640625,-1.009857177734375,-0.062652587890625,0.03289794921875
1772788673176933400,6.189933349609375,-1.0098724365234375,-0.062286376953125,0.032073974609375
1772788673186999300,6.199999267578125,-1.0074615478515625,-0.060699462890625,0.0322418212890625
1772788673197064200,6.210064208984375,-1.0074310302734375,-0.0612945556640625,0.0316619873046875
1772788673207129300,6.22012939453125,-1.00750732421875,-0.061553955078125,0.032379150390625
1772788673217194200,6.2301943359375,-1.009765625,-0.06036376953125,0.0316009521484375
1772788673227260200,6.24026025390625,-1.009124755859375,-0.0618438720703125,0.0303497314453125
1772788673237325300,6.2503251953125,-1.00897216796875,-0.0626068115234375,0.0316162109375
1772788673247390200,6.26039013671875,-1.007568359375,-0.058929443359375,0.0312042236328125
1772788673257455000,6.270455078125,-1.0081787109375,-0.0590972900390625,0.030609130859375
1772788673267520300,6.280520263671875,-1.007171630859375,-0.060699462890625,0.0303955078125
1772788673277586200,6.290586181640625,-1.007232666015625,-0.0602264404296875,0.0307159423828125
1772788673287651300,6.3006513671875,-1.0071563720703125,-0.060760498046875,0.0323944091796875
1772788673297716200,6.31071630859375,-1.008941650390625,-0.0629119873046875,0.0322265625
1772788673307781000,6.320781005859375,-1.01641845703125,-0.0615386962890625,0.0301971435546875
1772788673317847300,6.330847412109375,-1.0083770751953125,-0.0603485107421875,0.0306243896484375
1772788673327912400,6.340912353515625,-1.00732421875,-0.0633392333984375,0.03314208984375
1772788673337977000,6.35097705078125,-1.01263427734375,-0.0634002685546875,0.03228759765625
1772788673348042200,6.361042236328125,-1.0094146728515625,-0.0634918212890625,0.031768798828125
1772788673358108200,6.371108154296875,-1.0075531005859375,-0.062469482421875,0.0304412841796875
1772788673368173000,6.381173095703125,-1.0093841552734375,-0.0629730224609375,0.0303192138671875
1772788673378238200,6.39123828125,-1.0072174072265625,-0.063507080078125,0.030548095703125
1772788673388303400,6.401303466796875,-1.001617431640625,-0.062255859375,0.0283966064453125
1772788673398369300,6.411369384765625,-1.004425048828125,-0.061187744140625,0.02783203125
1772788673408434200,6.42143408203125,-1.007171630859375,-0.0614471435546875,0.0283355712890625
1772788673418499300,6.431499267578125,-1.004730224609375,-0.0610198974609375,0.029327392578125
1772788673428564200,6.441564208984375,-1.0042724609375,-0.060211181640625,0.0303802490234375
1772788673438630100,6.451630126953125,-1.006927490234375,-0.0614776611328125,0.029571533203125
1772788673448695300,6.4616953125,-1.00933837890625,-0.0635833740234375,0.0299530029296875
1772788673458760200,6.47176025390625,-1.0086669921875,-0.062530517578125,0.03033447265625
1772788673468825000,6.4818251953125,-1.0099029541015625,-0.0609283447265625,0.0309295654296875
1772788673478891000,6.49189111328125,-1.0107879638671875,-0.060333251953125,0.0318450927734375
1772788673488956200,6.5019560546875,-1.0101470947265625,-0.059906005859375,0.03216552734375
1772788673499021300,6.512021240234375,-1.01226806640625,-0.0609588623046875,0.0330657958984375
1772788673509086200,6.522086181640625,-1.01055908203125,-0.0622406005859375,0.0331268310546875
1772788673519152000,6.532152099609375,-1.00677490234375,-0.0625457763671875,0.0318450927734375
1772788673529217300,6.54221728515625,-1.0052490234375,-0.0608978271484375,0.031829833984375
1772788673539282400,6.552282470703125,-1.0061187744140625,-0.06103515625,0.032257080078125
1772788673549347000,6.56234716796875,-1.006683349609375,-0.0625457763671875,0.03387451171875
1772788673559413200,6.572413330078125,-1.0087432861328125,-0.063720703125,0.0329742431640625
1772788673569478400,6.582478515625,-1.0070343017578125,-0.0647125244140625,0.033477783203125
1772788673579543000,6.59254296875,-1.0075225830078125,-0.0642547607421875,0.032623291015625
1772788673589608200,6.602608154296875,-1.0089111328125,-0.0626373291015625,0.0308685302734375
1772788673599674000,6.612674072265625,-1.0060272216796875,-0.06207275390625,0.030029296875
1772788673609739300,6.6227392578125,-1.00885009765625,-0.0600738525390625,0.0307464599609375
1772788673619804200,6.63280419921875,-1.011016845703125,-0.0633697509765625,0.03387451171875
1772788673629869300,6.642869384765625,-1.0109710693359375,-0.0615234375,0.031158447265625
1772788673639935200,6.652935302734375,-1.0099639892578125,-0.0600738525390625,0.0327606201171875
1772788673650000400,6.66300048828125,-1.0111846923828125,-0.06011962890625,0.031036376953125
1772788673660065300,6.673065185546875,-1.0099639892578125,-0.0577392578125,0.0309295654296875
1772788673670130200,6.683130126953125,-1.0076751708984375,-0.0594635009765625,0.0306549072265625
1772788673680196400,6.6931962890625,-1.010284423828125,-0.059600830078125,0.0290679931640625
1772788673690261200,6.70326123046875,-1.009246826171875,-0.05816650390625,0.028839111328125
1772788673700326100,6.713326171875,-1.010833740234375,-0.0573577880859375,0.0279541015625
1772788673710391300,6.723391357421875,-1.012237548828125,-0.0590667724609375,0.0300445556640625
1772788673720457200,6.733457275390625,-1.01165771484375,-0.0595703125,0.0307464599609375
1772788673730522000,6.743522216796875,-1.0086669921875,-0.060760498046875,0.03106689453125
1772788673740587300,6.753587158203125,-1.0088958740234375,-0.0608367919921875,0.030303955078125
1772788673750652400,6.76365234375,-1.0076904296875,-0.0595855712890625,0.0294647216796875
1772788673760718000,6.773718017578125,-1.005950927734375,-0.0607147216796875,0.0301971435546875
1772788673770783200,6.783783203125,-1.005523681640625,-0.060943603515625,0.030426025390625
1772788673780848400,6.793848388671875,-1.006500244140625,-0.0614166259765625,0.029754638671875
1772788673790913000,6.8039130859375,-1.00732421875,-0.06219482421875,0.030120849609375
1772788673800979200,6.813979248046875,-1.007049560546875,-0.0608367919921875,0.0283203125
1772788673811044000,6.824044189453125,-1.0075531005859375,-0.059844970703125,0.029510498046875
1772788673821109200,6.834109130859375,-1.0118255615234375,-0.061920166015625,0.032257080078125
1772788673831174100,6.844174072265625,-1.0142669677734375,-0.0614776611328125,0.03106689453125
1772788673841240000,6.854239990234375,-1.013427734375,-0.0608673095703125,0.0305328369140625
1772788673851305200,6.86430517578125,-1.012176513671875,-0.0615234375,0.0308685302734375
1772788673861370400,6.874370361328125,-1.009674072265625,-0.0601654052734375,0.028717041015625
1772788673871435300,6.884435302734375,-1.007171630859375,-0.0588531494140625,0.027587890625
1772788673881501200,6.894501220703125,-1.007080078125,-0.061126708984375,0.0285186767578125
1772788673891566300,6.90456640625,-1.0067596435546875,-0.0605010986328125,0.0295257568359375
1772788673901631200,6.91463134765625,-1.0067291259765625,-0.06024169921875,0.03125
1772788673911696100,6.924696044921875,-1.0063018798828125,-0.060699462890625,0.0295562744140625
1772788673921762300,6.93476220703125,-1.0050201416015625,-0.0608673095703125,0.0296478271484375
1772788673931827200,6.9448271484375,-1.0049896240234375,-0.059783935546875,0.0284576416015625
1772788673941892000,6.95489208984375,-1.0047454833984375,-0.058685302734375,0.0290985107421875
1772788673951957200,6.964957275390625,-1.0070343017578125,-0.0588531494140625,0.029327392578125
1772788673962023200,6.975023193359375,-1.0084991455078125,-0.0597381591796875,0.0291595458984375
1772788673972088000,6.985088134765625,-1.008819580078125,-0.059814453125,0.0286102294921875
1772788673982153200,6.9951533203125,-1.0123443603515625,-0.060333251953125,0.0299835205078125
1772788673992218400,7.00521826171875,-1.0145263671875,-0.059783935546875,0.0297088623046875
1772788674002284300,7.0152841796875,-1.0154876708984375,-0.0585479736328125,0.0301666259765625
1772788674012349200,7.02534912109375,-1.012237548828125,-0.0601043701171875,0.0291748046875
1772788674022414800,7.035414794921875,-1.009429931640625,-0.060638427734375,0.0290679931640625
1772788674032480000,7.04547998046875,-1.008331298828125,-0.059417724609375,0.027679443359375
1772788674042546000,7.0555458984375,-1.0087890625,-0.0582122802734375,0.0278778076171875
1772788674052610800,7.06561083984375,-1.0078887939453125,-0.057769775390625,0.029327392578125
1772788674062676000,7.075676025390625,-1.0059356689453125,-0.0583038330078125,0.0291748046875
1772788674072741000,7.0857412109375,-1.00469970703125,-0.0585784912109375,0.0309295654296875
1772788674082807000,7.09580712890625,-1.005706787109375,-0.0587615966796875,0.0304718017578125
1772788674092872000,7.105871826171875,-1.008331298828125,-0.0578155517578125,0.0304412841796875
1772788674102937000,7.11593701171875,-1.008758544921875,-0.0595855712890625,0.0321044921875
1772788674113002000,7.126001953125,-1.0082855224609375,-0.0607147216796875,0.03253173828125
1772788674123067000,7.13606689453125,-1.0092010498046875,-0.0591888427734375,0.0322113037109375
1772788674133133000,7.146133056640625,-1.009979248046875,-0.0603485107421875,0.0311431884765625
1772788674143198000,7.156197998046875,-1.0120697021484375,-0.0613861083984375,0.0315704345703125
1772788674153262800,7.166262939453125,-1.0059661865234375,-0.060089111328125,0.031402587890625
1772788674163328000,7.176327880859375,-1.005096435546875,-0.056549072265625,0.0285797119140625
1772788674173394000,7.186393798828125,-1.0089263916015625,-0.0574798583984375,0.029815673828125
1772788674183459000,7.196458984375,-1.008758544921875,-0.0583953857421875,0.0316925048828125
1772788674193524000,7.20652392578125,-1.004364013671875,-0.0581207275390625,0.03033447265625
1772788674203588900,7.2165888671875,-1.0064697265625,-0.058197021484375,0.0297393798828125
1772788674213655000,7.226655029296875,-1.0087127685546875,-0.0598297119140625,0.030181884765625
1772788674223720200,7.23672021484375,-1.0090179443359375,-0.0606689453125,0.030242919921875
1772788674233784800,7.246784912109375,-1.0087432861328125,-0.05926513671875,0.0303955078125
1772788674243850000,7.25685009765625,-1.0071868896484375,-0.0590667724609375,0.0309906005859375
1772788674253916000,7.266916015625,-1.0079803466796875,-0.058837890625,0.029876708984375
1772788674263980800,7.276980712890625,-1.0077972412109375,-0.05853271484375,0.0302734375
1772788674274046000,7.2870458984375,-1.0081939697265625,-0.05712890625,0.0302276611328125
1772788674284111000,7.297111083984375,-1.009796142578125,-0.057159423828125,0.0294189453125
1772788674294177000,7.307177001953125,-1.0107879638671875,-0.0583648681640625,0.0305938720703125
1772788674304242000,7.317241943359375,-1.0104217529296875,-0.0594940185546875,0.0294036865234375
1772788674314307000,7.32730712890625,-1.010650634765625,-0.0602569580078125,0.0299072265625
1772788674324372000,7.3373720703125,-1.0103912353515625,-0.057281494140625,0.0305938720703125
1772788674334436900,7.347436767578125,-1.0107574462890625,-0.0548553466796875,0.030731201171875
1772788674344503000,7.3575029296875,-1.012237548828125,-0.0564727783203125,0.0300445556640625
1772788674354568000,7.36756787109375,-1.0134124755859375,-0.0567474365234375,0.0304412841796875
1772788674364633000,7.377633056640625,-1.012451171875,-0.053497314453125,0.031005859375
1772788674374698000,7.387697998046875,-1.0146484375,-0.0536346435546875,0.031646728515625
1772788674384764000,7.397763916015625,-1.01812744140625,-0.057159423828125,0.0368194580078125
1772788674394829000,7.4078291015625,-1.0131988525390625,-0.0558929443359375,0.0376129150390625
1772788674404894000,7.41789404296875,-1.00738525390625,-0.05615234375,0.033477783203125
1772788674414958800,7.427958740234375,-1.003082275390625,-0.0535736083984375,0.0318756103515625
1772788674425025000,7.43802490234375,-1.0013885498046875,-0.0542144775390625,0.0318756103515625
1772788674435090200,7.448090087890625,-1.00286865234375,-0.055999755859375,0.031341552734375
1772788674445154800,7.45815478515625,-1.0044097900390625,-0.0569305419921875,0.0316925048828125
1772788674455220000,7.468219970703125,-1.0046234130859375,-0.058013916015625,0.0302276611328125
1772788674465286100,7.4782861328125,-1.0038299560546875,-0.0575408935546875,0.0288848876953125
1772788674475350800,7.488350830078125,-1.0036163330078125,-0.058013916015625,0.02691650390625
1772788674485416000,7.498416015625,-1.001922607421875,-0.0578460693359375,0.0256195068359375
1772788674495481000,7.508481201171875,-1.00262451171875,-0.0577850341796875,0.026580810546875
1772788674505547000,7.518547119140625,-1.00482177734375,-0.0569610595703125,0.028289794921875
1772788674515612000,7.52861181640625,-1.0075531005859375,-0.056732177734375,0.0277557373046875
1772788674525677000,7.538677001953125,-1.008697509765625,-0.05584716796875,0.0285491943359375
1772788674535742000,7.548741943359375,-1.0116119384765625,-0.056060791015625,0.0292510986328125
1772788674545806800,7.558806884765625,-1.0156402587890625,-0.0554351806640625,0.0309295654296875
1772788674555873000,7.568873046875,-1.0181732177734375,-0.05535888671875,0.030517578125
1772788674565938000,7.57893798828125,-1.017669677734375,-0.05523681640625,0.031524658203125
1772788674576003000,7.589003173828125,-1.0151519775390625,-0.0549468994140625,0.03253173828125
1772788674586068000,7.59906787109375,-1.0121307373046875,-0.0541229248046875,0.0295867919921875
1772788674596134000,7.6091337890625,-1.010650634765625,-0.0531005859375,0.0294342041015625
1772788674606199000,7.619198974609375,-1.0084228515625,-0.0533294677734375,0.0291290283203125
1772788674616264000,7.629263916015625,-1.007720947265625,-0.053131103515625,0.0289459228515625
1772788674626328800,7.639328857421875,-1.0105743408203125,-0.0539398193359375,0.029632568359375
1772788674636395000,7.64939501953125,-1.011505126953125,-0.05377197265625,0.0315093994140625
1772788674646460200,7.659460205078125,-1.00830078125,-0.0535430908203125,0.033203125
1772788674656524800,7.66952490234375,-1.0080413818359375,-0.0528717041015625,0.03192138671875
1772788674666590000,7.67958984375,-1.0057830810546875,-0.0517730712890625,0.0316925048828125
1772788674676655000,7.689655029296875,-1.00567626953125,-0.0528564453125,0.0327911376953125
1772788674686721000,7.699720947265625,-1.00592041015625,-0.054931640625,0.032318115234375
1772788674696786000,7.709785888671875,-1.00421142578125,-0.05523681640625,0.0322723388671875
1772788674706851000,7.71985107421875,-1.0076446533203125,-0.05450439453125,0.0323333740234375
1772788674716916000,7.729916015625,-1.011749267578125,-0.0550537109375,0.03289794921875
1772788674726982000,7.73998193359375,-1.0124359130859375,-0.0561370849609375,0.0337371826171875
1772788674737047000,7.750047119140625,-1.0107879638671875,-0.0551910400390625,0.0318756103515625
1772788674747112000,7.76011181640625,-1.0111846923828125,-0.055145263671875,0.030426025390625
1772788674757176800,7.7701767578125,-1.0101776123046875,-0.0545196533203125,0.029815673828125
1772788674767243000,7.780242919921875,-1.0089569091796875,-0.052734375,0.0292510986328125
1772788674777308000,7.790307861328125,-1.009429931640625,-0.0524444580078125,0.0298004150390625
1772788674787373000,7.800373046875,-1.0098114013671875,-0.0521240234375,0.0312042236328125
1772788674797438000,7.81043798828125,-1.0103607177734375,-0.0520477294921875,0.03094482421875
1772788674807503000,7.820503173828125,-1.0078277587890625,-0.0526275634765625,0.030609130859375
1772788674817569000,7.830569091796875,-1.0076751708984375,-0.052398681640625,0.029998779296875
1772788674827634000,7.840634033203125,-1.0077667236328125,-0.0518035888671875,0.029632568359375
1772788674837698800,7.85069873046875,-1.0081634521484375,-0.0521697998046875,0.0305023193359375
1772788674847764000,7.860763916015625,-1.0077972412109375,-0.052337646484375,0.0315704345703125
1772788674857830100,7.870830078125,-1.006927490234375,-0.0523223876953125,0.0315399169921875
1772788674867894800,7.880894775390625,-1.007537841796875,-0.0529937744140625,0.0312957763671875
1772788674877960000,7.8909599609375,-1.009552001953125,-0.0522003173828125,0.0318756103515625
1772788674888025000,7.901025146484375,-1.0115966796875,-0.051483154296875,0.0312652587890625
1772788674898091000,7.911091064453125,-1.0116119384765625,-0.0531463623046875,0.032470703125
1772788674908156000,7.921156005859375,-1.01116943359375,-0.053802490234375,0.0318756103515625
1772788674918221000,7.931220947265625,-1.0132293701171875,-0.054046630859375,0.0311737060546875
1772788674928286000,7.941285888671875,-1.012359619140625,-0.05255126953125,0.0316314697265625
1772788674938350800,7.951350830078125,-1.010040283203125,-0.050933837890625,0.0309600830078125
1772788674948417000,7.9614169921875,-1.009033203125,-0.05096435546875,0.03057861328125
1772788674958482000,7.97148193359375,-1.007720947265625,-0.052490234375,0.0311279296875
1772788674968546800,7.981546875,-1.0079803466796875,-0.0519561767578125,0.0314788818359375
1772788674978612000,7.991612060546875,-1.008209228515625,-0.052215576171875,0.03118896484375
1772788674988677000,8.001677001953125,-1.00604248046875,-0.05279541015625,0.032073974609375
1772788674998741800,8.01174169921875,-1.00604248046875,-0.0518341064453125,0.031951904296875
1772788675008808000,8.021807861328124,-1.0056915283203125,-0.052886962890625,0.0323333740234375
1772788675018873000,8.031873046875,-1.0061492919921875,-0.052032470703125,0.0318756103515625
1772788675028937200,8.041937255859375,-1.00799560546875,-0.05126953125,0.0330657958984375
1772788675039002400,8.05200244140625,-1.0086669921875,-0.0526885986328125,0.0326690673828125
1772788675049067300,8.0620673828125,-1.009552001953125,-0.0517425537109375,0.0326385498046875
1772788675059133200,8.07213330078125,-1.0072174072265625,-0.051116943359375,0.0327911376953125
1772788675069198300,8.0821982421875,-1.007659912109375,-0.0526580810546875,0.0326995849609375
1772788675079263500,8.092263427734375,-1.0098876953125,-0.05255126953125,0.0319976806640625
1772788675089328400,8.102328369140626,-1.009796142578125,-0.0526885986328125,0.0314788818359375
1772788675099394300,8.112394287109375,-1.0109710693359375,-0.05181884765625,0.0323944091796875
1772788675109459500,8.12245947265625,-1.0101318359375,-0.051788330078125,0.0338897705078125
1772788675119524400,8.1325244140625,-1.0118255615234375,-0.05096435546875,0.0335540771484375
1772788675129589200,8.14258935546875,-1.0114898681640625,-0.0501556396484375,0.0313262939453125
1772788675139655400,8.152655517578125,-1.0102081298828125,-0.048675537109375,0.03106689453125
1772788675149720300,8.16272021484375,-1.00970458984375,-0.049774169921875,0.03082275390625
1772788675159785200,8.17278515625,-1.0078277587890625,-0.050384521484375,0.031280517578125
1772788675169850400,8.182850341796875,-1.00823974609375,-0.0515899658203125,0.03216552734375
1772788675179915500,8.19291552734375,-1.0102691650390625,-0.0524444580078125,0.0327301025390625
1772788675189981400,8.2029814453125,-1.0083770751953125,-0.052154541015625,0.031341552734375
1772788675200046300,8.21304638671875,-1.00970458984375,-0.0508270263671875,0.0311737060546875
1772788675210111500,8.223111572265625,-1.0078277587890625,-0.0498046875,0.03021240234375
1772788675220176400,8.23317626953125,-1.0084686279296875,-0.051239013671875,0.0300445556640625
1772788675230241300,8.2432412109375,-1.009735107421875,-0.0514984130859375,0.030242919921875
1772788675240307500,8.253307373046875,-1.009979248046875,-0.0503997802734375,0.031494140625
1772788675250372400,8.263372314453125,-1.008209228515625,-0.052032470703125,0.031646728515625
1772788675260437200,8.273437255859376,-1.0095367431640625,-0.05126953125,0.0312957763671875
1772788675270502400,8.28350244140625,-1.0115203857421875,-0.05084228515625,0.03173828125
1772788675280568300,8.293568359375,-1.0121917724609375,-0.052886962890625,0.032379150390625
1772788675290633500,8.303633544921874,-1.0092620849609375,-0.0531005859375,0.03094482421875
1772788675300698400,8.313698486328125,-1.010101318359375,-0.0499267578125,0.0293731689453125
1772788675310763300,8.32376318359375,-1.0100860595703125,-0.050384521484375,0.0297393798828125
1772788675320828400,8.333828369140624,-1.0087890625,-0.05450439453125,0.0316009521484375
1772788675330894300,8.343894287109375,-1.0063934326171875,-0.054840087890625,0.0300750732421875
1772788675340959200,8.353959228515626,-1.0114593505859375,-0.0519256591796875,0.030548095703125
1772788675351024400,8.3640244140625,-1.0011138916015625,-0.0537261962890625,0.0305938720703125
1772788675361089300,8.37408935546875,-1.000213623046875,-0.052947998046875,0.030364990234375
1772788675371155200,8.3841552734375,-1.0125274658203125,-0.0557098388671875,0.0332183837890625
1772788675381220400,8.394220458984375,-1.003082275390625,-0.0652313232421875,0.031982421875
1772788675391285500,8.404285400390625,-1.003570556640625,-0.053924560546875,0.0330810546875
1772788675401350100,8.41435009765625,-1.0053558349609375,-0.0561370849609375,0.0331268310546875
1772788675411415300,8.424415283203125,-1.0030670166015625,-0.05438232421875,0.030609130859375
1772788675421481500,8.4344814453125,-0.9969940185546875,-0.0527496337890625,0.0265350341796875
1772788675431546400,8.44454638671875,-1.0109405517578125,-0.048736572265625,0.0281219482421875
1772788675441611300,8.454611328125,-1.0202789306640625,-0.0457763671875,0.0298614501953125
1772788675451676400,8.464676513671876,-1.0003662109375,-0.0497283935546875,0.03271484375
1772788675461742300,8.474742431640625,-1.00518798828125,-0.0517730712890625,0.0317840576171875
1772788675471807200,8.48480712890625,-1.009490966796875,-0.049041748046875,0.03521728515625
1772788675481872400,8.494872314453126,-1.0130767822265625,-0.047637939453125,0.03216552734375
1772788675491937300,8.504937255859375,-1.01605224609375,-0.039398193359375,0.0295867919921875
1772788675502002200,8.515002197265625,-1.0174407958984375,-0.0380096435546875,0.0290985107421875
1772788675512068400,8.525068359375,-1.0173797607421875,-0.039764404296875,0.0274810791015625
1772788675522133200,8.53513330078125,-1.019378662109375,-0.0425262451171875,0.02947998046875
1772788675532198400,8.545198486328125,-1.0215911865234375,-0.045654296875,0.031982421875
1772788675542263300,8.55526318359375,-1.0224456787109375,-0.048309326171875,0.033782958984375
1772788675552328400,8.565328369140625,-1.0142364501953125,-0.0503692626953125,0.030548095703125
1772788675562394400,8.575394287109376,-1.00750732421875,-0.0481719970703125,0.033416748046875
1772788675572459500,8.58545947265625,-1.006744384765625,-0.0459136962890625,0.03125
1772788675582524400,8.5955244140625,-1.03057861328125,-0.0222625732421875,0.0253448486328125
1772788675592589300,8.60558935546875,-1.009735107421875,-0.0344696044921875,0.020477294921875
1772788675602655500,8.615655517578125,-0.99676513671875,-0.0477447509765625,0.0234527587890625
1772788675612720000,8.62572021484375,-1.0052490234375,-0.050994873046875,0.0347137451171875
1772788675622785300,8.635785400390626,-1.0069580078125,-0.0589447021484375,0.0372467041015625
1772788675632850400,8.645850341796875,-1.0019073486328125,-0.0624237060546875,0.040924072265625
1772788675642915300,8.655915283203125,-1.003997802734375,-0.062286376953125,0.0421295166015625
1772788675652981200,8.665981201171874,-1.00872802734375,-0.0601348876953125,0.04132080078125
1772788675663046400,8.67604638671875,-0.9963226318359375,-0.058502197265625,0.037933349609375
1772788675673111600,8.686111572265625,-0.995819091796875,-0.0555419921875,0.0355682373046875
1772788675683176200,8.69617626953125,-1.0085296630859375,-0.0478057861328125,0.0348052978515625
1772788675693241300,8.706241455078125,-1.0119171142578125,-0.0367279052734375,0.0300140380859375
1772788675703307300,8.716307373046876,-0.997589111328125,-0.0354461669921875,0.0282440185546875
1772788675713372200,8.7263720703125,-1.00335693359375,-0.0409393310546875,0.028564453125
1772788675723437300,8.736437255859375,-1.0203094482421875,-0.0479278564453125,0.03228759765625
1772788675733502500,8.74650244140625,-1.025238037109375,-0.052947998046875,0.0335235595703125
1772788675743567000,8.756567138671874,-1.02191162109375,-0.05535888671875,0.034454345703125
1772788675753633300,8.76663330078125,-1.021331787109375,-0.0528106689453125,0.034881591796875
1772788675763698400,8.776698486328126,-1.016510009765625,-0.049530029296875,0.0342559814453125
1772788675773763300,8.786763427734375,-1.009918212890625,-0.048309326171875,0.032379150390625
1772788675783828200,8.796828125,-1.0093994140625,-0.0450439453125,0.029083251953125
1772788675793894400,8.806894287109374,-1.011474609375,-0.0433197021484375,0.03125
1772788675803959300,8.816959228515625,-1.0067291259765625,-0.04461669921875,0.027069091796875
1772788675814024400,8.8270244140625,-1.0009613037109375,-0.04486083984375,0.026458740234375
1772788675824089300,8.83708935546875,-1.0042572021484375,-0.046478271484375,0.029937744140625
1772788675834154200,8.847154296875,-1.006011962890625,-0.0471038818359375,0.03125
1772788675844220400,8.857220458984376,-1.0046844482421875,-0.04815673828125,0.0316009521484375
1772788675854285300,8.867285400390625,-1.0018768310546875,-0.0504913330078125,0.032257080078125
1772788675864350200,8.87735009765625,-1.0019378662109375,-0.053558349609375,0.0325927734375
1772788675874415400,8.887415283203126,-1.004180908203125,-0.05377197265625,0.0326385498046875
1772788675884480300,8.897480224609374,-1.0093841552734375,-0.054595947265625,0.0339202880859375
1772788675894546200,8.907546142578125,-1.01275634765625,-0.0513763427734375,0.0342559814453125
1772788675904611300,8.917611328125,-1.0152740478515625,-0.04827880859375,0.034881591796875
1772788675914676500,8.927676513671875,-1.0152587890625,-0.0458831787109375,0.0320892333984375
1772788675924741400,8.937741455078125,-1.0136566162109375,-0.0461883544921875,0.030914306640625
1772788675934806300,8.94780615234375,-1.0128326416015625,-0.0441741943359375,0.03057861328125
1772788675944872400,8.95787255859375,-1.0112457275390625,-0.04681396484375,0.0303192138671875
1772788675954937300,8.967937255859376,-1.012847900390625,-0.0481414794921875,0.0312957763671875
1772788675965002200,8.978002197265624,-1.011199951171875,-0.048492431640625,0.031494140625
1772788675975067400,8.9880673828125,-1.0086669921875,-0.04779052734375,0.030364990234375
1772788675985132500,8.998132568359376,-1.0053863525390625,-0.045623779296875,0.0311279296875
1772788675995198200,9.0081982421875,-1.005706787109375,-0.0467376708984375,0.032135009765625
1772788676005263400,9.018263427734375,-1.0071563720703125,-0.047882080078125,0.032958984375
1772788676015328500,9.02832861328125,-1.0108642578125,-0.049407958984375,0.03387451171875
1772788676025393000,9.038392822265624,-1.0137176513671875,-0.0494842529296875,0.0357513427734375
1772788676035459000,9.048458984375,-1.0109710693359375,-0.0517578125,0.0374298095703125
1772788676045524200,9.058524169921874,-1.0094451904296875,-0.0509796142578125,0.0370941162109375
1772788676055589000,9.068589111328125,-1.006591796875,-0.05072021484375,0.03753662109375
1772788676065654000,9.078654052734375,-1.0046844482421875,-0.051849365234375,0.0358428955078125
1772788676075719200,9.08871923828125,-1.0076446533203125,-0.0500335693359375,0.0347900390625
1772788676085785000,9.09878515625,-1.0101165771484375,-0.0498504638671875,0.0340423583984375
1772788676095850000,9.10885009765625,-1.0094146728515625,-0.04937744140625,0.0330657958984375
1772788676105915100,9.1189150390625,-1.006683349609375,-0.048370361328125,0.0319976806640625
1772788676115980000,9.12897998046875,-1.006866455078125,-0.048736572265625,0.03131103515625
1772788676126045000,9.139044921875,-1.0078582763671875,-0.0469512939453125,0.032196044921875
1772788676136111000,9.149111083984375,-1.009552001953125,-0.0467987060546875,0.0324249267578125
1772788676146176000,9.159176025390625,-1.013702392578125,-0.046630859375,0.0330352783203125
1772788676156241200,9.1692412109375,-1.014678955078125,-0.0465087890625,0.033172607421875
1772788676166306000,9.17930615234375,-1.014129638671875,-0.046783447265625,0.0342864990234375
1772788676176371200,9.18937109375,-1.010009765625,-0.050018310546875,0.034332275390625
1772788676186437000,9.19943701171875,-1.0092926025390625,-0.049530029296875,0.0339508056640625
1772788676196502300,9.209502197265625,-1.0102386474609375,-0.049591064453125,0.036834716796875
1772788676206567200,9.219567138671875,-1.009765625,-0.0517578125,0.0373382568359375
1772788676216632000,9.229632080078124,-1.009033203125,-0.05059814453125,0.0385284423828125
1772788676226697200,9.239697265625,-1.007659912109375,-0.0494384765625,0.038238525390625
1772788676236763000,9.249762939453126,-1.0084686279296875,-0.0473175048828125,0.035614013671875
1772788676246828000,9.259828125,-1.0082244873046875,-0.0489654541015625,0.034027099609375
1772788676256893200,9.26989306640625,-1.00531005859375,-0.051361083984375,0.033782958984375
1772788676266958000,9.2799580078125,-1.0031890869140625,-0.0509796142578125,0.0334320068359375
1772788676277023000,9.29002294921875,-0.9996490478515625,-0.04937744140625,0.0319061279296875
1772788676287089200,9.300089111328125,-0.998046875,-0.048004150390625,0.03131103515625
1772788676297154300,9.310154296875,-1.002227783203125,-0.0475311279296875,0.0332794189453125
1772788676307219000,9.320218994140625,-1.01025390625,-0.048553466796875,0.033935546875
1772788676317284000,9.3302841796875,-1.0181884765625,-0.04644775390625,0.0351715087890625
1772788676327349200,9.340349365234376,-1.01812744140625,-0.04632568359375,0.0363006591796875
1772788676337415000,9.350414794921875,-1.017486572265625,-0.048095703125,0.036590576171875
1772788676347480000,9.36047998046875,-1.0159759521484375,-0.0461273193359375,0.0357818603515625
1772788676357545200,9.370545166015624,-1.0148162841796875,-0.0466461181640625,0.0345001220703125
1772788676367609900,9.38060986328125,-1.011199951171875,-0.0473785400390625,0.0345001220703125
1772788676377675000,9.390675048828125,-1.0101470947265625,-0.0482330322265625,0.0339813232421875
1772788676387741200,9.4007412109375,-1.0089263916015625,-0.04925537109375,0.03271484375
1772788676397806000,9.41080615234375,-1.0099334716796875,-0.048980712890625,0.0339813232421875
1772788676407871000,9.42087109375,-1.0104522705078125,-0.048187255859375,0.034820556640625
1772788676417936100,9.43093603515625,-1.0089263916015625,-0.049163818359375,0.034912109375
1772788676428001300,9.441001220703125,-1.00750732421875,-0.048248291015625,0.03564453125
1772788676438067200,9.451067138671876,-1.00689697265625,-0.048828125,0.0347442626953125
1772788676448132000,9.461132080078125,-1.0062713623046875,-0.0493621826171875,0.0358734130859375
1772788676458197000,9.471197021484375,-1.0051422119140625,-0.05072021484375,0.0357513427734375
1772788676468262100,9.48126220703125,-1.0043487548828125,-0.05194091796875,0.036376953125
1772788676478327000,9.4913271484375,-1.0065155029296875,-0.0527496337890625,0.037078857421875
1772788676488393000,9.50139306640625,-1.00543212890625,-0.05413818359375,0.0379638671875
1772788676498458000,9.5114580078125,-1.005706787109375,-0.0520477294921875,0.03607177734375
1772788676508523000,9.52152294921875,-1.0081329345703125,-0.0486907958984375,0.036224365234375
1772788676518588200,9.531588134765625,-1.0122222900390625,-0.0490264892578125,0.03509521484375
1772788676528653000,9.541653076171874,-1.0158843994140625,-0.04718017578125,0.0348968505859375
1772788676538719200,9.55171923828125,-1.012847900390625,-0.047332763671875,0.033966064453125
1772788676548784000,9.5617841796875,-1.00921630859375,-0.0469818115234375,0.03277587890625
1772788676558849000,9.57184912109375,-1.00762939453125,-0.047760009765625,0.0337066650390625
1772788676568914200,9.5819140625,-1.0092926025390625,-0.0488433837890625,0.036865234375
1772788676578979000,9.59197900390625,-1.0145111083984375,-0.0530548095703125,0.037200927734375
1772788676589045000,9.602044921875,-1.011260986328125,-0.052276611328125,0.038543701171875
1772788676599110100,9.612110107421875,-1.0079498291015625,-0.0518798828125,0.038177490234375
1772788676609175300,9.62217529296875,-1.00677490234375,-0.0504913330078125,0.0357666015625
1772788676619240000,9.632239990234375,-1.008636474609375,-0.04705810546875,0.03350830078125
1772788676629305000,9.64230517578125,-1.00433349609375,-0.0480194091796875,0.03240966796875
1772788676639371300,9.652371337890624,-1.00311279296875,-0.048675537109375,0.0299530029296875
1772788676649436000,9.662435791015625,-1.006622314453125,-0.050048828125,0.03192138671875
1772788676659501000,9.6725009765625,-1.0081787109375,-0.0533905029296875,0.0339202880859375
1772788676669566200,9.682566162109374,-1.009368896484375,-0.0525665283203125,0.0338134765625
1772788676679631000,9.692631103515625,-1.0102386474609375,-0.051177978515625,0.034088134765625
1772788676689697000,9.702697021484376,-1.008453369140625,-0.048583984375,0.0337371826171875
1772788676699762200,9.71276220703125,-1.0105438232421875,-0.047607421875,0.0344390869140625
1772788676709827000,9.7228271484375,-1.0156402587890625,-0.047607421875,0.03497314453125
1772788676719892000,9.73289208984375,-1.016448974609375,-0.0481109619140625,0.035888671875
1772788676729957000,9.74295703125,-1.012420654296875,-0.0488739013671875,0.03564453125
1772788676740022300,9.753022216796875,-1.0069122314453125,-0.0478668212890625,0.036102294921875
1772788676750088000,9.763087890625,-1.0021209716796875,-0.0480499267578125,0.0327301025390625
1772788676760153000,9.773153076171875,-1.0019989013671875,-0.04571533203125,0.0318145751953125
1772788676770218200,9.78321826171875,-1.0028839111328125,-0.0472564697265625,0.0335693359375
1772788676780283000,9.793282958984374,-1.006072998046875,-0.0527191162109375,0.0355987548828125
1772788676790348000,9.80334814453125,-1.014556884765625,-0.05645751953125,0.0369110107421875
1772788676800414200,9.813414306640626,-1.0198822021484375,-0.0555572509765625,0.038421630859375
1772788676810479000,9.82347900390625,-1.0181427001953125,-0.0526275634765625,0.03839111328125
1772788676820544000,9.8335439453125,-1.014984130859375,-0.0490264892578125,0.035919189453125
1772788676830609200,9.843609130859376,-1.013916015625,-0.0489349365234375,0.0345306396484375
1772788676840674000,9.853674072265624,-1.0107574462890625,-0.048492431640625,0.0339508056640625
1772788676850740200,9.863740234375,-1.008636474609375,-0.0482025146484375,0.033935546875
1772788676860805000,9.87380517578125,-1.0092315673828125,-0.0484161376953125,0.035247802734375
1772788676870870000,9.8838701171875,-1.006866455078125,-0.048736572265625,0.0352325439453125
1772788676880935200,9.89393505859375,-1.0021209716796875,-0.0478668212890625,0.0351409912109375
1772788676891000000,9.904,-1.0024871826171875,-0.0482025146484375,0.0362091064453125
1772788676901066000,9.91406591796875,-1.0075836181640625,-0.0519561767578125,0.0374298095703125
1772788676911131100,9.924131103515625,-1.0087738037109375,-0.053466796875,0.0355682373046875
1772788676921196000,9.934196044921874,-1.012115478515625,-0.051788330078125,0.0352935791015625
1772788676931261200,9.94426123046875,-1.01544189453125,-0.051483154296875,0.034393310546875
1772788676941326000,9.954326171875,-1.0146636962890625,-0.051361083984375,0.0340728759765625
1772788676951392300,9.964392333984375,-1.0091705322265625,-0.051605224609375,0.0339813232421875
1772788676961457000,9.974456787109375,-1.00567626953125,-0.050933837890625,0.033966064453125
1772788676971522000,9.98452197265625,-1.0078277587890625,-0.0504608154296875,0.0328369140625
1772788676981587200,9.994587158203124,-1.0123748779296875,-0.0489959716796875,0.03350830078125
1772788676991652000,10.004652099609375,-1.0128021240234375,-0.0526275634765625,0.0360260009765625
1772788677001717000,10.014717041015626,-1.00860595703125,-0.0550689697265625,0.0360565185546875
1772788677011783200,10.024783203125,-1.0029449462890625,-0.0516357421875,0.0340118408203125
1772788677021848300,10.034848388671875,-1.0028533935546875,-0.05078125,0.0333099365234375
1772788677031917300,10.044917236328125,-1.00762939453125,-0.0556793212890625,0.035186767578125
1772788677041982500,10.054982421875,-1.0096435546875,-0.058258056640625,0.0364532470703125
1772788677052047600,10.065047607421874,-1.0057220458984375,-0.0556793212890625,0.0334014892578125
1772788677062113300,10.07511328125,-1.008331298828125,-0.050201416015625,0.03314208984375
1772788677072178400,10.085178466796876,-1.0104217529296875,-0.0513916015625,0.034149169921875
1772788677082243300,10.095243408203125,-1.0117645263671875,-0.055023193359375,0.035003662109375
1772788677092308200,10.10530810546875,-1.0114593505859375,-0.0558929443359375,0.0371551513671875
1772788677102373400,10.115373291015626,-1.007965087890625,-0.054473876953125,0.0341644287109375
1772788677112439300,10.125439208984375,-1.0042877197265625,-0.052642822265625,0.0313720703125
1772788677122504400,10.13550439453125,-1.0043182373046875,-0.0521240234375,0.031768798828125
1772788677132569300,10.1455693359375,-1.0055694580078125,-0.052459716796875,0.0296478271484375
1772788677142634500,10.155634521484375,-1.0069122314453125,-0.0524444580078125,0.0336151123046875
1772788677152699400,10.165699462890625,-1.009002685546875,-0.0557861328125,0.0348052978515625
1772788677162764300,10.175764404296874,-1.012054443359375,-0.0552978515625,0.0352325439453125
1772788677172830500,10.18583056640625,-1.0130615234375,-0.0550079345703125,0.0338134765625
1772788677182895400,10.195895263671876,-1.009002685546875,-0.053253173828125,0.0310516357421875
1772788677192960500,10.20596044921875,-1.0064239501953125,-0.0527496337890625,0.0321807861328125
1772788677203025400,10.216025390625,-1.0083465576171875,-0.052581787109375,0.0325927734375
1772788677213090300,10.22609033203125,-1.006866455078125,-0.0535125732421875,0.0336456298828125
1772788677223156500,10.236156494140625,-1.007720947265625,-0.0548248291015625,0.0341949462890625
1772788677233221400,10.246221435546875,-1.008087158203125,-0.0544586181640625,0.0327911376953125
1772788677243286300,10.256286376953126,-1.011962890625,-0.0554962158203125,0.0340576171875
1772788677253351400,10.266351318359375,-1.012725830078125,-0.05615234375,0.0362091064453125
1772788677263416300,10.276416259765625,-1.012115478515625,-0.0553436279296875,0.0352783203125
1772788677273481500,10.2864814453125,-1.00811767578125,-0.05426025390625,0.0345001220703125
1772788677283547400,10.29654736328125,-1.0127105712890625,-0.0563507080078125,0.036041259765625
1772788677293612500,10.306612548828125,-1.0126495361328125,-0.056915283203125,0.0350494384765625
1772788677303677400,10.316677490234374,-1.0084228515625,-0.0562744140625,0.0348358154296875
1772788677313742300,10.326742431640625,-1.006500244140625,-0.0553131103515625,0.0345001220703125
1772788677323807500,10.336807373046875,-1.007476806640625,-0.055572509765625,0.0347442626953125
1772788677333873200,10.346873046875,-1.0068817138671875,-0.057647705078125,0.0354461669921875
1772788677343938300,10.356938232421875,-1.008270263671875,-0.0584564208984375,0.0347442626953125
1772788677354003500,10.36700341796875,-1.00836181640625,-0.0580596923828125,0.0353546142578125
1772788677364068400,10.377068359375,-1.004791259765625,-0.05804443359375,0.0337677001953125
1772788677374133200,10.38713330078125,-1.0006103515625,-0.0580902099609375,0.03131103515625
1772788677384199400,10.397199462890624,-1.0013275146484375,-0.0574188232421875,0.029296875
1772788677394264600,10.4072646484375,-1.0066986083984375,-0.05584716796875,0.0311126708984375
1772788677404329200,10.4173291015625,-1.008331298828125,-0.056884765625,0.033447265625
1772788677414394400,10.427394287109376,-1.012115478515625,-0.05743408203125,0.0347137451171875
1772788677424459500,10.43745947265625,-1.01458740234375,-0.059539794921875,0.0369110107421875
1772788677434524400,10.4475244140625,-1.0164642333984375,-0.058807373046875,0.0355377197265625
1772788677444590300,10.45759033203125,-1.0106201171875,-0.0555572509765625,0.0338287353515625
1772788677454655500,10.467655517578125,-1.0070648193359375,-0.0552825927734375,0.0345001220703125
1772788677464720400,10.477720458984376,-1.0078125,-0.055084228515625,0.0352935791015625
1772788677474785300,10.487785400390624,-1.0082550048828125,-0.0562286376953125,0.034271240234375
1772788677484850400,10.497850341796875,-1.0078277587890625,-0.05670166015625,0.033966064453125
1772788677494916400,10.507916259765626,-1.0084381103515625,-0.05767822265625,0.0347137451171875
1772788677504981200,10.517981201171875,-1.0102081298828125,-0.0586700439453125,0.0349884033203125
1772788677515046400,10.52804638671875,-1.013336181640625,-0.05792236328125,0.034423828125
1772788677525111600,10.538111572265626,-1.0137786865234375,-0.0584869384765625,0.0352783203125
1772788677535176200,10.54817626953125,-1.0138092041015625,-0.05633544921875,0.033721923828125
1772788677545241300,10.558241455078125,-1.011688232421875,-0.05474853515625,0.0313262939453125
1772788677555307300,10.568307373046874,-1.00836181640625,-0.054656982421875,0.030731201171875
1772788677565372400,10.578372314453125,-1.00439453125,-0.05609130859375,0.0306243896484375
1772788677575437300,10.588437255859375,-1.0055389404296875,-0.0578460693359375,0.0324554443359375
1772788677585502500,10.59850244140625,-1.0090179443359375,-0.057952880859375,0.035186767578125
1772788677595567400,10.6085673828125,-1.005279541015625,-0.0579681396484375,0.0362091064453125
1772788677605633500,10.618633544921876,-1.002288818359375,-0.058685302734375,0.035400390625
1772788677615698400,10.628698486328124,-1.0060272216796875,-0.058258056640625,0.036956787109375
1772788677625763300,10.638763427734375,-1.00665283203125,-0.0578765869140625,0.034942626953125
1772788677635828500,10.648828369140626,-1.009979248046875,-0.05767822265625,0.03399658203125
1772788677645893400,10.658893310546874,-1.012420654296875,-0.0586700439453125,0.03570556640625
1772788677655958500,10.66895849609375,-1.0146942138671875,-0.060028076171875,0.036407470703125
1772788677666024400,10.6790244140625,-1.0121307373046875,-0.0593109130859375,0.035888671875
1772788677676089300,10.68908935546875,-1.007476806640625,-0.0591278076171875,0.0342864990234375
1772788677686154200,10.699154296875,-1.007354736328125,-0.056549072265625,0.033660888671875
1772788677696219400,10.709219482421876,-1.0117645263671875,-0.0566864013671875,0.03485107421875
1772788677706284300,10.7192841796875,-1.01055908203125,-0.059967041015625,0.0353546142578125
1772788677716350200,10.72935009765625,-1.012298583984375,-0.060028076171875,0.036407470703125
1772788677726415400,10.739415283203124,-1.013519287109375,-0.0574188232421875,0.036895751953125
1772788677736480500,10.74948046875,-1.0106964111328125,-0.0589447021484375,0.034149169921875
1772788677746545400,10.75954541015625,-1.001861572265625,-0.0587921142578125,0.03155517578125
1772788677756610300,10.7696103515625,-0.9996337890625,-0.0573272705078125,0.032196044921875
1772788677766675500,10.779675537109375,-0.995391845703125,-0.057769775390625,0.031402587890625
1772788677776741400,10.789741455078126,-0.986083984375,-0.057281494140625,0.0302581787109375
1772788677786806300,10.79980615234375,-0.9889984130859375,-0.0583038330078125,0.0331573486328125
1772788677796871400,10.809871337890625,-1.00103759765625,-0.06085205078125,0.038970947265625
1772788677806936600,10.8199365234375,-1.0041351318359375,-0.06280517578125,0.0379486083984375
1772788677817001200,10.830001220703124,-1.017486572265625,-0.0582733154296875,0.0391998291015625
1772788677827066400,10.84006640625,-1.0270843505859375,-0.06121826171875,0.044921875
1772788677837132500,10.850132568359374,-1.032470703125,-0.0656585693359375,0.0443878173828125
1772788677847197200,10.860197265625,-1.0326690673828125,-0.0620880126953125,0.041961669921875
1772788677857262300,10.870262451171875,-1.020233154296875,-0.0577545166015625,0.0377655029296875
1772788677867327500,10.880327392578126,-1.0079345703125,-0.0567169189453125,0.034912109375
1772788677877392400,10.890392333984375,-0.992889404296875,-0.058013916015625,0.0295562744140625
1772788677887458300,10.900458251953125,-0.9864044189453125,-0.051116943359375,0.0258941650390625
1772788677897523500,10.9105234375,-0.9991912841796875,-0.0491180419921875,0.0313568115234375
