time,seconds_elapsed,z,y,x
1772790042729775600,0.074775634765625,0.1328150637745857,-0.12913082230389117,-0.8252576683454215
1772790042739841800,0.084841796875,0.5795657285839318,-0.048268940867483616,-0.919716551849246
1772790042749908700,0.09490869140625,0.8401409108310938,0.01222308336570859,-1.005493677856028
1772790042759974700,0.104974609375,0.5194599271893501,0.0859219413049519,-0.7811677667282522
1772790042770041600,0.11504150390625,-0.17511691293120382,0.14191606959700584,-0.39801001477688547
1772790042780107800,0.125107666015625,-0.7040384959489107,0.05786649803519248,-0.3746215404048562
1772790042790174700,0.1351748046875,-0.8212772204071283,-0.1743755930446088,-0.5461255235359073
1772790042800240600,0.14524072265625,-0.8039847248226404,-0.4444055629879236,-0.7590220589589327
1772790042810308000,0.15530810546875,-0.7443991479098796,-0.4916334703698754,-0.6824100169867277
1772790042820374000,0.1653740234375,-0.5017752174168825,-0.4640890453621745,-0.6661740447178482
1772790042830441000,0.17544091796875,-0.17529577662944792,-0.5236234766095876,-0.8238494089826941
1772790042840507100,0.185507080078125,-0.10790800153315067,-0.4056450396999717,-0.656619011517614
1772790042850574000,0.195573974609375,-0.31286884858608244,0.006686784287542104,-0.2206609223468229
1772790042860640000,0.205639892578125,-0.5512094026714563,0.17783508584871888,-0.20636344385985284
1772790042870707000,0.21570703125,-0.6382546489179134,0.12432473719641565,-0.2765865885125473
1772790042880773000,0.225773193359375,-0.6241209096252918,0.04260112436413765,-0.44942061467096206
1772790042890840000,0.235840087890625,-0.615431407213211,0.01200929448455572,-0.5738067266657948
1772790042900906000,0.245906005859375,-0.5612222626417875,0.08564166305884718,-0.50887975219246
1772790042910973200,0.25597314453125,-0.4750526301860809,0.17684110637530684,-0.591407776742801
1772790042921039000,0.2660390625,-0.44310441726148125,-0.08268705103695392,-0.6026774318411946
1772790042931105000,0.27610498046875,-0.307946005231142,-0.047883740942180154,-0.5118308570830151
1772790042941172200,0.286172119140625,-0.2523860305726528,-0.33598391284421086,-0.7131117369815707
1772790042951238100,0.296238037109375,-0.1909124479562044,-0.5812126190081238,-0.5605471398591995
1772790042961305000,0.30630517578125,-0.014555764096975326,-0.9585827274687587,-0.5078525645691901
1772790042971371300,0.316371337890625,0.12587445085644722,-0.9702163205087184,-0.5181995518647134
1772790042981438200,0.326438232421875,0.3312275120973587,-0.8697047128371894,-0.44108865699227895
1772790042991504000,0.33650390625,0.5559148038834333,-0.43221053667292,-0.36082386466618627
1772790043001571000,0.346571044921875,0.5829501103252173,-0.2763118266917765,-0.3713776631128043
1772790043011637000,0.356636962890625,0.6067471654981375,-0.2498746322736144,-0.3562754441142082
1772790043021704000,0.366703857421875,0.703599520009756,-0.29505744369402526,-0.38544038299582895
1772790043031770000,0.37677001953125,0.7363859373241662,-0.1812716361686587,-0.3345190644560382
1772790043041837000,0.386837158203125,0.8485825759619474,-0.10331745887249708,-0.40820981215406205
1772790043051903000,0.396903076171875,0.6171797121852636,-0.2690390592098236,-0.4646584427479654
1772790043061970000,0.406969970703125,0.1722773055911064,-0.29182328407838937,-0.30804091697297986
1772790043072036000,0.4170361328125,-0.6730021371722221,-0.6333847047939897,-0.2891679107313975
1772790043082103000,0.42710302734375,-1.1391589287191628,-0.8157565572895109,-0.30418418674590064
1772790043092169000,0.4371689453125,-0.9387298798769712,-0.4189228197503835,0.05370363816812169
1772790043102236200,0.447236083984375,-0.8320219017833471,-0.4588402579884976,0.19578639240181073
1772790043112302000,0.457302001953125,-0.48759822350442406,-0.26404979955516755,0.05468711451382842
1772790043122369000,0.467369140625,-0.12726970460712908,-0.015001681233569979,0.009009117154730484
1772790043132435200,0.477435302734375,0.19319325236976145,0.03627769349627197,0.056770062834303824
1772790043142502100,0.487502197265625,0.9379448669791222,0.08407280630692839,-0.0541765574760735
1772790043152568000,0.497568115234375,1.3238672613382338,-0.1740710571400821,-0.357354252326861
1772790043162635000,0.507635009765625,1.4192279159873724,-0.3691710199140012,-0.5052703660562634
1772790043172701200,0.517701171875,1.163400220528245,-0.5725097456578165,-0.6665892013899981
1772790043182768000,0.52776806640625,0.6164391229510306,-0.5804647963155061,-0.7484861249625683
1772790043192834000,0.537833984375,0.3214706727147102,-0.4862220397803932,-0.7048993505619466
1772790043202901200,0.5479013671875,0.2209405064731836,-0.4025277844622731,-0.7192592998258769
1772790043212967200,0.55796728515625,0.2202092695891857,-0.3664376494273543,-0.9593190058540553
1772790043223034000,0.5680341796875,0.11610709007978438,-0.942625279880315,-0.8947566634420305
1772790043233100300,0.578100341796875,0.12828677269518374,-1.3488193317651749,0.17381342911720274
1772790043243167200,0.588167236328125,0.261714415410161,-1.3083840071327983,-0.7736354715272784
1772790043253233000,0.59823291015625,0.21724808169603346,-1.1449459876880048,-1.7663418562635778
1772790043263299800,0.6082998046875,0.6744236944079399,-1.3575930053293703,-1.657484152790159
1772790043273366000,0.618365966796875,1.150139756938815,-0.9555515430793166,-1.4180109414130448
1772790043283433000,0.628432861328125,1.6222902359426021,-0.4217703912012279,-1.3144760403975844
1772790043293499000,0.638498779296875,1.4956442161917685,-0.5614078483417629,-1.221415625514835
1772790043303566000,0.648566162109375,1.2626339172184466,-0.8191923769570887,-1.2955085973381995
1772790043313632000,0.658632080078125,0.8844143523216247,-0.8705722894519567,-1.1241477490048855
1772790043323699000,0.668698974609375,0.012172668352723121,-0.7881162706919014,-0.7311811352226882
1772790043333765000,0.67876513671875,-0.5033960966169834,-0.905967354894802,-0.7731557251863181
1772790043343832000,0.68883203125,-0.7348246793568134,-0.9182106773309409,-0.6085381405681372
1772790043353898000,0.69889794921875,-0.8411305063903332,-0.872642446789518,-0.42333559469133614
1772790043363965000,0.70896484375,-0.9505939206719398,-0.819810801116377,-0.2835693235393613
1772790043374031000,0.719031005859375,-1.1053472600102423,-0.7546503466807305,-0.016858488081395624
1772790043384098000,0.72909814453125,-1.1732447381943463,-0.635664559359476,0.16224526599626987
1772790043394164000,0.7391640625,-1.1039596050441265,-0.5912100622136145,0.2251278751604259
1772790043404231200,0.749231201171875,-1.0232441463410853,-0.6538792112901807,0.21829554492235181
1772790043414297000,0.759297119140625,-1.1724778454750775,-0.8100075653087347,0.1248178179429844
1772790043424364000,0.769364013671875,-1.4476538000047205,-0.8692596724834293,0.22585454546716063
1772790043434430200,0.77943017578125,-1.708722318726778,-0.8321791381716728,0.3791267428696155
1772790043444497200,0.7894970703125,-1.8218074306368828,-0.9068767248246818,0.3788778826750815
1772790043454563000,0.79956298828125,-1.7991665597617625,-0.9915322994556277,0.3562394594853744
1772790043464630000,0.809630126953125,-1.7081646848440168,-1.0198323651362209,0.36558037501089274
1772790043474696200,0.8196962890625,-1.6523416753351687,-1.0009349916383623,0.40321605898737906
1772790043484763100,0.82976318359375,-1.6516332348048686,-0.9429544387694447,0.48760289967954157
1772790043494829000,0.8398291015625,-1.6343857474058865,-0.7546966700404882,0.6956845821667462
1772790043504895000,0.84989501953125,-1.540966874474287,-0.4550037485655397,0.8582744603496044
1772790043514962000,0.8599619140625,-1.4143658629089593,-0.237592000740394,0.9569396364368498
1772790043525028900,0.87002880859375,-1.2290151407331227,-0.022132556026801465,1.0712187804371118
1772790043535095000,0.880094970703125,-0.9881208105117082,0.1738988423783332,1.1720138081599025
1772790043545161000,0.890160888671875,-0.750690941530466,0.3024748072784394,1.2393277143023906
1772790043555228000,0.900227783203125,-0.6270686535149812,0.33996501836962995,1.2073261637553572
1772790043565294000,0.910294189453125,-0.46279462163746354,0.3277718186855316,1.1508597417764366
1772790043575361000,0.920361083984375,-0.23127543800473213,0.3894173968680203,1.1573998841349036
1772790043585427000,0.930427001953125,-0.03474047399163246,0.4530587519776076,1.1352971387244761
1772790043595494100,0.940494140625,0.1645744761288166,0.5028445271488279,1.1392723990309983
1772790043605560000,0.95056005859375,0.4421007931768894,0.6139101889953017,1.177143206937611
1772790043615627000,0.960626953125,0.6682219171583652,0.6334630307272077,1.1201279189042745
1772790043625693200,0.970693115234375,0.7305664373904466,0.5685524593994021,1.0622786642648279
1772790043635760000,0.980760009765625,0.7136392679870128,0.5616863730221986,1.0645800000097603
1772790043645826000,0.990825927734375,0.7072814233928918,0.5020173556096852,1.0471253726661205
1772790043655893000,1.00089306640625,0.702355657428503,0.3930940395541489,1.0090068005435169
1772790043665959200,1.010959228515625,0.6560743832468986,0.28984233939424153,0.9346063702061772
1772790043676026000,1.021026123046875,0.6206845054358243,0.1391634098879993,0.7954353615336119
1772790043686092000,1.031092041015625,0.5255038835287094,0.024130963302403687,0.6791559836268425
1772790043696159200,1.0411591796875,0.4012041346430778,-0.048812400094419714,0.6169689920440316
1772790043706225200,1.05122509765625,0.28107845657169817,-0.0005766308441758156,0.6023852074289694
1772790043716292000,1.0612919921875,0.2389619008541107,0.08069573108926414,0.6248525849007069
1772790043726358300,1.071358154296875,0.2236725617855787,0.12384952090010046,0.6028599122686311
1772790043736425200,1.08142529296875,0.17611001562178133,0.1757363600037992,0.5368567599311471
1772790043746491000,1.091490966796875,0.1343798288732767,0.24109087570682167,0.4477500876428559
1772790043756557800,1.101557861328125,0.15485563066899777,0.3549818971723318,0.3566736131189391
1772790043766624000,1.1116240234375,0.2556634448081255,0.4605617480188608,0.2658090460463427
1772790043776691000,1.12169091796875,0.3354518517941236,0.49793037855699657,0.16156658128341658
1772790043786757000,1.131757080078125,0.43332770413458344,0.4899773737259209,-0.005628525672573596
1772790043796824000,1.141823974609375,0.5159627327233552,0.4429579945281148,-0.14140139807313679
1772790043806890000,1.151889892578125,0.5598083041906357,0.3315321941323578,-0.277689617851004
1772790043816961300,1.161961181640625,0.6286591375768185,0.2127852570682764,-0.42129174083881077
1772790043827027200,1.172027099609375,0.713545744484663,0.04508256591632962,-0.5747845221893861
1772790043837094400,1.182094482421875,0.783830410066247,-0.15952596056759358,-0.687494334513694
1772790043847160300,1.192160400390625,0.8051759804338217,-0.2990082271464169,-0.7651008674159646
1772790043857227300,1.202227294921875,0.8068535582572222,-0.38742695370316504,-0.7858054364662617
1772790043867293400,1.21229345703125,0.8189128293633461,-0.4494875424273312,-0.7575013521976769
1772790043877360400,1.2223603515625,0.7582493940860032,-0.4559044237323105,-0.7113938271477818
1772790043887426300,1.23242626953125,0.6658306381076574,-0.42612244893088935,-0.6199745305355638
1772790043897493200,1.2424931640625,0.5333949290394783,-0.38939284694865345,-0.6231039146024734
1772790043907559400,1.252559326171875,0.3358855670362711,-0.3941898719668388,-0.6161392632216215
1772790043917626400,1.26262646484375,0.09026654638051985,-0.32812603895068165,-0.5407924554122612
1772790043927692300,1.2726923828125,-0.1597644454985857,-0.2705019713692367,-0.532293105277419
1772790043937759500,1.282759521484375,-0.39143151316940783,-0.218222479686141,-0.5420790611566976
1772790043947825200,1.2928251953125,-0.5189958168089389,-0.13757263356521726,-0.5599659059051424
1772790043957892400,1.302892333984375,-0.5835001454234123,-0.054420741495490074,-0.5641276286944746
1772790043967958300,1.312958251953125,-0.5705255130380392,-0.022088351558893916,-0.5683822904642671
1772790043978025200,1.323025146484375,-0.5502642307758331,-0.06465250491350889,-0.6427060753688216
1772790043988091100,1.333091064453125,-0.5431003304958343,-0.13032573117688298,-0.7162121872149407
1772790043998158300,1.343158447265625,-0.5321843842059374,-0.15837416018396616,-0.7266171152427792
1772790044008224300,1.353224365234375,-0.5252700747728347,-0.17027005742192267,-0.7304740829318761
1772790044018290200,1.363290283203125,-0.4654840068519115,-0.18421718810126184,-0.7043701390560716
1772790044028357400,1.373357421875,-0.4197305559366941,-0.22084376810044049,-0.7247873425323516
1772790044038424300,1.38342431640625,-0.3633849838584661,-0.3294203165449202,-0.7475408069364726
1772790044048490200,1.393490234375,-0.354919937852025,-0.4249459524974227,-0.7203869886815547
1772790044058556400,1.403556396484375,-0.34368951878547666,-0.46369668504372236,-0.6321395270384847
1772790044068623400,1.413623291015625,-0.3267249399811029,-0.5264494938157499,-0.5854204824941233
1772790044078689300,1.423689208984375,-0.29882044948935504,-0.5864252390898764,-0.5741701531507074
1772790044088756200,1.433756103515625,-0.25367314777374267,-0.5894115614242852,-0.5497638800382614
1772790044098822400,1.443822509765625,-0.19056173482239244,-0.568491084600985,-0.5083406038144603
1772790044108889300,1.453889404296875,-0.20321137303709982,-0.5704635537177324,-0.44867947744745756
1772790044118955300,1.463955322265625,-0.2275117015570402,-0.598532587121427,-0.4062980602486059
1772790044129022500,1.4740224609375,-0.25774317369163036,-0.6615702041842043,-0.43924423470199103
1772790044139088400,1.48408837890625,-0.2849778020977974,-0.7089724452197551,-0.4320352897038683
1772790044149155300,1.4941552734375,-0.2812859618425369,-0.6612725364118814,-0.41305414691269393
1772790044159221500,1.504221435546875,-0.22900340141952036,-0.5839401442758738,-0.41470490979440505
1772790044169288400,1.514288330078125,-0.13926876995861528,-0.5373144405707717,-0.4664317725634202
1772790044179354400,1.524354248046875,-0.008936170649528502,-0.5263771592319011,-0.5401436726473271
1772790044189421300,1.53442138671875,0.06627192280888557,-0.5091742416270076,-0.6173145906113088
1772790044199487200,1.5444873046875,0.06453764636218548,-0.40437326619848607,-0.6159982473157346
1772790044209554200,1.55455419921875,0.0019575638085603713,-0.27726415898054835,-0.6208432761941105
1772790044219620400,1.564620361328125,-0.17071955475509165,-0.1571431570842862,-0.6607855566125362
1772790044229687300,1.574687255859375,-0.4015010717630386,-0.047603316565603015,-0.6951919763442128
1772790044239753200,1.584753173828125,-0.5334025278240442,0.08896963843777775,-0.7595650067292153
1772790044249820200,1.594820068359375,-0.6185457398414611,0.1810404577612877,-0.8958069031473249
1772790044259886300,1.60488623046875,-0.7050923889160156,0.24683219583779573,-1.0173599106080828
1772790044269953300,1.614953369140625,-0.8007283533751964,0.3140826082900166,-1.0854727851085364
1772790044280019200,1.625019287109375,-0.932463805219531,0.33461145544722676,-1.1833294212918728
1772790044290086100,1.635086181640625,-1.0939537593364714,0.3230667097344994,-1.3218379474677144
1772790044300152300,1.64515234375,-1.249552317327261,0.3494688328392803,-1.430110836790502
1772790044310219300,1.65521923828125,-1.3781336890548468,0.3797520351611078,-1.5583574236057698
1772790044320285400,1.665285400390625,-1.3991063344568013,0.41360549718514084,-1.679795791710913
1772790044330352400,1.675352294921875,-1.4523200382500887,0.5073068403199315,-1.66639212025851
1772790044340418300,1.685418212890625,-1.4862749148219823,0.674763009364903,-1.5089331752233206
1772790044350485200,1.6954853515625,-1.5213579186409711,0.8648875218138098,-1.3298295307435095
1772790044360551400,1.705551513671875,-1.5188614256501196,1.0823192895136773,-1.1685460589841008
1772790044370618400,1.715618408203125,-1.4314742340981959,1.3275272451505065,-1.0452286721993238
1772790044380684300,1.725684326171875,-1.3174322598546742,1.5749625214479863,-0.9259738586783408
1772790044390751500,1.73575146484375,-1.2262012523561716,1.8152090552851556,-0.7330674604259431
1772790044400817400,1.7458173828125,-1.132539802840352,1.9816180533647536,-0.5698979557242244
1772790044410884400,1.75588427734375,-1.0146867458760738,2.048172738637775,-0.4904905108798295
1772790044420950500,1.765950439453125,-0.8864315373629331,1.9713249151483176,-0.4303981900213286
1772790044431017500,1.776017578125,-0.7215408348917961,1.802791179999709,-0.48180868031755086
1772790044441083100,1.786083251953125,-0.4783183539837598,1.6340169140934944,-0.5317438738968223
1772790044451150300,1.796150390625,-0.18468787435293196,1.5148739634491502,-0.5470233126258477
1772790044461216300,1.80621630859375,0.13873919312655925,1.4337224514164029,-0.5456436583030969
1772790044471283200,1.816283203125,0.45595045483112334,1.3664024808593094,-0.5452681029889732
1772790044481349000,1.82634912109375,0.7474392462581395,1.2836932179905474,-0.6298901406764984
1772790044491416300,1.836416259765625,0.9394418275386095,1.2525471152290701,-0.7121748945228755
1772790044501482200,1.846482177734375,1.0217822570949793,1.3265372111998497,-0.7218627603225409
1772790044511549200,1.856549072265625,1.062900449424982,1.450230664755404,-0.7499890768714249
1772790044521615400,1.866615478515625,1.0730565172582864,1.5893397141076624,-0.7888367669861763
1772790044531682300,1.876682373046875,1.0099205543875693,1.7182928417570889,-0.8527066701546311
1772790044541748200,1.886748291015625,0.8396113339990376,1.8175021346583962,-0.9498821191407739
1772790044551814400,1.896814453125,0.547856585112214,1.924264765548706,-0.9999477341666817
1772790044561881300,1.90688134765625,0.17170973483622073,2.0047052067026496,-0.9954730729706585
1772790044571947300,1.916947265625,-0.2421948914259672,2.021148538111895,-0.9586284663066268
1772790044582014200,1.92701416015625,-0.5784013609796762,1.9987217483788728,-0.9316640331439673
1772790044592080400,1.937080322265625,-0.833995247682929,2.001770906816423,-0.8964907206930219
1772790044602147300,1.947147216796875,-1.0079998154580592,2.036754541914165,-0.84242558770217
1772790044612213200,1.957213134765625,-1.2134756262958049,2.0833526269599796,-0.828966167474538
1772790044622280400,1.967280517578125,-1.445316296967864,2.133982744000852,-0.7434739958889782
1772790044632346400,1.977346435546875,-1.6280109516769647,2.200794472774863,-0.6376975264918059
1772790044642413300,1.987413330078125,-1.7351649199724197,2.294066922973096,-0.5365772854026407
1772790044652479500,1.9974794921875,-1.7389023529350756,2.3200492132306096,-0.47978729402516035
1772790044662546400,2.00754638671875,-1.6798983753025531,2.3223475533008573,-0.43511623151917006
1772790044672612400,2.0176123046875,-1.5019067837178706,2.308178158172965,-0.32483762839715924
1772790044682679300,2.02767919921875,-1.1859732868641615,2.2109632539592683,-0.258312826805748
1772790044692745200,2.0377451171875,-0.8246551724076271,2.0418295070908963,-0.2554541859716177
1772790044702812200,2.047812255859375,-0.5193617275118827,1.7895483981974423,-0.3099015597457066
1772790044712878300,2.05787841796875,-0.3177940300285816,1.5529264845982194,-0.36645927673727274
1772790044722945300,2.0679453125,-0.13873510147333146,1.402890090779215,-0.33648828216977417
1772790044733011200,2.07801123046875,0.09235387404859065,1.3491609848096966,-0.2644634583899751
1772790044743078100,2.088078125,0.3077121964752674,1.290907679414004,-0.2406422551564872
1772790044753144300,2.098144287109375,0.5034399357587099,1.2056047467902302,-0.24867990606371312
1772790044763211300,2.108211181640625,0.6734943046033383,1.1064875160865486,-0.29314870572956275
1772790044773277200,2.118277099609375,0.7068021154433488,1.0189034867882727,-0.2723159985212609
1772790044783344400,2.128344482421875,0.7232710196852684,0.978186276474595,-0.22202877663392573
1772790044793410300,2.138410400390625,0.7365905199855566,0.9544725156709551,-0.16464005217831582
1772790044803477200,2.148477294921875,0.7762567599415778,0.9495395893134176,-0.09691318132076412
1772790044813542100,2.158542236328125,0.7831430123239755,0.9471003794677555,-0.05757823741203174
1772790044823609000,2.168609130859375,0.6620622254848479,0.934564723021537,0.08083141323290764
1772790044833675300,2.17867529296875,0.4823655835479498,0.9574344342164695,0.22624129802873358
1772790044843742200,2.1887421875,0.3102197953820228,0.9154945502400398,0.30687088681291785
1772790044853808000,2.19880810546875,0.2615273684054613,0.8410930969893932,0.37638317978251723
1772790044863875000,2.208875,0.230704944640398,0.7489860373087227,0.41211160536557434
1772790044873941200,2.218941162109375,0.1732353369683027,0.7082416467271745,0.4801285817435011
1772790044884008200,2.22900830078125,0.16057985353469847,0.7155924478814005,0.5928360559802502
1772790044894074000,2.23907421875,0.12805004132986067,0.7477632175154983,0.6469952969953418
1772790044904141300,2.249141357421875,0.09103051649034023,0.6844597891233861,0.6544755697481334
1772790044914207200,2.259207275390625,0.026924831804633138,0.5599870217584073,0.6055658102264627
1772790044924274200,2.269274169921875,-0.013532850790023802,0.40038872660696506,0.5167344112155958
1772790044934340400,2.27934033203125,0.011282441514730453,0.24209011587724089,0.43487694287057965
1772790044944407300,2.2894072265625,0.04415595259070396,0.10222089580744505,0.3130401865649968
1772790044954473200,2.29947314453125,0.0224082311630249,-0.03696399526000023,0.17358915537465364
1772790044964540200,2.3095400390625,-0.08597147953510284,-0.10081979683786631,0.08159710037577897
1772790044974606300,2.3196064453125,-0.17950258066952227,-0.14610285376235843,-0.006720586092444136
1772790044984673300,2.32967333984375,-0.2579354813933372,-0.17362024463266132,-0.1129592935733497
1772790044994739200,2.3397392578125,-0.30874212404489515,-0.16931421800181268,-0.19736434577563777
1772790045004806400,2.349806396484375,-0.3916197292178869,-0.1400080440185964,-0.2552818798783235
1772790045014872000,2.3598720703125,-0.4849076692461967,-0.11227145743966102,-0.2618425170355476
1772790045024939300,2.369939208984375,-0.5484001904696226,-0.030961978366225957,-0.24040917705297468
1772790045035005200,2.380005126953125,-0.6295704072028399,0.031275428229570384,-0.2961079391276464
1772790045045072100,2.390072021484375,-0.7512596813291311,0.06837649387270212,-0.32439598557688293
1772790045055138000,2.400137939453125,-0.869083512198925,0.10332155052572488,-0.3177494967671111
1772790045065204200,2.410204345703125,-1.0161720159977674,0.09930003992468119,-0.3381801077142358
1772790045075271200,2.420271240234375,-1.149796642589569,0.14140402842164038,-0.31891236653402444
1772790045085337000,2.430337158203125,-1.1887497658401727,0.21181348942667244,-0.3348035804858431
1772790045095404000,2.440404052734375,-1.18187286580801,0.27918080625683067,-0.3959126041062176
1772790045105470200,2.45047021484375,-1.2210405085921288,0.40781010877937074,-0.44203371929004787
1772790045115537200,2.460537109375,-1.2178595404684542,0.5835359473891556,-0.3748459237452596
1772790045125603000,2.47060302734375,-1.1114841553300618,0.7324892221465706,-0.3219770148016512
1772790045135670300,2.480670166015625,-0.8962181873619556,0.8009085322476923,-0.3962719754705205
1772790045145736200,2.490736083984375,-0.5757979004830122,0.7753393528357148,-0.5038022662650794
1772790045155803100,2.50080322265625,-0.27146365600824357,0.7466517491422593,-0.5243109474170953
1772790045165869300,2.510869384765625,-0.08750643401741981,0.7055347258560359,-0.530695022431016
1772790045175936300,2.520936279296875,0.05703004721105098,0.6521867281585931,-0.5160889894515276
1772790045186002200,2.531002197265625,0.202013687685132,0.6456412520378828,-0.5125415261030197
1772790045196069000,2.541069091796875,0.4137228399544954,0.6752199593521654,-0.536533738521859
1772790045206135300,2.55113525390625,0.6013683950692414,0.7415479962624609,-0.5499866559434682
1772790045216202200,2.5612021484375,0.7168710895150899,0.828809515608102,-0.514513629893586
1772790045226268400,2.571268310546875,0.7298597504258155,0.9232844734638929,-0.4661319493666291
1772790045236335400,2.58133544921875,0.6677198128551244,0.9923115401998162,-0.43170868809800594
1772790045246401000,2.591401123046875,0.5982523088753223,1.0436384073331952,-0.38663112715035675
1772790045256468200,2.60146826171875,0.549302107745409,1.049192826589942,-0.3995963341202587
1772790045266534100,2.6115341796875,0.5098188231408596,1.049192826589942,-0.40680882278233765
1772790045276601000,2.62160107421875,0.3939011181533336,1.0372159730702637,-0.3647256578776985
1772790045286667000,2.6316669921875,0.2592839733928442,1.0015256510078907,-0.3109793085124343
1772790045296734200,2.641734130859375,0.07856032649576664,1.000767818377912,-0.2582222624454647
1772790045306800000,2.651800048828125,-0.0812894591987133,0.9888961787983774,-0.24069172032140193
1772790045316867000,2.6618671875,-0.22211656451523304,1.071966091673076,-0.20703231956474483
1772790045326933200,2.671933349609375,-0.3589513853251934,1.1564368112564085,-0.18760737852882592
1772790045337000200,2.682000244140625,-0.44391456460058687,1.2060700262144208,-0.21076672032009808
1772790045347066000,2.692066162109375,-0.48957273844778537,1.210489596222341,-0.2490982776062563
1772790045357133000,2.702133056640625,-0.5222720620006323,1.1807625664785504,-0.3138326886495575
1772790045367199200,2.71219921875,-0.6268722541600465,1.1250311807759106,-0.3480460700271651
1772790045377266200,2.72226611328125,-0.671424512591958,1.0864616500154136,-0.3675421766031533
1772790045387332000,2.73233203125,-0.6752221513092518,1.0123441282726824,-0.4074807672271505
1772790045397399300,2.7423994140625,-0.6618266631633043,1.011076592554897,-0.3792109505543485
1772790045407465200,2.75246533203125,-0.5633692115426063,1.0643708142384887,-0.2849935111235827
1772790045417532200,2.7625322265625,-0.4759072011888027,1.0598001453220844,-0.2239858289858326
1772790045427598300,2.772598388671875,-0.4333458243131637,0.9331875894494355,-0.2211569987680763
1772790045437665300,2.782665283203125,-0.4323012836962938,0.7913976304501295,-0.1602539460485801
1772790045447731200,2.792731201171875,-0.4189163169443607,0.6300725115060806,-0.08212817504517733
1772790045457798100,2.802798095703125,-0.4264613254964351,0.48534196901023385,0.001387874161824584
1772790045467864300,2.8128642578125,-0.4289069650828838,0.3656073360830545,0.1466063097724691
1772790045477931300,2.82293115234375,-0.3873065421938896,0.19032471119612454,0.21439495728723704
1772790045487997200,2.8329970703125,-0.27163667448759077,0.0173727212138474,0.23627386734653263
1772790045498064400,2.843064453125,-0.17593232096731662,-0.1456647546060383,0.18679116677511481
1772790045508130000,2.853130126953125,-0.1617208402633667,-0.2806095238856971,0.22433449629303068
1772790045518197200,2.863197265625,-0.1501268485814333,-0.3704688046395778,0.29031214886307716
1772790045528263200,2.87326318359375,-0.09179507112205028,-0.45418549098521466,0.3063027498024516
1772790045538330000,2.883330078125,0.012647884649038314,-0.5305823558367788,0.26164626381108536
1772790045548396000,2.89339599609375,-0.02093874313235283,-0.5620766875140368,0.2874021797005087
1772790045558462200,2.903462158203125,-0.08474807521998882,-0.47160731203779577,0.361707880959101
1772790045568529200,2.913529052734375,-0.09155600166916847,-0.42032545308992264,0.23674868178404868
1772790045578595000,2.923594970703125,-0.02205634898543358,-0.4498856018342077,0.13265613775267265
1772790045588662300,2.933662353515625,-0.008161679145693778,-0.37647863951362665,0.02109809384595137
1772790045598728200,2.943728271484375,-0.043293782803416246,-0.21969452500008047,0.00925674437340349
1772790045608795100,2.953795166015625,-0.02820259665548801,-0.15357099768593907,-0.01020524073727429
1772790045618861300,2.963861328125,0.03947685486376285,-0.04155095772407949,-0.04943018493289127
1772790045628928300,2.97392822265625,0.11807575980424881,0.05945815114080905,-0.04157814712510444
1772790045638994200,2.983994140625,0.16268588590323924,0.11639029093533754,-0.028694526624586433
1772790045649061000,2.99406103515625,0.22008067477345467,0.09929039531350135,-0.04889088129126466
1772790045659127300,3.004127197265625,0.2468611296713352,0.02212313061133027,-0.07168371872454882
1772790045669194200,3.0141943359375,0.16242928079366684,-0.1299027565244585,-0.06209572396962903
1772790045679260200,3.02426025390625,-0.031022330251336095,-0.2696270151656121,0.024436220726137978
1772790045689327400,3.034327392578125,-0.17182137851715087,-0.37299152805022895,0.14095549006969668
1772790045699393300,3.044393310546875,-0.20328502279520033,-0.4678175643660128,0.17929505713237448
1772790045709460200,3.054460205078125,-0.12652560824155806,-0.5667891029886901,0.18380009520035237
1772790045719526400,3.0645263671875,-0.05445464376509189,-0.6645930591367185,0.20265472553502767
1772790045729593300,3.07459326171875,-0.06347264747917651,-0.7783232640173285,0.22116028670370577
1772790045739659000,3.084658935546875,-0.07585106753706931,-0.8912969514422118,0.18037855978645384
1772790045749726200,3.094726318359375,-0.059175827068090436,-0.9547253944534808,0.15379001073148102
1772790045759792000,3.104792236328125,-0.009345335972309111,-0.7646806692425161,0.3289351633764803
1772790045769859000,3.114859130859375,-0.05351414804458618,-0.12425656733103095,0.6211053611963987
1772790045779925000,3.124925048828125,0.006022913551330566,-0.6964152345288545,0.5165921166680753
1772790045789992200,3.1349921875,0.20609774212837217,-1.3530547773778439,-0.3737959032356739
1772790045800058000,3.14505810546875,0.4112397909671068,-1.3931044636934995,-1.1454033030014485
1772790045810125000,3.155125,0.5572463447481394,-1.5184746182896196,-0.8764857512794435
1772790045820191700,3.165191650390625,0.5082938055306673,-1.3849018680155276,-0.7040839425258338
1772790045830258700,3.1752587890625,0.3775397659391165,-1.0583489966657011,-0.7814410307116806
1772790045840324600,3.18532470703125,0.3265624428957701,-0.9428536818087101,-0.7362332309804857
1772790045850391600,3.1953916015625,0.20877543690502642,-0.9212208919975906,-0.7479870893992483
1772790045860457700,3.205457763671875,0.14064882614016533,-0.9017577743757516,-0.9456425818748772
1772790045870524700,3.215524658203125,0.1416425133526325,-0.8543577983625232,-1.1485975689981132
1772790045880590600,3.225590576171875,0.16883388713896275,-0.7070714339040219,-1.3388362824112177
1772790045890657500,3.235657470703125,0.1879115125745535,-0.5220769778199493,-1.4919785332910716
1772790045900723700,3.2457236328125,0.14828443558514118,-0.3783323776215315,-1.5794582254320382
1772790045910790700,3.255790771484375,-0.08177519688904285,-0.2633879015803337,-1.6459851459152997
1772790045920856800,3.26585693359375,-0.4212789544224739,-0.1518975115157664,-1.6553031554892659
1772790045930923800,3.275923828125,-0.6787029791623354,-0.12953151205927133,-1.8437769781216977
1772790045940989700,3.28598974609375,-0.8522674019545317,-0.15518047870919108,-2.147450128339231
1772790045951056600,3.296056640625,-1.0188888737410307,-0.21152122848182917,-2.4029079675726592
1772790045961122800,3.306122802734375,-1.3546557828336954,-0.22641966853663323,-2.562290281885862
1772790045971188700,3.316188720703125,-1.7843816630840301,-0.10895619541183113,-2.5973010972514747
1772790045981255700,3.326255615234375,-2.163274597197771,0.12913725204467771,-2.509983463804424
1772790045991321900,3.33632177734375,-2.538700147461891,0.5459671911690384,-2.2664593696013093
1772790046001388800,3.346388916015625,-2.7970401180028914,1.1093468510404227,-2.0104133552163836
1772790046011454500,3.356454345703125,-2.8246248750209806,1.6588412664875387,-1.7329530891418456
1772790046021521700,3.366521728515625,-2.6734417953848837,2.162308382514119,-1.527226372282952
1772790046031587600,3.376587646484375,-2.5090198794692755,2.57175982875973,-1.417563197645545
1772790046041654500,3.386654541015625,-2.2422411664068695,2.838528312689066,-1.2799188140183686
1772790046051720700,3.396720703125,-1.9540537546128034,2.8683050267934798,-1.2918462754383682
1772790046061787600,3.40678759765625,-1.7856243566215038,2.6835464252918957,-1.3686913224488495
1772790046071853600,3.416853515625,-1.6819009472966193,2.489292850214243,-1.3392094996377826
1772790046081920500,3.42692041015625,-1.4800585245251654,2.4082293087258932,-1.2716986826837062
1772790046091986700,3.436986572265625,-1.1395739392608404,2.412899638624489,-1.2219721634190528
1772790046102053600,3.4470537109375,-0.8818500547915696,2.547254333056509,-1.0727497163314372
1772790046112119600,3.45711962890625,-0.6843932997584342,2.6691338690578936,-0.870087209348753
1772790046122186800,3.467186767578125,-0.3024702041685581,2.1006936378613115,-1.0444979467719793
1772790046132252700,3.477252685546875,-0.014015665870904921,2.1718618082791568,-1.4723828753307462
1772790046142319600,3.487319580078125,0.5012210906654596,2.63751006578207,-0.7593897962927818
1772790046152385800,3.4973857421875,1.0307727882802487,2.5073241814672946,-0.14484810446090995
1772790046162452700,3.50745263671875,1.1843091530442238,2.577874804508686,-0.8947996988661586
1772790046172518700,3.5175185546875,1.5137065271049737,2.4970184760302305,-0.9868535670548677
1772790046182585600,3.527585693359375,1.6501526408582925,2.29682425885722,-0.9682023503378033
1772790046192651800,3.53765185546875,1.3822750266432762,2.2958878547899424,-1.0818144087314605
1772790046202718700,3.54771875,1.2295026319891214,2.5104034427821635,-0.9501422313816845
1772790046212784600,3.55778466796875,1.1232938355892896,2.661883751799166,-0.8125172100421041
1772790046222851800,3.567851806640625,1.0237462506443262,2.7012179833218455,-0.7555677537865936
1772790046232917800,3.577917724609375,0.8096195158392191,2.6237849072903394,-0.71225270899944
1772790046242984700,3.587984619140625,0.2842769603520632,2.549502111983299,-0.62175805295147
1772790046253051000,3.59805078125,-0.30698154411315914,2.3934040800377727,-0.5849119484500959
1772790046263117800,3.608117919921875,-0.6459902116060257,2.235179849718511,-0.4028706065505743
1772790046273183500,3.61818359375,-1.1027993290930986,2.055951555945724,-0.41475861274302006
1772790046283250700,3.628250732421875,-1.3635153811156748,2.0530372759342193,-0.38624271235466
1772790046293316600,3.638316650390625,-1.584395097312331,2.1908448872990904,-0.3092751349430531
1772790046303383600,3.648383544921875,-1.700357810485363,2.3564577665649353,-0.23639950302019713
1772790046313449700,3.65844970703125,-1.673322504043579,2.4517004939228295,-0.20399653206542134
1772790046323516700,3.6685166015625,-1.5935621541082858,2.4104494689933955,-0.2010652278538793
1772790046333582600,3.67858251953125,-1.478095700019598,2.2959734872467816,-0.1726128211557865
1772790046343649500,3.6886494140625,-1.2127028883576392,2.157383639463037,-0.06591719108708202
1772790046353715700,3.6987158203125,-0.8972516220629214,1.9839394820496439,0.014342267476767302
1772790046363782700,3.70878271484375,-0.6009867022752762,1.7897294538527726,0.02921338113322854
1772790046373848600,3.7188486328125,-0.3148702515363693,1.5580749534025788,-0.027798765094950793
1772790046383915800,3.728915771484375,-0.11516133366227149,1.3576445893861353,-0.005968114624172449
1772790046393981700,3.738981689453125,-0.01880406919121742,1.1819086677737534,0.04526091815792024
1772790046404047600,3.749047607421875,-0.04790449146926403,0.9222364257156849,0.0995053532384336
1772790046414114800,3.75911474609375,-0.05433306321203708,0.6378397845067083,0.11310761600285768
1772790046424180700,3.7691806640625,-0.02681201907992363,0.43020445754751563,0.11051076791007071
1772790046434247700,3.77924755859375,-0.015202829828858375,0.32291356499940155,0.12259268923941999
1772790046444313900,3.78931396484375,-0.004765022444725036,0.3472461883537471,0.16145714782588183
1772790046454380800,3.799380859375,0.05977613104879856,0.43373416604362425,0.19559271472692488
1772790046464446700,3.80944677734375,0.14695114115476607,0.45837008319348094,0.1793306947013363
1772790046474513700,3.819513671875,0.16545710418224333,0.4071609241556376,0.14208309672698377
1772790046484579800,3.829579833984375,0.12606968116760253,0.3309310864340514,0.09661576927676796
1772790046494646800,3.839646728515625,0.040081835019588466,0.2866244733262807,0.11961794774495065
1772790046504712700,3.849712646484375,-0.061951721522212025,0.2661308436129242,0.1427663662834093
1772790046514779600,3.859779541015625,-0.11580430774092673,0.31882278855442997,0.17109825187437236
1772790046524845600,3.869845458984375,-0.15915128203630446,0.3876131239250302,0.21504563974831253
1772790046534912500,3.87991259765625,-0.1888783117800951,0.41351314272657036,0.21806162656862288
1772790046544978700,3.889978759765625,-0.20401625967919826,0.41783429386131465,0.19539003176167608
1772790046555045600,3.900045654296875,-0.21826514978408812,0.43809791421107946,0.1954706227172166
1772790046565111600,3.910111572265625,-0.25038462762236596,0.4784225450105965,0.20554131382200866
1772790046575178500,3.920178466796875,-0.22059563855826853,0.4974343386683613,0.1920309671247378
1772790046585244700,3.93024462890625,-0.22895780871212482,0.5085329480487853,0.12647026132512837
1772790046595311600,3.9403115234375,-0.2743774976283312,0.5403822306435555,0.1245134281689301
1772790046605377800,3.950377685546875,-0.3180547267913818,0.5012519972603768,0.105190303539671
1772790046615444700,3.96044482421875,-0.3550385957956314,0.4127210425008088,0.06458422545026987
1772790046625510700,3.9705107421875,-0.33806817177236076,0.36017025959566235,0.06331632440630346
1772790046635576800,3.980576904296875,-0.30610768388807774,0.29620624840296805,0.051763541517592965
1772790046645642800,3.990642822265625,-0.28926234754920005,0.19836020667888224,0.031424335180968044
1772790046655709700,4.000709716796875,-0.228797065192461,0.14783179644681513,-0.015901808411069213
1772790046665775900,4.01077587890625,-0.17846213170588016,0.09761084472872317,-0.08859492337387055
1772790046675842800,4.0208427734375,-0.15401567271351813,0.07325352532453834,-0.1272656129539013
1772790046685908700,4.03090869140625,-0.08399930267930031,-0.008866539479419589,-0.1900603611715138
1772790046695975700,4.0409755859375,-0.003149403941631317,-0.280743598594144,-0.15449962030556053
1772790046706041600,4.05104150390625,0.007614566656947135,-0.4389324653390795,-0.3890659530818462
1772790046716108800,4.06110888671875,0.050798459345102305,-0.30166918998397885,-0.4212291604639962
1772790046726174700,4.0711748046875,0.1504787307590246,-0.21364019339717924,-0.2901015748523176
1772790046736241700,4.08124169921875,0.03204641260206699,-0.16681538692340253,-0.2574749512095004
1772790046746307600,4.0913076171875,-0.3403209191352129,-0.19252770113311707,-0.15321363561563192
1772790046756374500,4.10137451171875,-0.6531342381417751,-0.3497439234536141,-0.18757994253262877
1772790046766440700,4.111440673828125,-0.6551368101358414,-0.3025530601464212,-0.04721307513900101
1772790046776507600,4.121507568359375,-0.7638309936106205,-0.315154694500938,-0.21731486332193015
1772790046786573600,4.131573486328125,-0.6302852774739265,-0.23587898627743123,-0.13772241729944942
1772790046796640500,4.141640625,-0.5366355183959007,-0.09154080410003662,-0.08918941866829991
1772790046806706700,4.151706787109375,-0.5234224010795354,0.009359510628134012,-0.08406659576185047
1772790046816773600,4.161773681640625,-0.3639829497516155,0.11696816388852893,0.04539681949727237
1772790046826836200,4.171836181640625,-0.11800035648047923,0.21992489968985318,0.0679673285499215
1772790046836903200,4.181903076171875,0.18407412636876105,0.2560518596038222,-0.04618848133161664
1772790046846969000,4.191968994140625,0.463327121078968,0.23119265509210526,-0.2067372090756893
1772790046857035300,4.20203515625,0.6821405523955821,0.1888608491886407,-0.36913551020920277
1772790046867102200,4.212102294921875,0.6962807214289903,0.18254161957185713,-0.5120534503251314
1772790046877168000,4.222168212890625,0.6491951451271772,0.01401383923999965,-0.6202662800237536
1772790046887235000,4.232235107421875,0.6239303554892539,-0.29098785616755485,-0.5316907189374789
1772790046897301200,4.24230126953125,0.5248118096113205,-0.4825357524830848,-0.6337340296883136
1772790046907368200,4.2523681640625,0.426164972898364,-0.4283889325581491,-0.7576615842606872
1772790046917434000,4.26243408203125,0.3432441131055355,-0.3254875071406364,-0.7525614846426993
1772790046927501300,4.272501220703125,0.28319091868102547,-0.2190617069892585,-0.7630532141711562
1772790046937567200,4.282567138671875,0.17140987510681152,-0.21462577036842703,-0.7930080613214522
1772790046947634200,4.29263427734375,-0.04358136757314205,-0.1786999590497464,-0.6621454467888921
1772790046957700400,4.302700439453125,-0.1968389153957367,-0.04791786240749061,-0.4634257226152345
1772790046967767300,4.312767333984375,-0.29022388605773447,0.023313582504913208,-0.38015513606928286
1772790046977833200,4.322833251953125,-0.3393254783570766,0.03936199631243944,-0.3335895285209641
1772790046987900200,4.332900146484375,-0.3849170167088508,0.12048808164298534,-0.29733854036852714
1772790046997966300,4.34296630859375,-0.4110287785649299,0.2771914590705186,-0.21762221223805098
1772790047008033300,4.353033203125,-0.4020522759050131,0.4094176170412451,-0.1441676935818512
1772790047018099000,4.363098876953125,-0.3287795344233513,0.5342631632413715,-0.08725892552975564
1772790047028166400,4.37316650390625,-0.23871932426989076,0.6559419890388846,-0.04122077592164278
1772790047038232000,4.383232177734375,-0.15583528935611246,0.6750272132590412,0.0004617266270797699
1772790047048299000,4.393299072265625,-0.12637772420346735,0.6155505035482347,-0.12333399085970595
1772790047058365200,4.403365234375,-0.059202130553126335,0.5636371417637914,-0.17176595853548496
1772790047068432100,4.41343212890625,0.013713468053936957,0.47120618389099833,-0.12601975021180695
1772790047078498000,4.423498046875,-0.04769873976409435,0.4232067806798964,-0.08741155880820006
1772790047088565000,4.43356494140625,-0.10666296990811824,0.39356954811140893,0.0029713074283674356
1772790047098631200,4.443631103515625,-0.208968329128623,0.3205209707744419,0.06331122810607775
1772790047108698000,4.453697998046875,-0.28516718719005585,0.23781156177520751,0.10907828742153942
1772790047118764300,4.463764404296875,-0.39265491748452186,0.15149828306511043,0.18594592985631897
1772790047128831200,4.473831298828125,-0.5393892010182142,0.14355404606238006,0.3095719989977777
1772790047138897200,4.483897216796875,-0.6772481041789055,0.13394867091439663,0.4092984841736033
1772790047148964000,4.493964111328125,-0.8044377292871475,0.1210710691627115,0.4938775229696184
1772790047159030300,4.5040302734375,-0.8719862479031085,0.11839023258090019,0.6146164375685155
1772790047169097200,4.51409716796875,-0.7601052510857582,0.0651190995119512,0.5919429065328091
1772790047179163100,4.5241630859375,-0.5844552541911602,0.005114785730466247,0.5059929812423885
1772790047189230000,4.53422998046875,-0.44714755517244337,-0.016612477431073785,0.4279684786563739
1772790047199296300,4.544296142578125,-0.3569698561191559,-0.010504881270974873,0.42149829626157875
1772790047209363200,4.55436328125,-0.260198165628314,0.07340053257979452,0.4239287017462775
1772790047219429400,4.564429443359375,-0.240535433781147,0.17686748292557894,0.43392658334318546
1772790047229496300,4.574496337890625,-0.22271102327704428,0.13551109792552887,0.4569546634376049
1772790047239562200,4.584562255859375,0.006796820533275604,-0.04037745696529746,0.2824891636198386
1772790047249629200,4.594629150390625,0.33864451035559173,-0.2569727007757872,0.06388641591183841
1772790047259695400,4.6046953125,0.7091220828235149,-0.4128588435363024,-0.06640212505981326
1772790047269762300,4.61476220703125,1.0124065259844064,-0.5789178591344505,-0.1839996728930622
1772790047279828000,4.624827880859375,1.1688093860954045,-0.6737228526622057,-0.2536671564243734
1772790047289894100,4.63489404296875,1.1899532964110373,-0.6817248112015426,-0.22766659985780716
1772790047299961000,4.644961181640625,1.1735744085401296,-0.6386999084673821,-0.24892471113763748
1772790047310027000,4.655027099609375,0.9976789124518632,-0.49315256969593463,-0.13207228258326648
1772790047320094200,4.66509423828125,0.2524678636372089,0.12570917729213832,0.22039039830975232
1772790047330160000,4.67516015625,-0.04468202229142189,-0.16105952681042254,0.21710940387770533
1772790047340227000,4.68522705078125,0.21636954529583452,-0.5070005508497357,0.07448292098902165
1772790047350293200,4.695293212890625,0.14934534281492232,-0.6203344498891383,-0.7310185650721192
1772790047360360200,4.705360107421875,0.11518354549407958,-0.7554387936446816,-0.7023468165349215
1772790047370426000,4.715426025390625,0.03558043194711208,-0.7542025298479944,-0.30705439015366137
1772790047380493000,4.7254931640625,-0.06879705737233162,-0.5867918073799461,-0.20379998658001422
1772790047390559200,4.735559326171875,-0.037333997616171836,-0.46256979990564284,-0.04184921001829207
1772790047400626200,4.745626220703125,0.015653496205806732,-0.5556475312493742,-0.03765475400313735
1772790047410692000,4.755692138671875,0.022317045748233795,-0.6542608310189097,-0.10968429049067198
1772790047420759300,4.76575927734375,0.0393920991897583,-0.6222905523929745,-0.06606792466938495
1772790047430825200,4.7758251953125,0.13152677752971648,-0.5405544454053044,0.02516819739565253
1772790047440892200,4.78589208984375,0.03502162902057171,-0.399597503164038,0.10210472208186984
1772790047450958300,4.795958251953125,0.06720306617915629,-0.2938263675291091,0.21904519424587487
1772790047461025300,4.806025390625,-0.021976269486546515,-0.30134127320386467,0.2987606090608984
1772790047471091200,4.81609130859375,-0.17090952436923978,-0.3339297567933798,0.2471262468809262
1772790047481158100,4.826158203125,-0.10834697747230529,-0.3382681513238698,0.29916016630511727
1772790047491224300,4.836224365234375,-0.049744566377997394,-0.39131417040005323,0.31367179899942127
1772790047501291300,4.846291259765625,0.023220716589689255,-0.42218598626479503,0.3083290131993592
1772790047511357200,4.856357177734375,0.14384791444242,-0.4030849799536168,0.34364838305748996
1772790047521424400,4.86642431640625,0.24084990655779837,-0.4045828172959387,0.37322646931726483
1772790047531490000,4.876489990234375,0.32702070805728434,-0.4505604323558509,0.34095249503701924
1772790047541557000,4.886556884765625,0.43544893407225604,-0.4911777624916285,0.29721429293435064
1772790047551623200,4.896623046875,0.5222416668623685,-0.5025783504933119,0.2857671989098191
1772790047561690000,4.906690185546875,0.6022381636410952,-0.4613105936247855,0.28082689296342433
1772790047571756000,4.916756103515625,0.673742726406455,-0.4041135192837566,0.2820603072158992
1772790047581823200,4.9268232421875,0.8063228123813867,-0.36059520700946446,0.25407402019221337
1772790047591889200,4.93688916015625,0.8221253616690635,-0.3312489932768047,0.09820804343689232
1772790047601956000,4.9469560546875,0.7848463091105222,-0.2664632173724472,-0.007046594043262302
1772790047612022300,4.957022216796875,0.7776946837902069,-0.15234525528326628,-0.02567950791865587
1772790047622089200,4.967089111328125,0.7969552645772695,0.018089637311547994,-0.10643570049088448
1772790047632155100,4.977155029296875,0.8092927681028842,0.18692776223421095,-0.20556597333922982
1772790047642221300,4.98722119140625,0.8883633822083473,0.4037077880270779,-0.2640173220576718
1772790047652288300,4.997288330078125,0.9071101682543754,0.6020264205865562,-0.35556430017016827
1772790047662354200,5.007354248046875,0.9526906006902456,0.7861397099219262,-0.41603195714708413
1772790047672421000,5.017421142578125,0.8796627738803625,0.95982527487576,-0.5123123204570263
1772790047682487300,5.0274873046875,0.5463140318453311,1.147154749778658,-0.6101230716720223
1772790047692554200,5.03755419921875,0.05291793571710586,1.3308870769724248,-0.6116051269233227
1772790047702620200,5.0476201171875,-0.314059519675374,1.360012925952673,-0.7309376087903976
1772790047712687400,5.057687255859375,-0.6354910294234752,1.1554084911219775,-0.9086421270620078
1772790047722753300,5.067753173828125,-0.8772890304863452,0.9478656647518277,-1.0709033578123897
1772790047732820200,5.0778203125,-0.8469009064853191,0.7687460920505225,-1.0844994100317358
1772790047742886100,5.08788623046875,-0.509038486418128,0.404519835062325,-0.9004311288818716
1772790047752953300,5.097953369140625,-0.5044295313179493,0.13933847419396042,-1.6478326734781263
1772790047763019000,5.10801904296875,-0.6917196971237659,-0.32318712124377486,-1.524750483688712
1772790047773086000,5.1180859375,-1.0085352375090122,-0.5149633464224637,-0.9850538241565227
1772790047783152000,5.128152099609375,-1.2695949884027242,-0.2216147524729371,-0.951366512479633
1772790047793219000,5.138218994140625,-1.5023188716500997,0.0031936084095388648,-0.7309791098445654
1772790047803285200,5.14828515625,-1.6790069794207811,0.22540493853613733,-0.30205066358223553
1772790047813352200,5.158352294921875,-1.8942957437425851,0.4102932308319956,0.08758351784162223
1772790047823417600,5.16841748046875,-2.167429378789663,0.36942999964375045,0.29142113301828504
1772790047833484500,5.178484619140625,-2.3640245485574005,0.22738971914518624,0.3771799927160144
1772790047843550700,5.18855078125,-2.2902637312978507,0.08598148947246372,0.45556437812298534
1772790047853617700,5.19861767578125,-1.9097446572870016,-0.04912709206677973,0.47974495272077616
1772790047863683600,5.20868359375,-1.4254741169005631,-0.28562972666788844,0.4150182135272771
1772790047873750800,5.218750732421875,-1.0383657276272773,-0.6240910259436816,0.4194840338297188
1772790047883816700,5.228816650390625,-0.8231792546361685,-0.9628923342961817,0.48392289599254723
1772790047893883600,5.238883544921875,-0.6345633931845426,-1.2530275922223926,0.545449962361902
1772790047903949800,5.24894970703125,-0.4657797749280929,-1.5272037220597265,0.5531834792234003
1772790047914016800,5.259016845703125,-0.4653045586317777,-1.7301659426413476,0.5570322636060416
1772790047924082700,5.269082763671875,-0.39038755707442757,-1.7879376019999385,0.53010933149755
1772790047934149600,5.279149658203125,-0.20978899786174296,-1.7723849358201025,0.4123569584287703
1772790047944215800,5.2892158203125,-0.043804070413112635,-1.7057728212714194,0.21102014709189532
1772790047954282800,5.29928271484375,0.05224456650018692,-1.5322867244124412,-0.06451558066084981
1772790047964348700,5.3093486328125,0.007581248909235,-1.3170114040941,-0.32420418933182954
1772790047974416000,5.319415771484375,-0.14241700485646724,-1.0956562524054199,-0.47135348340719935
1772790047984481500,5.3294814453125,-0.34036592732071874,-0.7109409688137471,-0.5172725001476705
1772790047994548700,5.339548828125,-0.5714531492769718,-0.28449491395168003,-0.47008843190744515
1772790048004614700,5.34961474609375,-0.9908411753863096,0.08823021824732423,-0.34312691646665333
1772790048014680600,5.3596806640625,-1.418736333078146,0.5193048827581107,-0.1365035430289805
1772790048024747500,5.36974755859375,-1.7238818939357996,0.8156421371296048,0.010364596017450094
1772790048034813700,5.379813720703125,-1.9642963316857813,0.8515721131667494,0.05647971985191107
1772790048044880600,5.389880615234375,-2.16648420689404,0.7994298379972576,0.013364070094376802
1772790048054946600,5.399946533203125,-2.3757880515873433,0.7158079903282225,-0.01417092949785292
1772790048065013800,5.410013671875,-2.55500187844336,0.6346319283761084,0.09872647782042622
1772790048075079700,5.42007958984375,-2.6992460987269875,0.6094574473701417,0.32535262871459125
1772790048085146600,5.430146728515625,-2.767769599854946,0.603453530780226,0.46781537240892646
1772790048095212800,5.440212890625,-2.6579396903485057,0.5641422417417168,0.6144872582308948
1772790048105279700,5.45027978515625,-2.3809920499712227,0.5807052540078759,0.751543832032755
1772790048115345700,5.460345703125,-1.9769179128497838,0.6474072387970984,0.9322990431118756
1772790048125412600,5.47041259765625,-1.4602233587205409,0.7012932888939977,1.0938890966024248
1772790048135478800,5.480478759765625,-0.9298615137666464,0.6820254015833139,1.1174877796590328
1772790048145545700,5.490545654296875,-0.355095294418931,0.6102554658800363,1.0557187212273478
1772790048155611600,5.500611572265625,0.2055003607571125,0.6019090778172016,1.137881529194489
1772790048165678800,5.510678955078125,0.6609247458875179,0.6838413649640978,1.3192583062380552
1772790048175744800,5.520744873046875,1.0930886669397353,0.8095499577343463,1.5611524611517786
1772790048185811700,5.530811767578125,1.502118965163827,0.8680255275785923,1.8279606925696132
1772790048195878000,5.5408779296875,1.824977292844653,0.827757668467611,1.964119806075096
1772790048205944800,5.55094482421875,2.1199217776834964,0.7396177588522433,1.9946188431046903
1772790048216010500,5.561010498046875,2.412885317838192,0.5995223288111389,1.9653949405774473
1772790048226077700,5.57107763671875,2.6987363956391808,0.46094694794416424,1.8887293417870998
1772790048236143600,5.5811435546875,2.9444167910933494,0.3143517806202173,1.7910392212770878
1772790048246210600,5.59121044921875,3.0354969919443127,0.17318682165145874,1.748753738733381
1772790048256276500,5.6012763671875,2.979145574647188,-0.017089081966876984,1.7306171935401855
1772790048266343700,5.61134375,2.8153876755982634,-0.27619185357391834,1.671153343310952
1772790048276409600,5.62140966796875,2.6077567325532436,-0.6212947462886571,1.556927536933124
1772790048286476500,5.6314765625,2.302333523797989,-0.8523027655288576,1.4749058179371057
1772790048296542700,5.641542724609375,2.10960204372108,-0.8891270600572228,1.5900016851477323
1772790048306609700,5.651609619140625,2.051809779965877,-0.8105313699871302,1.7714736661940813
1772790048316675600,5.661675537109375,1.9437971490144728,-0.740625474590063,1.9163798575177788
1772790048326742500,5.671742431640625,1.8051912268787622,-0.7396507843390107,2.053058610983193
1772790048336808700,5.68180859375,1.5884902576714752,-0.846831932902336,2.050464941228181
1772790048346875600,5.691875732421875,1.3819073623746632,-1.0481734204143285,1.9566423098012804
1772790048356941800,5.70194189453125,1.2933113795548676,-1.277820088173449,1.875921590401232
1772790048367007700,5.7120078125,1.186504032739997,-1.5481073938786982,1.6918994864806531
1772790048377074700,5.72207470703125,1.053327149915695,-1.7971517128080128,1.5595435646504163
1772790048387140900,5.732140869140625,0.8497311614751816,-1.8639143417432904,1.5619783905819058
1772790048397207800,5.742207763671875,0.6687935795664787,-1.8135295777656137,1.5958542105682194
1772790048407273700,5.752273681640625,0.48990708496868607,-1.7801888875693082,1.5551149345532058
1772790048417340700,5.762340576171875,0.3227133662521839,-1.7687765360645948,1.4716656669721007
1772790048427406800,5.77240673828125,0.09552198269069194,-1.742593462537974,1.3423054198265074
1772790048437473800,5.782473876953125,-0.19424889890253544,-1.7194167312204838,1.315608551558852
1772790048447539500,5.79253955078125,-0.5025234054356813,-1.7464777566254137,1.304006376570463
1772790048457607000,5.80260693359375,-0.7744558479994536,-1.8487937833704053,1.1731810983736066
1772790048467672600,5.812672607421875,-1.1153279712766409,-2.009960789143294,0.9750760354995727
1772790048477739500,5.822739501953125,-1.4985370150238275,-2.0937356354169547,0.810377786860615
1772790048487805700,5.8328056640625,-1.894586835643649,-1.9627035095363854,0.675284622086212
1772790048497872600,5.84287255859375,-2.3461364251673222,-1.7692822936296462,0.5543192783202976
1772790048507938600,5.8529384765625,-2.7437761453270912,-1.546015097774565,0.48665904295817014
1772790048518005500,5.863005615234375,-3.010013591119647,-1.2017927872866392,0.5257473003631458
1772790048528071700,5.87307177734375,-3.2900328940272328,-0.8524842595756054,0.6373322003107518
1772790048538138600,5.883138671875,-3.5101252592384813,-0.4912678519278764,0.9181273098964243
1772790048548204500,5.89320458984375,-3.6038024908453226,-0.04245543228313327,1.373953480760753
1772790048558271700,5.903271728515625,-3.5872780570238825,0.4313546504959464,1.7461114075310527
1772790048568337700,5.913337646484375,-3.4025194555222984,0.8437032794877887,1.916460667669028
1772790048578404600,5.923404541015625,-3.1354110721141097,0.9153593795530498,1.730070081051439
1772790048588470800,5.933470703125,-2.8177023822814227,0.8477480248339474,1.3987920078106224
1772790048598537700,5.943537841796875,-2.540725515809655,0.8716028015434741,1.0870476332098244
1772790048608603600,5.953603759765625,-2.2185504942178724,1.176029692737758,1.0221285132493823
1772790048618670600,5.963670654296875,-1.6882745739817617,1.6978370598360895,1.0901393886800854
1772790048628736800,5.97373681640625,-0.934918212634325,2.1734511232972142,1.0155904897827654
1772790048638803700,5.9838037109375,-0.049587329989671705,2.4878961351588367,0.7399898070350289
1772790048648869600,5.99386962890625,0.7843973962992429,2.6110914299339054,0.31803448772095144
1772790048658936800,6.003936767578125,1.6108178248137235,2.6365862289354203,-0.034804835331579666
1772790048669002800,6.014002685546875,2.1898130600333214,2.526588853907585,-0.3729961311601102
1772790048679069700,6.024069580078125,2.6883693154037,2.349346619385481,-0.6193963653214275
1772790048689135900,6.034135986328125,2.813704837077856,2.085783653499186,-0.7511736104808747
1772790048699201500,6.044201416015625,2.4151608615547415,1.6506190893262624,-0.504554217143543
1772790048709268500,6.0542685546875,1.619134986782074,1.2920926514148712,-0.8860590507887304
1772790048719334700,6.064334716796875,1.6222954966396093,1.5342264603033662,-0.8803202148757875
1772790048729401600,6.074401611328125,1.4209505019962787,1.3631804500728846,0.10995265910327434
1772790048739467500,6.084467529296875,0.7871487408339977,1.2481211154803633,0.18485658198334276
1772790048749534700,6.09453466796875,0.281367794907093,1.3485682796135543,0.08596212718486786
1772790048759600600,6.1046005859375,0.015939327409863473,1.3805077247098088,0.4132834986891597
1772790048769667600,6.11466748046875,-0.3691851945698261,1.3353691908225416,0.5673481251109391
1772790048779733800,6.124733642578125,-1.0699100359261036,1.3909981390640138,0.6570848754636943
1772790048789800700,6.13480078125,-1.4854478163480758,1.5482222524300218,0.8724208399280905
1772790048799866600,6.14486669921875,-1.533896497696638,1.5692705934166908,1.052219773195684
1772790048809933600,6.15493359375,-1.659042049756646,1.4171803358078001,0.878219150943309
1772790048819999700,6.164999755859375,-1.6046294915676116,1.2669170013651252,0.6169771753504872
1772790048830070500,6.175070556640625,-1.3989169493645428,1.2284633520692587,0.6134677789900451
1772790048840136400,6.185136474609375,-1.0969096865326164,1.280470018160343,0.6042924658223986
1772790048850203400,6.195203369140625,-0.7088391742289066,1.3269438923045993,0.5445545478921383
1772790048860269600,6.20526953125,-0.2297989357113838,1.2910568786263465,0.4734082239799201
1772790048870336500,6.21533642578125,0.2856605236649513,1.2231915491461753,0.34839528532363473
1772790048880402400,6.22540234375,0.751852971047163,1.0871806119397283,0.1799085676545277
1772790048890469600,6.2354697265625,1.0864560970574617,0.8270356378033756,0.012264071821578544
1772790048900535300,6.245535400390625,1.2218968331605196,0.5203540995500981,-0.07404742478174157
1772790048910602200,6.255602294921875,1.1979711831718682,0.2026961169913411,-0.10923097549891099
1772790048920668400,6.26566845703125,1.0750701951682566,-0.06196122000291943,-0.10646490831905975
1772790048930735400,6.2757353515625,0.9335293886244297,-0.2724314781270921,-0.07617474653348326
1772790048940801300,6.28580126953125,0.8207529042720794,-0.4208683277949691,-0.031342666513193396
1772790048950868500,6.295868408203125,0.6998486430436373,-0.530978515547514,0.032563321748794984
1772790048960934400,6.305934326171875,0.5395388386219739,-0.5967702536240219,0.06464977410030551
1772790048971001300,6.31600146484375,0.3510813826024532,-0.5712893370173872,0.1673667371958494
1772790048981067500,6.326067626953125,0.181362529322505,-0.513842671829462,0.2430482568522915
1772790048991134500,6.336134521484375,0.012627426382899284,-0.45501828854754567,0.27075298698823896
1772790049001200400,6.346200439453125,-0.09353110113441944,-0.3696342535115778,0.2944690310805104
1772790049011266600,6.3562666015625,-0.14499357734620572,-0.30079262634515763,0.3288377674166113
1772790049021333500,6.36633349609375,-0.12307634457051753,-0.26408085228055717,0.3225526227325201
1772790049031399400,6.3763994140625,-0.06673018797039985,-0.28605536820143457,0.3031757586220279
1772790049041466400,6.38646630859375,0.04597849184274673,-0.36474691986143587,0.2670853130598552
1772790049051532500,6.396532470703125,0.12729659261405468,-0.4590814463332295,0.20489391929656267
1772790049061599500,6.406599609375,0.18711831637024878,-0.5810090592600405,0.17848459926601498
1772790049071665400,6.41666552734375,0.23608839124441144,-0.6983643958352506,0.21512602977445347
1772790049081732600,6.426732666015625,0.23658172771930694,-0.8017898451268672,0.19923211240889505
1772790049091798500,6.436798583984375,0.19229951840043066,-0.8994928251184523,0.18691011697966603
1772790049101865500,6.446865478515625,0.16684300558269022,-0.9310273426756263,0.22147950872071087
1772790049111931400,6.456931396484375,0.1531283684849739,-0.9310083457142114,0.248419245833531
1772790049121998600,6.46699853515625,0.14230769926309586,-0.9236258342474698,0.2550606748756952
1772790049132064300,6.477064208984375,0.11861527350842951,-0.9121130911082029,0.2660139392349869
1772790049142131500,6.48713134765625,0.06317629488110542,-0.9488280800431966,0.2279026005707681
1772790049152197400,6.497197265625,-0.08128770563304424,-1.0078367338508367,0.23002755683548748
1772790049162264300,6.507264404296875,-0.23104747446775434,-1.0558578374370933,0.24156044771363958
1772790049172330500,6.51733056640625,-0.36752339883744717,-1.0337459588721394,0.2663390064708888
1772790049182397400,6.5273974609375,-0.3768839323788881,-1.0075430116012691,0.2864580307181924
1772790049192463400,6.53746337890625,-0.29290391892194745,-0.9486242280341685,0.2821836596009321
1772790049202530300,6.5475302734375,-0.23319091623723506,-0.918259923300147,0.2338815836488269
1772790049212596500,6.557596435546875,-0.20630817000865936,-0.8924148495562374,0.21877839653585104
1772790049222663400,6.567663330078125,-0.19653554853498933,-0.8491574532404541,0.1904636447427794
1772790049232729300,6.577729248046875,-0.23614275178015232,-0.7994787917055189,0.1896300617291592
1772790049242796500,6.587796630859375,-0.357452671200037,-0.7237377604141831,0.15776200136868282
1772790049252862500,6.597862548828125,-0.5313806666076183,-0.6659589406624435,0.09265687558315694
1772790049262929400,6.607929443359375,-0.6830085674017667,-0.6336741892598569,0.04113459547553211
1772790049272995600,6.61799560546875,-0.882283770033717,-0.6528286793239414,-0.04585669209398329
1772790049283061500,6.6280615234375,-1.033172250637412,-0.6304071502879262,-0.10419321879372
1772790049293128400,6.63812841796875,-1.1287041702002287,-0.5742834042668342,-0.14978588965665549
1772790049303194600,6.648194580078125,-1.2376689873099327,-0.5295053742550313,-0.17896847379282116
1772790049313261600,6.658261474609375,-1.3087228836983442,-0.4159294100880623,-0.06815229319538921
1772790049323327500,6.668327392578125,-1.4778151295125483,-0.26509412097632884,0.0882996302217245
1772790049333394400,6.67839453125,-1.7409738985121248,-0.09395838663578032,0.2555279087949544
1772790049343460400,6.68846044921875,-1.956568367782235,0.0604082914724946,0.39226014601327475
1772790049353527600,6.698527587890625,-2.04654557582736,0.1979446846805513,0.46980764220468696
1772790049363593200,6.70859326171875,-2.052379104286432,0.3206993960812688,0.48831309377551074
1772790049373660400,6.718660400390625,-2.021357358556986,0.4000799529187381,0.5568828451979905
1772790049383726300,6.728726318359375,-1.9342448922932147,0.46648441606611013,0.6796735777601599
1772790049393793300,6.738793212890625,-1.902926793965697,0.410834717297554,0.7296105979703367
1772790049403859500,6.748859375,-1.7801625840842723,0.3163081753849983,0.7734775775518268
1772790049413926400,6.758926513671875,-1.4836375520557163,0.2481159520380199,0.7320847329989075
1772790049423992300,6.768992431640625,-1.1054781929135322,0.2689776844114065,0.6521754761122167
1772790049434059300,6.779059326171875,-0.7229138768106699,0.3309410963714123,0.6022282633015885
1772790049444125400,6.78912548828125,-0.3695294779628515,0.4373934922687709,0.5753087287265807
1772790049454192400,6.7991923828125,-0.035278234130144116,0.5489212917342782,0.5554780564339831
1772790049464258600,6.809258544921875,0.39479543664455413,0.6126683722406625,0.49608398350533095
1772790049474325500,6.819325439453125,0.8298784600138663,0.7030870404429733,0.4289584030091762
1772790049484391400,6.829391357421875,1.2312766559243202,0.8334295766241848,0.32639892289713024
1772790049494458400,6.839458251953125,1.4591466693997381,0.9507711769349872,0.29208924153819676
1772790049504524500,6.849524658203125,1.511956468567252,1.0420824100628494,0.2794990053605288
1772790049514591500,6.859591552734375,1.4188105673581362,1.0857229604773222,0.29736952002868056
1772790049524657400,6.869657470703125,1.1762748996704817,1.084759083881229,0.3853354613166302
1772790049534723600,6.8797236328125,0.9230658622771502,1.0705427808716892,0.4022139692727476
1772790049544790500,6.88979052734375,0.6755880620121956,1.051434760297835,0.4440746505331248
1772790049554857500,6.899857421875,0.38391163905858994,1.0617270217314363,0.5213922834914178
1772790049564923600,6.909923583984375,0.13964111040234564,1.053931837810576,0.6271515094928443
1772790049574989300,6.9199892578125,-0.06699497638642787,1.0119222495988012,0.7643259375207125
1772790049585056500,6.930056396484375,-0.2574778007537126,0.9054226535588502,0.8844871252968907
1772790049595122400,6.940122314453125,-0.3931248730838299,0.7643862894058228,0.9841314486145972
1772790049605189400,6.950189453125,-0.5712286928713322,0.6359601082399488,1.0746421790145337
1772790049615255300,6.96025537109375,-0.7894599403858185,0.5294245641037821,1.2208256237324326
1772790049625322200,6.970322265625,-1.0316706139028071,0.4822025019407272,1.4013351164221763
1772790049635388400,6.980388427734375,-1.25794663618505,0.46326457723677156,1.5811672213070094
1772790049645455400,6.990455322265625,-1.4129296926259993,0.4700087907999754,1.777382305715978
1772790049655521300,7.000521240234375,-1.4883224950015543,0.5520122434869408,1.929878221516311
1772790049665588500,7.01058837890625,-1.4756015451163054,0.6525687132135033,2.022967277971655
1772790049675654400,7.020654296875,-1.387726862308383,0.7189116554319858,2.0869059355273842
1772790049685721300,7.030721435546875,-1.2323024918407202,0.7982216312512755,2.1630086397379635
1772790049695787500,7.04078759765625,-0.9264923295944929,0.8666986628890037,2.1652118488706646
1772790049705854500,7.0508544921875,-0.5361982960224151,0.8173509868741035,2.106704568713903
1772790049715920400,7.06092041015625,-0.15121931999325752,0.6756026750594377,1.994314161069691
1772790049725987300,7.0709873046875,0.1914525461822748,0.49024113922864193,1.8838605667069552
1772790049736053500,7.081053466796875,0.4844821373105049,0.3438829955309629,1.7679034064918755
1772790049746120400,7.091120361328125,0.7826414925426244,0.26737200278043743,1.6665645542159675
1772790049756186400,7.101186279296875,1.058842113944888,0.2159460591867566,1.551148076748848
1772790049766253600,7.111253662109375,1.2552175034821034,0.19083032263070343,1.4189223571695386
1772790049776319500,7.121319580078125,1.324480424800515,0.2082116655424237,1.3257615506522358
1772790049786386400,7.131386474609375,1.2779846310853957,0.2659951614692807,1.3176003098979592
1772790049796452600,7.14145263671875,1.1284691924005745,0.34401538973897694,1.3106316399291158
1772790049806519600,7.15151953125,0.9446949257612228,0.4026221847474575,1.2702430770479143
1772790049816585500,7.16158544921875,0.7397025145262479,0.4834928340122103,1.2243380157675594
1772790049826647800,7.171647705078125,0.5246873064488172,0.6215051741689444,1.1667794146377592
1772790049836714800,7.18171484375,0.35226562395095823,0.7803644875213503,1.1599036105841398
1772790049846780700,7.19178076171875,0.2055699188619852,0.9525549916118383,1.178487241957709
1772790049856848000,7.201847900390625,0.05764905589222908,1.088046581119299,1.1724566565565764
1772790049866913800,7.211913818359375,-0.07407353647053241,1.1949629412665963,1.1463838384713978
1772790049876980700,7.221980712890625,-0.2095873378098011,1.2519839283883571,1.1218889372274279
1772790049887047000,7.232046875,-0.30947452997267244,1.3115177751138805,1.1038535143211483
1772790049897113900,7.24211376953125,-0.3690332188785076,1.3651099568307399,1.0528295025918633
1772790049907179800,7.2521796875,-0.36736733149290085,1.3812424687251448,1.0045043745577336
1772790049917246700,7.262246826171875,-0.3427975383818149,1.388418643964827,0.9187924227416515
1772790049927313000,7.27231298828125,-0.33126550602018834,1.3751225245401262,0.8352562805946916
1772790049937379800,7.2823798828125,-0.3213420778989792,1.3365405726894735,0.7527841144174336
1772790049947445800,7.29244580078125,-0.34882805071771145,1.2865955153033137,0.6727052000522613
1772790049957513000,7.302512939453125,-0.42192192850112914,1.223904373590648,0.552452826861292
1772790049967579000,7.312578857421875,-0.4938263042390346,1.2159048992693424,0.49630087765902275
1772790049977645800,7.322645751953125,-0.5229916084468365,1.2635144994452594,0.47559426278211175
1772790049987712000,7.3327119140625,-0.5156079279363155,1.2667469054952263,0.4274848233252764
1772790049997779000,7.342779052734375,-0.5434340924948453,1.2528694790512322,0.3913569135632366
1772790050007844900,7.352844970703125,-0.5424971039056777,1.2331079630047082,0.3333771644119173
1772790050017911800,7.362911865234375,-0.4767518353193998,1.1717743733808397,0.259999574316293
1772790050027977700,7.372977783203125,-0.41840544481277464,1.0647446159869431,0.13478468334712088
1772790050038045000,7.383044921875,-0.37483167602419853,0.9342217548027634,0.03873685015141964
1772790050048110800,7.39311083984375,-0.33893267964720725,0.7968024121031164,-0.0666143065057695
1772790050058177800,7.403177734375,-0.2637140647947788,0.710765904507786,-0.13272336690314113
1772790050068243700,7.41324365234375,-0.18616086951494215,0.6705214262723922,-0.17073818639032542
1772790050078310000,7.423309814453125,-0.1580512118399143,0.652810851406306,-0.1770804680891335
1772790050088376800,7.433376953125,-0.15255787512063979,0.6992875020295382,-0.13017908924780786
1772790050098442800,7.44344287109375,-0.20925182224512098,0.8120435281157493,-0.07703534541819244
1772790050108509700,7.453509765625,-0.23844576802551745,0.8789414738684892,-0.10123393059670925
1772790050118575900,7.463575927734375,-0.24669863258600233,0.875820857629925,-0.15912494201865046
1772790050128642800,7.473642822265625,-0.2649965058207512,0.8416476621322333,-0.2516333125092089
1772790050138708700,7.483708740234375,-0.3057756754547357,0.7844551178358494,-0.336417518488504
1772790050148776000,7.49377587890625,-0.42978667052686215,0.7207946926996112,-0.38385044692326337
1772790050158841900,7.503841796875,-0.5667652837216853,0.7200402210704981,-0.35352629153653975
1772790050168908800,7.51390869140625,-0.748264591166377,0.7639891067817807,-0.27677531601767985
1772790050178975000,7.52397509765625,-0.9348685282737016,0.771217304469645,-0.15496964897010473
1772790050189042000,7.5340419921875,-1.0509241804271936,0.8114746421866118,-0.0426116092255339
1772790050199107800,7.54410791015625,-1.1650012259840965,0.8290005081355571,0.07305413029491901
1772790050209174800,7.5541748046875,-1.2344751597046852,0.828797386778891,0.24655706869084387
1772790050219241000,7.564240966796875,-1.2695733610928057,0.8551615159608423,0.4359230909226462
1772790050229308000,7.574307861328125,-1.2178887665629385,0.9095553694494068,0.5717526436802
1772790050239373800,7.584373779296875,-1.0914625270426273,0.9937819050133228,0.7124328148066997
1772790050249441000,7.59444091796875,-0.9203267927020787,1.0647380401156843,0.8391031652811914
1772790050259506700,7.604506591796875,-0.7134270865410566,1.075551695074886,0.9089568190343678
1772790050269574000,7.614573974609375,-0.48072015442848204,1.060047836472839,0.9358335739135741
1772790050279639800,7.624639892578125,-0.21529811667203902,1.0167809416763485,0.9635457567036151
1772790050289706800,7.634706787109375,0.034515433064103124,0.9836036253482103,0.9478609885767102
1772790050299772700,7.644772705078125,0.26298282791078087,0.9969539591781794,0.9175715026445687
1772790050309838800,7.6548388671875,0.449132591509819,1.0140919948533176,0.8764584979463368
1772790050319905800,7.66490576171875,0.5321498974144458,1.0539736311256884,0.8243117657974361
1772790050329971700,7.6749716796875,0.5671411312967538,1.1104911987699568,0.8102053529031574
1772790050340038700,7.68503857421875,0.5960925004929304,1.1719535293400287,0.7778672638781369
1772790050350104800,7.695104736328125,0.5466898794203996,1.1661813756793737,0.6887677154503762
1772790050360171800,7.705171875,0.44299102001488205,1.1474421884179116,0.7043369674388319
1772790050370238000,7.715238037109375,0.27874387614428997,1.1841180143862962,0.7617271531991661
1772790050380305000,7.725304931640625,0.13382628664374352,1.1519679952792823,0.778595139761269
1772790050390370800,7.735370849609375,0.07252396894097328,1.049259023693949,0.8144903367459774
1772790050400437800,7.745437744140625,0.009941548299789427,0.9169906340166926,0.8239277349159121
1772790050410504000,7.75550390625,-0.052099020549654956,0.8268417226664722,0.8852388935122638
1772790050420571000,7.76557080078125,-0.133860773435235,0.7476087576061486,0.9639224810615181
1772790050430636800,7.77563671875,-0.25721008972823617,0.6310496859751641,1.0387238203499465
1772790050440703700,7.785703857421875,-0.4778016366332769,0.5276204372912645,1.1100683702480048
1772790050450770000,7.79577001953125,-0.8176356490343809,0.4799447861418128,1.1970899433579296
1772790050460836900,7.8058369140625,-1.175804359549284,0.45511268883273004,1.299638829010725
1772790050470903000,7.815903076171875,-1.4446172087877989,0.4701128356963396,1.4451450320541859
1772790050480970000,7.825969970703125,-1.6026245814859865,0.5418687428742647,1.5510460776790975
1772790050491035600,7.83603564453125,-1.601404099780321,0.5980706686981022,1.6198481034874914
1772790050501102800,7.846102783203125,-1.4719400999993084,0.624490765850991,1.695495465146005
1772790050511168800,7.856168701171875,-1.2760212220579386,0.6422767440408468,1.7551342335507272
1772790050521235700,7.866235595703125,-1.1330465833187102,0.6167544725105166,1.778853839573264
1772790050531301600,7.876301513671875,-1.0134615879952906,0.5171292922846973,1.784599982009828
1772790050541367800,7.886367919921875,-0.9157792124003171,0.4035390073314309,1.7701865489929913
1772790050551434800,7.896434814453125,-0.7881997111916541,0.3188734958283603,1.7523352504819631
1772790050561500700,7.906500732421875,-0.6083417412132024,0.23005451790764928,1.758642095541209
1772790050571567900,7.91656787109375,-0.40685353870689867,0.12472864182218908,1.7219401122182607
1772790050581633800,7.9266337890625,-0.166151516187191,0.0072542089119553566,1.6660418455161152
1772790050591700700,7.93670068359375,0.06359598159790039,-0.1080209603883326,1.593222254629433
1772790050601767000,7.946766845703125,0.3048959700107574,-0.1876402944177389,1.4946052285328506
1772790050611833900,7.956833740234375,0.5202040235549211,-0.19857918319180606,1.4060624372050166
1772790050621899800,7.966899658203125,0.7016758584707975,-0.17188246105462313,1.3299037650234997
1772790050631966700,7.976966796875,0.8459154025793075,-0.15229279444366692,1.2142026984613388
1772790050642033000,7.987032958984375,0.965791489803791,-0.11660919438302517,1.099793279144913
1772790050652099800,7.997099853515625,1.0550047277390957,-0.031745822220295664,0.9698751789208501
1772790050662165800,8.007165771484376,1.034908865171671,0.11463964787572621,0.9001767157293855
1772790050672233000,8.01723291015625,0.9440279862850904,0.23383374418541789,0.871984348206967
1772790050682299000,8.027298828125,0.7903601040959358,0.3247998171374202,0.8779823465127498
1772790050692365800,8.03736572265625,0.5836515365928411,0.44130102110132574,0.8913663634166121
1772790050702432000,8.047431884765626,0.37569618389904497,0.46841363056302066,0.8884795559339225
1772790050712499000,8.0574990234375,0.24222353299856184,0.40161797614097594,0.8265320721954107
1772790050722564600,8.067564697265626,0.16666005023121833,0.2806944256901741,0.7199908289708197
1772790050732630800,8.077630859375,0.16175006635785102,0.19333032275289297,0.6474846879474818
1772790050742697700,8.08769775390625,0.21379823350310323,0.11987784079015254,0.5860641141599043
1772790050752763600,8.097763671875,0.3004097645074129,0.05701470351144671,0.5695233137255534
1772790050762830800,8.107830810546876,0.34028760138750075,0.034754940908402206,0.581116684352979
1772790050772896800,8.117896728515625,0.4064993184417486,0.02777443437129259,0.6062187577098608
1772790050782963700,8.127963623046876,0.45677112356424326,-0.058225394475460046,0.5686603036880493
1772790050793030000,8.13802978515625,0.5044382991462946,-0.22481895534172652,0.4873912662228569
1772790050803096800,8.148096923828126,0.484504349142313,-0.35801615030169487,0.3908758885806426
1772790050813162800,8.158162841796875,0.3850444424808025,-0.46541327970325946,0.37254824126213787
1772790050823230000,8.16822998046875,0.28465573053658005,-0.5562985425040126,0.32659901204649355
1772790050833296000,8.1782958984375,0.18544249211251734,-0.6503774867795408,0.2826776353966445
1772790050843363000,8.188363037109376,0.06112111591696739,-0.7108570899225771,0.21433427660856394
1772790050853428700,8.1984287109375,-0.07165244680345058,-0.6987278223201632,0.15525058480333537
1772790050863496000,8.208495849609376,-0.16725626255869863,-0.6514891012832522,0.10277732411380856
1772790050873561900,8.218561767578125,-0.21536299860179423,-0.6086246498078107,0.010386405990459025
1772790050883628800,8.22862890625,-0.22405542362332342,-0.5608581055045128,-0.06697035340182483
1772790050893695000,8.238695068359375,-0.25755028146803377,-0.5603878576442599,-0.16834139091428368
1772790050903762000,8.248761962890624,-0.3310229294359684,-0.5886373621813953,-0.2913089778807014
1772790050913827800,8.258827880859375,-0.45078561941385265,-0.5962085280880332,-0.4001206137226894
1772790050923894800,8.268894775390624,-0.544255345749855,-0.6866098067641258,-0.5414738252725452
1772790050933961000,8.2789609375,-0.5718862799972295,-0.8053872850969434,-0.7022896064549684
1772790050944027000,8.28902685546875,-0.5498544809311628,-0.8628015093199908,-0.8274753443948925
1772790050954093800,8.29909375,-0.5615057557582855,-0.8790538482017815,-0.9020935091361403
1772790050964160000,8.309159912109376,-0.5535521664053201,-0.8994877105519175,-0.9641335665289312
1772790050974227000,8.31922705078125,-0.48156420403718947,-0.9036715721078217,-0.9674033089146018
1772790050984292900,8.32929296875,-0.37975276581346984,-0.8205103276878595,-0.9626773763712495
1772790050994360000,8.339360107421875,-0.38912615883648394,-0.657842708093673,-0.9899311478693038
1772790051004426000,8.349426025390626,-0.541778726503253,-0.4399370392717421,-0.9587960779584944
1772790051014493000,8.359492919921875,-0.8635258780717849,-0.22909268713817,-0.914668036288023
1772790051024559000,8.36955908203125,-1.3190858722805976,-0.04551745020225644,-0.8501250561635941
1772790051034626000,8.3796259765625,-1.7115882295519111,0.15467822827547786,-0.8085061477698385
1772790051044692000,8.38969189453125,-1.9546265860646963,0.31740269262343646,-0.81577219325006
1772790051054759000,8.399759033203125,-2.1303338661044835,0.44725700689628717,-0.7853557199373841
1772790051064824800,8.409824951171874,-2.205748880311847,0.6278982362069189,-0.7017424939662218
1772790051074892000,8.41989208984375,-2.1523925531774757,0.8381647884525358,-0.6181441733032464
1772790051084958000,8.4299580078125,-1.9862498048186301,0.9195483556754886,-0.5769562036726623
1772790051095025000,8.44002490234375,-1.7341741553694008,0.9536965628623962,-0.5564724377661943
1772790051105090800,8.4500908203125,-1.4701888724178076,0.9205525642819702,-0.5483859427485615
1772790051115157800,8.46015771484375,-1.1502514006197453,0.8625636089108883,-0.5298615672815591
1772790051125224000,8.470223876953124,-0.7913251497358084,0.8967243833184242,-0.4724458086885512
1772790051135289900,8.480289794921875,-0.49144262397289273,0.8931484245277941,-0.41184049680661405
1772790051145356800,8.490356689453124,-0.2307195576876402,0.8644625744000076,-0.35601248232908544
1772790051155423000,8.500423095703125,0.03270224616229534,0.8374060790397226,-0.31568595183342696
1772790051165490000,8.510489990234374,0.2699444836169481,0.7768843903206288,-0.3194574331961572
1772790051175555800,8.520555908203125,0.4262158263027668,0.6954115373790264,-0.3647437780562788
1772790051185623000,8.530623046875,0.5367962619155645,0.5617641144335269,-0.4180387303922325
1772790051195689000,8.54068896484375,0.5801408981233835,0.5180781174421311,-0.4409230546344071
1772790051205756000,8.550755859375,0.5831020860165357,0.5963420913398265,-0.444590089241974
1772790051215822000,8.560822021484375,0.5877496195614338,0.626106822745502,-0.46245552587620914
1772790051225889000,8.570888916015624,0.5307353544414043,0.627160423451662,-0.42698578776195645
1772790051235955000,8.580954833984375,0.4263052581518888,0.6574483019486069,-0.38495069978274404
1772790051246022000,8.59102197265625,0.21434768407940863,0.6513561225533485,-0.3335055400319397
1772790051256089000,8.601089111328125,-0.049430093601346016,0.6062684420704841,-0.343877479105629
1772790051266155000,8.611155029296874,-0.31063012974858284,0.6272814194828271,-0.3146419226732105
1772790051276221000,8.621220947265625,-0.4867465751111507,0.7128618538737297,-0.22470055312644688
1772790051286288100,8.6312880859375,-0.5644599293887614,0.8475827512696384,-0.1184146729024127
1772790051296353800,8.641353759765625,-0.5729395884424447,1.0033964133158326,-0.02142009690850973
1772790051306421000,8.6514208984375,-0.5029810860753059,1.091216735588014,0.023288228867948055
1772790051316487000,8.66148681640625,-0.41827451190948484,1.0590987190544605,-0.02275108978394419
1772790051326553900,8.671553955078124,-0.30092005211710926,0.9137266637846827,-0.1027788950163871
1772790051336619800,8.681619873046875,-0.14346739069223402,0.759044343855977,-0.11865597084499895
1772790051346686700,8.691686767578124,-0.024209727627038956,0.6637997168019414,-0.14869816748518497
1772790051356753000,8.7017529296875,0.0639876112639904,0.5892322593346238,-0.14438421327620743
1772790051366819800,8.71181982421875,0.1534557007431984,0.5370157498851418,-0.13933441907335073
1772790051376886000,8.721885986328125,0.24028584293425082,0.46236938196271654,-0.14861622482277453
1772790051386953000,8.731952880859374,0.3019505642086267,0.3826876502215862,-0.1580639982562512
1772790051397019000,8.742018798828125,0.36289573903679845,0.3298991861030459,-0.12623623337354511
1772790051407085800,8.7520859375,0.41270460282266136,0.2685524447366595,-0.08226506276521832
1772790051417152000,8.762152099609375,0.42377310932576656,0.12726736651957035,-0.142570113058947
1772790051427219000,8.772218994140625,0.4092880723774433,-0.06321370428204535,-0.20727478655111042
1772790051437284900,8.782284912109375,0.41700551488697524,-0.1720166088283062,-0.19415497354138642
1772790051447351000,8.79235107421875,0.4139280071377754,-0.19172844051420687,-0.17261249236222356
1772790051457418000,8.80241796875,0.42076106802821156,-0.25113427694588897,-0.13980667622759937
1772790051467484000,8.81248388671875,0.46742403500378127,-0.2446130584836006,-0.11903057631105184
1772790051477551000,8.822551025390625,0.4815840777814388,-0.20862696834504604,-0.136776478218846
1772790051487617000,8.832616943359374,0.41057460505664345,-0.22473551484197377,-0.18682627462111412
1772790051497684000,8.84268408203125,0.2756780588328838,-0.19527181220948694,-0.19159670389331876
1772790051507750100,8.852750244140625,0.21384733334183692,-0.06505845536589622,-0.14786968077179044
1772790051517817000,8.862817138671875,0.22361235603094098,0.04935907419174909,-0.13266608375795186
1772790051527883000,8.872883056640624,0.23953473230600356,0.08975976590216159,-0.1576460651051253
1772790051537950000,8.882949951171875,0.25408406666219235,0.07248129884302616,-0.1613718806952238
1772790051548015900,8.893015869140624,0.31084289571642876,0.008086568082869052,-0.17711831588149068
1772790051558082800,8.903082763671875,0.4153595012456178,-0.10236848758459091,-0.25302907771654426
1772790051568148700,8.913148681640624,0.5238911876350641,-0.23474369863718747,-0.33144279881585387
1772790051578216000,8.9232158203125,0.5794961704790592,-0.3663102236554026,-0.37925460703298447
1772790051588281900,8.93328173828125,0.6174018305033445,-0.49228667358160016,-0.4538654652506113
1772790051598348800,8.943348876953126,0.6961942121893168,-0.6062000530093908,-0.502336833355017
1772790051608415000,8.9534150390625,0.7615326535403728,-0.6806202109605074,-0.542576525817439
1772790051618482000,8.96348193359375,0.8174193759351969,-0.7451607799321412,-0.5579208099436015
1772790051628547800,8.9735478515625,0.839208013895154,-0.7818731385186314,-0.5325718491535634
1772790051638614000,8.983614013671875,0.8395739245980978,-0.8161629461333155,-0.5368010842211545
1772790051648681000,8.993680908203125,0.8213800962597131,-0.8626724761128425,-0.5594491154894232
1772790051658747000,9.003746826171875,0.7669049942284822,-0.9587868717387318,-0.6079420378385111
1772790051668813800,9.013813720703125,0.622346885690093,-1.061921375259757,-0.6469147791050374
1772790051678880000,9.0238798828125,0.4916021984487772,-1.1184148313760758,-0.6039168374430388
1772790051688947000,9.033947021484375,0.34436990226507186,-1.124018642732501,-0.5529257050700486
1772790051699013000,9.04401318359375,0.17983049744963645,-1.139559910735488,-0.5432972778400406
1772790051709080000,9.054080078125,0.04414952284991741,-1.1896677574679255,-0.5113427813051268
1772790051719146000,9.06414599609375,-0.07427052034735679,-1.2039254154011607,-0.5025348766777664
1772790051729213000,9.074212890625,-0.1799672755718231,-1.2024869070306419,-0.5116762145105749
1772790051739279000,9.084279052734376,-0.25107670153975487,-1.2095137369275093,-0.5361619095347822
1772790051749346000,9.094345947265625,-0.2908499090015888,-1.204661328460276,-0.5928949465606361
1772790051759412000,9.104411865234376,-0.330023981526494,-1.135563242314756,-0.6357756915837526
1772790051769479000,9.11447900390625,-0.37625381778180594,-1.0023279073014855,-0.6238717571698129
1772790051779544800,9.124544921875,-0.4658902495652437,-0.9197782189086079,-0.6237554373137653
1772790051789611800,9.13461181640625,-0.5456529375880956,-0.8958709813594817,-0.6266239784874021
1772790051799678000,9.144677978515626,-0.6353758786112069,-0.8611170633643865,-0.5925135094949975
1772790051809744000,9.154743896484375,-0.8209089716166257,-0.7723086068376899,-0.46863406838066873
1772790051819810800,9.164810791015626,-1.0742530335664748,-0.6842974381685256,-0.33241211877204474
1772790051829880600,9.174880615234375,-1.3164642916053533,-0.603827478659153,-0.22850356213860212
1772790051839947500,9.184947509765625,-1.531966406416893,-0.560430527742207,-0.1715642984835431
1772790051850013400,9.195013427734375,-1.6928934659540653,-0.5332710103988647,-0.07734269433431328
1772790051860080400,9.205080322265625,-1.7159914329469204,-0.4955409992024302,-0.035299094255082306
1772790051870146600,9.215146484375,-1.6568179439663886,-0.5002323718890548,-0.05562686588224023
1772790051880213500,9.225213623046875,-1.5502257012069225,-0.5407917612925172,-0.10560388930924236
1772790051890279400,9.235279541015625,-1.4750392350584267,-0.5425716304466128,-0.13894012252613902
1772790051900346600,9.2453466796875,-1.4715724357306956,-0.4526914530351758,-0.03900657047089189
1772790051910412500,9.25541259765625,-1.4605986217737197,-0.3034855186909437,0.08688256649803369
1772790051920479500,9.2654794921875,-1.392858964499831,-0.12914455856829882,0.16321056736446915
1772790051930545700,9.275545654296875,-1.225023440748453,0.07366524793058633,0.22786296268012374
1772790051940612600,9.285612548828125,-1.0163561403930186,0.2910340333968401,0.24363694346044212
1772790051950678500,9.295678466796875,-0.8185188616096973,0.5111228914767504,0.2920451101355254
1772790051960745500,9.305745361328125,-0.6475479624420404,0.6909136414378881,0.3539956626139581
1772790051970811400,9.315811279296875,-0.5069827229321002,0.8254466150462627,0.3749485438695177
1772790051980877300,9.325877197265624,-0.3704588677674532,0.8850932744964957,0.30719635590761896
1772790051990944500,9.335944580078126,-0.16217910542488098,0.9481617250889539,0.25934246211443096
1772790052001010400,9.346010498046875,0.03913140242695808,1.0200418431684375,0.21841577376853674
1772790052011077400,9.356077392578126,0.2586000827819109,1.0773960077673197,0.23881869299113748
1772790052021143600,9.3661435546875,0.4706009114742279,1.079032669058442,0.22976901549715548
1772790052031210500,9.37621044921875,0.6098059685468673,0.9580240706726908,0.19350849233139306
1772790052041276400,9.3862763671875,0.7136690786033868,0.8000617061600088,0.10802205636687576
1772790052051343400,9.39634326171875,0.7315402508586645,0.6536053627848625,0.08488313630912453
1772790052061409500,9.406409423828125,0.7062526648670434,0.5785363855361938,0.1589462609834969
1772790052071476500,9.4164765625,0.6491402000695466,0.6145864808216691,0.26891137770954515
1772790052081542400,9.42654248046875,0.5630366185873746,0.7042799034893512,0.3583942263664677
1772790052091609600,9.436609619140626,0.43368133987784385,0.7849465546146035,0.449104534459114
1772790052101675500,9.446675537109375,0.35165479857623577,0.8237032785102725,0.5106557123564184
1772790052111742500,9.456742431640626,0.26845219923257824,0.8555854404613376,0.5055550647491589
1772790052121808600,9.46680859375,0.18456570927798746,0.792073630015552,0.4933723133938387
1772790052131875600,9.47687548828125,0.14448621234595774,0.7617413278549909,0.5186399891085922
1772790052141941500,9.48694140625,0.04249649494588375,0.7230439329311251,0.45284605907499786
1772790052152007700,9.497007568359376,-0.11850304530560969,0.6159454942151904,0.43113004795983434
1772790052162074600,9.50707470703125,-0.30631109750568863,0.5653820126697421,0.4627859999395907
1772790052172140300,9.517140380859376,-0.4296042996972799,0.5943184765577316,0.47077078814841805
1772790052182207500,9.52720751953125,-0.42400282642841336,0.5880804589509964,0.3865482711724937
1772790052192273400,9.5372734375,-0.3388198669224977,0.6392313849955796,0.3817958890136331
1772790052202340400,9.54734033203125,-0.23576573516130447,0.6475861024953424,0.26887173981890083
1772790052212406300,9.55740625,-0.0869406168282032,0.6648056789740919,0.17056502178050575
1772790052222473500,9.567473388671875,0.10785481004118919,0.6897955971933901,0.13204824412055313
1772790052232539400,9.577539306640626,0.3033113311678171,0.666266837567836,0.07555975644029676
1772790052242606300,9.5876064453125,0.45594402509033677,0.5901623797915876,-0.022234956955350934
1772790052252672500,9.597672607421876,0.5567933402836323,0.46605274665057655,-0.05683620513938367
1772790052262739500,9.607739501953125,0.5641279209554195,0.32835283344388005,-0.058217722625657914
1772790052272805400,9.617805419921876,0.5095651406407355,0.22423516410440206,-0.04507361542489379
1772790052282872300,9.627872314453125,0.42192835824191566,0.14391907998248935,-0.004144114067405462
1772790052292938500,9.6379384765625,0.2783189287304878,0.05607786105275154,-0.022066979977302253
1772790052303004400,9.64800439453125,0.14019348358809947,0.02048179314509034,0.0031367636557668443
1772790052313071600,9.658071533203126,0.004693710774183273,0.04606003264635801,0.0608653510576114
1772790052323137500,9.668137451171875,-0.13589374056756495,0.11088307182118295,0.13967464734576643
1772790052333204500,9.67820458984375,-0.23168401880562303,0.17679989758208392,0.18122312085181475
1772790052343270700,9.688270751953125,-0.25867080993056296,0.16388678612560034,0.20657792686074972
1772790052353337600,9.698337646484376,-0.22021745289564132,0.15291414121240376,0.20144564200621098
1772790052363403500,9.708403564453125,-0.15986264517605303,0.13803849751129746,0.1913890159593895
1772790052373470500,9.718470458984376,-0.10873393096327781,0.08194163949713111,0.16748305705189703
1772790052383536600,9.72853662109375,-0.08168342695236205,-0.030557196957617997,0.1711707691213116
1772790052393603600,9.738603515625,-0.04984393509924411,-0.11655994841381907,0.17854666818417608
1772790052403669500,9.74866943359375,0.02446399464905262,-0.1579497972920537,0.16286935271136463
1772790052413736700,9.75873681640625,0.11113806949555874,-0.21236089417636395,0.1431741068340838
1772790052423802400,9.76880224609375,0.16735212414860726,-0.2524285545401275,0.10422145850751548
1772790052433869300,9.778869384765626,0.23804010983407495,-0.2077687440805137,0.12804989519938825
1772790052443935500,9.788935546875,0.2456763038009405,-0.20230828671753406,0.17242792957555503
1772790052454002400,9.79900244140625,0.2277560317069292,-0.2717978563986718,0.21500461361818013
1772790052464068400,9.809068359375,0.19133096562922,-0.3309294059336185,0.24608433661255985
1772790052474134500,9.819134521484376,0.14029285230934618,-0.38326398880481716,0.27776359640266746
1772790052484201500,9.829201416015625,0.08694120135009288,-0.451850764427334,0.2891172399900854
1772790052494267400,9.839267333984376,0.04431318897902965,-0.4924043086118996,0.31440263402462004
1772790052504334300,9.849334228515625,0.015825930163264272,-0.5182471903987228,0.37057350712306797
1772790052514400500,9.859400390625,-0.022549685460329056,-0.5268240262165665,0.4029269033150747
1772790052524467500,9.869467529296875,-0.07296586748957634,-0.5415026860408485,0.41747137883305546
1772790052534533400,9.879533447265626,-0.09301613734960555,-0.5700691475726664,0.4439628241891041
1772790052544600600,9.8896005859375,-0.0958288566827774,-0.6104803606770932,0.49171563222799447
1772790052554666500,9.89966650390625,-0.07746084082126617,-0.6412538307338953,0.5108280001834035
1772790052564733400,9.9097333984375,-0.07516483883857726,-0.670089172334969,0.5279246809348463
1772790052574799600,9.919799560546876,-0.06922317382991314,-0.6934129109077155,0.5250090126838535
1772790052584866600,9.929866455078125,-0.06827683289051055,-0.7401492353804409,0.5121025136312469
1772790052594932500,9.939932373046876,-0.11593524064421654,-0.7390222771771252,0.5198966746388003
1772790052604999400,9.94999951171875,-0.18843465966582298,-0.6548558012373745,0.585044013864547
1772790052615065600,9.960065673828124,-0.2317383793413639,-0.5557996530711651,0.6367670407086611
1772790052625131300,9.97013134765625,-0.2772942618578672,-0.5006694481320679,0.6437706358604133
1772790052635198700,9.98019873046875,-0.3262520617723465,-0.4427246241636574,0.688766619471833
1772790052645264400,9.990264404296875,-0.3357610638737678,-0.3784674021780491,0.6869425458498298
1772790052655331300,10.000331298828126,-0.373152344635129,-0.3706720721267164,0.6791635093461722
1772790052665397500,10.0103974609375,-0.4582347663760185,-0.4114943502500653,0.6601287732042371
1772790052675464400,10.02046435546875,-0.5530933167219162,-0.4599092754594981,0.6303261209409684
1772790052685530400,10.0305302734375,-0.5795756654560565,-0.534205807030946,0.5864539537277073
1772790052695597300,10.040597412109374,-0.5292816485017537,-0.5570078598171472,0.5176594171060249
1772790052705663500,10.05066357421875,-0.5593745889484882,-0.6020134149745107,0.4732231497365981
1772790052715730400,10.06073046875,-0.7122060203135013,-0.6695201402753591,0.4353555567003786
1772790052725796400,10.07079638671875,-0.8011538853108883,-0.728705465824157,0.3542083555165678
1772790052735863600,10.080863525390624,-0.7512772169858217,-0.7883337128348649,0.1752538006512448
1772790052745929500,10.090929443359375,-0.7489157485514879,-0.7598156204894184,0.07678829358825459
1772790052755996400,10.100996337890624,-0.9026233782291412,-0.6937254839882254,0.1407631549685262
1772790052766062600,10.1110625,-1.0908820968061685,-0.578060292457044,0.24195498172286897
1772790052776128500,10.12112841796875,-1.10669458296597,-0.42163931216746564,0.21017991514177992
1772790052786195500,10.131195556640625,-1.1282698704361915,-0.319440043669939,0.10395424067238346
1772790052796261600,10.14126171875,-1.3108645719021559,-0.15201865367740391,0.14462348365848884
1772790052806328600,10.15132861328125,-1.3888134885013104,0.17035685892254113,0.23070790378246456
1772790052816394500,10.16139453125,-1.5115934804737567,0.396890070836246,0.3238290724091232
1772790052826461200,10.171461181640625,-1.685732488283515,0.574811519794166,0.4673942609200254
1772790052836527000,10.181527099609376,-1.577922101905942,0.7366926651857792,0.4745123127643019
1772790052846594000,10.191593994140625,-1.360458331632614,0.8623337456777691,0.4179918955758214
1772790052856660200,10.20166015625,-1.113024370509386,0.9642835694588721,0.5029206976575776
1772790052866727200,10.21172705078125,-0.7949538616269827,0.9362304642766713,0.45306693528406317
1772790052876793000,10.22179296875,-0.4246113137155771,0.837667506454885,0.4267095281038433
1772790052886860000,10.231860107421875,-0.049560441982746124,0.7317534552179277,0.3512326276414096
1772790052896926200,10.24192626953125,0.3189782713770866,0.6290447758935391,0.18899048518398776
1772790052906992000,10.2519921875,0.5906330660432577,0.5677668619796633,0.07641601707660593
1772790052917059000,10.26205908203125,0.7638719101428986,0.6198552150048315,0.054600883835367854
1772790052927125200,10.272125244140625,0.8999579584121704,0.7662418541446328,0.0971213259124197
1772790052937192200,10.282192138671874,0.7919564333766699,0.7167362110890447,0.09340400415603071
1772790052947258000,10.292258056640625,0.6167278767645359,0.6614090222731233,0.16036489560976624
1772790052957325300,10.3023251953125,0.5362210923761129,0.5378785041943193,0.12475268028490244
1772790052967391200,10.31239111328125,0.49000820725560185,0.5053191736340522,0.061759925277158616
1772790052977458200,10.322458251953124,0.43432256039083,0.5688014657244086,0.013185644787549971
1772790052987524400,10.3325244140625,0.3590355564773082,0.6978348190031946,0.0074087053539231415
1772790052997591300,10.34259130859375,0.2860790413379669,0.8236682071968913,0.025709245469793675
1772790053007657200,10.3526572265625,0.2123749227017164,0.9519069029666483,0.10400624485425651
1772790053017724200,10.36272412109375,0.1613064142435789,1.0818130935572088,0.1847799730831757
1772790053027790000,10.3727900390625,0.12756839529275893,1.1354973374716937,0.2373512142544612
1772790053037856000,10.38285595703125,0.11526654760241507,1.1455990447692572,0.28433150355089454
1772790053047923200,10.392923095703125,0.0885480520248413,1.063952296565473,0.2710859818022698
1772790053057989000,10.402989013671874,0.09296119229197501,0.9204831523075699,0.23833777760639785
1772790053068056000,10.41305615234375,0.0979465794891119,0.7710746811285615,0.21713676680866628
1772790053078122200,10.423122314453124,0.008913958817720412,0.6264531519651413,0.24309187679830938
1772790053088189200,10.433189208984375,-0.042211248263716694,0.5508358931839465,0.2792013375882059
1772790053098255000,10.443255126953124,-0.03034428485929966,0.5277388029739261,0.28506500545721497
1772790053108322000,10.453322021484375,0.021931261301040648,0.5765919734701513,0.3378379797456786
1772790053118388200,10.46338818359375,0.05325345128178596,0.5774406992539763,0.3282571910496801
1772790053128455200,10.473455078125,0.019973112970590592,0.5732368178233503,0.3747791055867448
1772790053138521000,10.48352099609375,-0.035381109982728955,0.5793985553234815,0.4132609580637887
1772790053148587300,10.493587158203125,-0.019507249024510384,0.5724973976328969,0.48083121358752245
1772790053158654200,10.503654296875,0.01286415774822235,0.5500418201968074,0.5230556501263752
1772790053168720100,10.51372021484375,0.09251987826526165,0.5137050169244408,0.5507536947932093
1772790053178787300,10.523787353515624,0.17413199354708195,0.37633039014935493,0.5552926168644801
1772790053188853200,10.533853271484375,0.2533534143000841,0.20023849470615385,0.5163729209594429
1772790053198920200,10.543920166015624,0.23569676157832145,-0.005427870267629623,0.4507697277249768
1772790053208986400,10.553986328125,0.20372984395325183,-0.17365677725076675,0.31400234612803907
1772790053219053300,10.56405322265625,0.24257249256670474,-0.2101888108342886,0.1976389797322452
1772790053229119200,10.574119140625,0.30021511871814727,-0.12775222742706535,0.2212562213588506
1772790053239186200,10.584186279296874,0.39401977609694,-0.038056758932769295,0.2584004685565829
1772790053249252000,10.594252197265625,0.5180658424824476,-0.033652678754925724,0.2017872585181147
1772790053259319000,10.604319091796874,0.5460375529915094,-0.11316840627938508,0.13833397332653402
1772790053269385200,10.61438525390625,0.4647375723987818,-0.1296304423891008,0.17622494723834095
1772790053279451100,10.624451171875,0.28453356546163555,-0.07183525602445005,0.22152152123153207
1772790053289518000,10.63451806640625,0.14120646002292633,-0.0816384187668562,0.22485556102506815
1772790053299584300,10.644584228515624,-0.09062544282078742,-0.1107280273899436,0.246113160848245
1772790053309651200,10.654651123046875,-0.2698883695155382,-0.07586231958344579,0.2787321857064962
1772790053319717000,10.664717041015624,-0.34930092892646786,-0.03016936668381095,0.3160246092032641
1772790053329784000,10.6747841796875,-0.38667175142168997,-0.050273120296746486,0.3075846976380795
1772790053339850200,10.684850341796874,-0.3885492357313633,-0.08065306099131703,0.27692988552488385
1772790053349917200,10.694917236328125,-0.3846925603032112,-0.09495309676155447,0.2932227025475353
1772790053359983000,10.704983154296874,-0.44057226843535896,-0.16639555407613515,0.3213311911787838
1772790053370049300,10.71504931640625,-0.4056049999505281,-0.21098449125662444,0.30218152342028914
1772790053380116200,10.7251162109375,-0.3414139750689268,-0.1986238991163671,0.2580162184793502
1772790053390182100,10.73518212890625,-0.3300888634562492,-0.13134440670013428,0.2376454844933003
1772790053400249300,10.745249267578124,-0.36643735716640946,-0.004822890111804009,0.32195845623165364
1772790053410315300,10.755315185546875,-0.36466508679687976,0.1185705575838685,0.463623765937984
1772790053420382200,10.76538232421875,-0.27976912753880023,0.16408157804533838,0.47579672655165195
1772790053430448400,10.775448486328125,0.049205637195706364,0.2026407335422933,0.3989963954657316
1772790053440515300,10.785515380859374,0.2819663453221321,0.13759104600474237,0.25618629963845013
1772790053450581000,10.7955810546875,0.32377251991629596,0.05058905437812209,0.17072006621174513
1772790053460648200,10.805648193359374,0.21829554492235181,0.011014438228309154,0.25578677892684937
1772790053470714000,10.815714111328125,0.12075754623413085,-0.04764613279402256,0.26382147069200873
1772790053480780000,10.825780029296874,0.11996376550793647,-0.1280658234208822,0.2689162365477532
1772790053490847200,10.83584716796875,0.22417758869826793,-0.24857202524244784,0.20724333196692168
1772790053500913200,10.8459130859375,0.3744593355804682,-0.30156448750048875,0.16644494617581365
1772790053510980000,10.85597998046875,0.386192443472147,-0.3403318789206445,0.22029950515590607
1772790053521046300,10.86604638671875,0.3140466601938009,-0.366200479670614,0.2267132446557283
1772790053531113200,10.87611328125,0.3040694560587406,-0.28168708998933434,0.29781127244681116
1772790053541179100,10.88617919921875,0.1465063199967146,-0.20998218234628438,0.34726145898811517
1772790053551246000,10.89624609375,-0.058092708006501195,-0.22951515033394096,0.3716986386954784
1772790053561312300,10.906312255859374,-0.25862930887639524,-0.31233561849221586,0.25021745436191556
1772790053571378200,10.916378173828125,-0.3038257104307413,-0.22618366782367227,0.15422178974486886
1772790053581445000,10.926445068359374,-0.2969669305771589,0.006697744072973728,0.1659719218365848
1772790053591511300,10.93651123046875,-0.19176935704648493,0.18449235178083181,0.12800517927482724
1772790053601578200,10.946578125,0.1835708530217409,0.1047683883331716,-0.048652825618535275
1772790053611644200,10.95664404296875,0.5239098923355341,0.027739216927438973,-0.1306998251862824
1772790053621711400,10.96671142578125,0.6706646341353655,-0.17131752064824105,-0.22400106308758258
