time,seconds_elapsed,z,y,x
1772790042714675700,0.05967578125,0.51203453540802,0.5554541945457458,0.13364461064338684
1772790042724741600,0.06974169921875,0.4968204200267792,0.6320251226425171,0.08297184854745865
1772790042734808600,0.07980859375,0.48178449273109436,0.7677845358848572,0.0993867740035057
1772790042744874800,0.089874755859375,0.48122575879096985,0.9497407674789429,0.1581590175628662
1772790042754941700,0.099941650390625,0.45280981063842773,1.069364070892334,0.21348725259304047
1772790042765007600,0.110007568359375,0.40254107117652893,1.0181238651275635,0.26425668597221375
1772790042775074800,0.12007470703125,0.3803633153438568,0.8689292669296265,0.28733083605766296
1772790042785140700,0.130140625,0.3876097798347473,0.7409572005271912,0.2653579115867615
1772790042795207700,0.140207763671875,0.41059204936027527,0.6566681265830994,0.20375153422355652
1772790042805273900,0.15027392578125,0.4191479980945587,0.5668429136276245,0.09375711530447006
1772790042815341000,0.160341064453125,0.4128187298774719,0.5239468216896057,-0.04232189059257507
1772790042825407000,0.170406982421875,0.417372465133667,0.554931640625,-0.16112683713436127
1772790042835474000,0.180473876953125,0.3886622488498688,0.5691803693771362,-0.24961835145950317
1772790042845540000,0.1905400390625,0.2870440185070038,0.44353482127189636,-0.2873915731906891
1772790042855607000,0.20060693359375,0.15763996541500092,0.21620020270347595,-0.27875491976737976
1772790042865673000,0.2106728515625,0.04249153286218643,0.011353322304785252,-0.2510868310928345
1772790042875740200,0.220740234375,-0.04074157029390335,-0.0988224521279335,-0.2262541800737381
1772790042885806000,0.23080615234375,-0.09782110154628754,-0.161559596657753,-0.22536601126194
1772790042895873000,0.240873046875,-0.0925549641251564,-0.22294333577156067,-0.27213671803474426
1772790042905939200,0.250939208984375,-0.04922959581017494,-0.2487858533859253,-0.31040313839912415
1772790042916006100,0.261006103515625,-0.06837479770183563,-0.31992554664611816,-0.3935787081718445
1772790042926072000,0.271072021484375,-0.12275654822587967,-0.3492322862148285,-0.505615234375
1772790042936139000,0.281138916015625,-0.16951553523540497,-0.3677407205104828,-0.6439829468727112
1772790042946205200,0.291205078125,-0.2177451103925705,-0.36320775747299194,-0.7864799499511719
1772790042956272000,0.301272216796875,-0.2682681977748871,-0.38044002652168274,-0.9006682634353638
1772790042966338000,0.311338134765625,-0.275857150554657,-0.39434996247291565,-0.9453699588775635
1772790042976405200,0.3214052734375,-0.27124056220054626,-0.4230785667896271,-0.9082053303718567
1772790042986471200,0.33147119140625,-0.2728608250617981,-0.3873804807662964,-0.8307949304580688
1772790042996538000,0.3415380859375,-0.24417005479335785,-0.31658726930618286,-0.7194801568984985
1772790043006604000,0.35160400390625,-0.1863967776298523,-0.2566208839416504,-0.5906052589416504
1772790043016671000,0.3616708984375,-0.11376331746578217,-0.21454398334026337,-0.4476749897003174
1772790043026737000,0.37173681640625,-0.02345845475792885,-0.16442543268203735,-0.3383309245109558
1772790043036803800,0.381803955078125,0.06046973541378975,-0.010810569860041142,-0.21873366832733154
1772790043046870000,0.3918701171875,0.08985132724046707,0.10897362232208252,-0.12214881181716919
1772790043056937000,0.40193701171875,0.06924991309642792,0.18226568400859833,-0.08188208192586899
1772790043067003100,0.412003173828125,0.06519018858671188,0.08729203045368195,-0.1492542028427124
1772790043077070000,0.422070068359375,0.11469408869743347,-0.14716681838035583,-0.23219221830368042
1772790043087136000,0.432135986328125,0.1260274350643158,-0.2551151216030121,-0.3299486041069031
1772790043097203000,0.442202880859375,0.06473532319068909,-0.3915241062641144,-0.3777446448802948
1772790043107269000,0.45226904296875,0.0001994707708945498,-0.5294811725616455,-0.35983461141586304
1772790043117336000,0.462336181640625,-0.05197291821241379,-0.5394160747528076,-0.3203689455986023
1772790043127402000,0.472402099609375,-0.10578741878271103,-0.49753016233444214,-0.2790526747703552
1772790043137469000,0.482468994140625,-0.11770319938659668,-0.32260042428970337,-0.18537625670433044
1772790043147535000,0.49253515625,-0.14786802232265472,-0.10641299188137054,-0.049309227615594864
1772790043157602000,0.50260205078125,-0.2343672215938568,0.12111763656139374,0.12330515682697296
1772790043167668200,0.512668212890625,-0.3569381535053253,0.28924670815467834,0.30662864446640015
1772790043177735200,0.522735107421875,-0.41466668248176575,0.33174198865890503,0.4692974388599396
1772790043187801000,0.532801025390625,-0.3935481011867523,0.20802830159664154,0.6146777868270874
1772790043197868000,0.542867919921875,-0.3079357147216797,0.038769498467445374,0.6508302092552185
1772790043207934200,0.552934326171875,-0.1267683357000351,-0.0869668573141098,0.5916574597358704
1772790043218001200,0.563001220703125,-0.03229508921504021,-0.2979041337966919,0.4546751081943512
1772790043228067000,0.573067138671875,-0.11933092027902603,-0.46172821521759033,0.24698342382907867
1772790043238134300,0.58313427734375,-0.21418872475624084,-0.5206423997879028,-0.016938237473368645
1772790043248200200,0.5932001953125,-0.2708091139793396,-0.5970284938812256,-0.30056142807006836
1772790043258265900,0.603265869140625,-0.37950631976127625,-0.6407557725906372,-0.4495181441307068
1772790043268333000,0.6133330078125,-0.410872220993042,-0.540496289730072,-0.4893406629562378
1772790043278399000,0.62339892578125,-0.43601566553115845,-0.36337020993232727,-0.4321482181549072
1772790043288466000,0.6334658203125,-0.5290105938911438,-0.19234921038150787,-0.3760735094547272
1772790043298532000,0.643531982421875,-0.5959661602973938,-0.02106613665819168,-0.3209119737148285
1772790043308599000,0.65359912109375,-0.6205695271492004,0.1213432028889656,-0.2831065356731415
1772790043318665000,0.6636650390625,-0.653465986251831,0.17346659302711487,-0.320873886346817
1772790043328732000,0.67373193359375,-0.6512044072151184,0.03819505497813225,-0.32084113359451294
1772790043338798000,0.683798095703125,-0.6400494575500488,-0.09753880649805069,-0.3049471080303192
1772790043348865000,0.693864990234375,-0.6071866154670715,-0.17202022671699524,-0.26758456230163574
1772790043358931000,0.703930908203125,-0.5653374195098877,-0.22814927995204926,-0.22427305579185486
1772790043368998100,0.713998046875,-0.5577074885368347,-0.2943248450756073,-0.17347830533981323
1772790043379064000,0.72406396484375,-0.5623488426208496,-0.3545876443386078,-0.14153262972831726
1772790043389131000,0.734131103515625,-0.5591312050819397,-0.35584118962287903,-0.12008832395076752
1772790043399197200,0.744197265625,-0.5349071025848389,-0.282204806804657,-0.10540099442005157
1772790043409264000,0.75426416015625,-0.4970947206020355,-0.21409018337726593,-0.08379210531711578
1772790043419330000,0.764330078125,-0.4783492684364319,-0.22743821144104004,-0.06552308052778244
1772790043429397000,0.77439697265625,-0.47755032777786255,-0.2706679701805115,-0.06800434738397598
1772790043439463200,0.784463134765625,-0.45843788981437683,-0.30273136496543884,-0.0936007872223854
1772790043449530000,0.794530029296875,-0.4079771041870117,-0.28352785110473633,-0.1387653350830078
1772790043459596000,0.804595947265625,-0.3393346667289734,-0.1977226585149765,-0.1875389963388443
1772790043469663200,0.814663330078125,-0.26231417059898376,-0.09159117192029953,-0.21984900534152985
1772790043479729200,0.824729248046875,-0.1792168915271759,0.00806112214922905,-0.2193448692560196
1772790043489796000,0.834796142578125,-0.10027973353862762,0.05872722715139389,-0.17474916577339172
1772790043499862000,0.844862060546875,-0.04037618637084961,0.09947226196527481,-0.09599310904741287
1772790043509929000,0.854928955078125,-0.0034708979073911905,0.12767939269542694,-0.002588059986010194
1772790043519995000,0.864994873046875,0.006489058490842581,0.16272127628326416,0.09159117192029953
1772790043530062000,0.87506201171875,0.003769438248127699,0.20910927653312683,0.19810296595096588
1772790043540128000,0.8851279296875,-0.01239381916821003,0.24585583806037903,0.31255099177360535
1772790043550195000,0.89519482421875,-0.018613364547491074,0.2506884038448334,0.41672077775001526
1772790043560261000,0.90526123046875,-0.01366361416876316,0.2466081827878952,0.514878511428833
1772790043570328000,0.915328125,-0.009622267447412014,0.22819535434246063,0.6115970611572266
1772790043580394000,0.92539404296875,-0.01200925838202238,0.17075149714946747,0.7060405015945435
1772790043590461000,0.9354609375,-0.028295287862420082,0.09866585582494736,0.7903385758399963
1772790043600527000,0.945527099609375,-0.05216493457555771,0.07810439169406891,0.8529021143913269
1772790043610594000,0.955593994140625,-0.0765024945139885,0.1061895564198494,0.9011303782463074
1772790043620660000,0.965659912109375,-0.080675408244133,0.11821505427360535,0.9286040663719177
1772790043630727200,0.97572705078125,-0.06629007309675217,0.11552739143371582,0.9184624552726746
1772790043640793000,0.98579296875,-0.03190866485238075,0.11759533733129501,0.871794581413269
1772790043650860000,0.995860107421875,0.013510482385754585,0.1279638260602951,0.7909902334213257
1772790043660926200,1.00592626953125,0.06838225573301315,0.14395557343959808,0.6810632348060608
1772790043670993200,1.0159931640625,0.14787068963050842,0.19242510199546814,0.553957998752594
1772790043681059000,1.02605908203125,0.24380306899547577,0.241001695394516,0.43339085578918457
1772790043691126000,1.0361259765625,0.35556477308273315,0.2741420865058899,0.3247317373752594
1772790043701192200,1.046192138671875,0.46538046002388,0.2853523790836334,0.228054478764534
1772790043711259100,1.056259033203125,0.5631510019302368,0.29419034719467163,0.14609089493751526
1772790043721325000,1.066324951171875,0.6491817235946655,0.30478227138519287,0.08293989300727844
1772790043731392300,1.076392333984375,0.7216524481773376,0.28782913088798523,0.029652167111635208
1772790043741458200,1.086458251953125,0.7760637998580933,0.23525112867355347,-0.015171496197581291
1772790043751525000,1.096525146484375,0.7943679690361023,0.177510604262352,-0.05987798050045967
1772790043761591000,1.106591064453125,0.7681230306625366,0.11463363468647003,-0.09241621941328049
1772790043771658000,1.116657958984375,0.7228844165802002,0.021078653633594513,-0.10011887550354004
1772790043781724000,1.126723876953125,0.6721656322479248,-0.08563634008169174,-0.10630433261394501
1772790043791790000,1.1367900390625,0.6151430606842041,-0.1695600003004074,-0.1314973086118698
1772790043801857000,1.14685693359375,0.5532530546188354,-0.23380476236343384,-0.17662882804870605
1772790043811927300,1.15692724609375,0.4932733476161957,-0.26546788215637207,-0.24954219162464142
1772790043821994200,1.166994140625,0.44284588098526,-0.25037017464637756,-0.3212757706642151
1772790043832060400,1.177060302734375,0.40750759840011597,-0.20020979642868042,-0.3732747733592987
1772790043842127400,1.18712744140625,0.393944650888443,-0.15475521981716156,-0.40255677700042725
1772790043852193300,1.197193359375,0.38580894470214844,-0.0739101767539978,-0.4339391887187958
1772790043862260200,1.20726025390625,0.37747830152511597,0.03771328926086426,-0.4422684907913208
1772790043872326400,1.217326416015625,0.35584118962287903,0.14870426058769226,-0.4280378818511963
1772790043882393300,1.227393310546875,0.33531540632247925,0.246977299451828,-0.3884047269821167
1772790043892459500,1.23745947265625,0.3233567476272583,0.33530929684638977,-0.33183225989341736
1772790043902526500,1.2475263671875,0.31550708413124084,0.4069800078868866,-0.26842001080513
1772790043912592400,1.25759228515625,0.302004873752594,0.4340877830982208,-0.19694076478481293
1772790043922659300,1.267659423828125,0.2789645195007324,0.42104336619377136,-0.1485772281885147
1772790043932725500,1.2777255859375,0.23908954858779907,0.4001719057559967,-0.12306014448404312
1772790043942792400,1.28779248046875,0.18733873963356018,0.36716097593307495,-0.10659142583608627
1772790043952858000,1.297858154296875,0.1255214363336563,0.30292657017707825,-0.08914505690336227
1772790043962925300,1.30792529296875,0.05564302206039429,0.2355842888355255,-0.0721663385629654
1772790043972991200,1.3179912109375,-0.012897955253720284,0.19876928627490997,-0.057007625699043274
1772790043983058200,1.32805810546875,-0.08021894097328186,0.16868089139461517,-0.03656600043177605
1772790043993124400,1.338124267578125,-0.14484800398349762,0.13571281731128693,-0.012961071915924549
1772790044003191300,1.34819140625,-0.19637431204319,0.09024734050035477,0.008373244665563107
1772790044013257200,1.35825732421875,-0.24395647644996643,0.06204419583082199,0.02268320880830288
1772790044023324200,1.36832421875,-0.29143717885017395,0.06433158367872238,0.030275613069534302
1772790044033390300,1.378390380859375,-0.33326050639152527,0.07843701541423798,0.04295332729816437
1772790044043457300,1.388457275390625,-0.35643482208251953,0.08647710084915161,0.06346525996923447
1772790044053523200,1.398523193359375,-0.37036368250846863,0.07201613485813141,0.08588321506977081
1772790044063590400,1.40859033203125,-0.36884886026382446,0.05488934740424156,0.1231355145573616
1772790044073656300,1.41865625,-0.36541926860809326,0.03826829418540001,0.1610775738954544
1772790044083723300,1.42872314453125,-0.35891979932785034,0.02437564730644226,0.18417543172836304
1772790044093789400,1.43878955078125,-0.3493116497993469,0.027120567858219147,0.20195549726486206
1772790044103856400,1.4488564453125,-0.3537692427635193,0.012116583995521069,0.2199973464012146
1772790044113922300,1.45892236328125,-0.35383105278015137,-0.01619494892656803,0.24114523828029633
1772790044123989200,1.4689892578125,-0.3411831557750702,-0.05133429542183876,0.26071175932884216
1772790044134055400,1.479055419921875,-0.3257059156894684,-0.09059648215770721,0.2742624580860138
1772790044144122400,1.489122314453125,-0.3067348897457123,-0.14620435237884521,0.2696429193019867
1772790044154188300,1.499188232421875,-0.29101771116256714,-0.2085217833518982,0.24556608498096466
1772790044164255500,1.50925537109375,-0.2827507257461548,-0.2322465479373932,0.19753225147724152
1772790044174321400,1.5193212890625,-0.271863728761673,-0.21955792605876923,0.14883582293987274
1772790044184388400,1.529388427734375,-0.25613802671432495,-0.19358384609222412,0.09819767624139786
1772790044194454300,1.539454345703125,-0.24806946516036987,-0.15118366479873657,0.05883348733186722
1772790044204521500,1.549521484375,-0.25328099727630615,-0.11168019473552704,0.031037012115120888
1772790044214587100,1.559587158203125,-0.2590014636516571,-0.11391644924879074,0.029040439054369926
1772790044224654000,1.569654052734375,-0.28172436356544495,-0.16146612167358398,0.04340100288391113
1772790044234720300,1.57972021484375,-0.3166778087615967,-0.22410021722316742,0.06108652427792549
1772790044244787200,1.589787109375,-0.36019012331962585,-0.27029967308044434,0.06459017843008041
1772790044254853400,1.599853271484375,-0.4086146652698517,-0.28594785928726196,0.04590757191181183
1772790044264920300,1.60992041015625,-0.46286672353744507,-0.28434810042381287,0.005562810692936182
1772790044274986200,1.619986328125,-0.5202442407608032,-0.2876474857330322,-0.03838200867176056
1772790044285053200,1.63005322265625,-0.582798421382904,-0.31575050950050354,-0.08346053957939148
1772790044295119400,1.640119384765625,-0.651898980140686,-0.3440188765525818,-0.1283145695924759
1772790044305185300,1.650185302734375,-0.7138760089874268,-0.3428415060043335,-0.20151634514331818
1772790044315252200,1.660252197265625,-0.7627618312835693,-0.2805024981498718,-0.27479854226112366
1772790044325318400,1.670318359375,-0.809783935546875,-0.20010779798030853,-0.3398558497428894
1772790044335385300,1.68038525390625,-0.8509142994880676,-0.10467208176851273,-0.3677234351634979
1772790044345451300,1.690451171875,-0.8794751167297363,-0.019899405539035797,-0.33245864510536194
1772790044355518500,1.7005185546875,-0.8998568058013916,0.033255692571401596,-0.21915632486343384
1772790044365584400,1.71058447265625,-0.9203181862831116,0.07552485167980194,-0.052390504628419876
1772790044375651300,1.7206513671875,-0.96101313829422,0.10417167842388153,0.13950224220752716
1772790044385717500,1.730717529296875,-1.025482177734375,0.091145358979702,0.33428025245666504
1772790044395784400,1.740784423828125,-1.1165659427642822,0.015138472430408001,0.49962180852890015
1772790044405850400,1.750850341796875,-1.2182140350341797,-0.08703716099262238,0.6010589599609375
1772790044415917300,1.760917236328125,-1.3181747198104858,-0.20399947464466095,0.6243330836296082
1772790044425983500,1.7709833984375,-1.4011197090148926,-0.32996246218681335,0.584370493888855
1772790044436050400,1.781050537109375,-1.4708305597305298,-0.45868128538131714,0.49520495533943176
1772790044446116000,1.7911162109375,-1.5201611518859863,-0.5497797727584839,0.3699306547641754
1772790044456183300,1.801183349609375,-1.557637333869934,-0.6113888025283813,0.2366010844707489
1772790044466249200,1.811249267578125,-1.5847680568695068,-0.6381195187568665,0.11885980516672134
1772790044476316200,1.821316162109375,-1.5914078950881958,-0.6081677079200745,0.032708678394556046
1772790044486382300,1.83138232421875,-1.5869343280792236,-0.5544485449790955,-0.01631532423198223
1772790044496449300,1.84144921875,-1.586122751235962,-0.4916626811027527,-0.030603183433413506
1772790044506515200,1.85151513671875,-1.5895476341247559,-0.41426509618759155,-0.01944400556385517
1772790044516582100,1.86158203125,-1.6024975776672363,-0.31780219078063965,0.003341201925650239
1772790044526648300,1.8716484375,-1.622795581817627,-0.18535920977592468,0.022117553278803825
1772790044536715300,1.88171533203125,-1.6488929986953735,-0.052192363888025284,0.05318998545408249
1772790044546781200,1.89178125,-1.6787861585617065,0.04704980179667473,0.09202899038791656
1772790044556848400,1.901848388671875,-1.7178869247436523,0.08203575015068054,0.1176251694560051
1772790044566914300,1.911914306640625,-1.7586344480514526,0.07491844892501831,0.1190696656703949
1772790044576981200,1.921981201171875,-1.784094214439392,0.05390317738056183,0.08390714973211288
1772790044587047400,1.93204736328125,-1.7963322401046753,0.03797561302781105,0.018760638311505318
1772790044597114400,1.9421142578125,-1.8028724193572998,0.06525463610887527,-0.06058638170361519
1772790044607180300,1.95218017578125,-1.7964634895324707,0.11112651973962784,-0.12926504015922546
1772790044617247200,1.962247314453125,-1.796126127243042,0.12536963820457458,-0.15091654658317566
1772790044627313400,1.9723134765625,-1.8097103834152222,0.0850222185254097,-0.11536094546318054
1772790044637380400,1.98238037109375,-1.8451844453811646,-0.03130572289228439,-0.0289956983178854
1772790044647446300,1.9924462890625,-1.89729905128479,-0.19165225327014923,0.08186663687229156
1772790044657513500,2.002513427734375,-1.9604548215866089,-0.3786008358001709,0.17655666172504425
1772790044667579400,2.012579345703125,-2.0292608737945557,-0.5615978240966797,0.2325805127620697
1772790044677646300,2.022646240234375,-2.0853629112243652,-0.6997770071029663,0.242403045296669
1772790044687712300,2.032712158203125,-2.1179039478302,-0.7746185064315796,0.198971688747406
1772790044697779500,2.042779541015625,-2.123112678527832,-0.7986900210380554,0.12825730443000793
1772790044707845000,2.05284521484375,-2.114811897277832,-0.8011345267295837,0.04837711900472641
1772790044717912300,2.062912353515625,-2.1013998985290527,-0.8092110753059387,-0.01726873591542244
1772790044727978200,2.072978271484375,-2.0876340866088867,-0.7924020290374756,-0.045524608343839645
1772790044738045200,2.083045166015625,-2.0701382160186768,-0.752180814743042,-0.048408012837171555
1772790044748111400,2.093111328125,-2.047523260116577,-0.6979125142097473,-0.014159761369228363
1772790044758178300,2.10317822265625,-2.0173349380493164,-0.6317646503448486,0.029977872967720032
1772790044768244200,2.113244140625,-1.9833647012710571,-0.574795663356781,0.07848149538040161
1772790044778311200,2.123311279296875,-1.9485821723937988,-0.52122563123703,0.1178203746676445
1772790044788377300,2.13337744140625,-1.9186208248138428,-0.47084739804267883,0.14787335693836212
1772790044798443300,2.143443359375,-1.8811101913452148,-0.39986351132392883,0.1667248010635376
1772790044808510200,2.15351025390625,-1.839165449142456,-0.32014498114585876,0.16798368096351624
1772790044818575000,2.1635751953125,-1.7972979545593262,-0.23171818256378174,0.15306730568408966
1772790044828642000,2.17364208984375,-1.765885353088379,-0.1630067676305771,0.125954732298851
1772790044838708200,2.183708251953125,-1.7401413917541504,-0.15240418910980225,0.09227453917264938
1772790044848775200,2.193775146484375,-1.71684992313385,-0.15895289182662964,0.06094697490334511
1772790044858841000,2.203841064453125,-1.6799681186676025,-0.16964149475097656,0.03333931416273117
1772790044868908300,2.213908203125,-1.644542932510376,-0.1751646250486374,0.010521084070205688
1772790044878974200,2.22397412109375,-1.6146162748336792,-0.1839011311531067,-0.002353968098759651
1772790044889041200,2.234041259765625,-1.592150092124939,-0.19320647418498993,-0.011091533116996288
1772790044899107300,2.244107421875,-1.5739436149597168,-0.20826931297779083,0.0033340114168822765
1772790044909174300,2.25417431640625,-1.5623775720596313,-0.24246829748153687,0.03704909607768059
1772790044919240200,2.264240234375,-1.5511912107467651,-0.28727492690086365,0.07502949982881546
1772790044929307100,2.27430712890625,-1.5260636806488037,-0.31463623046875,0.10706546902656555
1772790044939373300,2.284373291015625,-1.485922932624817,-0.3101607859134674,0.11968672275543213
1772790044949440300,2.294440185546875,-1.4459795951843262,-0.3097618520259857,0.12721893191337585
1772790044959506200,2.304506103515625,-1.4066065549850464,-0.30939221382141113,0.113775834441185
1772790044969573400,2.314573486328125,-1.3653955459594727,-0.29629743099212646,0.08271458745002747
1772790044979639300,2.324639404296875,-1.3211007118225098,-0.2559817135334015,0.03742913156747818
1772790044989706200,2.334706298828125,-1.2829391956329346,-0.2242054045200348,0.010719489306211472
1772790044999772200,2.344772216796875,-1.2480946779251099,-0.18858882784843445,0.001900964416563511
1772790045009839400,2.35483935546875,-1.2223142385482788,-0.15210458636283875,0.011552526615560055
1772790045019905000,2.364905029296875,-1.2026867866516113,-0.10873713344335556,0.04156901314854622
1772790045029972000,2.374971923828125,-1.1913297176361084,-0.07813368737697601,0.07894355058670044
1772790045040038100,2.3850380859375,-1.1958400011062622,-0.07093595713376999,0.11148418486118317
1772790045050105000,2.39510498046875,-1.1936591863632202,-0.05270395800471306,0.10928228497505188
1772790045060171000,2.4051708984375,-1.1888779401779175,-0.03671646863222122,0.08723130822181702
1772790045070238200,2.41523828125,-1.173738956451416,-0.060381852090358734,0.05311807990074158
1772790045080304000,2.42530419921875,-1.1616687774658203,-0.08205465227365494,0.01467854529619217
1772790045090371000,2.43537109375,-1.163861870765686,-0.10072394460439682,-0.014374944381415844
1772790045100437200,2.445437255859375,-1.17545747756958,-0.13651204109191895,-0.03510046377778053
1772790045110504200,2.455504150390625,-1.2074689865112305,-0.19073480367660522,-0.061464693397283554
1772790045120570000,2.465570068359375,-1.2581255435943604,-0.26340821385383606,-0.08555697649717331
1772790045130637000,2.475636962890625,-1.309808611869812,-0.3213021159172058,-0.08800016343593597
1772790045140703200,2.485703125,-1.3529422283172607,-0.35209065675735474,-0.07780851423740387
1772790045150770200,2.495770263671875,-1.3974932432174683,-0.35534799098968506,-0.05579002946615219
1772790045160836000,2.505836181640625,-1.429846167564392,-0.33568158745765686,-0.024951955303549767
1772790045170903300,2.5159033203125,-1.4506075382232666,-0.3197854459285736,0.02894882671535015
1772790045180969200,2.52596923828125,-1.4599249362945557,-0.3287259638309479,0.0911879688501358
1772790045191036200,2.5360361328125,-1.457061529159546,-0.31205856800079346,0.1579451560974121
1772790045201102300,2.546102294921875,-1.4509644508361816,-0.25916606187820435,0.2142217457294464
1772790045211169300,2.556169189453125,-1.4400694370269775,-0.19046688079833984,0.24969026446342468
1772790045221235200,2.566235107421875,-1.4269781112670898,-0.12505538761615753,0.26744982600212097
1772790045231302100,2.57630224609375,-1.4103204011917114,-0.09100794047117233,0.2553686499595642
1772790045241368300,2.586368408203125,-1.3984581232070923,-0.06210092082619667,0.2205028086900711
1772790045251435300,2.596435302734375,-1.379417061805725,-0.0462668314576149,0.17679128050804138
1772790045261501200,2.606501220703125,-1.3497473001480103,-0.032047681510448456,0.11822810769081116
1772790045271567000,2.616567138671875,-1.3118842840194702,-0.021216604858636856,0.0636434257030487
1772790045281634000,2.626634033203125,-1.2658110857009888,-0.023130087181925774,0.009035573340952396
1772790045291701000,2.636700927734375,-1.2109768390655518,-0.04283348470926285,-0.03321361169219017
1772790045301767200,2.64676708984375,-1.1686643362045288,-0.08041148632764816,-0.06107640266418457
1772790045311833000,2.6568330078125,-1.130987524986267,-0.12053999304771423,-0.09626315534114838
1772790045321900000,2.666900146484375,-1.1079250574111938,-0.16972166299819946,-0.13792937994003296
1772790045331966200,2.67696630859375,-1.099168300628662,-0.2228514552116394,-0.19110125303268433
1772790045342033200,2.687033203125,-1.099092960357666,-0.2587524652481079,-0.2560997009277344
1772790045352099000,2.69709912109375,-1.1012922525405884,-0.279521644115448,-0.33326584100723267
1772790045362166300,2.707166259765625,-1.105812907218933,-0.3177556097507477,-0.4180108308792114
1772790045372232200,2.717232177734375,-1.1162325143814087,-0.33061864972114563,-0.4991147220134735
1772790045382299100,2.727299072265625,-1.1269080638885498,-0.31911274790763855,-0.5574470162391663
1772790045392365300,2.737365234375,-1.1548031568527222,-0.3084992468357086,-0.5844149589538574
1772790045402432300,2.747432373046875,-1.1989578008651733,-0.2983134686946869,-0.564860999584198
1772790045412498200,2.757498291015625,-1.2577502727508545,-0.29427608847618103,-0.5064418911933899
1772790045422565000,2.767565185546875,-1.312639594078064,-0.29737868905067444,-0.419991672039032
1772790045432631300,2.77763134765625,-1.364792823791504,-0.3279626965522766,-0.33388930559158325
1772790045442698200,2.7876982421875,-1.4058270454406738,-0.3778700530529022,-0.27040672302246094
1772790045452764200,2.79776416015625,-1.4433180093765259,-0.4320257008075714,-0.24216656386852264
1772790045462831400,2.807831298828125,-1.4894657135009766,-0.5061265826225281,-0.24080142378807068
1772790045472897300,2.817897216796875,-1.528035044670105,-0.5889053344726562,-0.2602235972881317
1772790045482964200,2.827964111328125,-1.5428816080093384,-0.6557016968727112,-0.2946356236934662
1772790045493030100,2.838030029296875,-1.5368220806121826,-0.6919062733650208,-0.3468170762062073
1772790045503097300,2.848097412109375,-1.5274163484573364,-0.7099561095237732,-0.41645073890686035
1772790045513163000,2.8581630859375,-1.5061177015304565,-0.7277196645736694,-0.49656742811203003
1772790045523230000,2.86822998046875,-1.4751979112625122,-0.7294712662696838,-0.5652639269828796
1772790045533296000,2.878296142578125,-1.433389663696289,-0.7041672468185425,-0.6234071254730225
1772790045543363000,2.888363037109375,-1.394290804862976,-0.6740034818649292,-0.6710561513900757
1772790045553429200,2.89842919921875,-1.3758670091629028,-0.6513820290565491,-0.7050713896751404
1772790045563496200,2.90849609375,-1.3258411884307861,-0.6230092644691467,-0.722815215587616
1772790045573562000,2.91856201171875,-1.2664263248443604,-0.5553601384162903,-0.6988840103149414
1772790045583629000,2.928629150390625,-1.2094581127166748,-0.46929931640625,-0.6455052495002747
1772790045593695200,2.9386953125,-1.1486080884933472,-0.4362063407897949,-0.5652564764022827
1772790045603762200,2.94876220703125,-1.1232092380523682,-0.39140796661376953,-0.47076883912086487
1772790045613828000,2.958828125,-1.1141682863235474,-0.3219980001449585,-0.3860582113265991
1772790045623895300,2.968895263671875,-1.120540738105774,-0.2267892062664032,-0.3048238158226013
1772790045633961200,2.978961181640625,-1.132799506187439,-0.12510065734386444,-0.2243337631225586
1772790045644028200,2.989028076171875,-1.141606330871582,-0.028687303885817528,-0.14705975353717804
1772790045654094300,2.99909423828125,-1.140173316001892,0.0902358889579773,-0.07903676480054855
1772790045664161300,3.009161376953125,-1.1302977800369263,0.19913920760154724,-0.02160462737083435
1772790045674227200,3.019227294921875,-1.1169949769973755,0.2470710426568985,0.031150994822382927
1772790045684294100,3.029294189453125,-1.0900624990463257,0.24290558695793152,0.07004593312740326
1772790045694360300,3.0393603515625,-1.0499504804611206,0.22690105438232422,0.09489934891462326
1772790045704427300,3.04942724609375,-1.0040351152420044,0.2119319587945938,0.11445280909538269
1772790045714493200,3.0594931640625,-0.956977367401123,0.20053762197494507,0.12768365442752838
1772790045724560400,3.069560302734375,-0.9058505296707153,0.18590249121189117,0.1337764412164688
1772790045734626300,3.079626220703125,-0.8440430760383606,0.16113589704036713,0.13750140368938446
1772790045744693200,3.089693359375,-0.7828202247619629,0.13189677894115448,0.1334906816482544
1772790045754759200,3.09975927734375,-0.7661781311035156,0.09715397655963898,0.1285707652568817
1772790045764826400,3.109826416015625,-0.8576390743255615,0.02948838286101818,0.10969400405883789
1772790045774892000,3.11989208984375,-0.9257632493972778,-0.04657069593667984,0.10390376299619675
1772790045784958200,3.129958251953125,-0.7977269887924194,-0.11865394562482834,0.14146685600280762
1772790045795025200,3.140025146484375,-0.605437695980072,-0.11316197365522385,0.16933630406856537
1772790045805091000,3.150091064453125,-0.5247290134429932,0.015606123954057693,0.1619849056005478
1772790045815158500,3.160158447265625,-0.5012479424476624,0.09342662245035172,0.1590770035982132
1772790045825224700,3.170224609375,-0.47395026683807373,0.09041964262723923,0.15323509275913239
1772790045835291600,3.180291748046875,-0.48646578192710876,0.10993076115846634,0.13097985088825226
1772790045845357600,3.190357666015625,-0.5292332172393799,0.10304409265518188,0.1221165880560875
1772790045855424800,3.2004248046875,-0.5753709077835083,0.06793910264968872,0.1405736207962036
1772790045865490700,3.21049072265625,-0.6157761216163635,0.048106543719768524,0.17991571128368378
1772790045875557600,3.2205576171875,-0.6610500812530518,0.048471663147211075,0.22829735279083252
1772790045885623800,3.230623779296875,-0.7258389592170715,0.08244746923446655,0.25449034571647644
1772790045895690800,3.240690673828125,-0.8006098866462708,0.12478587031364441,0.26601409912109375
1772790045905756700,3.250756591796875,-0.883459746837616,0.1544814556837082,0.26221856474876404
1772790045915823600,3.26082373046875,-0.9776970148086548,0.11638493090867996,0.2447386384010315
1772790045925889800,3.270889892578125,-1.0734333992004395,0.05741056054830551,0.2157389521598816
1772790045935956700,3.280956787109375,-1.1597049236297607,0.016207998618483543,0.1539112627506256
1772790045946022700,3.291022705078125,-1.2169064283370972,0.0402374342083931,0.043534159660339355
1772790045956089900,3.30108984375,-1.2249104976654053,0.13490721583366394,-0.11653726547956467
1772790045966155800,3.31115576171875,-1.1962003707885742,0.32818374037742615,-0.30775967240333557
1772790045976222700,3.32122265625,-1.1507396697998047,0.5476087927818298,-0.4402274489402771
1772790045986289000,3.331288818359375,-1.1310991048812866,0.6799087524414062,-0.44220244884490967
1772790045996355800,3.34135595703125,-1.1460990905761719,0.6691005825996399,-0.29918617010116577
1772790046006421800,3.351421875,-1.215732216835022,0.5354706048965454,-0.04446253925561905
1772790046016488700,3.36148876953125,-1.322497844696045,0.32430723309516907,0.2598100006580353
1772790046026554600,3.3715546875,-1.445171594619751,0.10755042731761932,0.5168412923812866
1772790046036621600,3.38162158203125,-1.5709494352340698,-0.05236760154366493,0.6560529470443726
1772790046046687500,3.3916875,-1.6907259225845337,-0.14975912868976593,0.6597214341163635
1772790046056754700,3.401754638671875,-1.7938424348831177,-0.19071562588214874,0.5523084402084351
1772790046066820600,3.411820556640625,-1.8846021890640259,-0.2228011190891266,0.42021140456199646
1772790046076887600,3.421887451171875,-1.940092921257019,-0.30722013115882874,0.337758868932724
1772790046086953700,3.43195361328125,-1.9748908281326294,-0.4129907786846161,0.3174240291118622
1772790046097020700,3.442020751953125,-2.0331454277038574,-0.5421061515808105,0.3443632423877716
1772790046107086600,3.452086669921875,-2.1090524196624756,-0.7163775563240051,0.4109952747821808
1772790046117153500,3.462153564453125,-2.0926356315612793,-0.9004855751991272,0.49874988198280334
1772790046127219700,3.4722197265625,-1.959823727607727,-1.033728837966919,0.533417820930481
1772790046137286700,3.48228662109375,-2.047696828842163,-1.0560581684112549,0.4916978180408478
1772790046147352600,3.4923525390625,-2.223188638687134,-0.9975849986076355,0.41508880257606506
1772790046157419800,3.502419677734375,-2.259310483932495,-0.928373396396637,0.28588101267814636
1772790046167485700,3.512485595703125,-2.2617955207824707,-0.7840061187744141,0.17355528473854065
1772790046177552600,3.522552734375,-2.2946832180023193,-0.5991920828819275,0.11334093660116196
1772790046187618800,3.532618896484375,-2.324612855911255,-0.4610357880592346,0.0497201532125473
1772790046197684700,3.542684814453125,-2.3470358848571777,-0.3184882402420044,0.005102616734802723
1772790046207751700,3.552751708984375,-2.3583641052246094,-0.2003469467163086,-0.01739816553890705
1772790046217817900,3.56281787109375,-2.381254196166992,-0.049861565232276917,0.006942328065633774
1772790046227884800,3.572884765625,-2.419349193572998,0.11207380890846252,0.08748430758714676
1772790046237950700,3.58295068359375,-2.465698003768921,0.22980576753616333,0.15206170082092285
1772790046248017700,3.593017578125,-2.4682562351226807,0.2105090320110321,0.17455609142780304
1772790046258083600,3.60308349609375,-2.441195487976074,0.21335116028785706,0.1075538918375969
1772790046268150500,3.613150634765625,-2.369192123413086,0.20807969570159912,-0.01227743923664093
1772790046278216700,3.623216796875,-2.2808027267456055,0.16080725193023682,-0.11899057030677795
1772790046288283600,3.63328369140625,-2.2097294330596924,0.0743703693151474,-0.18177379667758942
1772790046298349600,3.643349609375,-2.1685779094696045,-0.06241011619567871,-0.19362859427928925
1772790046308416500,3.65341650390625,-2.172879457473755,-0.19792373478412628,-0.17616410553455353
1772790046318482700,3.663482666015625,-2.2008895874023438,-0.31707143783569336,-0.16233351826667786
1772790046328549600,3.673549560546875,-2.2466533184051514,-0.42100635170936584,-0.1779225915670395
1772790046338615600,3.683615478515625,-2.285839080810547,-0.4990582764148712,-0.20648978650569916
1772790046348682800,3.693682861328125,-2.3089611530303955,-0.5526306629180908,-0.2446155995130539
1772790046358748700,3.703748779296875,-2.329547166824341,-0.5495843291282654,-0.2879079580307007
1772790046368815600,3.713815673828125,-2.3419172763824463,-0.5122643709182739,-0.3239559531211853
1772790046378881800,3.7238818359375,-2.3388264179229736,-0.47967207431793213,-0.32313066720962524
1772790046388948700,3.73394873046875,-2.3036022186279297,-0.4702521860599518,-0.27419453859329224
1772790046399014700,3.7440146484375,-2.259099245071411,-0.4887981712818146,-0.1921049952507019
1772790046409081600,3.75408154296875,-2.21511173248291,-0.4952845871448517,-0.11032544076442719
1772790046419147800,3.764147705078125,-2.157944440841675,-0.47195661067962646,-0.0497816726565361
1772790046429214700,3.774214599609375,-2.0902786254882812,-0.4532782733440399,0.004848551005125046
1772790046439280600,3.78428076171875,-2.0210909843444824,-0.4351722300052643,0.05651786923408508
1772790046449347800,3.794347900390625,-1.9683817625045776,-0.414905309677124,0.10161610692739487
1772790046459413800,3.804413818359375,-1.910746693611145,-0.3696826994419098,0.1223544105887413
1772790046469480700,3.814480712890625,-1.863688588142395,-0.2993989586830139,0.12634621560573578
1772790046479547000,3.824546875,-1.8180519342422485,-0.23089446127414703,0.11616122722625732
1772790046489613800,3.83461376953125,-1.7705004215240479,-0.18268485367298126,0.11192759871482849
1772790046499679700,3.8446796875,-1.7112517356872559,-0.17040954530239105,0.1083429828286171
1772790046509746700,3.85474658203125,-1.6485934257507324,-0.16431143879890442,0.08919299393892288
1772790046519812600,3.8648125,-1.6065521240234375,-0.1458038091659546,0.06130064278841019
1772790046529879600,3.874879638671875,-1.5806337594985962,-0.12235360592603683,0.03341015428304672
1772790046539945700,3.88494580078125,-1.5565273761749268,-0.10549154132604599,0.01764051243662834
1772790046550012700,3.8950126953125,-1.529700756072998,-0.0915277823805809,0.01275680772960186
1772790046560078600,3.90507861328125,-1.4958008527755737,-0.07846791297197342,0.011516307480633259
1772790046570145500,3.9151455078125,-1.45991051197052,-0.06875535845756531,0.02695758081972599
1772790046580211700,3.925211669921875,-1.4115365743637085,-0.05850352346897125,0.055740758776664734
1772790046590278700,3.935278564453125,-1.3755693435668945,-0.0538959875702858,0.0787065327167511
1772790046600344600,3.945344482421875,-1.3409737348556519,-0.07093515992164612,0.09504395723342896
1772790046610410800,3.95541064453125,-1.294635534286499,-0.10873207449913025,0.08896689116954803
1772790046620477700,3.965477783203125,-1.2478175163269043,-0.1334741711616516,0.06066681072115898
1772790046630543600,3.975543701171875,-1.2197480201721191,-0.13872618973255157,0.029980003833770752
1772790046640609800,3.98560986328125,-1.1980518102645874,-0.15246383845806122,0.003457315731793642
1772790046650675700,3.99567578125,-1.1731514930725098,-0.15178154408931732,-0.00433163158595562
1772790046660742700,4.00574267578125,-1.129438042640686,-0.13186243176460266,-0.003923634998500347
1772790046670808800,4.015808837890625,-1.0714908838272095,-0.11280910670757294,0.00003408846168895252
1772790046680875800,4.025875732421875,-1.0093146562576294,-0.07917151600122452,0.004175836686044931
1772790046690941700,4.035941650390625,-0.9854481816291809,-0.038657646626234055,0.01079672109335661
1772790046701009000,4.0460087890625,-0.9601055383682251,-0.00993092730641365,-0.0041185785084962845
1772790046711074600,4.056074462890625,-0.8992595076560974,0.101727694272995,-0.04730040207505226
1772790046721141500,4.0661416015625,-0.84408038854599,0.23883362114429474,-0.07576533406972885
1772790046731207700,4.076207763671875,-0.8039859533309937,0.3417442739009857,-0.09297122061252594
1772790046741274600,4.086274658203125,-0.7973490953445435,0.35794296860694885,-0.10224834084510803
1772790046751340500,4.096340576171875,-0.8271117806434631,0.28130465745925903,-0.10195699334144592
1772790046761407500,4.106407470703125,-0.8153637647628784,0.26685672998428345,-0.13650484383106232
1772790046771473700,4.1164736328125,-0.7451040148735046,0.2625192403793335,-0.20001192390918732
1772790046781540600,4.12654052734375,-0.6832637786865234,0.22756019234657288,-0.2547742426395416
1772790046791606800,4.136606689453125,-0.6400044560432434,0.12527962028980255,-0.286731094121933
1772790046801673700,4.146673828125,-0.6194611191749573,-0.04917021095752716,-0.31193819642066956
1772790046811739600,4.15673974609375,-0.6408425569534302,-0.2180716097354889,-0.31523358821868896
1772790046821803000,4.166802978515625,-0.683734118938446,-0.37568414211273193,-0.27979329228401184
1772790046831869200,4.176869140625,-0.7280914783477783,-0.5122792720794678,-0.20408016443252563
1772790046841936100,4.18693603515625,-0.7688881754875183,-0.6206419467926025,-0.09924669563770294
1772790046852002000,4.197001953125,-0.8077098727226257,-0.6990622282028198,0.02153272181749344
1772790046862069200,4.2070693359375,-0.8439240455627441,-0.7875654101371765,0.10693231225013733
1772790046872135200,4.21713525390625,-0.8546392917633057,-0.8214067816734314,0.15889137983322144
1772790046882202000,4.2272021484375,-0.8833923935890198,-0.7689299583435059,0.17763550579547882
1772790046892268300,4.237268310546875,-0.9170570969581604,-0.687254011631012,0.155746191740036
1772790046902335200,4.247335205078125,-0.9392223358154297,-0.5744379758834839,0.10695680975914001
1772790046912401200,4.257401123046875,-0.9528132677078247,-0.4261976480484009,0.059777047485113144
1772790046922468000,4.267468017578125,-0.9464222192764282,-0.2934923470020294,0.026705646887421608
1772790046932534300,4.2775341796875,-0.9260807037353516,-0.18640343844890594,0.007719971239566803
1772790046942601200,4.287601318359375,-0.9035208225250244,-0.09735798090696335,-0.025229988619685173
1772790046952667100,4.297667236328125,-0.8901925086975098,-0.050452254712581635,-0.049858901649713516
1772790046962734300,4.307734375,-0.8765549659729004,-0.04555470123887062,-0.05763666331768036
1772790046972800300,4.31780029296875,-0.8568369150161743,-0.06800594925880432,-0.025295769795775414
1772790046982867200,4.3278671875,-0.8358911871910095,-0.123143769800663,0.025078987702727318
1772790046992933400,4.337933349609375,-0.8329645991325378,-0.19684675335884094,0.08089324831962585
1772790047003000300,4.348000244140625,-0.8447030186653137,-0.28084099292755127,0.14708586037158966
1772790047013066200,4.358066162109375,-0.8620843887329102,-0.3726494610309601,0.2200993448495865
1772790047023133200,4.36813330078125,-0.8899511694908142,-0.4632802903652191,0.2829302251338959
1772790047033199000,4.37819921875,-0.9346813559532166,-0.49712029099464417,0.328569620847702
1772790047043266300,4.388266357421875,-0.9509567618370056,-0.4946630001068115,0.34436535835266113
1772790047053332000,4.39833203125,-0.9543395042419434,-0.4465010464191437,0.3420332372188568
1772790047063399200,4.408399169921875,-0.9610447883605957,-0.38869741559028625,0.3474101722240448
1772790047073465000,4.418465087890625,-0.9666150808334351,-0.34518295526504517,0.3382102847099304
1772790047083531300,4.42853125,-0.9777244329452515,-0.312619686126709,0.3154897689819336
1772790047093598200,4.43859814453125,-0.9752296209335327,-0.27247652411460876,0.2842003107070923
1772790047103664000,4.4486640625,-0.9623394012451172,-0.23075439035892487,0.23933428525924683
1772790047113731000,4.45873095703125,-0.9431398510932922,-0.17970770597457886,0.19554074108600616
1772790047123797200,4.46879736328125,-0.9227538704872131,-0.15706045925617218,0.15444709360599518
1772790047133864200,4.4788642578125,-0.9052435755729675,-0.16560468077659607,0.11410686373710632
1772790047143930000,4.48893017578125,-0.8953227996826172,-0.20020712912082672,0.06936655938625336
1772790047153997000,4.4989970703125,-0.8899503946304321,-0.23555819690227509,0.01926397532224655
1772790047164063200,4.509063232421875,-0.8728973865509033,-0.2461618334054947,-0.02129809744656086
1772790047174130200,4.519130126953125,-0.8348967432975769,-0.23917770385742188,-0.027162911370396614
1772790047184196400,4.5291962890625,-0.7985182404518127,-0.26095861196517944,0.010464625433087349
1772790047194263300,4.53926318359375,-0.7904344797134399,-0.3337644040584564,0.06984379887580872
1772790047204329200,4.5493291015625,-0.8062200546264648,-0.4349519908428192,0.12542876601219177
1772790047214396200,4.559396240234375,-0.841832160949707,-0.5809019804000854,0.153638556599617
1772790047224462300,4.56946240234375,-0.8869796395301819,-0.7537100315093994,0.1497679203748703
1772790047234529300,4.579529296875,-0.9062918424606323,-0.8550645709037781,0.11051825433969498
1772790047244595200,4.58959521484375,-0.8898175358772278,-0.8483105301856995,0.03804059326648712
1772790047254662400,4.599662353515625,-0.8593893051147461,-0.7692024111747742,-0.03827095776796341
1772790047264728000,4.60972802734375,-0.828320324420929,-0.6385927200317383,-0.10608355700969696
1772790047274795300,4.619795166015625,-0.8055998086929321,-0.5003951787948608,-0.14702460169792175
1772790047284861200,4.629861083984375,-0.7912153005599976,-0.35134151577949524,-0.193611279129982
1772790047294928100,4.63992822265625,-0.7858612537384033,-0.17764988541603088,-0.22860680520534515
1772790047304994000,4.649994140625,-0.8083522319793701,-0.033730000257492065,-0.2421407252550125
1772790047315061000,4.66006103515625,-0.9299830198287964,-0.02720818482339382,-0.3065474033355713
1772790047325127200,4.670127197265625,-1.0421444177627563,-0.07045499235391617,-0.3358999788761139
1772790047335194000,4.680194091796875,-1.0450071096420288,-0.0720512866973877,-0.28912049531936646
1772790047345260000,4.690260009765625,-0.9171473979949951,-0.08282644301652908,-0.23991964757442474
1772790047355327200,4.7003271484375,-0.8177358508110046,0.014011156745254993,-0.2269974648952484
1772790047365393200,4.71039306640625,-0.7777101397514343,0.1112319827079773,-0.23765410482883453
1772790047375460000,4.720460205078125,-0.7474052309989929,0.1404961347579956,-0.25183650851249695
1772790047385526300,4.7305263671875,-0.7253595590591431,0.17437393963336945,-0.26181429624557495
1772790047395593200,4.74059326171875,-0.6970126628875732,0.22920335829257965,-0.24536103010177612
1772790047405659100,4.7506591796875,-0.6409504413604736,0.25930026173591614,-0.18590249121189117
1772790047415726000,4.76072607421875,-0.5785962343215942,0.27182137966156006,-0.09059914201498032
1772790047425792300,4.770792236328125,-0.5353497266769409,0.28666186332702637,0.02413756027817726
1772790047435859200,4.780859130859375,-0.5182508826255798,0.28585705161094666,0.10809823870658875
1772790047445925000,4.790925048828125,-0.5265170931816101,0.29497092962265015,0.1858111470937729
1772790047455992300,4.800992431640625,-0.5310774445533752,0.2760566174983978,0.2428821474313736
1772790047466058200,4.811058349609375,-0.5171824097633362,0.22314786911010742,0.2680186629295349
1772790047476124200,4.821124267578125,-0.49497538805007935,0.18225635588169098,0.2727503180503845
1772790047486191400,4.83119140625,-0.4659229516983032,0.1496930867433548,0.26691317558288574
1772790047496257000,4.841257080078125,-0.435002863407135,0.10328031331300735,0.25291961431503296
1772790047506324200,4.85132421875,-0.40365904569625854,0.06420375406742096,0.23712733387947083
1772790047516390100,4.86139013671875,-0.37570756673812866,0.03881104663014412,0.20252594351768494
1772790047526457000,4.87145703125,-0.3406420052051544,0.045633263885974884,0.16446085274219513
1772790047536523000,4.88152294921875,-0.2974812090396881,0.07279510796070099,0.1509772688150406
1772790047546590200,4.891590087890625,-0.25363707542419434,0.09577898681163788,0.1630730777978897
1772790047556656000,4.90165625,-0.207339346408844,0.102698415517807,0.20557579398155212
1772790047566723000,4.91172314453125,-0.1698063462972641,0.09752975404262543,0.273281067609787
1772790047576789200,4.921789306640625,-0.13123871386051178,0.12375149875879288,0.3819439113140106
1772790047586856200,4.931856201171875,-0.0754324421286583,0.0892752856016159,0.5202152132987976
1772790047596922000,4.941922119140625,-0.021624336019158363,0.04283002018928528,0.641076385974884
1772790047606989000,4.951989013671875,0.01125212199985981,0.03397820517420769,0.7233366370201111
1772790047617055200,4.96205517578125,0.03109986148774624,0.01070857048034668,0.7579015493392944
1772790047627122200,4.9721220703125,0.048047687858343124,-0.0158894844353199,0.7563486695289612
1772790047637188000,4.98218798828125,0.062128882855176926,-0.030587203800678253,0.7288160920143127
1772790047647255300,4.99225537109375,0.05826304107904434,-0.056535981595516205,0.6750825643539429
1772790047657321200,5.0023212890625,0.039977509528398514,-0.0646442398428917,0.6104596257209778
1772790047667388200,5.01238818359375,0.006945523899048567,-0.08190418779850006,0.5413407683372498
1772790047677454300,5.022454345703125,-0.034991540014743805,-0.17729328572750092,0.45535901188850403
1772790047687521300,5.032521240234375,-0.10205606371164322,-0.3706137537956238,0.3217703104019165
1772790047697587200,5.042587158203125,-0.19529545307159424,-0.6096801161766052,0.15161588788032532
1772790047707654100,5.052654052734375,-0.3139427602291107,-0.8825188279151917,-0.04988659918308258
1772790047717720300,5.06272021484375,-0.42596009373664856,-1.1770668029785156,-0.2855984568595886
1772790047727787300,5.072787353515625,-0.506354033946991,-1.4019654989242554,-0.549315333366394
1772790047737853200,5.082853271484375,-0.35309839248657227,-1.3541569709777832,-0.8266140222549438
1772790047747920400,5.09292041015625,-0.21908041834831238,-1.3356647491455078,-1.0302484035491943
1772790047757986000,5.102986083984375,-0.3115648031234741,-1.1268987655639648,-1.321921467781067
1772790047768053200,5.11305322265625,-0.4574671685695648,-0.5205145478248596,-1.7356637716293335
1772790047778119200,5.123119140625,-0.49506592750549316,-0.016218384727835655,-1.9823471307754517
1772790047788186000,5.13318603515625,-0.446211576461792,0.24228933453559875,-1.9475451707839966
1772790047798252000,5.143251953125,-0.419236958026886,0.35424861311912537,-1.6982027292251587
1772790047808319000,5.153319091796875,-0.44191882014274597,0.3412076532840729,-1.3407505750656128
1772790047818385200,5.16338525390625,-0.4970100522041321,0.22512206435203552,-0.9562183618545532
1772790047828451600,5.17345166015625,-0.5799291729927063,0.03711114823818207,-0.5966229438781738
1772790047838517800,5.183517822265625,-0.6837013363838196,-0.18344493210315704,-0.28264713287353516
1772790047848583700,5.193583740234375,-0.7985233068466187,-0.38931313157081604,-0.033792585134506226
1772790047858650600,5.203650634765625,-0.9175468683242798,-0.5199041962623596,0.13965190947055817
1772790047868716800,5.213716796875,-1.0457072257995605,-0.5635760426521301,0.22479049861431122
1772790047878783700,5.22378369140625,-1.1669635772705078,-0.5838983058929443,0.2386205643415451
1772790047888849700,5.233849609375,-1.267790675163269,-0.6067607402801514,0.2081523984670639
1772790047898916600,5.24391650390625,-1.3321703672409058,-0.6405307054519653,0.1761196404695511
1772790047908982800,5.253982666015625,-1.3620673418045044,-0.7101337909698486,0.16140113770961761
1772790047919049700,5.2640498046875,-1.3656748533248901,-0.7918462157249451,0.172393336892128
1772790047929115600,5.27411572265625,-1.3558238744735718,-0.7850272059440613,0.19727498292922974
1772790047939182800,5.284182861328125,-1.3150596618652344,-0.6712209582328796,0.2461376041173935
1772790047949248800,5.294248779296875,-1.237978458404541,-0.5026282668113708,0.30801400542259216
1772790047959315700,5.304315673828125,-1.1349340677261353,-0.2724088728427887,0.3770865499973297
1772790047969381600,5.314381591796875,-1.0340790748596191,-0.025544773787260056,0.443520188331604
1772790047979448800,5.32444873046875,-0.9430466294288635,0.21242916584014893,0.49946439266204834
1772790047989514500,5.334514404296875,-0.881511926651001,0.4670571982860565,0.5413333177566528
1772790047999581700,5.344581787109375,-0.8475233316421509,0.6540286540985107,0.576659619808197
1772790048009647600,5.354647705078125,-0.8597900867462158,0.7473050951957703,0.6086170077323914
1772790048019714600,5.364714599609375,-0.9233706593513489,0.8015627264976501,0.630167543888092
1772790048029780700,5.37478076171875,-1.0025811195373535,0.8556742072105408,0.6404809355735779
1772790048039847700,5.38484765625,-1.052915334701538,0.9018808007240295,0.643395721912384
1772790048049913600,5.39491357421875,-1.0616930723190308,0.9199093580245972,0.6493287086486816
1772790048059980500,5.40498046875,-1.0381361246109009,0.8949518203735352,0.6615055203437805
1772790048070046700,5.415046630859375,-1.0040580034255981,0.7863193154335022,0.6936432123184204
1772790048080113700,5.42511376953125,-0.9403004050254822,0.5962756276130676,0.7215981483459473
1772790048090179600,5.4351796875,-0.859478235244751,0.3561791479587555,0.7359493970870972
1772790048100246800,5.445246826171875,-0.7696913480758667,0.097506582736969,0.703245222568512
1772790048110312700,5.455312744140625,-0.6735858917236328,-0.15460288524627686,0.6121225357055664
1772790048120379600,5.465379638671875,-0.5852181911468506,-0.3663193881511688,0.46892645955085754
1772790048130445800,5.47544580078125,-0.5069739818572998,-0.520995557308197,0.2938966155052185
1772790048140512800,5.4855126953125,-0.44001200795173645,-0.5872927904129028,0.12679123878479004
1772790048150578700,5.49557861328125,-0.38596421480178833,-0.5762050151824951,0.025245701894164085
1772790048160645600,5.505645751953125,-0.32749292254447937,-0.605434238910675,0.029087310656905174
1772790048170711800,5.5157119140625,-0.2700338661670685,-0.6622437238693237,0.11233053356409073
1772790048180778800,5.52577880859375,-0.22668960690498352,-0.701897919178009,0.2285306453704834
1772790048190844700,5.5358447265625,-0.2007884979248047,-0.715648353099823,0.35285553336143494
1772790048200910600,5.54591064453125,-0.17336753010749817,-0.6974582076072693,0.4581824839115143
1772790048210977800,5.555977783203125,-0.13558392226696014,-0.6267291307449341,0.5289538502693176
1772790048221043700,5.566043701171875,-0.08137554675340652,-0.4795868396759033,0.5737370252609253
1772790048231110700,5.576110595703125,-0.019473299384117126,-0.2832666039466858,0.5924034118652344
1772790048241176600,5.586176513671875,0.05429093539714813,-0.07508649677038193,0.6068547964096069
1772790048251243500,5.596243408203125,0.13791152834892273,0.09759420156478882,0.5935245752334595
1772790048261309700,5.606309814453125,0.23822800815105438,0.24313382804393768,0.532442569732666
1772790048271376600,5.616376708984375,0.36823156476020813,0.3694283664226532,0.43738773465156555
1772790048281442600,5.626442626953125,0.5218591690063477,0.4295596182346344,0.3158852458000183
1772790048291509500,5.636509521484375,0.6640405654907227,0.46908706426620483,0.1978963017463684
1772790048301575700,5.64657568359375,0.768023669719696,0.49282753467559814,0.1046832725405693
1772790048311642600,5.656642578125,0.8392142653465271,0.5053694248199463,0.043661728501319885
1772790048321708800,5.666708740234375,0.8835635781288147,0.4881821870803833,-0.009014001116156578
1772790048331775700,5.676775634765625,0.9256191849708557,0.4382828176021576,-0.07342415302991867
1772790048341841700,5.686841552734375,0.9776450991630554,0.39581099152565,-0.14974315464496613
1772790048351908600,5.69690869140625,1.0395393371582031,0.3574332296848297,-0.23230060935020447
1772790048361974800,5.706974853515625,1.1192948818206787,0.376987487077713,-0.31875482201576233
1772790048372041700,5.717041748046875,1.2191405296325684,0.45067155361175537,-0.38615354895591736
1772790048382107600,5.727107666015625,1.3164260387420654,0.49209463596343994,-0.4089275896549225
1772790048392174800,5.7371748046875,1.4079126119613647,0.5096486210823059,-0.40010586380958557
1772790048402240800,5.74724072265625,1.4832313060760498,0.5549409985542297,-0.37162095308303833
1772790048412307700,5.7573076171875,1.5288941860198975,0.6167414784431458,-0.31160956621170044
1772790048422374000,5.767373779296875,1.5449907779693604,0.6646040678024292,-0.2216532975435257
1772790048432440800,5.77744091796875,1.5318273305892944,0.6970733404159546,-0.1289883404970169
1772790048442506800,5.7875068359375,1.4971269369125366,0.7103230953216553,-0.05796503275632858
1772790048452573700,5.79757373046875,1.475821614265442,0.745460569858551,-0.026323748752474785
1772790048462639600,5.8076396484375,1.4924825429916382,0.8004943132400513,-0.028929652646183968
1772790048472706800,5.817706787109375,1.5456984043121338,0.8633946776390076,-0.04928525909781456
1772790048482772500,5.8277724609375,1.612255573272705,0.9442147016525269,-0.07731422781944275
1772790048492839700,5.837839599609375,1.6663880348205566,1.0211113691329956,-0.10470297932624817
1772790048502905600,5.847905517578125,1.6918476819992065,1.106321096420288,-0.13140569627285004
1772790048512972500,5.85797265625,1.696592092514038,1.2209904193878174,-0.14961744844913483
1772790048523038700,5.868038818359375,1.6798173189163208,1.3124377727508545,-0.1487942785024643
1772790048533104600,5.878104736328125,1.6459931135177612,1.3607949018478394,-0.1298980712890625
1772790048543171600,5.888171630859375,1.58931303024292,1.3429999351501465,-0.0923624187707901
1772790048553237800,5.89823779296875,1.535460114479065,1.2444297075271606,-0.051785167306661606
1772790048563304700,5.9083046875,1.5005807876586914,1.0853513479232788,-0.0027571707032620907
1772790048573370600,5.91837060546875,1.5115678310394287,0.9456884860992432,0.039618782699108124
1772790048583437600,5.9284375,1.5600464344024658,0.8456726670265198,0.10821089148521423
1772790048593503700,5.938503662109375,1.6374081373214722,0.7266799807548523,0.20881259441375732
1772790048603570700,5.94857080078125,1.6920015811920166,0.5436992645263672,0.34511053562164307
1772790048613636600,5.95863671875,1.6852443218231201,0.3019167184829712,0.5141658782958984
1772790048623703800,5.968703857421875,1.6052539348602295,0.051111653447151184,0.7167842388153076
1772790048633769700,5.978769775390625,1.4890681505203247,-0.1391935795545578,0.9161385893821716
1772790048643836700,5.988836669921875,1.3583322763442993,-0.20836439728736877,1.0605356693267822
1772790048653902800,5.99890283203125,1.2150547504425049,-0.14588584005832672,1.1541095972061157
1772790048663969800,6.0089697265625,1.0835845470428467,0.009798568673431873,1.1863189935684204
1772790048674035700,6.01903564453125,0.9789636135101318,0.257399320602417,1.1620311737060547
1772790048684102700,6.0291025390625,0.9248743057250977,0.5550211668014526,1.087600588798523
1772790048694168600,6.03916845703125,0.882787823677063,0.8151408433914185,0.9426681995391846
1772790048704235800,6.04923583984375,0.9850630760192871,0.8601376414299011,0.7663539052009583
1772790048714301700,6.0593017578125,1.0930798053741455,0.9369112253189087,0.5984256267547607
1772790048724368600,6.06936865234375,1.0679877996444702,1.0952497720718384,0.4125652015209198
1772790048734434600,6.0794345703125,1.0643559694290161,1.1484391689300537,0.20766238868236542
1772790048744501500,6.08950146484375,1.128541350364685,1.1110785007476807,0.004178499802947044
1772790048754567700,6.099567626953125,1.1959049701690674,1.1141091585159302,-0.19239607453346252
1772790048764634600,6.109634521484375,1.2528396844863892,1.1084880828857422,-0.3824025094509125
1772790048774700500,6.119700439453125,1.2985820770263672,1.0167211294174194,-0.6042051911354065
1772790048784767700,6.129767822265625,1.321141242980957,0.7884504199028015,-0.7589266300201416
1772790048794833700,6.139833740234375,1.3229057788848877,0.5728528499603271,-0.8468934893608093
1772790048804900600,6.149900634765625,1.3430882692337036,0.3483089804649353,-0.8728430271148682
1772790048814966800,6.159966796875,1.3633347749710083,0.13429228961467743,-0.8562475442886353
1772790048825037600,6.17003759765625,1.3524551391601562,-0.034685276448726654,-0.8090965747833252
1772790048835103500,6.180103515625,1.3150588274002075,-0.20403888821601868,-0.7224854826927185
1772790048845169700,6.190169677734375,1.2516987323760986,-0.35786598920822144,-0.619635283946991
1772790048855236600,6.200236572265625,1.1675540208816528,-0.45550546050071716,-0.5179603099822998
1772790048865302300,6.21030224609375,1.0549238920211792,-0.47679850459098816,-0.4263438582420349
1772790048875369500,6.220369384765625,0.9398127794265747,-0.43159639835357666,-0.33260378241539
1772790048885435400,6.230435302734375,0.8354676961898804,-0.342650830745697,-0.24880263209342957
1772790048895502300,6.24050244140625,0.7650822401046753,-0.23650974035263062,-0.19572342932224274
1772790048905568300,6.250568359375,0.7233395576477051,-0.1307162046432495,-0.1574641913175583
1772790048915635500,6.260635498046875,0.7060120105743408,-0.048948634415864944,-0.14809279143810272
1772790048925701400,6.270701416015625,0.7136536836624146,0.02581055834889412,-0.16142244637012482
1772790048935768300,6.280768310546875,0.7355049252510071,0.08948567509651184,-0.194151371717453
1772790048945834500,6.29083447265625,0.7621972560882568,0.14603710174560547,-0.23130112886428833
1772790048955901400,6.3009013671875,0.7943807244300842,0.18849614262580872,-0.2688807249069214
1772790048965967400,6.31096728515625,0.8120028972625732,0.22696949541568756,-0.3109317719936371
1772790048976034300,6.321034423828125,0.8201897144317627,0.23509986698627472,-0.35209280252456665
1772790048986100500,6.3311005859375,0.8141450881958008,0.2119886875152588,-0.3932655453681946
1772790048996167400,6.34116748046875,0.7980090379714966,0.17831620573997498,-0.4189314842224121
1772790049006233300,6.3512333984375,0.7552074790000916,0.12455844134092331,-0.41821083426475525
1772790049016300500,6.361300537109375,0.7058157324790955,0.06113525852560997,-0.4034409523010254
1772790049026366500,6.371366455078125,0.6433624625205994,0.012938967905938625,-0.38580068945884705
1772790049036433400,6.381433349609375,0.5707859992980957,-0.004789695143699646,-0.3689335584640503
1772790049046499600,6.39149951171875,0.5025382041931152,-0.011513377539813519,-0.3530366122722626
1772790049056566500,6.40156640625,0.43786177039146423,0.00247567449696362,-0.3368126451969147
1772790049066632400,6.411632568359375,0.3778682053089142,0.02622760832309723,-0.3224848508834839
1772790049076699400,6.421699462890625,0.3241375982761383,0.0663641095161438,-0.29164889454841614
1772790049086765600,6.431765625,0.2856104373931885,0.09230063855648041,-0.2300957888364792
1772790049096832500,6.44183251953125,0.2564972937107086,0.09580988436937332,-0.1515788733959198
1772790049106898400,6.4518984375,0.23465459048748016,0.09100287407636642,-0.06963340938091278
1772790049116965600,6.461965576171875,0.20961101353168488,0.09063802659511566,-0.0031784826423972845
1772790049127031300,6.47203125,0.18553896248340607,0.10238496214151382,0.03081090934574604
1772790049137097500,6.482097412109375,0.16152125597000122,0.12292139232158661,0.04189152270555496
1772790049147164400,6.492164306640625,0.1373986005783081,0.11292096227407455,0.0400073379278183
1772790049157230300,6.502230224609375,0.13046853244304657,0.06856414675712585,0.03760170191526413
1772790049167297300,6.51229736328125,0.12937423586845398,-0.01161697506904602,0.04925995692610741
1772790049177363500,6.522363525390625,0.12221938371658325,-0.09249451011419296,0.0713341012597084
1772790049187430400,6.532430419921875,0.11158645153045654,-0.15313228964805603,0.10112954676151276
1772790049197496300,6.542496337890625,0.10600686073303223,-0.17781314253807068,0.13172180950641632
1772790049207563500,6.5525634765625,0.0976429358124733,-0.21011435985565186,0.1524939388036728
1772790049217629400,6.56262939453125,0.08055023849010468,-0.22887764871120453,0.16523343324661255
1772790049227696400,6.5726962890625,0.06554066389799118,-0.21850357949733734,0.17047347128391266
1772790049237762600,6.582762451171875,0.05041816458106041,-0.2090757191181183,0.16910646855831146
1772790049247829500,6.59282958984375,0.027714718133211136,-0.20640963315963745,0.16281262040138245
1772790049257895400,6.6028955078125,0.008961536921560764,-0.20405593514442444,0.15059217810630798
1772790049267962400,6.61296240234375,-0.0021904499735683203,-0.21457062661647797,0.13509683310985565
1772790049278028500,6.623028564453125,-0.0010066748363897204,-0.23731482028961182,0.10208535194396973
1772790049288095500,6.633095458984375,-0.0009257147903554142,-0.22471274435520172,0.04868844151496887
1772790049298161400,6.643161376953125,0.0049582733772695065,-0.16041497886180878,-0.030006900429725647
1772790049308228600,6.653228515625,0.028440162539482117,-0.046180810779333115,-0.11098244041204453
1772790049318294500,6.66329443359375,0.08440116792917252,0.08263842016458511,-0.1844784915447235
1772790049328361500,6.673361572265625,0.14322853088378906,0.20319412648677826,-0.22914902865886688
1772790049338427600,6.683427734375,0.1731310337781906,0.2709212303161621,-0.2177421748638153
1772790049348494600,6.69349462890625,0.18143130838871002,0.2954050302505493,-0.14542298018932343
1772790049358560300,6.703560302734375,0.17869757115840912,0.28538328409194946,-0.02828516811132431
1772790049368627500,6.71362744140625,0.16705955564975739,0.2426009178161621,0.10938428342342377
1772790049378693400,6.723693359375,0.14162318408489227,0.17573347687721252,0.23548069596290588
1772790049388760300,6.73376025390625,0.11712715774774551,0.08296332508325577,0.33393269777297974
1772790049398826200,6.743826171875,0.09659019112586975,-0.03756095841526985,0.41107913851737976
1772790049408893400,6.7538935546875,0.08792612701654434,-0.17318056523799896,0.46086108684539795
1772790049418959400,6.76395947265625,0.0887245461344719,-0.3019617199897766,0.4982297718524933
1772790049429025500,6.774025634765625,0.08017073571681976,-0.41742414236068726,0.5143469572067261
1772790049439092500,6.784092529296875,0.05608803778886795,-0.5300055146217346,0.5010212659835815
1772790049449158400,6.794158447265625,0.03429032862186432,-0.6411797404289246,0.47041836380958557
1772790049459225300,6.804225341796875,0.006054163910448551,-0.6991013288497925,0.4270589053630829
1772790049469291500,6.81429150390625,-0.016113456338644028,-0.6989389061927795,0.40835341811180115
1772790049479358500,6.8243583984375,-0.03845364972949028,-0.633906900882721,0.4171343743801117
1772790049489424400,6.83442431640625,-0.0640261173248291,-0.5234571099281311,0.4408399760723114
1772790049499491300,6.8444912109375,-0.088055819272995,-0.3911406099796295,0.4674771726131439
1772790049509557500,6.8545576171875,-0.11443869769573212,-0.2457762062549591,0.48481887578964233
1772790049519624400,6.86462451171875,-0.13207468390464783,-0.12979288399219513,0.500074565410614
1772790049529690600,6.874690673828125,-0.1362137645483017,-0.03640327975153923,0.49547338485717773
1772790049539757600,6.884757568359375,-0.13038356602191925,0.06534518301486969,0.47371482849121094
1772790049549823500,6.894823486328125,-0.12233363837003708,0.14360563457012177,0.4531829357147217
1772790049559890400,6.904890380859375,-0.11431591957807541,0.1991298794746399,0.42373767495155334
1772790049569956600,6.91495654296875,-0.10041608661413193,0.23624636232852936,0.38333940505981445
1772790049580023600,6.9250234375,-0.07374825328588486,0.26821866631507874,0.33581873774528503
1772790049590089200,6.935089111328125,-0.020555341616272926,0.30948567390441895,0.27957651019096375
1772790049600156700,6.94515673828125,0.06354302167892456,0.35806599259376526,0.2022702842950821
1772790049610222300,6.955222412109375,0.1732008159160614,0.3971492350101471,0.11608106642961502
1772790049620289300,6.965289306640625,0.3040379285812378,0.431908518075943,0.02665158361196518
1772790049630355500,6.97535546875,0.4415228068828583,0.45203670859336853,-0.052623264491558075
1772790049640422400,6.98542236328125,0.57404625415802,0.4494153559207916,-0.11114196479320526
1772790049650488300,6.99548828125,0.6924740672111511,0.41548722982406616,-0.1288277506828308
1772790049660555300,7.00555517578125,0.7939985990524292,0.34103161096572876,-0.09029047936201096
1772790049670621400,7.015621337890625,0.8780474066734314,0.23335842788219452,-0.009615609422326088
1772790049680688400,7.0256884765625,0.9348142743110657,0.0876302495598793,0.09737955033779144
1772790049690754300,7.03575439453125,0.9815593957901001,-0.044554684311151505,0.18661515414714813
1772790049700820500,7.045820556640625,1.0129127502441406,-0.11600543558597565,0.24891501665115356
1772790049710887400,7.055887451171875,1.0499887466430664,-0.13979651033878326,0.27755624055862427
1772790049720953300,7.065953369140625,1.1014841794967651,-0.1263241171836853,0.3000788688659668
1772790049731020500,7.0760205078125,1.172239899635315,-0.09882910549640656,0.32257723808288574
1772790049741086500,7.08608642578125,1.2523301839828491,-0.04879656806588173,0.3476109504699707
1772790049751153400,7.0961533203125,1.3449010848999023,0.03676547110080719,0.375567764043808
1772790049761219600,7.106219482421875,1.4474767446517944,0.16549575328826904,0.39173662662506104
1772790049771286500,7.11628662109375,1.554958462715149,0.31813377141952515,0.39855509996414185
1772790049781352400,7.1263525390625,1.6557471752166748,0.46899837255477905,0.3983476459980011
1772790049791419400,7.13641943359375,1.7514801025390625,0.5817728638648987,0.4081834852695465
1772790049801485600,7.146485595703125,1.8552911281585693,0.6672770977020264,0.41499826312065125
1772790049811552500,7.156552490234375,1.963274359703064,0.7336941957473755,0.40919363498687744
1772790049821614800,7.16661474609375,2.0630695819854736,0.7839674949645996,0.3791063129901886
1772790049831681800,7.176681884765625,2.1391594409942627,0.8408100008964539,0.3280729353427887
1772790049841747700,7.186747802734375,2.2018418312072754,0.888016939163208,0.2598166763782501
1772790049851814700,7.196814697265625,2.2476959228515625,0.9147052764892578,0.20354779064655304
1772790049861880800,7.206880859375,2.290736675262451,0.9283614158630371,0.16594183444976807
1772790049871947800,7.21694775390625,2.328693389892578,0.9306512475013733,0.14765231311321259
1772790049882013700,7.227013671875,2.3644447326660156,0.9192366600036621,0.1461809128522873
1772790049892081000,7.237080810546875,2.3900938034057617,0.9022568464279175,0.14085139334201813
1772790049902146800,7.247146728515625,2.409331798553467,0.8949699401855469,0.11966781318187714
1772790049912213800,7.2572138671875,2.4254343509674072,0.8960375785827637,0.07829320430755615
1772790049922280000,7.267280029296875,2.436734676361084,0.9070391058921814,0.012529906816780567
1772790049932347000,7.277346923828125,2.450556993484497,0.9176121354103088,-0.061744324862957
1772790049942412800,7.287412841796875,2.4738383293151855,0.916037380695343,-0.12982749938964844
1772790049952479000,7.29747900390625,2.4983103275299072,0.8802671432495117,-0.18378980457782745
1772790049962546000,7.3075458984375,2.508249521255493,0.8398227691650391,-0.24606330692768097
1772790049972611800,7.31761181640625,2.497466564178467,0.7943607568740845,-0.31430867314338684
1772790049982678800,7.3276787109375,2.4670374393463135,0.7667919993400574,-0.37372273206710815
1772790049992745000,7.337744873046875,2.4299886226654053,0.7391883134841919,-0.40452805161476135
1772790050002812000,7.34781201171875,2.382321834564209,0.709062933921814,-0.3967097997665405
1772790050012877800,7.3578779296875,2.3322222232818604,0.6854649186134338,-0.3401365280151367
1772790050022945000,7.367945068359375,2.2989962100982666,0.6567879915237427,-0.26284360885620117
1772790050033010700,7.3780107421875,2.2691140174865723,0.6290034651756287,-0.1772077977657318
1772790050043077600,7.38807763671875,2.254598617553711,0.6204012036323547,-0.11468317359685898
1772790050053143800,7.398143798828125,2.2455832958221436,0.6345404982566833,-0.08208022266626358
1772790050063210800,7.408210693359375,2.2453646659851074,0.6822797656059265,-0.0702400729060173
1772790050073276700,7.418276611328125,2.2508602142333984,0.7422352433204651,-0.06512494385242462
1772790050083344000,7.42834375,2.2566215991973877,0.775496780872345,-0.04113411903381348
1772790050093409800,7.438409912109375,2.2569046020507812,0.779006838798523,-0.004747084807604551
1772790050103476700,7.448476806640625,2.251483678817749,0.77496337890625,0.03298165276646614
1772790050113543000,7.45854296875,2.238072395324707,0.767500102519989,0.07183637470006943
1772790050123609900,7.46860986328125,2.2283058166503906,0.7690609693527222,0.10013405978679657
1772790050133675800,7.47867578125,2.2246856689453125,0.7850127816200256,0.10313277691602707
1772790050143742700,7.48874267578125,2.2279958724975586,0.7948233485221863,0.08655060082674026
1772790050153809000,7.498808837890625,2.2407968044281006,0.7856668829917908,0.051894355565309525
1772790050163875800,7.508875732421875,2.25451397895813,0.7628329396247864,-0.019941484555602074
1772790050173941800,7.518941650390625,2.2573063373565674,0.7527656555175781,-0.13238146901130676
1772790050184009000,7.529009033203125,2.255711078643799,0.749346137046814,-0.2615834176540375
1772790050194075000,7.539074951171875,2.2577433586120605,0.7374082803726196,-0.3980003595352173
1772790050204140800,7.549140869140625,2.258037567138672,0.7262128591537476,-0.5221723914146423
1772790050214208000,7.5592080078125,2.2526283264160156,0.7000126838684082,-0.6019535064697266
1772790050224274000,7.56927392578125,2.243769884109497,0.6562300324440002,-0.6336898803710938
1772790050234340900,7.5793408203125,2.2161200046539307,0.6070225834846497,-0.6191253066062927
1772790050244406800,7.58940673828125,2.168917179107666,0.5601823329925537,-0.5733420848846436
1772790050254474000,7.599473876953125,2.1111912727355957,0.5220879316329956,-0.4950433075428009
1772790050264539600,7.60953955078125,2.0502541065216064,0.5032391548156738,-0.3971204459667206
1772790050274606600,7.619606689453125,1.986221432685852,0.4975418746471405,-0.2784998118877411
1772790050284672800,7.6296728515625,1.9294748306274414,0.5242195725440979,-0.15919071435928345
1772790050294739700,7.63973974609375,1.8780492544174194,0.5572821497917175,-0.05047515779733658
1772790050304805600,7.6498056640625,1.836011528968811,0.5966554284095764,0.03274276480078697
1772790050314872800,7.659872802734375,1.7931915521621704,0.6346629858016968,0.0825076624751091
1772790050324938800,7.669938720703125,1.7497942447662354,0.6719030141830444,0.08860044181346893
1772790050335005700,7.680005615234375,1.6979905366897583,0.7037459015846252,0.07506119459867477
1772790050345071900,7.69007177734375,1.643477439880371,0.7588610649108887,0.029087044298648834
1772790050355138800,7.700138916015625,1.5841866731643677,0.8088294267654419,-0.008187356404960155
1772790050365204700,7.710204833984375,1.5183690786361694,0.8122689127922058,-0.033540382981300354
1772790050375271700,7.720271728515625,1.4574825763702393,0.7900014519691467,-0.056651029735803604
1772790050385337900,7.730337890625,1.4052414894104004,0.7832514047622681,-0.08770907670259476
1772790050395404800,7.74040478515625,1.3681100606918335,0.7859686017036438,-0.1156855896115303
1772790050405471000,7.750470947265625,1.348663330078125,0.8016250729560852,-0.13823457062244415
1772790050415538000,7.760537841796875,1.3622236251831055,0.8454042077064514,-0.16598577797412872
1772790050425603800,7.770603759765625,1.393565058708191,0.9213325381278992,-0.20252647995948792
1772790050435670000,7.780669921875,1.4508856534957886,1.012654423713684,-0.25479739904403687
1772790050445737000,7.790737060546875,1.5228208303451538,1.064344048500061,-0.3108135461807251
1772790050455803000,7.800802978515625,1.5809658765792847,1.0578770637512207,-0.3620338439941406
1772790050465869800,7.810869873046875,1.6283518075942993,1.0080008506774902,-0.3896833062171936
1772790050475935700,7.820935791015625,1.6601970195770264,0.9141207337379456,-0.38400837779045105
1772790050486003000,7.8310029296875,1.682707667350769,0.800820529460907,-0.3409557342529297
1772790050496068600,7.841068603515625,1.6995418071746826,0.7023059129714966,-0.2702256143093109
1772790050506135800,7.8511357421875,1.7090353965759277,0.644667387008667,-0.18664631247520447
1772790050516201700,7.86120166015625,1.7144278287887573,0.5909098982810974,-0.10395222902297974
1772790050526268700,7.8712685546875,1.7163928747177124,0.544098973274231,-0.022461632266640663
1772790050536334800,7.8813349609375,1.7314459085464478,0.4725704789161682,0.04705113172531128
1772790050546401800,7.89140185546875,1.7575925588607788,0.39565253257751465,0.07824686914682388
1772790050556467700,7.9014677734375,1.7859898805618286,0.32205313444137573,0.07820878177881241
1772790050566534700,7.91153466796875,1.8133349418640137,0.23819845914840698,0.05205787345767021
1772790050576600800,7.921600830078125,1.8407479524612427,0.16564808785915375,0.019711652770638466
1772790050586667800,7.931667724609375,1.881379246711731,0.0941331535577774,-0.009464342147111893
1772790050596733700,7.941733642578125,1.9387035369873047,0.013488112017512321,-0.03239735588431358
1772790050606801000,7.95180078125,2.0002148151397705,-0.039019569754600525,-0.05359505116939545
1772790050616866800,7.96186669921875,2.0424952507019043,-0.07130134105682373,-0.07465878874063492
1772790050626932700,7.9719326171875,2.0804998874664307,-0.08288609236478806,-0.09169769287109375
1772790050637000000,7.982,2.1132543087005615,-0.07116259634494781,-0.08863852173089981
1772790050647065900,7.99206591796875,2.1407792568206787,-0.07335037738084793,-0.07373280823230743
1772790050657132800,8.0021328125,2.1491265296936035,-0.07374931871891022,-0.05167198181152344
1772790050667199000,8.012198974609374,2.1408700942993164,-0.08172522485256195,-0.04402711242437363
1772790050677266000,8.022265869140625,2.117276668548584,-0.10811208933591843,-0.057683270424604416
1772790050687331800,8.032331787109374,2.083700180053711,-0.15909191966056824,-0.11200909316539764
1772790050697398800,8.042398681640625,2.033704996109009,-0.21316073834896088,-0.19878579676151276
1772790050707464700,8.052464599609374,1.9896934032440186,-0.28804829716682434,-0.30006474256515503
1772790050717532000,8.062531982421875,1.9600216150283813,-0.34610387682914734,-0.3974165916442871
1772790050727597800,8.072597900390624,1.9438742399215698,-0.3999796211719513,-0.4708889424800873
1772790050737664800,8.082664794921875,1.9233479499816895,-0.4357048571109772,-0.5163054466247559
1772790050747730700,8.092730712890624,1.8965322971343994,-0.4338188171386719,-0.5232307314872742
1772790050757797600,8.102797607421875,1.856351375579834,-0.4334965646266937,-0.49863696098327637
1772790050767863800,8.11286376953125,1.8042577505111694,-0.4023762047290802,-0.45002949237823486
1772790050777930800,8.1229306640625,1.742251992225647,-0.3269176781177521,-0.39623576402664185
1772790050787996700,8.13299658203125,1.6920862197875977,-0.23119060695171356,-0.3246169686317444
1772790050798063900,8.14306396484375,1.6520246267318726,-0.13461533188819885,-0.24779701232910156
1772790050808129800,8.1531298828125,1.6226069927215576,-0.061413027346134186,-0.1647506058216095
1772790050818196700,8.16319677734375,1.6009193658828735,-0.0027254789602011442,-0.09669564664363861
1772790050828263200,8.17326318359375,1.5837246179580688,0.04631183668971062,-0.039149533957242966
1772790050838330000,8.183330078125,1.566387414932251,0.06651164591312408,0.012836436741054058
1772790050848395800,8.193395751953124,1.5491973161697388,0.06264767050743103,0.05290236324071884
1772790050858462000,8.2034619140625,1.5190961360931396,0.02563825249671936,0.08735967427492142
1772790050868529000,8.21352880859375,1.477097511291504,-0.010085390880703926,0.10524945706129074
1772790050878594800,8.2235947265625,1.41538405418396,-0.0404539480805397,0.11120588332414627
1772790050888661800,8.233661865234374,1.3508375883102417,-0.06960038095712662,0.12100338935852051
1772790050898728000,8.24372802734375,1.2829430103302002,-0.11396491527557373,0.12981392443180084
1772790050908795000,8.253794921875,1.2084213495254517,-0.18009093403816223,0.12655474245548248
1772790050918860800,8.26386083984375,1.1352016925811768,-0.23594515025615692,0.12513288855552673
1772790050928928000,8.273927978515625,1.064480185508728,-0.25620540976524353,0.12185506522655487
1772790050938994000,8.283993896484375,0.9969069361686707,-0.24110369384288788,0.11909416317939758
1772790050949060900,8.294060791015625,0.9492413997650146,-0.22132359445095062,0.13433916866779327
1772790050959127000,8.304126953125,0.9042928814888,-0.18762396275997162,0.15859469771385193
1772790050969194000,8.314194091796875,0.8547285199165344,-0.09285777062177658,0.18851238489151
1772790050979260000,8.324260009765625,0.8202565312385559,0.035660792142152786,0.24032925069332123
1772790050989326800,8.334326904296875,0.8139208555221558,0.2080591917037964,0.29451072216033936
1772790050999393000,8.34439306640625,0.8226957321166992,0.4215903878211975,0.3343404233455658
1772790051009460000,8.3544599609375,0.8247492909431458,0.644515872001648,0.35441747307777405
1772790051019526000,8.36452587890625,0.8117221593856812,0.8174519538879395,0.3713650405406952
1772790051029593000,8.374593017578125,0.7756518125534058,0.9051466584205627,0.4146967828273773
1772790051039659000,8.384658935546875,0.7280299663543701,0.9329735040664673,0.48527348041534424
1772790051049725000,8.394724853515624,0.6786911487579346,0.8934226036071777,0.5878331661224365
1772790051059792100,8.404792236328126,0.6266058683395386,0.7811392545700073,0.6909273266792297
1772790051069857800,8.41485791015625,0.5668831467628479,0.6530318856239319,0.7610344886779785
1772790051079924700,8.4249248046875,0.4928547143936157,0.5303019285202026,0.7930877804756165
1772790051089991000,8.434990966796875,0.41313058137893677,0.4191157817840576,0.7853800654411316
1772790051100057900,8.445057861328126,0.3424564003944397,0.33025380969047546,0.7617964148521423
1772790051110123800,8.455123779296875,0.28440162539482117,0.25982892513275146,0.7338532209396362
1772790051120191000,8.46519091796875,0.23170247673988342,0.2034258246421814,0.7142797708511353
1772790051130257000,8.4752568359375,0.17717663943767548,0.16183604300022125,0.7080458402633667
1772790051140323800,8.48532373046875,0.12455764412879944,0.1267387717962265,0.7014691829681396
1772790051150390000,8.49539013671875,0.08259261399507523,0.10231199115514755,0.6995024085044861
1772790051160457000,8.50545703125,0.05541052669286728,0.09742721915245056,0.6940948963165283
1772790051170523000,8.51552294921875,0.039381228387355804,0.11486107110977173,0.6676837801933289
1772790051180589800,8.52558984375,0.04627828299999237,0.15382765233516693,0.6416090130805969
1772790051190656000,8.535656005859375,0.052264802157878876,0.19387759268283844,0.6143835186958313
1772790051200723000,8.545722900390626,0.06954019516706467,0.2460574358701706,0.5953382253646851
1772790051210788900,8.555788818359375,0.07825219631195068,0.3312562108039856,0.5664253234863281
1772790051220856000,8.56585595703125,0.08617269992828369,0.44672104716300964,0.5397137999534607
1772790051230922000,8.575921875,0.106630839407444,0.5742499828338623,0.5061425566673279
1772790051240988000,8.58598779296875,0.13917332887649536,0.6792685389518738,0.4724687337875366
1772790051251055000,8.59605517578125,0.1851954162120819,0.7378628849983215,0.4497373402118683
1772790051261122000,8.6061220703125,0.23535579442977905,0.7530034780502319,0.42965149879455566
1772790051271188000,8.61618798828125,0.28193235397338867,0.7290555238723755,0.4233350157737732
1772790051281255000,8.6262548828125,0.3128015697002411,0.6665942668914795,0.44085222482681274
1772790051291321000,8.636321044921875,0.327302485704422,0.5690269470214844,0.47083035111427307
1772790051301388000,8.646387939453126,0.3351367115974426,0.4507408142089844,0.495153546333313
1772790051311453700,8.65645361328125,0.3413200378417969,0.35053616762161255,0.4773561656475067
1772790051321521200,8.666521240234376,0.35072338581085205,0.28854817152023315,0.4142877161502838
1772790051331586800,8.6765869140625,0.3517785370349884,0.2636481523513794,0.3269754648208618
1772790051341653800,8.68665380859375,0.3616165220737457,0.24170556664466858,0.24536368250846863
1772790051351720000,8.696719970703125,0.3718174993991852,0.20910874009132385,0.1776895672082901
1772790051361785900,8.706785888671876,0.38250184059143066,0.17962275445461273,0.12349849939346313
1772790051371852800,8.716852783203125,0.38389092683792114,0.14120613038539886,0.08884944766759872
1772790051381919000,8.7269189453125,0.39417606592178345,0.10062780976295471,0.05128023028373718
1772790051391986000,8.73698583984375,0.4013029634952545,0.07301801443099976,-0.0031353395897895098
1772790051402051800,8.7470517578125,0.40452778339385986,0.05209515988826752,-0.05958423390984535
1772790051412118800,8.757118896484375,0.42522481083869934,0.051176633685827255,-0.12984348833560944
1772790051422185000,8.76718505859375,0.47103968262672424,0.061696119606494904,-0.19378066062927246
1772790051432252000,8.777251953125,0.5351616740226746,0.0665111169219017,-0.23675687611103058
1772790051442318000,8.787318115234376,0.599597156047821,0.07009705901145935,-0.2682274580001831
1772790051452385000,8.797385009765625,0.6643598675727844,0.09287960827350616,-0.2681480944156647
1772790051462451000,8.807450927734376,0.7203707098960876,0.11934450268745422,-0.24057239294052124
1772790051472518000,8.817517822265625,0.7752882838249207,0.16043893992900848,-0.19783052802085876
1772790051482584000,8.827583984375,0.828313946723938,0.19626325368881226,-0.15443165600299835
1772790051492651000,8.837651123046875,0.8725812435150146,0.21750888228416443,-0.12034798413515091
1772790051502717000,8.847717041015626,0.8941816091537476,0.21654056012630463,-0.0969766154885292
1772790051512784100,8.8577841796875,0.8903533220291138,0.20082950592041016,-0.08591943234205246
1772790051522850000,8.86785009765625,0.8701831102371216,0.1791447252035141,-0.0920950397849083
1772790051532917000,8.8779169921875,0.8359396457672119,0.15111415088176727,-0.11797164380550385
1772790051542983000,8.88798291015625,0.795509397983551,0.10865537077188492,-0.14661474525928497
1772790051553048800,8.898048828125,0.7596355080604553,0.06926961988210678,-0.18087683618068695
1772790051563115800,8.90811572265625,0.7299985289573669,0.05305682495236397,-0.21933715045452118
1772790051573182000,8.918181884765625,0.7067973613739014,0.025128256529569626,-0.24254553020000458
1772790051583249000,8.928248779296876,0.6950538754463196,-0.01853347010910511,-0.26462340354919434
1772790051593314800,8.938314697265625,0.6827625632286072,-0.029461219906806946,-0.2865731716156006
1772790051603381800,8.9483818359375,0.6618732810020447,-0.030130205675959587,-0.30329063534736633
1772790051613448000,8.958447998046875,0.6414673328399658,-0.016750218346714973,-0.317214697599411
1772790051623515000,8.968514892578124,0.6136780381202698,0.008707471191883087,-0.3245088458061218
1772790051633580800,8.978580810546875,0.578768789768219,0.044199418276548386,-0.31873032450675964
1772790051643648000,8.98864794921875,0.5377681255340576,0.10249122232198715,-0.2988271713256836
1772790051653714000,8.9987138671875,0.5011110305786133,0.1606016606092453,-0.26072028279304504
1772790051663780900,9.00878076171875,0.4800291955471039,0.2014351189136505,-0.21170586347579956
1772790051673847000,9.018846923828125,0.46161556243896484,0.23346255719661713,-0.17052006721496582
1772790051683914000,9.0289140625,0.44383764266967773,0.24646703898906708,-0.12657125294208527
1772790051693980000,9.03897998046875,0.41326799988746643,0.24741192162036896,-0.0928947851061821
1772790051704046800,9.049046875,0.3876582384109497,0.24102753400802612,-0.06618514657020569
1772790051714113000,9.059113037109375,0.36908963322639465,0.22591648995876312,-0.04633713886141777
1772790051724179000,9.069178955078126,0.35772085189819336,0.20269745588302612,-0.028597822412848473
1772790051734246000,9.079245849609375,0.35448938608169556,0.17720487713813782,-0.017839450389146805
1772790051744312000,9.08931201171875,0.3568561375141144,0.16868461668491364,-0.01335894875228405
1772790051754379000,9.09937890625,0.3555402457714081,0.1827690154314041,-0.026556510478258133
1772790051764445000,9.10944482421875,0.3388710021972656,0.20469242334365845,-0.044505681842565536
1772790051774512000,9.11951220703125,0.3042626976966858,0.23341993987560272,-0.06517554074525833
1772790051784577800,9.129577880859374,0.2770768702030182,0.2876530885696411,-0.07538983225822449
1772790051794644700,9.139644775390625,0.25975754857063293,0.35389068722724915,-0.07734724879264832
1772790051804711000,9.1497109375,0.24834749102592468,0.4114210903644562,-0.06532787531614304
1772790051814777900,9.15977783203125,0.22921320796012878,0.45099860429763794,-0.03552177548408508
1772790051824847400,9.169847412109375,0.20329879224300385,0.4322124123573303,0.008128234185278416
1772790051834914600,9.17991455078125,0.1736050844192505,0.3743895888328552,0.05272473022341728
1772790051844980500,9.18998046875,0.12430038303136826,0.2684876620769501,0.09851831942796707
1772790051855047400,9.20004736328125,0.0798567458987236,0.15614938735961914,0.1092577800154686
1772790051865113600,9.210113525390625,0.04967913776636124,0.0743464007973671,0.07590222358703613
1772790051875180500,9.2201806640625,0.045514486730098724,0.04024888575077057,-0.00299286050722003
1772790051885246500,9.23024658203125,0.06054563447833061,0.07046431303024292,-0.12947410345077515
1772790051895312600,9.240312744140626,0.08169885724782944,0.11835647374391556,-0.2720714509487152
1772790051905379600,9.250379638671875,0.09784720093011856,0.13381825387477875,-0.37521490454673767
1772790051915445500,9.260445556640626,0.1103464812040329,0.13749980926513672,-0.4156981408596039
1772790051925512400,9.270512451171875,0.12009871006011963,0.13948120176792145,-0.39215871691703796
1772790051935578600,9.28057861328125,0.12935586273670197,0.13734588027000427,-0.31595930457115173
1772790051945645600,9.2906455078125,0.13143551349639893,0.1256556659936905,-0.20286735892295837
1772790051955711500,9.30071142578125,0.12009897828102112,0.11383229494094849,-0.08293509483337402
1772790051965778700,9.31077880859375,0.10125764459371567,0.061587728559970856,0.04173839092254639
1772790051975844400,9.32084423828125,0.0893370732665062,0.0033694314770400524,0.1357077658176422
1772790051985911300,9.330911376953125,0.067172110080719,-0.045704372227191925,0.19262191653251648
1772790051995977500,9.3409775390625,0.041377533227205276,-0.07659810781478882,0.21783725917339325
1772790052006044400,9.35104443359375,0.006458165589720011,-0.09539549797773361,0.21181131899356842
1772790052016110300,9.3611103515625,-0.023331156000494957,-0.09223485738039017,0.18644391000270844
1772790052026177300,9.37117724609375,-0.038594264537096024,-0.06542401015758514,0.15428490936756134
1772790052036243500,9.381243408203124,-0.024114390835165977,-0.024287762120366096,0.11957646161317825
1772790052046310400,9.391310302734375,0.014763499610126019,0.04047951474785805,0.07860799133777618
1772790052056376600,9.40137646484375,0.06330680102109909,0.11227807402610779,0.038970835506916046
1772790052066442500,9.4114423828125,0.1197756677865982,0.18067124485969543,0.013925136998295784
1772790052076509400,9.421509521484374,0.17170678079128265,0.2312374860048294,-0.004056260455399752
1772790052086575600,9.43157568359375,0.2117447406053543,0.2740161120891571,-0.011469169519841671
1772790052096642600,9.441642578125,0.24245098233222961,0.29555147886276245,-0.013831925578415394
1772790052106708500,9.45170849609375,0.26596617698669434,0.2979901432991028,-0.015849802643060684
1772790052116775400,9.461775390625,0.2950904965400696,0.2897769510746002,-0.04279540106654167
1772790052126841600,9.471841552734375,0.3133525848388672,0.29730385541915894,-0.09449294954538345
1772790052136908500,9.481908447265624,0.33170655369758606,0.2956066131591797,-0.1744208037853241
1772790052146974500,9.491974365234375,0.35286352038383484,0.2850242853164673,-0.26215916872024536
1772790052157041700,9.502041748046874,0.3672701418399811,0.2240365594625473,-0.3461792469024658
1772790052167107600,9.512107666015625,0.3753296732902527,0.11404108256101608,-0.4220721423625946
1772790052177174500,9.522174560546874,0.37729695439338684,0.014401310123503208,-0.4864782989025116
1772790052187240400,9.532240478515625,0.36460140347480774,-0.0739557147026062,-0.5197790265083313
1772790052197307600,9.5423076171875,0.34434938430786133,-0.172596275806427,-0.5069968700408936
1772790052207373300,9.552373291015625,0.2995675504207611,-0.23706580698490143,-0.47030359506607056
1772790052217439500,9.562439453125,0.24111567437648773,-0.27136465907096863,-0.4191780984401703
1772790052227506400,9.57250634765625,0.17416220903396606,-0.28239521384239197,-0.35087865591049194
1772790052237572400,9.582572265625,0.1178363561630249,-0.26103851199150085,-0.2998213469982147
1772790052247639300,9.592639404296875,0.06562428176403046,-0.18998165428638458,-0.2667536735534668
1772790052257705500,9.60270556640625,0.022589465603232384,-0.09568764269351959,-0.2612212002277374
1772790052267772400,9.6127724609375,0.0012511530658230186,-0.0041579934768378735,-0.24468670785427094
1772790052277838600,9.622838623046874,-0.009178850799798965,0.05546006187796593,-0.2139226794242859
1772790052287905500,9.632905517578125,-0.009094428271055222,0.09779153764247894,-0.1690683811903
1772790052297971500,9.642971435546874,-0.004662129562348127,0.12576831877231598,-0.118866465985775
1772790052308038400,9.653038330078125,-0.0011824434623122215,0.12105877697467804,-0.06571536511182785
1772790052318104600,9.6631044921875,-0.008253135718405247,0.09654651582241058,-0.04206729307770729
1772790052328171500,9.673171630859375,-0.02442571520805359,0.06423970311880112,-0.03593749552965164
1772790052338237400,9.683237548828124,-0.050576090812683105,0.0325414314866066,-0.05014386028051376
1772790052348304400,9.693304443359375,-0.08135104924440384,0.002975017298012972,-0.0591120570898056
1772790052358370600,9.70337060546875,-0.10076362639665604,-0.02533731423318386,-0.06966350227594376
1772790052368437500,9.7134375,-0.12631931900978088,-0.05116545036435127,-0.07979682832956314
1772790052378503700,9.723503662109374,-0.14469407498836517,-0.06433717906475067,-0.09181061387062073
1772790052388569600,9.733569580078125,-0.15957342088222504,-0.08493006974458694,-0.10261399298906326
1772790052398636500,9.743636474609374,-0.166639044880867,-0.10628063231706619,-0.1037391796708107
1772790052408702500,9.753702392578125,-0.1740863174200058,-0.1024632602930069,-0.09366656839847565
1772790052418769400,9.763769287109374,-0.18540315330028534,-0.09314858913421631,-0.06994659453630447
1772790052428835300,9.77383544921875,-0.19959726929664612,-0.08715194463729858,-0.04026699438691139
1772790052438902300,9.78390234375,-0.22368182241916656,-0.06623095273971558,-0.02243979461491108
1772790052448968400,9.793968505859375,-0.2471996694803238,-0.051296476274728775,-0.006776679772883654
1772790052459035400,9.804035400390624,-0.26547375321388245,-0.038354579359292984,-0.002424009144306183
1772790052469101300,9.814101318359375,-0.2745465934276581,-0.028738170862197876,-0.0035217641852796078
1772790052479168500,9.82416845703125,-0.27753201127052307,-0.031029287725687027,-0.003073021536692977
1772790052489234400,9.834234375,-0.2785179018974304,-0.039022766053676605,0.004217914305627346
1772790052499301400,9.84430126953125,-0.2815517783164978,-0.05170660465955734,0.035418976098299026
1772790052509367600,9.854367431640625,-0.2838069498538971,-0.07899255305528641,0.07256022095680237
1772790052519434500,9.8644345703125,-0.28672099113464355,-0.11337795853614807,0.10510644316673279
1772790052529500400,9.87450048828125,-0.2918960452079773,-0.14222557842731476,0.11799827218055725
1772790052539566600,9.884566650390624,-0.301526814699173,-0.15423643589019775,0.11517266184091568
1772790052549633500,9.894633544921875,-0.30285441875457764,-0.1616259068250656,0.10357911884784698
1772790052559699500,9.904699462890624,-0.3024650514125824,-0.16700762510299683,0.0913565456867218
1772790052569766400,9.914766357421875,-0.29813823103904724,-0.1640632450580597,0.07898855954408646
1772790052579832600,9.92483251953125,-0.2913937568664551,-0.1338062733411789,0.06632549315690994
1772790052589899500,9.9348994140625,-0.2853052318096161,-0.10200679302215576,0.06553719937801361
1772790052599965700,9.944965576171874,-0.2833124101161957,-0.09255363792181015,0.08659907430410385
1772790052610032600,9.95503271484375,-0.285306841135025,-0.09414833784103394,0.11927073448896408
1772790052620098600,9.9650986328125,-0.2899250388145447,-0.09872151911258698,0.16060060262680054
1772790052630165500,9.97516552734375,-0.29874780774116516,-0.10309522598981857,0.20851485431194305
1772790052640231400,9.9852314453125,-0.30770695209503174,-0.10390695929527283,0.24723881483078003
1772790052650298600,9.995298583984376,-0.31124362349510193,-0.1033191978931427,0.27484914660453796
1772790052660364300,10.0053642578125,-0.3133230209350586,-0.10653229802846909,0.2705731689929962
1772790052670431500,10.015431396484376,-0.32161745429039,-0.12312672287225723,0.24452905356884003
1772790052680497400,10.025497314453125,-0.33022212982177734,-0.14893221855163574,0.212531179189682
1772790052690563300,10.035563232421875,-0.3342978060245514,-0.1477242112159729,0.1917468011379242
1772790052700630500,10.045630615234375,-0.3227764666080475,-0.1575494110584259,0.17453345656394958
1772790052710696400,10.055696533203125,-0.30326399207115173,-0.18384599685668945,0.14798787236213684
1772790052720763400,10.065763427734375,-0.2881383001804352,-0.22360245883464813,0.10472827404737473
1772790052730829600,10.07582958984375,-0.2585125267505646,-0.21683724224567413,0.05989183112978935
1772790052740896500,10.085896484375,-0.21858160197734833,-0.1735781878232956,0.006963899824768305
1772790052750962400,10.09596240234375,-0.17965684831142426,-0.15224918723106384,-0.05312260612845421
1772790052761029400,10.106029296875,-0.14781902730464935,-0.11555402725934982,-0.12587936222553253
1772790052771095600,10.116095458984375,-0.10733817517757416,-0.022067219018936157,-0.17734575271606445
1772790052781162500,10.12616259765625,-0.03429991751909256,0.08092840760946274,-0.20493796467781067
1772790052791228400,10.136228515625,0.04470062628388405,0.13261902332305908,-0.22194331884384155
1772790052801295600,10.146295654296875,0.09687621146440506,0.14819292724132538,-0.2152388095855713
1772790052811361500,10.156361572265626,0.1164640262722969,0.08204346895217896,-0.1889917552471161
1772790052821427500,10.166427490234375,0.10685773938894272,-0.054586011916399,-0.16489042341709137
1772790052831494100,10.176494140625,0.0793994814157486,-0.18133144080638885,-0.13235804438591003
1772790052841560000,10.18656005859375,0.03675588220357895,-0.3189140558242798,-0.08286399394273758
1772790052851627000,10.196626953125,-0.018437329679727554,-0.48792600631713867,-0.04128884896636009
1772790052861693200,10.206693115234375,-0.07286275178194046,-0.6308416128158569,-0.01763332262635231
1772790052871760100,10.216760009765625,-0.12754224240779877,-0.7153575420379639,0.0011459582019597292
1772790052881826000,10.226825927734374,-0.17566609382629395,-0.7791551947593689,0.00737242866307497
1772790052891893200,10.236893310546876,-0.19844038784503937,-0.7768667340278625,0.0175787266343832
1772790052901959200,10.246959228515625,-0.22409488260746002,-0.7018835544586182,0.04013703390955925
1772790052912026000,10.257026123046876,-0.25591060519218445,-0.6151931285858154,0.08766327053308487
1772790052922092300,10.26709228515625,-0.2976948022842407,-0.5325201153755188,0.1526566594839096
1772790052932159200,10.2771591796875,-0.31166893243789673,-0.4711792469024658,0.1951923966407776
1772790052942225200,10.28722509765625,-0.3163433074951172,-0.42675265669822693,0.21926018595695496
1772790052952291300,10.297291259765625,-0.28973647952079773,-0.40727508068084717,0.23303484916687012
1772790052962358300,10.307358154296875,-0.23407773673534393,-0.3605813682079315,0.23748472332954407
1772790052972424200,10.317424072265625,-0.17650392651557922,-0.3011670410633087,0.22353748977184296
1772790052982491100,10.3274912109375,-0.14231079816818237,-0.23813587427139282,0.18997126817703247
1772790052992557300,10.337557373046875,-0.12126890569925308,-0.16253165900707245,0.16544382274150848
1772790053002624300,10.347624267578125,-0.1035761907696724,-0.11799987405538559,0.1520976573228836
1772790053012690200,10.357690185546875,-0.09671349078416824,-0.08042160421609879,0.1503056138753891
1772790053022757400,10.36775732421875,-0.09386231005191803,-0.05871790647506714,0.15000654757022858
1772790053032823000,10.377822998046875,-0.09507910907268524,-0.048170190304517746,0.14921104907989502
1772790053042890000,10.387889892578125,-0.09606847912073135,-0.0387607105076313,0.14545679092407227
1772790053052956200,10.3979560546875,-0.08415722101926804,-0.04183586314320564,0.13946574926376343
1772790053063023000,10.408023193359375,-0.058098189532756805,-0.044669732451438904,0.12039139121770859
1772790053073089000,10.418089111328126,-0.021444039419293404,-0.06558806449174881,0.08676712214946747
1772790053083155200,10.4281552734375,0.028170650824904442,-0.09863097220659256,0.04872865602374077
1772790053093222100,10.43822216796875,0.08368104696273804,-0.09921393543481827,0.011626562103629112
1772790053103288000,10.4482880859375,0.13430987298488617,-0.07328034192323685,-0.01660640724003315
1772790053113355300,10.458355224609376,0.18053196370601654,-0.018274610862135887,-0.03454945608973503
1772790053123421200,10.468421142578125,0.22769761085510254,0.030821029096841812,-0.04415121674537659
1772790053133488000,10.478488037109376,0.2674090564250946,0.0547197051346302,-0.04741864651441574
1772790053143554300,10.48855419921875,0.298454612493515,0.07715310901403427,-0.04544631019234657
1772790053153621200,10.498621337890626,0.31687700748443604,0.09318986535072327,-0.02629844844341278
1772790053163687200,10.508687255859375,0.32944366335868835,0.09077917039394379,0.012602876871824265
1772790053173754000,10.518754150390626,0.350128173828125,0.05720390006899834,0.04839096963405609
1772790053183820300,10.5288203125,0.38749900460243225,0.029856964945793152,0.0665297582745552
1772790053193887200,10.53888720703125,0.42947494983673096,0.014285994693636894,0.05910992622375488
1772790053203953200,10.548953125,0.48702478408813477,0.0016871124971657991,0.03020530566573143
1772790053214019300,10.559019287109376,0.5468249917030334,0.0032352081034332514,0.00016218650853261352
1772790053224086300,10.569086181640625,0.5851473808288574,0.004211256746202707,-0.02371571585536003
1772790053234152200,10.579152099609376,0.6068869829177856,0.018492458388209343,-0.02695758081972599
1772790053244219400,10.589219482421875,0.6266574859619141,0.07297567278146744,-0.028171183541417122
1772790053254285000,10.59928515625,0.6553746461868286,0.14274223148822784,-0.016698019579052925
1772790053264352000,10.60935205078125,0.6878899931907654,0.20003348588943481,0.007936486043035984
1772790053274418200,10.619418212890626,0.7173565030097961,0.21362093091011047,0.023486949503421783
1772790053284485000,10.629485107421875,0.7494511008262634,0.21803033351898193,0.028064657002687454
1772790053294551000,10.639551025390626,0.7783945798873901,0.1888977438211441,0.010423612780869007
1772790053304618200,10.6496181640625,0.8000718951225281,0.12878887355327606,-0.010517355985939503
1772790053314684200,10.65968408203125,0.8198117613792419,0.06687916815280914,-0.03566478565335274
1772790053324750000,10.66975,0.8419381380081177,0.015908924862742424,-0.05633304640650749
1772790053334817300,10.6798173828125,0.8803883194923401,-0.027471305802464485,-0.0704299584031105
1772790053344883200,10.68988330078125,0.9157343506813049,-0.06322424113750458,-0.07150347530841827
1772790053354950100,10.6999501953125,0.9627505540847778,-0.11750932037830353,-0.05651946738362312
1772790053365016300,10.710016357421875,1.0114758014678955,-0.1696963608264923,-0.030963508412241936
1772790053375083300,10.720083251953126,1.0710527896881104,-0.18817868828773499,-0.01134107168763876
1772790053385149200,10.730149169921875,1.122939944267273,-0.19570159912109375,-0.0070099723525345325
1772790053395216100,10.740216064453126,1.1564220190048218,-0.19043439626693726,-0.03606292977929115
1772790053405282300,10.7502822265625,1.1535545587539673,-0.1970403641462326,-0.06893592327833176
1772790053415348200,10.76034814453125,1.1421620845794678,-0.1783151477575302,-0.08711706101894379
1772790053425415200,10.770415283203125,1.1234747171401978,-0.1197623535990715,-0.07174236327409744
1772790053435481000,10.780481201171876,1.129967212677002,-0.04308408871293068,-0.022648587822914124
1772790053445548300,10.79054833984375,1.1427605152130127,0.02581934630870819,0.019592875614762306
1772790053455614200,10.8006142578125,1.1420817375183105,0.08897248655557632,0.04402924329042435
1772790053465681200,10.81068115234375,1.1403205394744873,0.12426415830850601,0.06358589977025986
1772790053475747000,10.8207470703125,1.1497985124588013,0.13883352279663086,0.08402619510889053
1772790053485814000,10.83081396484375,1.1813607215881348,0.17245832085609436,0.10303903371095657
1772790053495880200,10.840880126953126,1.2200795412063599,0.23461143672466278,0.1258103847503662
1772790053505947100,10.850947021484375,1.2483069896697998,0.30004024505615234,0.14654842019081116
1772790053516013000,10.861012939453126,1.2754637002944946,0.367010235786438,0.17093658447265625
1772790053526079200,10.871079345703125,1.2900370359420776,0.42650869488716125,0.2036639153957367
1772790053536146200,10.881146240234376,1.3000409603118896,0.45550867915153503,0.2403678596019745
1772790053546212000,10.891212158203125,1.3199092149734497,0.45742401480674744,0.26754170656204224
1772790053556279300,10.901279296875,1.3627805709838867,0.43938589096069336,0.27156519889831543
1772790053566345200,10.91134521484375,1.4027737379074097,0.4784983992576599,0.23666979372501373
1772790053576412200,10.921412109375,1.410223364830017,0.5343707203865051,0.18120281398296356
1772790053586478300,10.931478271484375,1.4027897119522095,0.6077733039855957,0.1173173040151596
1772790053596545300,10.941545166015626,1.407888650894165,0.751814603805542,0.09930634498596191
1772790053606611200,10.951611083984375,1.4394716024398804,0.9332126379013062,0.15409529209136963
1772790053616677400,10.961677490234376,1.5141741037368774,1.1596792936325073,0.26116421818733215
