time,seconds_elapsed,z,y,x
1772789921539386000,0.06838623046875,-0.0018551580142229795,0.012381035834550858,-0.001356347929686308
1772789921549452000,0.0784521484375,-0.0016074840677902102,0.011955462396144867,0.00007084008393576369
1772789921559518200,0.088518310546875,-0.004040015395730734,0.011505388654768467,0.0012876383261755109
1772789921569584000,0.098584228515625,-0.0026900589000433683,0.012949620373547077,0.0007454187725670636
1772789921579650000,0.108650146484375,-0.005308745428919792,0.012705142609775066,0.0013944311067461967
1772789921589715000,0.11871484375,-0.0044378917664289474,0.012245480902493,0.0016495619202032685
1772789921599781000,0.128781005859375,-0.0018032263033092022,0.009159942157566547,-0.0006087986403144896
1772789921609847000,0.138846923828125,-0.004841094370931387,0.016385365277528763,0.00009960222087102011
1772789921619913200,0.148913330078125,-0.003960653208196163,0.012375975959002972,0.00236302288249135
1772789921629979100,0.158979248046875,-0.006625944748520851,0.012975187040865421,0.0029731530230492353
1772789921640044000,0.1690439453125,-0.0028130970895290375,0.01254987996071577,0.001764077926054597
1772789921650110000,0.17910986328125,-0.002083124592900276,0.013442039489746094,0.0013518205378204584
1772789921660176100,0.189176025390625,-0.004964132327586412,0.012525112368166447,0.0013741911388933659
1772789921670242000,0.199241943359375,-0.005164934787899256,0.012752546928822994,-0.0005091963685117662
1772789921680308200,0.20930810546875,-0.004909005016088486,0.0102592958137393,0.002395513467490673
1772789921690373000,0.219373046875,-0.0025856629945337772,0.014036723412573338,0.001335841603577137
1772789921700443000,0.22944287109375,-0.0028666264843195677,0.009387110359966755,0.0023305322974920273
1772789921710508800,0.2395087890625,-0.0033537186682224274,0.011473430320620537,0.002545981900766492
1772789921720575000,0.249574951171875,-0.0060115535743534565,0.012680108658969402,0.000511593243572861
1772789921730641000,0.259640869140625,-0.001062334980815649,0.014761103317141533,0.0015222628135234118
1772789921740706800,0.269706787109375,-0.002630936913192272,0.012271580286324024,0.0005083974683657289
1772789921750771700,0.279771728515625,-0.0025457157753407955,0.010459830984473228,-0.0007864314829930663
1772789921760838000,0.289837890625,-0.00347489258274436,0.012341088615357876,-0.003038400551304221
1772789921770903800,0.29990380859375,-0.0019201391842216253,0.010462760925292969,0.0012724583502858877
1772789921780970000,0.309969970703125,-0.0036131106317043304,0.008353004232048988,0.0031502533238381147
1772789921791036000,0.320035888671875,-0.004237089306116104,0.014124341309070587,0.0008117315010167658
1772789921801100800,0.330100830078125,-0.0018522285390645266,0.010192716494202614,-0.003428287338465452
1772789921811166700,0.340166748046875,-0.004827245604246855,0.01218955498188734,0.00013981595111545175
1772789921821233000,0.35023291015625,-0.004971322603523731,0.014562164433300495,0.00443895673379302
1772789921831298800,0.360298828125,-0.006046973634511232,0.012545885518193245,0.000716922979336232
1772789921841364700,0.37036474609375,-0.004826979245990515,0.011754659935832024,-0.0005001416429877281
1772789921851431000,0.380430908203125,-0.006443251855671406,0.012106996960937977,-0.0014090784825384617
1772789921861495800,0.390495849609375,-0.005404086317867041,0.011141867376863956,-0.00007350324449362233
1772789921871561700,0.400561767578125,-0.0037476003635674715,0.010818559676408768,0.0008109325426630676
1772789921881628000,0.4106279296875,-0.0037955371662974358,0.010461162775754929,0.0011014834744855762
1772789921891693800,0.42069384765625,-0.004856273997575045,0.01200792659074068,-0.00028762139845639467
1772789921901759700,0.430759765625,-0.003950000274926424,0.0118489358574152,0.0031555795576423407
1772789921911826000,0.440825927734375,-0.0031244205310940742,0.01411422062665224,0.001996039180085063
1772789921921890800,0.450890869140625,-0.004810467828065157,0.010840930044651031,0.0015270565636456013
1772789921931956700,0.460956787109375,-0.003677825443446636,0.013541108928620815,0.003481017891317606
1772789921942023000,0.47102294921875,-0.001996305538341403,0.013428723439574242,0.0014351775171235204
1772789921952088800,0.4810888671875,-0.002433063928037882,0.01170219574123621,0.00006498113361885771
1772789921962154800,0.49115478515625,-0.0023369237314909697,0.012832175008952618,0.00036964676110073924
1772789921972221000,0.501220947265625,-0.0004772384709212929,0.01233336515724659,0.0009925601771101356
1772789921982285800,0.511285888671875,-0.0025744778104126453,0.0098052266985178,0.0023638217244297266
1772789921992351700,0.521351806640625,-0.002579271560534835,0.012822587974369526,0.0007659250986762345
1772789922002418000,0.53141796875,-0.003942543640732765,0.010521084070205688,0.0002585929469205439
1772789922012483800,0.54148388671875,-0.0031824775505810976,0.010637464001774788,-0.0005004079430364072
1772789922022549800,0.5515498046875,-0.005615008994936943,0.0128172617405653,0.002365419641137123
1772789922032615000,0.561614990234375,-0.003037601476535201,0.01270141452550888,0.0030660973861813545
1772789922042680800,0.571680908203125,-0.004230431281030178,0.014002900570631027,-0.0007536745979450643
1772789922052746800,0.581746826171875,-0.004163319710642099,0.01167210191488266,0.0010956244077533484
1772789922062813000,0.59181298828125,-0.003923634998500347,0.012408732436597347,0.00236302288249135
1772789922072878800,0.60187890625,-0.004333495628088713,0.010159959085285664,-0.002356364857405424
1772789922082944800,0.61194482421875,-0.004014449194073677,0.011678493581712246,0.0013036173768341541
1772789922093010000,0.622010009765625,-0.007851798087358475,0.012326707132160664,0.002019474981352687
1772789922103075800,0.632075927734375,-0.0016996293561533093,0.010982876643538475,0.0025015072897076607
1772789922113141800,0.642141845703125,-0.004713795147836208,0.01182337012141943,0.0010431602131575346
1772789922123207700,0.652207763671875,-0.004508997779339552,0.012630041688680649,-0.000702009245287627
1772789922133273900,0.66227392578125,-0.00224957219325006,0.012019644491374493,0.0018112158868461847
1772789922143339800,0.67233984375,-0.003072755178436637,0.011770373210310936,0.0007821703911758959
1772789922153405000,0.682405029296875,-0.002668487373739481,0.015140336938202381,-0.00010173275222769007
1772789922163470800,0.692470947265625,-0.002243446884676814,0.01209607720375061,0.00256355875171721
1772789922173536800,0.702536865234375,-0.0030043120495975018,0.01381035428494215,0.0009467537747696042
1772789922183602700,0.712602783203125,-0.0010556770721450448,0.014906245283782482,0.00039414784987457097
1772789922193668900,0.7226689453125,-0.003769171889871359,0.01083027757704258,0.0014423680258914828
1772789922203734800,0.73273486328125,-0.004039482679218054,0.012280101887881756,-0.0009914948605000973
1772789922213799700,0.742799560546875,-0.00500940578058362,0.010747984983026981,0.0014748586108908057
1772789922223865900,0.752865966796875,-0.0036709012929350138,0.013825533911585808,0.0013725932221859694
1772789922233931800,0.762931884765625,-0.0025209481827914715,0.01245347410440445,0.0036815537605434656
1772789922243997700,0.772997802734375,-0.0028850024100393057,0.012369850650429726,0.0016346483025699854
1772789922254063900,0.78306396484375,-0.0051806471310555935,0.013732856139540672,0.0021433120127767324
1772789922264129800,0.7931298828125,-0.005855758674442768,0.009153284132480621,0.0018229337874799967
1772789922274194700,0.803194580078125,-0.006243514828383923,0.013698501512408257,0.0017675400013104081
1772789922284260900,0.8132607421875,-0.006620618514716625,0.012051602825522423,0.001764077926054597
1772789922294326800,0.823326904296875,-0.003433347214013338,0.013246563263237476,0.0014564828015863895
1772789922304392700,0.833392822265625,-0.003968908917158842,0.01341913640499115,0.00013369068619795144
1772789922314459000,0.843458984375,-0.004971322603523731,0.013839116320014,0.0047026099637150764
1772789922324524800,0.85352490234375,-0.004532966297119856,0.012495019473135471,0.0022860574536025524
1772789922334589700,0.863589599609375,-0.0012455604737624526,0.01164520438760519,0.001163268811069429
1772789922344656000,0.87365576171875,-0.0013821806060150266,0.01125345379114151,-0.0012303803814575076
1772789922354721800,0.8837216796875,-0.0028309402987360954,0.012489426881074905,0.0006772418855689466
1772789922364787700,0.89378759765625,0.00016484966909047216,0.01164493802934885,-0.0012538161827251315
1772789922374854000,0.90385400390625,-0.0028005801141262054,0.012470518238842487,0.0003177151083946228
1772789922384919800,0.913919921875,-0.0013659353135153651,0.009064335376024246,-0.0002956108655780554
1772789922394984700,0.923984619140625,-0.0009800433181226254,0.011813515797257423,0.0015278555219992995
1772789922405051000,0.93405078125,-0.0031185615807771683,0.013689180836081505,0.0013483584625646472
1772789922415116800,0.94411669921875,-0.0029814087320119143,0.011142931878566742,0.0024943165481090546
1772789922425182700,0.9541826171875,-0.001683384063653648,0.013066799379885197,0.0034171019215136766
1772789922435249000,0.964248779296875,-0.005288505461066961,0.012459333054721355,0.0017920411191880703
1772789922445314800,0.974314697265625,-0.0041220407001674175,0.011806858703494072,-0.0013281183782964945
1772789922455379700,0.984379638671875,-0.004752411041408777,0.01486603170633316,0.000025566347176209092
1772789922465445600,0.994445556640625,-0.0044168527238070965,0.01320901233702898,0.003623763332143426
1772789922475511800,1.00451171875,-0.005928196478635073,0.013187707401812077,0.0016801883466541767
1772789922485577700,1.01457763671875,-0.004019509069621563,0.01236239355057478,0.0008404936525039375
1772789922495644000,1.024643798828125,-0.0029174929950386286,0.013070794753730297,-0.00036911413189955056
1772789922505709800,1.034709716796875,-0.004337224178016186,0.01281486451625824,-0.0006777744856663048
1772789922515774700,1.044774658203125,-0.005071457475423813,0.010183128528296947,0.0030980552546679974
1772789922525840600,1.054840576171875,-0.005462143570184708,0.012436696328222752,0.0013100089272484183
1772789922535906800,1.06490673828125,-0.0059745353646576405,0.010549846105277538,-0.0018359832465648651
1772789922545972700,1.07497265625,-0.0030085730832070112,0.010762632824480534,0.0003304982965346426
1772789922556039000,1.085038818359375,-0.003323891432955861,0.014117683283984661,0.0005880259559489787
1772789922566104800,1.095104736328125,-0.001272990950383246,0.008463526144623756,0.0013499563792720437
1772789922576171000,1.1051708984375,-0.002177666872739792,0.014288125559687614,-0.00003328951424919069
1772789922586235600,1.115235595703125,-0.004534031730145216,0.012316853739321232,-0.00016644757124595344
1772789922596301800,1.1253017578125,-0.0018658105982467532,0.00942066591233015,-0.00008841694943839684
1772789922606367700,1.13536767578125,-0.0034202977549284697,0.013013802468776703,0.0013470269041135907
1772789922616434000,1.145433837890625,-0.0024897893890738487,0.012035890482366085,0.0019299928098917007
1772789922626499800,1.155499755859375,-0.00440939562395215,0.01136876828968525,0.00016698020044714212
1772789922636566000,1.16556591796875,-0.0019265307346358895,0.0133288549259305,0.00148125016130507
1772789922646630700,1.175630615234375,-0.004384362138807774,0.010358897969126701,0.00007776429993100464
1772789922656696800,1.18569677734375,-0.0059566921554505825,0.011905129067599773,0.0029798108153045177
1772789922666762800,1.1957626953125,-0.005084773525595665,0.01293417438864708,0.0003451456723269075
1772789922676829000,1.205828857421875,-0.00541367381811142,0.012085158377885818,-0.0008309062686748803
1772789922686894800,1.215894775390625,-0.006625944748520851,0.010203901678323746,0.001415736391209066
1772789922696957000,1.22595703125,-0.00430047232657671,0.00917299184948206,0.0009970874525606632
1772789922707021800,1.236021728515625,-0.0046421559527516365,0.011727496050298214,0.0034759577829390764
1772789922717087700,1.246087646484375,-0.005371329374611378,0.012646286748349667,0.00048123320448212326
1772789922727153700,1.256153564453125,-0.004805940669029951,0.010350375436246395,-0.0005142564186826348
1772789922737219800,1.2662197265625,-0.004746019374579191,0.012173308990895748,0.0000428768944402691
1772789922747285800,1.27628564453125,-0.003370496677234769,0.012005796656012535,-0.00043276368523947895
1772789922757352000,1.28635205078125,-0.004281031433492899,0.013085441663861275,0.0032858080230653286
1772789922767417900,1.29641796875,-0.0014253237750381231,0.012235361151397228,0.00007483482477255166
1772789922777482800,1.306482666015625,-0.004366518929600716,0.010290454141795635,-0.000017843178284238093
1772789922787548700,1.316548583984375,-0.003061037277802825,0.012691027484834194,0.002103630919009447
1772789922797614800,1.32661474609375,-0.0041273669339716434,0.011048922315239906,0.0012737899087369442
1772789922807680800,1.3366806640625,-0.0059510995633900166,0.01224388275295496,-0.0006045375484973192
1772789922817747000,1.346746826171875,-0.004570783115923405,0.015907593071460724,0.0022660838440060616
1772789922827812900,1.356812744140625,-0.004414722323417664,0.010239321738481522,-0.00022929816623218358
1772789922837877800,1.366877685546875,-0.003162770066410303,0.012260926887392998,-0.00037470675306394696
1772789922847943700,1.376943603515625,-0.004425374791026115,0.011146660894155502,-0.000011717908819264267
1772789922858009900,1.387009765625,-0.0031318773981183767,0.012004198506474495,0.0016684704460203648
1772789922868075800,1.39707568359375,-0.005781190004199743,0.012228170409798622,0.002162486780434847
1772789922878142000,1.407141845703125,-0.004552141297608614,0.010965831577777863,0.001915878034196794
1772789922888208000,1.417207763671875,-0.004255997482687235,0.011686749756336212,0.00021145498612895608
1772789922898274000,1.427274169921875,-0.004188619554042816,0.010641725733876228,0.0000029294772048160667
1772789922908338700,1.437338623046875,-0.005754292011260986,0.011227354407310486,0.0007989483419805765
1772789922918404900,1.44740478515625,-0.0028727517928928137,0.01016821525990963,-0.0005819007055833936
1772789922928470800,1.457470703125,-0.005674397107213736,0.006957508157938719,0.0024343954864889383
1772789922938537000,1.467536865234375,-0.002528405049815774,0.011756258085370064,0.002098038326948881
1772789922948603000,1.477602783203125,-0.0016887104138731956,0.010478206910192966,0.00003222424857085571
1772789922958669000,1.4876689453125,-0.004494350403547287,0.011065966449677944,0.0017614146927371621
1772789922968734700,1.497734619140625,-0.0035420041531324387,0.011921374127268791,0.0012937636347487569
1772789922978799900,1.5077998046875,-0.0036629117093980312,0.011947739869356155,0.0005997438565827906
1772789922988865800,1.51786572265625,-0.002621349412947893,0.014358432963490486,0.003943076357245445
1772789922998932000,1.527931884765625,-0.004698881413787603,0.010927216149866581,0.0008460862445645034
1772789923008998000,1.537997802734375,-0.002632800955325365,0.011699266731739044,0.002335326047614217
1772789923019064000,1.54806396484375,-0.002695119008421898,0.011259312741458416,0.00014194648247212172
1772789923029129700,1.558129638671875,-0.0042733084410429,0.012708071619272232,0.0006183860241435468
1772789923039195600,1.568195556640625,-0.0022855247370898724,0.011862251907587051,0.000046339002437889576
1772789923049260800,1.5782607421875,-0.003296727081760764,0.012529640458524227,0.002255697501823306
1772789923059327000,1.588326904296875,-0.004007524810731411,0.011897671967744827,0.0022980417124927044
1772789923069393000,1.598392822265625,-0.004299407359212637,0.013587714172899723,-0.0006958839949220419
1772789923079459000,1.608458984375,-0.0021614215802401304,0.014179201796650887,0.00017204020696226507
1772789923089524700,1.618524658203125,-0.003985154442489147,0.013006346300244331,0.0034884747583419085
1772789923099590700,1.628590576171875,-0.0038775624707341194,0.01088806800544262,-0.002832271857187152
1772789923109656800,1.63865673828125,-0.004572381265461445,0.011893411166965961,0.0004391552647575736
1772789923119722000,1.648721923828125,-0.004924451000988483,0.012585300020873547,-0.0011398328933864832
1772789923129788000,1.658787841796875,-0.003914846573024988,0.0106491819024086,-0.0008362325606867671
1772789923139853800,1.668853759765625,-0.003552923211827874,0.013082246296107769,-0.0023494407068938017
1772789923149919700,1.678919677734375,-0.000636761833447963,0.010129866190254688,-0.002597380895167589
1772789923159985700,1.688985595703125,-0.0034344124142080545,0.011291802860796452,0.000015446334145963192
1772789923170051800,1.6990517578125,-0.00487331859767437,0.013672668486833572,0.0004492752777878195
1772789923180117800,1.70911767578125,-0.0012578109744936228,0.009378321468830109,0.0005065332516096532
1772789923190183000,1.719182861328125,-0.0023723437916487455,0.012853480875492096,0.002924949862062931
1772789923200248800,1.729248779296875,-0.00313001312315464,0.011423096992075443,-0.0005041363765485585
1772789923210314800,1.739314697265625,-0.005929528269916773,0.011805793270468712,-0.0013901700731366873
1772789923220380700,1.749380615234375,-0.0041127195581793785,0.013924604281783104,0.00552339619025588
1772789923230446800,1.75944677734375,-0.004649879410862923,0.013696370646357536,0.0010849718237295747
1772789923240512800,1.7695126953125,-0.004867459647357464,0.01332912128418684,0.0035862126387655735
1772789923250579000,1.779578857421875,-0.00433109886944294,0.01131044514477253,-0.0005283711361698806
1772789923260643800,1.789643798828125,-0.00230842805467546,0.010735468938946724,0.0017592841759324074
1772789923270709800,1.799709716796875,-0.003311374457553029,0.014100639149546623,0.0009403621661476791
1772789923280775700,1.809775634765625,-0.0028631645254790783,0.012752280570566654,0.0037169738207012415
1772789923290841900,1.819841796875,-0.005660016089677811,0.013027651235461235,-0.0005046690348535776
1772789923300907800,1.82990771484375,-0.0031079088803380728,0.014400511048734188,-0.0006934871198609471
1772789923310974000,1.839973876953125,-0.0031097731553018093,0.01213016640394926,0.002216815249994397
1772789923321040000,1.850039794921875,-0.0029619678389281034,0.012263590469956398,-0.0004290352517273277
1772789923331104800,1.860104736328125,-0.0026192190125584602,0.012950419448316097,0.00043755737715400755
1772789923341170700,1.870170654296875,-0.00464694993570447,0.013434049673378468,0.0023643544409424067
1772789923351236900,1.88023681640625,-0.0028847360517829657,0.012548549100756645,0.0015491608064621687
1772789923361302800,1.890302734375,-0.004822185728698969,0.011742410250008106,0.00010492854926269501
1772789923371369000,1.900368896484375,-0.0027593011036515236,0.01118953712284565,0.002478603972122073
1772789923381435000,1.910434814453125,-0.0011574097443372011,0.011620170436799526,0.0010689928894862533
1772789923391501000,1.9205009765625,-0.0036104475148022175,0.011410580016672611,0.00032570460462011397
1772789923401565700,1.930565673828125,-0.0036535905674099922,0.012691560201346874,0.0024780714884400368
1772789923411631900,1.9406318359375,-0.002403236459940672,0.012626312673091888,-0.0037473340053111315
1772789923421697800,1.95069775390625,-0.003546797903254628,0.011955462396144867,0.00007190534961409867
1772789923431764000,1.960763916015625,-0.0036429380998015404,0.010921889916062355,0.002338788006454706
1772789923441830000,1.970829833984375,-0.0022895196452736855,0.011155981570482254,0.0012144014472141862
1772789923451896000,1.98089599609375,-0.0030362699180841446,0.012414325028657913,0.00041199102997779846
1772789923461961700,1.990961669921875,-0.004564125556498766,0.012740029953420162,-0.000284159294096753
1772789923472028000,2.00102783203125,-0.0035401401109993458,0.012353339232504368,0.0015667376574128866
1772789923482092800,2.0110927734375,-0.0046485476195812225,0.010002300143241882,0.0015867113834246993
1772789923492159000,2.021158935546875,-0.003490072675049305,0.011715245433151722,0.00025539714260958135
1772789923502225000,2.031224853515625,-0.003141731023788452,0.01498241163790226,0.000431432097684592
1772789923512290800,2.041290771484375,-0.003916711080819368,0.009868609718978405,0.0003281014505773783
1772789923522356700,2.051356689453125,-0.005794506054371595,0.010718158446252346,0.0008162588928826153
1772789923532422700,2.061422607421875,-0.004475442226976156,0.010084858164191246,0.0021643510553985834
1772789923542488800,2.07148876953125,-0.0032711606472730637,0.013084908947348595,0.0011486213188618422
1772789923552554000,2.081553955078125,-0.00390339526347816,0.013282516039907932,0.00001997370782191865
1772789923562620000,2.091619873046875,-0.0036461339332163334,0.011890747584402561,0.0019145464757457376
1772789923572685800,2.101685791015625,-0.002682868391275406,0.01218476053327322,-0.0002103897277265787
1772789923582751700,2.111751708984375,-0.003453853540122509,0.014003433287143707,0.0004058657505083829
1772789923592817700,2.121817626953125,-0.004388356581330299,0.011009241454303265,0.002374740783125162
1772789923602883800,2.1318837890625,-0.0032557144295424223,0.012043613009154797,-0.0014357101172208786
1772789923612949800,2.14194970703125,-0.00321869645267725,0.011276356875896454,0.000035952674807049334
1772789923623016000,2.152015869140625,-0.003025883575901389,0.011425226926803589,0.00044847631943412125
1772789923633080800,2.162080810546875,-0.003165166825056076,0.006065881811082363,0.001585646066814661
1772789923643146800,2.172146728515625,-0.004601676017045975,0.00987287051975727,-0.0017329188995063305
1772789923653212700,2.182212646484375,-0.004087952431291342,0.011427624151110649,0.0022274679504334927
1772789923663278800,2.19227880859375,-0.004592088516801596,0.010907508432865143,0.0006074670236557722
1772789923673344800,2.2023447265625,-0.004364654887467623,0.012109393253922462,0.0001637844106880948
1772789923683411000,2.212410888671875,-0.00304692261852324,0.013160543516278267,-0.0015675366157665849
1772789923693476900,2.222476806640625,-0.0021084246691316366,0.013068930245935917,-0.0014016216155141592
1772789923703542500,2.23254248046875,-0.00808908510953188,0.015124091878533363,0.001181111903861165
1772789923713607400,2.242607421875,-0.0036479979753494263,0.012200473807752132,-0.0002442118711769581
1772789923723673300,2.25267333984375,-0.005007541738450527,0.011183146387338638,-0.0021736719645559788
1772789923733739300,2.2627392578125,-0.0023489079903811216,0.008048605173826218,0.0018841864075511694
1772789923743805400,2.272805419921875,-0.002150502521544695,0.010587929747998714,0.00046685212873853743
1772789923753871400,2.282871337890625,-0.0034647725988179445,0.012224974110722542,0.0010727213229984045
1772789923763937500,2.2929375,-0.005209675524383783,0.010728544555604458,-0.0012008192716166377
1772789923774003500,2.30300341796875,-0.00011584750609472394,0.012181032449007034,0.0034048515371978283
1772789923784068400,2.313068359375,-0.0030474551022052765,0.011361311189830303,0.002424541860818863
1772789923794134300,2.32313427734375,-0.003943076357245445,0.00954104121774435,-0.0013382384786382318
1772789923804200400,2.333200439453125,-0.0020117517560720444,0.010387660004198551,-0.0006005428149364889
1772789923814266400,2.343266357421875,-0.002956375014036894,0.011455054394900799,0.002615756820887327
1772789923824332500,2.35333251953125,-0.0039020637050271034,0.01245347410440445,0.0010069411946460605
1772789923834398500,2.3633984375,-0.003028813051059842,0.011668906547129154,0.000990962260402739
1772789923844464600,2.373464599609375,-0.0008146609761752188,0.011812451295554638,0.003968908917158842
1772789923854530600,2.383530517578125,-0.004689560271799564,0.012885704636573792,-0.0008740494376979768
1772789923864595500,2.393595458984375,-0.0057218014262616634,0.012505139224231243,-0.0033182986080646515
1772789923874661400,2.403661376953125,-0.0029465213883668184,0.010089118964970112,0.0008564725867472589
1772789923884727600,2.4137275390625,-0.004175570327788591,0.011387144215404987,0.003323092358186841
1772789923894793500,2.42379345703125,-0.004773716442286968,0.010773285292088985,0.001508680754341185
1772789923904859600,2.433859619140625,-0.002567287301644683,0.012860937044024467,-0.00009054747351910919
1772789923914925600,2.443925537109375,-0.0038059235084801912,0.012648949399590492,-0.00049108691746369
1772789923924991500,2.453991455078125,-0.003946005832403898,0.0121264373883605,-0.00042264367220923305
1772789923935057400,2.464057373046875,-0.004215517546981573,0.012209261767566204,0.001088966615498066
1772789923945122600,2.47412255859375,-0.003385144053027034,0.012627910822629929,0.0020961740519851446
1772789923955188500,2.4841884765625,-0.004564658273011446,0.011659053154289722,0.0010247844038531184
1772789923965254700,2.494254638671875,-0.0029225528705865145,0.012801549397408962,0.00010040117194876075
1772789923975320600,2.504320556640625,-0.0036458675749599934,0.012864133343100548,0.0019153454340994358
1772789923985386500,2.514386474609375,-0.002909503411501646,0.014031397178769112,0.002088983543217182
1772789923995452400,2.524452392578125,-0.0031736891251057386,0.00809201505035162,0.0005435511702671647
1772789924005518300,2.534518310546875,-0.0041060615330934525,0.01255121175199747,0.002665557898581028
1772789924015584500,2.54458447265625,-0.0030684941448271275,0.012981578707695007,0.0011566109023988247
1772789924025649700,2.554649658203125,-0.003778226673603058,0.011079548858106136,0.003718571737408638
1772789924035715300,2.56471533203125,-0.005832056514918804,0.013072924688458443,0.0008519452530890703
1772789924045781200,2.57478125,-0.003163569141179323,0.011652661487460136,-0.00012623383372556418
1772789924055847400,2.584847412109375,-0.004337224178016186,0.010273942723870277,-0.00028762139845639467
1772789924065913300,2.594913330078125,-0.004294081125408411,0.011343734338879585,0.000060453756304923445
1772789924075979500,2.6049794921875,-0.004611529875546694,0.010641193017363548,0.000287088769255206
1772789924086045400,2.61504541015625,-0.004619785584509373,0.013215670362114906,0.0033989925868809223
1772789924096111600,2.625111572265625,-0.005152151454240084,0.011894742958247662,0.0009861685102805495
1772789924106176300,2.63517626953125,-0.004693288821727037,0.011039601638913155,0.0030250847339630127
1772789924116242400,2.645242431640625,-0.005605687852948904,0.014963236637413502,0.0006532734259963036
1772789924126308400,2.655308349609375,-0.004977980628609657,0.010748784057796001,0.0004010720585938543
1772789924136374500,2.66537451171875,-0.004093278665095568,0.011597800068557262,0.0008356999605894089
1772789924146440400,2.6754404296875,-0.004712996073067188,0.00965822022408247,-0.0020988371688872576
1772789924156506600,2.685506591796875,-0.003955593332648277,0.011651596054434776,0.000041545314161339775
1772789924166572500,2.695572509765625,-0.0035712989047169685,0.013186641968786716,0.0009443568997085094
1772789924176638500,2.705638427734375,-0.004723116289824247,0.01130698248744011,0.0015928366919979453
1772789924186704400,2.715704345703125,-0.004388889297842979,0.012202870100736618,-0.00009480853623244911
1772789924196769500,2.72576953125,-0.003531085327267647,0.016390157863497734,0.0013315805699676275
1772789924206835500,2.73583544921875,-0.0018578211311250925,0.011294200085103512,-0.0005099953268654644
1772789924216901600,2.745901611328125,-0.003064765827730298,0.01293683797121048,0.002232261700555682
1772789924226967600,2.755967529296875,-0.00424321461468935,0.011782357469201088,0.00046871634549461305
1772789924237033500,2.766033447265625,-0.0015584818320348859,0.010802846401929855,0.0034495925065129995
1772789924247099400,2.776099365234375,-0.003528155852109194,0.012353605590760708,-0.000037017940485384315
1772789924257165300,2.786165283203125,-0.005559881217777729,0.011873170733451843,0.0016562198288738728
1772789924267231500,2.7962314453125,-0.0018540926976129413,0.01176264975219965,0.001181378262117505
1772789924277296600,2.806296630859375,-0.005125253461301327,0.011472098529338837,0.0029555761720985174
1772789924287362600,2.816362548828125,-0.004837099462747574,0.009106945246458054,-0.00185063062235713
1772789924297428500,2.826428466796875,-0.004581968765705824,0.013890249654650688,0.004430967383086681
1772789924307494400,2.836494384765625,-0.0024501082953065634,0.01056529302150011,-0.00032676986302249134
1772789924317560300,2.846560302734375,-0.0031196267809718847,0.01242311391979456,-0.00018615495355334133
1772789924327626500,2.85662646484375,-0.005674929823726416,0.013992780819535255,0.0017475662752985954
1772789924337692400,2.8666923828125,-0.006441387813538313,0.011988219805061817,0.0018181400373578072
1772789924347758600,2.876758544921875,-0.005397694651037455,0.012830844148993492,-0.0008287757518701255
1772789924357824500,2.886824462890625,-0.003629888640716672,0.01179354265332222,0.0015563513152301311
1772789924367889400,2.896889404296875,-0.0027326694689691067,0.011486746370792389,0.0005973470397293568
1772789924377955300,2.906955322265625,-0.0009661948424763978,0.013405021280050278,0.001014664419926703
1772789924388021500,2.917021484375,-0.0027976506389677525,0.010843326337635517,0.002089249901473522
1772789924398087400,2.92708740234375,-0.003242132253944874,0.012599681504070759,-0.0016974988393485546
1772789924408153600,2.937153564453125,-0.002867958042770624,0.012181298807263374,0.00033928672201000154
1772789924418219500,2.947219482421875,-0.0032921996898949146,0.012071044184267521,0.0014213290996849537
1772789924428285400,2.957285400390625,-0.002889529801905155,0.013449229300022125,0.003185939509421587
1772789924438351400,2.967351318359375,-0.004114051349461079,0.01139939483255148,-0.0015219965716823936
1772789924448416500,2.97741650390625,-0.0030977888964116573,0.011070494540035725,-0.0013009541435167193
1772789924458482400,2.987482421875,-0.003052515210583806,0.009513077326118946,-0.0002008023438975215
1772789924468548600,2.997548583984375,-0.0028399948496371508,0.010635067708790302,-0.00028815402765758336
1772789924478614500,3.007614501953125,-0.002401106059551239,0.014670555479824543,-0.0005416869535110891
1772789924488680400,3.017680419921875,-0.0018165421206504107,0.01179434172809124,0.004774515051394701
1772789924498746400,3.027746337890625,-0.0040978058241307735,0.013439908623695374,0.00478543434292078
1772789924508812500,3.0378125,-0.007133543025702238,0.012502741999924183,0.0011584750609472394
1772789924518878500,3.04787841796875,-0.004966529086232185,0.013251889497041702,0.0001954760227818042
1772789924528944400,3.0579443359375,-0.0027140274178236723,0.012879046611487865,0.0016522251535207033
1772789924539009500,3.068009521484375,-0.005222725216299295,0.009633718989789486,0.0009560748003423214
1772789924549075500,3.078075439453125,-0.004287689458578825,0.012911271303892136,0.0006250438746064901
1772789924559141400,3.088141357421875,-0.004732703324407339,0.012822321616113186,0.00019707392493728548
1772789924569207600,3.09820751953125,-0.0024839304387569427,0.010018279775977135,0.0013054815353825688
1772789924579273500,3.1082734375,-0.004458131734281778,0.015337411314249039,0.0021869877818971872
1772789924589339400,3.11833935546875,-0.004825115203857422,0.014130200259387493,0.0008354336023330688
1772789924599405600,3.128405517578125,-0.00430073868483305,0.014675881713628769,-0.0020687435753643513
1772789924609471500,3.138471435546875,0.0004623247659765184,0.014085458591580391,0.0015603461069986224
1772789924619536400,3.148536376953125,-0.004114584065973759,0.011011638678610325,-0.0022085595410317183
1772789924629602600,3.1586025390625,-0.0018511632224544883,0.010274475440382957,0.00047883635852485895
1772789924639668500,3.16866845703125,-0.0014868428697809577,0.010194581001996994,0.0020956413354724646
1772789924649734400,3.178734375,-0.002978213131427765,0.012680907733738422,0.002502838848158717
1772789924659800600,3.188800537109375,-0.005465871654450893,0.011488610878586769,0.0012950951931998134
1772789924669866500,3.198866455078125,-0.006129265297204256,0.012166118249297142,0.0015219965716823936
1772789924679932400,3.208932373046875,-0.002787797013297677,0.011657721363008022,0.0012327772565186024
1772789924689998300,3.218998291015625,-0.003582217963412404,0.012677179649472237,0.0010468886466696858
1772789924700065000,3.22906494140625,-0.0019973707385361195,0.012293417938053608,-0.0012460930738598108
1772789924710131200,3.239131103515625,-0.0072866748087108135,0.010546118021011353,0.002805640222504735
1772789924720196000,3.249196044921875,-0.003281546989455819,0.011241469532251358,0.0021611552219837904
1772789924730262000,3.259261962890625,-0.005500758998095989,0.012443087063729763,0.0014346449170261621
1772789924740328200,3.269328125,-0.005539641249924898,0.01187902968376875,-0.0013148026773706079
1772789924750394000,3.27939404296875,-0.00555295730009675,0.008415589109063148,0.0007613977650180459
1772789924760460000,3.2894599609375,-0.0034258903469890356,0.013815147802233696,-0.0002103897277265787
1772789924770526200,3.299526123046875,-0.004612594842910767,0.011517905630171299,0.00026791400159709156
1772789924780591900,3.309591796875,-0.0006370281334966421,0.011990616098046303,0.0031348068732768297
1772789924790658000,3.319657958984375,-0.0037670412566512823,0.009487245231866837,0.0005619269795715809
1772789924800723200,3.32972314453125,-0.00495134899392724,0.010545851662755013,-0.00042796999332495034
1772789924810789000,3.3397890625,-0.005674929823726416,0.014199442230165005,0.004263188224285841
1772789924820855000,3.34985498046875,-0.0027891285717487335,0.010599381290376186,0.0012932310346513987
1772789924830921200,3.359921142578125,-0.0028607675340026617,0.012855610810220242,0.000943025341257453
1772789924840987000,3.36998681640625,-0.004537493921816349,0.012634036131203175,0.0013709953054785728
1772789924851053000,3.380052978515625,-0.00242134602740407,0.01221565343439579,0.0022125542163848877
1772789924861119000,3.390118896484375,-0.005076784174889326,0.012970659881830215,0.0012042814632877707
1772789924871185200,3.40018505859375,-0.005293831694871187,0.013032977469265461,0.0032746228389441967
1772789924881251000,3.4102509765625,-0.0054546864703297615,0.011481420136988163,0.0030056436080485582
1772789924891317200,3.420317138671875,-0.004256796557456255,0.010962902568280697,0.0005613943794742227
1772789924901382000,3.4303818359375,-0.003869839245453477,0.010089651681482792,-0.0002897519152611494
1772789924911448000,3.440447998046875,-0.005140966270118952,0.013401825912296772,0.0006647250265814364
1772789924921514000,3.450513916015625,-0.005477855913341045,0.010328537784516811,0.0023606258910149336
1772789924931580200,3.460580078125,-0.0026961842086166143,0.011779693886637688,-0.0014692660188302398
1772789924941646000,3.47064599609375,-0.002813895931467414,0.012526444159448147,-0.0007480819476768374
1772789924951712300,3.480712158203125,-0.0026264095213264227,0.010557303205132484,-0.001525991247035563
1772789924961778200,3.490778076171875,-0.0017219999572262168,0.013844442553818226,0.0011771172285079956
1772789924971844000,3.500843994140625,-0.005633650813251734,0.012094479985535145,0.0013307816116139293
1772789924981910000,3.510909912109375,-0.004543885588645935,0.013412744738161564,0.002969424705952406
1772789924991975200,3.52097509765625,-0.0021526331547647715,0.013012205250561237,0.0013382384786382318
1772789925002041000,3.531041015625,-0.006225138902664185,0.011294466443359852,0.0015089471125975251
1772789925012107000,3.54110693359375,-0.002990197157487273,0.014311295002698898,0.0035955337807536125
1772789925022173200,3.551173095703125,-0.0031824775505810976,0.01146677229553461,0.0019086875254288316
1772789925032239000,3.561239013671875,-0.005915413144975901,0.011327755637466908,-0.00222001108340919
1772789925042305000,3.571304931640625,-0.0034200313966721296,0.011804461479187012,-0.0025899240281432867
1772789925052371000,3.581370849609375,-0.002959837205708027,0.01227743923664093,0.0007850998663343489
1772789925062437000,3.59143701171875,-0.00339153571985662,0.012665461748838425,0.0012210593558847904
1772789925072503000,3.6015029296875,-0.004285558592528105,0.012081163935363293,-0.0034847462084144354
1772789925082568200,3.611568115234375,-0.005604888778179884,0.014273744076490402,-0.000830107310321182
1772789925092634000,3.621634033203125,-0.0038834214210510254,0.015163506381213665,0.003579554846510291
1772789925102700000,3.631699951171875,-0.004896221682429314,0.013440707698464394,-0.0001328917423961684
1772789925112766000,3.641765869140625,-0.004424842074513435,0.012473180890083313,0.001383245806209743
1772789925122832100,3.65183203125,-0.003492735791951418,0.011411379091441631,-0.002665291540324688
1772789925132898000,3.66189794921875,-0.004239486064761877,0.010233462788164616,-0.000027696874894900247
1772789925142964200,3.671964111328125,-0.003650394966825843,0.014218617230653763,0.00007590009045088664
1772789925153030100,3.682030029296875,-0.0020548950415104628,0.010785269550979137,0.0017725999932736158
1772789925163096000,3.692095947265625,-0.004861334338784218,0.013369867578148842,0.00035979304811917245
1772789925173161000,3.702160888671875,-0.007703459821641445,0.012976785190403461,0.0012514194240793586
1772789925183227100,3.71222705078125,-0.004869323689490557,0.010617224499583244,0.0010133327450603247
1772789925193293000,3.72229296875,-0.004959871061146259,0.01290194969624281,0.00037523938226513565
1772789925203359200,3.732359130859375,-0.0031129689887166023,0.00950934924185276,-0.00003009372085216455
1772789925213425200,3.742425048828125,-0.0038868836127221584,0.011642275378108025,0.0022391858510673046
1772789925223491000,3.752490966796875,-0.0057377805933356285,0.01139939483255148,0.0015451660146936774
1772789925233557000,3.762556884765625,-0.0030181603506207466,0.011549063958227634,0.0010000169277191162
1772789925243623000,3.772622802734375,-0.004728975240141153,0.011681157164275646,-0.00008841694943839684
1772789925253689000,3.782689208984375,-0.004509796854108572,0.010972489602863789,0.0022921827621757984
1772789925263755000,3.792755126953125,-0.0030453247018158436,0.012972258031368256,0.0000066579027588886674
1772789925273820200,3.802820068359375,-0.0024671524297446012,0.011825233697891235,0.0001496696495451033
1772789925283886000,3.812885986328125,-0.002263953210785985,0.008163920603692532,0.0029622339643538
1772789925293952000,3.822951904296875,-0.005590774118900299,0.011244398541748524,0.0011563445441424847
1772789925304018000,3.833017822265625,-0.006103698629885912,0.011281150393188,0.002016545506194234
1772789925314084000,3.843083984375,-0.003084473079070449,0.011952799744904041,0.0008748483960516751
1772789925324150000,3.85314990234375,-0.0034996599424630404,0.013758955523371696,0.0019971043802797794
1772789925334216200,3.86321630859375,-0.004693288821727037,0.010163155384361744,0.0010106696281582117
1772789925344282000,3.8732822265625,-0.0030956584960222244,0.013323795050382614,0.003230147995054722
1772789925354348300,3.883348388671875,-0.0031587753910571337,0.013080381788313389,0.0017699368763715029
1772789925364414000,3.8934140625,-0.0030242856591939926,0.012120045721530914,-0.0003787015157286078
1772789925374479000,3.90347900390625,-0.005456018261611462,0.014223677106201649,-0.0001627191377338022
1772789925384545000,3.913544921875,-0.0060080913826823235,0.012151737697422504,0.0004239752306602895
1772789925394611200,3.923611083984375,-0.003236806020140648,0.011333614587783813,0.0008237157016992569
1772789925404677000,3.933677001953125,-0.0031521173659712076,0.012283298186957836,-0.0011171960504725575
1772789925414743300,3.943743408203125,-0.0024104269687086344,0.013044695369899273,-0.0004346278728917241
1772789925424809000,3.95380908203125,-0.0019177423091605306,0.012124840170145035,0.0019044264918193221
1772789925434875100,3.963875244140625,-0.003054911969229579,0.010399377904832363,0.001984853995963931
1772789925444941000,3.973941162109375,-0.0024311996530741453,0.013138438574969769,0.0034522556234151125
1772789925455007000,3.984007080078125,-0.001544100814498961,0.011687548831105232,0.0020719394087791443
1772789925465073200,3.9940732421875,-0.004561196081340313,0.012429505586624146,0.0007952199084684253
1772789925475138300,4.00413818359375,-0.00458569684997201,0.01369024533778429,0.002998985582962632
1772789925485204000,4.014203857421875,-0.004948685877025127,0.012985040433704853,-0.0015579492319375277
1772789925495269000,4.02426904296875,-0.004811000544577837,0.012960273772478104,0.00039840888348408043
1772789925505335000,4.0343349609375,-0.003573695896193385,0.016105467453598976,0.0003206445835530758
1772789925515401200,4.044401123046875,-0.005425924435257912,0.012975187040865421,0.0006293049664236605
1772789925525467100,4.054467041015625,-0.002469815546646714,0.01266945619136095,0.0022173479665070772
1772789925535533300,4.064533203125,-0.004422445315867662,0.011034275405108929,0.005088502075523138
1772789925545599000,4.074598876953125,-0.004641357343643904,0.012891030870378017,0.0003709783486556262
1772789925555665000,4.084664794921875,-0.004979312419891357,0.013188772834837437,-0.0024519723374396563
1772789925565731000,4.09473095703125,-0.004534031730145216,0.01119459792971611,-0.00013928332191426307
1772789925575797000,4.104796875,-0.0028570392169058323,0.011769574135541916,0.000147272803587839
1772789925585863200,4.11486328125,-0.003352919826284051,0.010390322655439377,0.0005430185701698065
1772789925595929000,4.12492919921875,-0.0021907163318246603,0.012990633025765419,-0.0000673779723001644
1772789925605994000,4.134993896484375,-0.003935885615646839,0.01290274877101183,0.0014825817197561264
1772789925616060000,4.145059814453125,-0.00376064982265234,0.00933065079152584,0.003485811408609152
1772789925626126000,4.1551259765625,-0.003737214021384716,0.013349360786378384,0.0007877630414441228
1772789925636192000,4.16519189453125,-0.0022082931827753782,0.01050297450274229,0.0017539578257128596
1772789925646258200,4.175258056640625,-0.00293320557102561,0.010659568943083286,0.00007483482477255166
1772789925656324000,4.185323974609375,-0.0030429279431700706,0.013896108604967594,0.0016383767360821366
1772789925666390300,4.195390380859375,-0.0018636800814419985,0.012763732112944126,0.0008109325426630676
1772789925676456000,4.2054560546875,-0.005278385244309902,0.013099556788802147,0.003736681304872036
1772789925686522000,4.215522216796875,-0.004414988216012716,0.01128061767667532,-0.00009321063407696784
1772789925696587000,4.2255869140625,-0.0030120352748781443,0.010536796413362026,0.00284984870813787
1772789925706653000,4.23565283203125,-0.00452870549634099,0.012911004945635796,0.0012154667638242245
1772789925716718800,4.24571875,-0.005033640656620264,0.012882242910563946,0.0006934871198609471
1772789925726785000,4.255784912109375,-0.002796585438773036,0.012967729941010475,0.001056476030498743
1772789925736851000,4.265850830078125,-0.004206995479762554,0.011543737724423409,-0.0024168186355382204
1772789925746916900,4.275916748046875,-0.004780107643455267,0.011522432789206505,0.0024144218768924475
1772789925756982800,4.285982666015625,-0.003011236200109124,0.014270548708736897,0.00036671728594228625
1772789925767049000,4.296049072265625,-0.003367833560332656,0.011421232484281063,-0.00048629322554916143
1772789925777115000,4.306114990234375,-0.004265052266418934,0.012202337384223938,-0.002261290093883872
1772789925787180800,4.316180908203125,-0.001585646066814661,0.013904896564781666,-0.0011965582380071282
1772789925797247000,4.3262470703125,-0.004892759490758181,0.011302988044917583,-0.0004471447318792343
1772789925807312000,4.336311767578125,-0.004718322306871414,0.012120844796299934,0.000895621080417186
1772789925817377800,4.346377685546875,-0.0031875374261289835,0.010677145794034004,0.002829608740285039
1772789925827443700,4.356443603515625,-0.0027688886038959026,0.011284612119197845,0.00042823629337362945
1772789925837510000,4.366510009765625,-0.004590224474668503,0.010818026959896088,0.000391218374716118
1772789925847575800,4.376575927734375,-0.0029459886718541384,0.011333614587783813,0.0017214673571288586
1772789925857642000,4.38664208984375,-0.005923669319599867,0.01124919205904007,0.00024341292737517506
1772789925867708000,4.3967080078125,-0.0034027209039777517,0.011652128770947456,0.003320429241284728
1772789925877773800,4.40677392578125,-0.004259992390871048,0.01293124444782734,0.001817873795516789
1772789925887839700,4.41683984375,-0.0027917916886508465,0.01182337012141943,-0.0015110776294022799
1772789925897906000,4.426906005859375,-0.0018756643403321505,0.01130724884569645,0.001169394003227353
1772789925907970800,4.436970703125,-0.0034471957478672266,0.012561864219605923,0.00039654469583183527
1772789925918037000,4.447037109375,-0.006105563137680292,0.011230284348130226,0.0008178567513823509
1772789925928103000,4.45710302734375,-0.003549194661900401,0.010122941806912422,-0.0008953547803685069
1772789925938168800,4.4671689453125,-0.002127865795046091,0.012455604039132595,-0.0018615495646372437
1772789925948234800,4.47723486328125,-0.0038392129354178905,0.009035573340952396,0.0012751214671880007
1772789925958301000,4.487301025390625,-0.003745469730347395,0.011550395749509335,0.00005193164179218002
1772789925968366800,4.497366943359375,-0.0031073763966560364,0.012682772241532803,0.0004516721237450838
1772789925978432800,4.507432861328125,-0.005723133217543364,0.011391405016183853,0.0007486145477741957
1772789925988499000,4.5174990234375,-0.003919906914234161,0.0123645244166255,0.0016349145444110036
1772789925998564900,4.52756494140625,-0.0037199032958596945,0.012691293843090534,0.0017411747248843312
1772789926008631000,4.537631103515625,-0.0037321539130061865,0.010521616786718369,0.0025542378425598145
1772789926018696000,4.547696044921875,-0.004840828012675047,0.010458233766257763,0.00031638352083973587
1772789926028761900,4.557761962890625,-0.003296727081760764,0.011500062420964241,0.00037044569035060704
1772789926038827800,4.567827880859375,-0.0034051176626235247,0.011264905333518982,0.0016229304019361734
1772789926048894000,4.57789404296875,-0.004052532371133566,0.009578058496117592,0.0018674085149541497
1772789926058960000,4.5879599609375,-0.006431800313293934,0.012059059925377369,-0.0008127967594191432
1772789926069026000,4.598026123046875,-0.003067428944632411,0.011769574135541916,0.0006745787104591727
1772789926079091700,4.608091796875,-0.003525492735207081,0.01372060552239418,0.0007102650706656277
1772789926089158000,4.618157958984375,-0.00577852688729763,0.01227743923664093,0.0007217166712507606
1772789926099223800,4.628223876953125,-0.002341451123356819,0.00939137116074562,0.001038632821291685
1772789926109290000,4.6382900390625,-0.0047119311057031155,0.012406069785356522,0.002397377509623766
1772789926119356000,4.64835595703125,-0.0054458980448544025,0.011718708090484142,-0.0007107976707629859
1772789926129420800,4.6584208984375,-0.005063468124717474,0.011506187729537487,0.0005368932615965605
1772789926139486700,4.66848681640625,-0.004455734975636005,0.011837484315037727,0.0031707596499472857
1772789926149553000,4.678552978515625,-0.0019829897210001945,0.011099256575107574,0.0029848709236830473
1772789926159618800,4.688618896484375,-0.004073305055499077,0.010722951963543892,0.0006183860241435468
1772789926169685000,4.69868505859375,-0.0020362529903650284,0.011798868887126446,0.0014801849611103535
1772789926179751000,4.7087509765625,-0.0032953955233097076,0.010865164920687675,0.0014721954939886928
1772789926189816800,4.71881689453125,-0.006864830385893583,0.010690993629395962,0.0027031085919588804
1772789926199883000,4.728883056640625,-0.0028455876745283604,0.012955479323863983,0.000990429543890059
1772789926209948700,4.73894873046875,-0.0044352286495268345,0.01309263240545988,0.0020698087755590677
1772789926220014800,4.749014892578125,-0.004611796233803034,0.01426468975841999,0.0003371562052052468
1772789926230080000,4.759080078125,-0.002302302746102214,0.010584467090666294,-0.0003885551996063441
1772789926240146000,4.76914599609375,-0.0051564122550189495,0.012661200016736984,-0.00321949552744627
1772789926250211800,4.7792119140625,-0.005248291417956352,0.014147244393825531,0.0005390237784013152
1772789926260278000,4.789278076171875,-0.0035180358681827784,0.010185259394347668,0.003320961957797408
1772789926270343700,4.79934375,-0.0035366779193282127,0.009015332907438278,0.0020503676496446133
1772789926280409900,4.809409912109375,-0.005382248666137457,0.013246030546724796,0.000023169501218944788
1772789926290475800,4.819475830078125,-0.00689172837883234,0.01335894875228405,0.0007568703731521964
1772789926300542000,4.8295419921875,-0.00279019377194345,0.01306200586259365,0.0007542071980424225
1772789926310608000,4.83960791015625,-0.0020543625578284264,0.010386860929429531,0.0027598338201642036
1772789926320674000,4.849674072265625,-0.0015472965314984322,0.012259329669177532,-0.0003307645965833217
1772789926330740000,4.859739990234375,-0.003020557342097163,0.013075321912765503,-0.001290834159590304
1772789926340806000,4.869805908203125,-0.0007920240750536323,0.013077452778816223,0.0009230516152456403
1772789926350870800,4.879870849609375,-0.003579288488253951,0.014830078929662704,0.00013182646944187582
1772789926360937000,4.88993701171875,-0.002799781272187829,0.009344233199954033,-0.00015419702685903758
1772789926371003000,4.9000029296875,-0.003204315435141325,0.013667075894773006,-0.0007091998122632504
1772789926381069000,4.910069091796875,-0.003710316028445959,0.010420949198305607,-0.002675145398825407
1772789926391135000,4.920135009765625,-0.0044352286495268345,0.012582903727889061,0.002454102970659733
1772789926401201000,4.930200927734375,-0.0033420007675886154,0.012284629046916962,0.004637096077203751
1772789926411266800,4.940266845703125,-0.0019230686593800783,0.010818026959896088,0.0003992078418377787
1772789926421332700,4.950332763671875,-0.004554271697998047,0.014119813218712807,0.002258626976981759
1772789926431399000,4.96039892578125,-0.004479170776903629,0.00971760880202055,-0.0010831075487658381
1772789926441464800,4.97046484375,-0.0025920546613633633,0.012860138900578022,0.00301736150868237
1772789926451531000,4.980531005859375,-0.0041462755762040615,0.012358399108052254,0.001184041379019618
1772789926461595600,4.990595703125,-0.002448244020342827,0.012290754355490208,0.0026282735634595156
1772789926471661800,5.000661865234375,-0.003680488560348749,0.011928831227123737,0.00018508969515096396
1772789926481727700,5.010727783203125,-0.0019108180422335863,0.014127536676824093,0.000937166390940547
1772789926491794000,5.0207939453125,-0.001315335277467966,0.012493687681853771,-0.0005227785441093147
1772789926501859800,5.03085986328125,-0.003406449221074581,0.011610583402216434,-0.00166580721270293
1772789926511926000,5.040926025390625,-0.002180329989641905,0.010429471731185913,-0.00035473305615596473
1772789926521992000,5.050991943359375,-0.0049034119583666325,0.01432008296251297,0.000720118754543364
1772789926532057900,5.061057861328125,-0.005215534474700689,0.01374910119920969,0.00022077605535741895
1772789926542123800,5.071123779296875,-0.0041127195581793785,0.011836951598525047,0.0008407599525526166
1772789926552190000,5.08118994140625,-0.00726350536569953,0.013146961107850075,0.0006567355012521148
1772789926562256000,5.091255859375,-0.004068511072546244,0.010688064619898796,0.002302036387845874
1772789926572321000,5.101321044921875,-0.004335892386734486,0.012350409291684628,0.0027840686962008476
1772789926582387000,5.111386962890625,-0.003840810852125287,0.012428440153598785,0.0008045409340411425
1772789926592452900,5.121452880859375,0.000031957933970261365,0.012174640782177448,-0.00036698358599096537
1772789926602518800,5.131518798828125,-0.003524960018694401,0.013021259568631649,0.003746002446860075
1772789926612584700,5.141584716796875,-0.0055228634737432,0.011648666113615036,-0.0009483516332693398
1772789926622651000,5.15165087890625,-0.002154231071472168,0.012980513274669647,-0.0002460760879330337
1772789926632716800,5.161716796875,-0.0020897823851555586,0.009862750768661499,0.0011819108622148633
1772789926642783000,5.171782958984375,-0.0034410704392939806,0.010789796710014343,0.00003941478280466981
1772789926652849000,5.181848876953125,-0.00236249016597867,0.012203935533761978,0.0004082625964656472
1772789926662915000,5.1919150390625,-0.002822950715199113,0.010731473565101624,0.000553404854144901
1772789926672980700,5.201980712890625,-0.002814961364492774,0.010819624178111553,0.00036432043998502195
1772789926683047000,5.212046875,-0.0030660973861813545,0.012779977172613144,0.0007701861904934049
1772789926693111800,5.22211181640625,-0.0038282941095530987,0.01073839794844389,-0.0018759306985884905
1772789926703178000,5.232177978515625,-0.005730589851737022,0.014828214421868324,0.0003177151083946228
1772789926713244700,5.24224462890625,-0.001047421246767044,0.013032711111009121,0.0015100123127922416
1772789926723310600,5.252310546875,-0.0028064390644431114,0.011686217039823532,0.00038296254933811724
1772789926733376800,5.262376708984375,-0.0029313412960618734,0.013442838564515114,-0.0006261091912165284
1772789926743442700,5.272442626953125,-0.003560912562534213,0.013037770986557007,-0.0016913736471906304
1772789926753508900,5.2825087890625,-0.0031398669816553593,0.013615144416689873,0.0009179916232824326
1772789926763574800,5.29257470703125,-0.0020096213556826115,0.01196957752108574,0.0020160130225121975
1772789926773640700,5.302640625,-0.0023494407068938017,0.010509366169571877,0.0013976269401609898
1772789926783706600,5.31270654296875,-0.005386775825172663,0.01273017656058073,0.0016229304019361734
1772789926793772800,5.322772705078125,-0.006217149551957846,0.010453706607222557,0.000056459015468135476
1772789926803838700,5.332838623046875,-0.0028269453905522823,0.012418586760759354,0.00013022858183830976
1772789926813904000,5.34290380859375,-0.0032626385800540447,0.011301922611892223,0.0007512777228839695
1772789926823969800,5.3529697265625,-0.0032581111881881952,0.011484881862998009,0.0022157500497996807
1772789926834035700,5.36303564453125,-0.0038432078436017036,0.012435630895197392,0.0009989517275243998
1772789926844101600,5.3731015625,-0.003132942598313093,0.010574080981314182,-0.0003765709698200226
1772789926854167800,5.383167724609375,-0.0031201594974845648,0.013285977765917778,0.0026016421616077423
1772789926864233700,5.393233642578125,-0.0031784826423972845,0.012678244151175022,0.0018197379540652037
1772789926874299600,5.403299560546875,-0.0037473340053111315,0.011561048217117786,0.0023438481148332357
1772789926884365800,5.41336572265625,-0.0059721386060118675,0.01341887004673481,0.00022077605535741895
1772789926894431700,5.423431640625,-0.0030125677585601807,0.010208695195615292,-0.00027297402266412973
1772789926904498000,5.433497802734375,-0.0028487835079431534,0.013202887028455734,-0.0015656723408028483
1772789926914563600,5.4435634765625,-0.0027233485598117113,0.011169297620654106,0.0017262609908357263
1772789926924629800,5.453629638671875,-0.004589691758155823,0.009706157259643078,-0.001606685109436512
1772789926934694700,5.463694580078125,-0.0035563854034990072,0.011168764904141426,-0.002579271560534835
1772789926944760800,5.4737607421875,-0.004682902246713638,0.010894726030528545,0.0026413232553750277
1772789926954826800,5.48382666015625,-0.004808071069419384,0.013968279585242271,0.0009166600648313761
1772789926964893000,5.493892822265625,-0.0036368127912282944,0.01116050872951746,0.0030011162161827087
1772789926974958600,5.50395849609375,-0.0021052288357168436,0.011603392660617828,-0.0008162588928826153
1772789926985024800,5.514024658203125,-0.0033182986080646515,0.011863317340612411,0.0017648768844082952
1772789926995090700,5.524090576171875,-0.0036677054595202208,0.012386095710098743,0.0014780544443055987
1772789927005156900,5.534156982421875,-0.005584116093814373,0.011434548534452915,0.0024027039762586355
1772789927015222800,5.544222900390625,-0.0033545177429914474,0.013705425895750523,0.002442385070025921
1772789927025288700,5.554288818359375,-0.0008040083339437842,0.012020976282656193,-0.00029587719473056495
1772789927035355000,5.56435498046875,-0.005476790945976973,0.013002084568142891,0.000025300030756625347
1772789927045420500,5.574420654296875,-0.0059601543471217155,0.0122428173199296,0.00023089606838766485
1772789927055486700,5.58448681640625,-0.0022714100778102875,0.012691560201346874,0.0036125779151916504
1772789927065552000,5.5945517578125,-0.0028698223177343607,0.013218600302934647,0.002382996492087841
1772789927075617800,5.60461767578125,-0.004797684494405985,0.011126154102385044,0.002058623591437936
1772789927085683700,5.61468359375,-0.005453088786453009,0.011211375705897808,-0.0007254450465552509
1772789927095750000,5.62475,-0.002916427794843912,0.011284345760941505,0.002584864152595401
1772789927105815600,5.634815673828125,-0.0020730046089738607,0.011342668905854225,0.001517735538072884
1772789927115881700,5.6448818359375,-0.003549727378413081,0.014987471513450146,0.0015355786308646202
1772789927125947600,5.65494775390625,-0.00549330236390233,0.010881143622100353,-0.0018847191240638494
1772789927136013800,5.665013916015625,-0.0023209447972476482,0.011236675083637238,0.0014032195322215557
1772789927146079700,5.675079833984375,-0.004584631882607937,0.013659353367984295,0.0003837615076918155
1772789927156146000,5.68514599609375,-0.006637129932641983,0.012689962051808834,0.0015656723408028483
1772789927166211800,5.6952119140625,-0.003817108692601323,0.012661999091506004,0.0014498248929157853
1772789927176277800,5.70527783203125,-0.005440039094537497,0.011211908422410488,0.0009941579774022102
1772789927186342700,5.7153427734375,-0.0031188279390335083,0.012884905561804771,0.0024778051301836967
1772789927196408800,5.725408935546875,-0.003498594742268324,0.013518472202122211,0.0004972121678292751
1772789927206474800,5.735474853515625,-0.005359079223126173,0.010596717707812786,0.0006183860241435468
1772789927216541000,5.745541015625,-0.0012982910266146064,0.012985306791961193,-0.000871652620844543
1772789927226606800,5.75560693359375,-0.003290335414931178,0.010586331598460674,0.0004474110610317439
1772789927236672500,5.765672607421875,-0.002175003755837679,0.013597833923995495,0.00031638352083973587
1772789927246738700,5.77573876953125,-0.0011622034944593906,0.014939534477889538,0.0007720504072494805
1772789927256804600,5.7858046875,-0.004776911810040474,0.009548497386276722,-0.00024740767548792064
1772789927266870800,5.795870849609375,-0.0011643340112641454,0.010192982852458954,0.000999750685878098
1772789927276936700,5.805936767578125,-0.002074069809168577,0.013354687951505184,0.0018703379901126027
1772789927287003000,5.8160029296875,-0.004722050856798887,0.012773851864039898,0.0005014732014387846
1772789927297068800,5.82606884765625,-0.003369963960722089,0.011487811803817749,-0.00115394766908139
1772789927307135000,5.836135009765625,-0.004462392535060644,0.011140801943838596,-0.0002133192028850317
1772789927317199600,5.84619970703125,-0.0018405106384307146,0.012975986115634441,0.002978213131427765
1772789927327265800,5.856265869140625,-0.002700445242226124,0.010495251044631004,0.00003009372085216455
1772789927337331700,5.866331787109375,-0.0046911584213376045,0.012371448799967766,0.0016919062472879887
1772789927347398000,5.87639794921875,-0.002957440447062254,0.014105166308581829,0.0021076255943626165
1772789927357463800,5.8864638671875,-0.00430207047611475,0.014553909189999104,0.0029851372819393873
1772789927367530000,5.896530029296875,-0.003477289341390133,0.012212191708385944,0.0006221143994480371
1772789927377595600,5.906595703125,-0.004432565066963434,0.010728278197348118,0.0009930927772074938
1772789927387661600,5.91666162109375,-0.004563592839986086,0.011319765821099281,0.001802693703211844
1772789927397727700,5.926727783203125,-0.00490154791623354,0.01266759168356657,-0.000517718493938446
1772789927407793700,5.936793701171875,-0.003456516657024622,0.011920042335987091,-0.0005954828229732811
1772789927417859800,5.94685986328125,-0.002918824553489685,0.011546934023499489,0.002264485927298665
1772789927427925800,5.95692578125,-0.0018524948973208666,0.010400176979601383,-0.0009526127250865102
1772789927437992000,5.966991943359375,-0.0010159959783777595,0.012496616691350937,0.00011851066665258259
1772789927448056600,5.977056640625,-0.0031909996178001165,0.012371182441711426,0.0025063008069992065
1772789927458122800,5.987122802734375,-0.006043777801096439,0.011949070729315281,-0.0006245112745091319
1772789927468188700,5.997188720703125,-0.004246943164616823,0.012618323788046837,-0.00041784998029470444
1772789927478254800,6.0072548828125,-0.0028999161440879107,0.01245267502963543,0.001127316034398973
1772789927488320800,6.01732080078125,-0.003099919529631734,0.013828463852405548,0.0008594020619057119
1772789927498387000,6.027386962890625,-0.0014966964954510331,0.014128069393336773,0.001931058126501739
1772789927508452600,6.03745263671875,-0.004504736978560686,0.009589243680238724,-0.00039760995423421264
1772789927518518800,6.047518798828125,-0.0008817726047709584,0.01212856825441122,0.003742007538676262
1772789927528584700,6.057584716796875,-0.003329484025016427,0.013345899060368538,-0.0011124024167656898
1772789927538650600,6.067650634765625,-0.004537493921816349,0.009672600775957108,0.004101800732314587
1772789927548716800,6.077716796875,-0.0033712955191731453,0.014196246862411499,0.0014599448768422008
1772789927558782700,6.08778271484375,-0.003102049930021167,0.00986488163471222,0.0005576659459620714
1772789927568849000,6.097848876953125,-0.002103630919009447,0.010987936519086361,-0.00019574233738239855
1772789927578913800,6.107913818359375,-0.0032887374982237816,0.012146944180130959,0.002298840554431081
1772789927588979700,6.117979736328125,-0.001862348522990942,0.0129323098808527,0.0008362325606867671
1772789927599045600,6.128045654296875,-0.004905542824417353,0.01641732268035412,0.0010602044640108943
1772789927609111800,6.13811181640625,-0.0019718045368790627,0.010320814326405525,-0.0012026835465803742
1772789927619177700,6.148177734375,-0.003911917097866535,0.011691809631884098,-0.0007054713787510991
1772789927629244000,6.158243896484375,-0.004191282670944929,0.012281700037419796,0.0007850998663343489
1772789927639309600,6.1683095703125,-0.00509995361790061,0.009290437214076519,0.0016921724891290069
1772789927649375700,6.178375732421875,-0.0008000136003829539,0.012384497560560703,0.0004338289436418563
1772789927659441700,6.188441650390625,-0.004555070772767067,0.011758655309677124,0.0018495653057470918
1772789927669507800,6.1985078125,-0.003926298581063747,0.010552509687840939,0.0018900453578680754
1772789927679573800,6.20857373046875,-0.0028423918411135674,0.01302498858422041,-0.0013265205780044198
1772789927689639700,6.2186396484375,-0.003620567498728633,0.012231898494064808,-0.000874582096002996
1772789927699705900,6.228705810546875,-0.00700970645993948,0.013825268484652042,0.0029704899061471224
1772789927709769700,6.238769775390625,-0.0036876790691167116,0.011145329102873802,-0.0014927018200978637
1772789927719835600,6.248835693359375,-0.0016924388473853469,0.011551993899047375,0.004768123384565115
1772789927729901800,6.25890185546875,-0.0031185615807771683,0.015746472403407097,0.0008524778531864285
1772789927739967700,6.2689677734375,-0.003251187037676573,0.012493421323597431,0.002261290093883872
1772789927750033700,6.27903369140625,-0.004040281753987074,0.01309103425592184,0.0009664611425250769
1772789927760099600,6.289099609375,-0.004235757514834404,0.012925385497510433,0.0014093448407948017
1772789927770165800,6.299165771484375,-0.003562244353815913,0.011580223217606544,0.00242107966914773
1772789927780231700,6.309231689453125,-0.0017502295086160302,0.013686517253518105,0.0037004624027758837
1772789927790297900,6.3192978515625,-0.004835767671465874,0.011263040825724602,0.0006791060441173613
1772789927800363800,6.32936376953125,-0.006897853687405586,0.014772821217775345,0.001981125446036458
1772789927810429700,6.3394296875,-0.0030184267088770866,0.012439891695976257,-0.0004316983977332711
1772789927820495600,6.34949560546875,-0.0010958907660096884,0.011508850380778313,-0.0003254382754676044
1772789927830561500,6.3595615234375,-0.003379285102710128,0.013423130847513676,0.0015909724170342088
1772789927840627700,6.369627685546875,-0.003739610780030489,0.012677978724241257,-0.0005081311101093888
1772789927850692900,6.37969287109375,-0.0028067054226994514,0.011272894218564034,0.0014452975010499358
1772789927860758800,6.3897587890625,-0.0031012510880827904,0.013163738884031773,0.001805623178370297
1772789927870824700,6.39982470703125,-0.0037760960403829813,0.012506737373769283,5.326322138898831e-7
1772789927880890600,6.409890625,-0.004868258256465197,0.011715245433151722,0.0010229201288893819
1772789927890956500,6.41995654296875,-0.0034285534638911486,0.01125132292509079,0.0008186557097360492
1772789927901022700,6.430022705078125,-0.004262389149516821,0.011679292656481266,0.0010000169277191162
1772789927911088600,6.440088623046875,-0.004319114610552788,0.012703544460237026,0.00027377295191399753
1772789927921154800,6.45015478515625,-0.0030154972337186337,0.012232431210577488,-0.0014354437589645386
1772789927931220700,6.460220703125,-0.00433163158595562,0.014318219386041164,0.003968109842389822
1772789927941287000,6.470286865234375,-0.004574511665850878,0.010068080388009548,-0.0002745719102676958
1772789927951352600,6.4803525390625,-0.0019832560792565346,0.009314405731856823,0.001136637176387012
1772789927961418800,6.490418701171875,-0.005761216394603252,0.013968279585242271,-0.000913197931367904
1772789927971484700,6.500484619140625,-0.0029904635157436132,0.012072641402482986,-0.002457032445818186
1772789927981550600,6.510550537109375,-0.005544967483729124,0.014003966003656387,0.004480502102524042
1772789927991615700,6.52061572265625,-0.003668237943202257,0.01335868239402771,0.0007057376787997782
1772789928001682000,6.530681884765625,-0.004061853047460318,0.012219381518661976,0.0003097256412729621
1772789928011747600,6.54074755859375,-0.0023158849216997623,0.011839082464575768,0.0019433086272329092
1772789928021813500,6.5508134765625,-0.0030866037122905254,0.01137169823050499,0.0018820558907464147
1772789928031879700,6.560879638671875,-0.006657636258751154,0.013139770366251469,0.0014018879737704992
1772789928041945600,6.570945556640625,-0.003325755475088954,0.01278636883944273,0.0006564692012034357
1772789928052011800,6.58101171875,-0.002928145695477724,0.01008192915469408,0.002680737990885973
1772789928062077700,6.59107763671875,-0.0032858080230653286,0.012265987694263458,0.0006708502769470215
1772789928072144000,6.601143798828125,-0.0032085764687508345,0.010103766806423664,-0.0009358347742818296
1772789928082209800,6.611209716796875,0.00026844663079828024,0.010374343954026699,0.000017310547264060006
1772789928092275700,6.621275634765625,-0.0049372343346476555,0.011285677552223206,0.0004519384237937629
1772789928102341600,6.631341552734375,-0.004856273997575045,0.012722719460725784,0.0031848743092268705
1772789928112407800,6.64140771484375,0.00036911413189955056,0.01164467167109251,0.0017246630741283298
1772789928122473700,6.6514736328125,-0.0021965752821415663,0.010509366169571877,-0.0007864314829930663
1772789928132539600,6.66153955078125,-0.004996622912585735,0.011212972924113274,0.0011981561547145247
1772789928142604500,6.6716044921875,-0.0025984463281929493,0.01185319758951664,0.0006953513366170228
1772789928152670700,6.681670654296875,-0.0019097528420388699,0.011199924163520336,-0.0005193164106458426
1772789928162736600,6.691736572265625,-0.004579039290547371,0.011125887744128704,0.001127316034398973
1772789928172802600,6.701802490234375,-0.003746002446860075,0.009640110656619072,-0.0006514092092402279
1772789928182868700,6.71186865234375,-0.0009046758059412241,0.012117116712033749,0.001770469476468861
1772789928192934700,6.7219345703125,-0.0030075078830122948,0.013544837012887001,0.0008828379213809967
1772789928203000800,6.732000732421875,-0.004138818476349115,0.009345831349492073,-0.00044314999831840396
1772789928213066800,6.742066650390625,-0.0033276197500526905,0.012261459603905678,0.001457814360037446
1772789928223132700,6.752132568359375,-0.004028031136840582,0.01329663023352623,0.0034256239887326956
1772789928233198600,6.762198486328125,-0.003335609333589673,0.013227121904492378,0.000051132694352418184
1772789928243264800,6.7722646484375,-0.0029406624380499125,0.014055364765226841,0.00009614011651137844
1772789928253330700,6.78233056640625,-0.003665574826300144,0.01170352753251791,-0.0006178533658385277
1772789928263396900,6.79239697265625,-0.0047148605808615685,0.011463044211268425,-0.0005419532535597682
1772789928273462800,6.802462890625,-0.00646695401519537,0.010321080684661865,0.0006684534018859267
1772789928283527700,6.812527587890625,-0.005286907311528921,0.013228720054030418,0.001654089312069118
1772789928293593600,6.822593505859375,-0.004319114610552788,0.012971725314855576,-0.0012423646403476596
1772789928303659800,6.83265966796875,-0.0027302727103233337,0.01152562815696001,0.0005488775204867125
1772789928313725700,6.8427255859375,-0.00398781755939126,0.013665478676557541,-0.0017177389236167073
1772789928323791600,6.85279150390625,-0.004065315239131451,0.015163772739470005,0.0014570154016837478
1772789928333857800,6.86285791015625,-0.004546015989035368,0.010670754127204418,0.0006639260682277381
1772789928343923700,6.872923828125,-0.0026349315885454416,0.01299542747437954,0.0010743191232904792
1772789928353989600,6.88298974609375,-0.004829110112041235,0.012253204360604286,0.002671150490641594
1772789928364055600,6.8930556640625,-0.003570766421034932,0.012136558070778847,0.0014644722687080503
1772789928374121700,6.903121826171875,-0.0037316211964935064,0.011324293911457062,0.0022533005103468895
1772789928384187600,6.913187744140625,-0.0037060549948364496,0.012925918214023113,0.0006271744496189058
1772789928394253800,6.92325390625,-0.004450940992683172,0.012746687978506088,0.0015403723809868097
1772789928404319700,6.93331982421875,-0.00447064870968461,0.012012721039354801,0.0025686188600957394
1772789928414386000,6.943385986328125,-0.004541488364338875,0.012973056174814701,-0.0013992248568683863
1772789928424451600,6.95345166015625,-0.0033910030033439398,0.01155785284936428,0.001181378262117505
1772789928434517500,6.963517578125,-0.004765992984175682,0.011143997311592102,0.005531119182705879
1772789928444582700,6.973582763671875,-0.005456550512462854,0.01320874597877264,-0.0004828310920856893
1772789928454648800,6.98364892578125,-0.00395612558349967,0.012836170382797718,0.0019587550777941942
1772789928464714800,6.99371484375,-0.004299141000956297,0.011972772888839245,-0.001540638622827828
1772789928474780700,7.00378076171875,-0.004938033409416676,0.010691259987652302,0.0009760485263541341
1772789928484846600,7.0138466796875,-0.0020501012913882732,0.01273044291883707,0.0026815368328243494
1772789928494912500,7.02391259765625,-0.003728159237653017,0.012202071025967598,-0.00042344260145910084
1772789928504978700,7.033978759765625,-0.003949201665818691,0.01185266487300396,0.0001968075957847759
1772789928515044600,7.044044677734375,-0.006874151527881622,0.011782357469201088,-0.0021763353142887354
1772789928525110800,7.05411083984375,-0.000743554555810988,0.0104752779006958,-0.0017595505341887474
1772789928535176700,7.0641767578125,-0.003078614128753543,0.011169563978910446,0.001487109111621976
1772789928545243000,7.074242919921875,-0.004421646241098642,0.012517656199634075,-0.0006825681775808334
1772789928555308800,7.084308837890625,-0.0028719529509544373,0.011805260553956032,-0.0002873550693038851
1772789928565374700,7.094374755859375,-0.004588626325130463,0.011140269227325916,-0.001413073274306953
1772789928575440600,7.104440673828125,-0.0041494714096188545,0.012762133963406086,-0.0006452839006669819
1772789928585506600,7.114506591796875,-0.00532419141381979,0.010990865528583527,-0.00006844323797849938
1772789928595571700,7.12457177734375,-0.004225637763738632,0.012732839211821556,-0.0025997778866440058
1772789928605638000,7.134637939453125,-0.005358546506613493,0.012803945690393448,0.000005592638444795739
1772789928615703800,7.144703857421875,-0.004867459647357464,0.01140046026557684,0.0027393274940550327
1772789928625769700,7.154769775390625,-0.0032868734560906887,0.012678776867687702,0.0015036207623779774
1772789928635835600,7.164835693359375,-0.0044133905321359634,0.009697634726762772,-0.0014748586108908057
1772789928645901600,7.174901611328125,-0.0018900453578680754,0.013301956467330456,0.001008272753097117
1772789928655967700,7.1849677734375,-0.001877262257039547,0.012485964223742485,-0.0006801713607273996
1772789928666033700,7.19503369140625,-0.004471980035305023,0.014099041000008583,0.00019707392493728548
1772789928676099800,7.205099853515625,-0.004864530172199011,0.012501411139965057,0.0021632856223732233
1772789928686165800,7.215165771484375,-0.00535561703145504,0.010508034378290176,0.0014173343079164624
1772789928696231700,7.225231689453125,-0.0037265613209456205,0.01013918686658144,-0.0004892227007076144
1772789928706298400,7.23529833984375,-0.0022857910953462124,0.00933065079152584,0.002151301596313715
1772789928716364300,7.2453642578125,-0.00170788518153131,0.010041449218988419,0.0011238539591431618
1772789928726430500,7.255430419921875,-0.00395719101652503,0.011798336170613766,0.0021859225817024708
1772789928736496400,7.265496337890625,-0.0034621094819158316,0.01212670374661684,0.001454884884878993
1772789928746561500,7.2755615234375,-0.001621332485228777,0.013229252770543098,0.00047697214176878333
1772789928756627500,7.28562744140625,-0.004850415047258139,0.014416756108403206,0.0006021407316438854
1772789928766693400,7.295693359375,-0.0019518306944519281,0.011754659935832024,-0.000185888638952747
1772789928776759300,7.30575927734375,-0.005401689559221268,0.013291037641465664,-0.0010998855577781796
1772789928786825500,7.315825439453125,-0.003144926857203245,0.012048141099512577,0.002835467690601945
1772789928796891400,7.325891357421875,-0.00577772781252861,0.011328288353979588,0.0005526058957912028
1772789928806957600,7.33595751953125,-0.004603806417435408,0.011049188673496246,0.000254331884207204
1772789928817023500,7.3460234375,-0.0033870083279907703,0.01101296953856945,-0.0015869776252657175
1772789928827089700,7.356089599609375,-0.0026088326703757048,0.013762150891125202,-0.0016215987270697951
1772789928837155300,7.3661552734375,-0.004492752719670534,0.012181032449007034,0.0011033476330339909
1772789928847221200,7.37622119140625,-0.0032812808640301228,0.010842793621122837,-0.001877262257039547
1772789928857287400,7.386287353515625,-0.0007853662245906889,0.012151204980909824,0.0021441110875457525
1772789928867353300,7.396353271484375,-0.003382747294381261,0.01236425805836916,-0.0013528858544304967
1772789928877419500,7.40641943359375,-0.005764145869761705,0.013805827125906944,0.0012508867075666785
1772789928887485400,7.4164853515625,-0.004828843753784895,0.014223144389688969,0.0010125337867066264
1772789928897551600,7.426551513671875,-0.0006809702608734369,0.010294981300830841,0.0013440974289551377
1772789928907616300,7.4366162109375,-0.0035720979794859886,0.010217217728495598,-0.00015819176041986793
1772789928917682400,7.446682373046875,-0.0027486486360430717,0.009889115579426289,0.002528671408072114
1772789928927748400,7.456748291015625,-0.0019230686593800783,0.012833506800234318,0.0010839065071195364
1772789928937814500,7.466814453125,-0.002665824256837368,0.012659602798521519,0.0009827064350247383
1772789928947880400,7.47688037109375,-0.0036645096261054277,0.011452391743659973,0.0004801679460797459
1772789928957946600,7.486946533203125,-0.0016996293561533093,0.010913367383182049,0.0033686324022710323
1772789928968012500,7.497012451171875,-0.0030887341126799583,0.012139487080276012,-0.0016223976854234934
1772789928978078500,7.507078369140625,-0.0028128307312726974,0.011576761491596699,-0.0007653924985788763
1772789928988144400,7.517144287109375,-0.002805107505992055,0.01296400185674429,0.001047687605023384
1772789928998210300,7.527210205078125,-0.003707652911543846,0.012051869183778763,-0.0008175904513336718
1772789929008276500,7.5372763671875,-0.0033574472181499004,0.010273942723870277,0.0031289479229599237
1772789929018342400,7.54734228515625,-0.0038780951872467995,0.008069644682109356,0.0025917883031070232
1772789929028408600,7.55740869140625,-0.004601942375302315,0.011392204090952873,-0.0015651397407054901
1772789929038474500,7.567474609375,-0.005045358557254076,0.011270497925579548,-0.0012144014472141862
1772789929048540400,7.57754052734375,-0.0037819549906998873,0.012251339852809906,-0.0005211806274019182
1772789929058606300,7.5876064453125,-0.00313001312315464,0.013117399998009205,0.0011523497523739934
1772789929068672500,7.597672607421875,-0.003225088119506836,0.011430819518864155,0.0011235876008868217
1772789929078737400,7.6077373046875,-0.007654191460460424,0.012318718247115612,0.0011997540714219213
1772789929088803600,7.617803466796875,-0.004790494218468666,0.01335548609495163,-0.000050333743274677545
1772789929098869500,7.627869384765625,-0.0033515882678329945,0.012053467333316803,0.0019017633749172091
1772789929108935400,7.637935302734375,-0.005609150044620037,0.012975719757378101,0.0014559502014890313
1772789929119001300,7.64800146484375,-0.0026429209392517805,0.010575945489108562,0.0033715618774294853
1772789929129067500,7.658067626953125,-0.001955292886123061,0.01149659976363182,-0.0007997472421266139
1772789929139133400,7.668133544921875,-0.0029609024059027433,0.01500851009041071,0.0012359730899333954
1772789929149199400,7.678199462890625,-0.0035172367934137583,0.01426229253411293,0.001484445994719863
1772789929159265500,7.688265625,-0.0029148298781365156,0.012030829675495625,0.002089516259729862
1772789929169331500,7.69833154296875,-0.0024668860714882612,0.011187673546373844,-0.0007861651247367263
1772789929179397400,7.7083974609375,-0.0028663603588938713,0.010987670160830021,-0.00030306773260235786
1772789929189463300,7.71846337890625,-0.004703674931079149,0.014242053031921387,0.0010218549286946654
1772789929199529500,7.728529541015625,-0.004494350403547287,0.00930082332342863,-0.00023409185814671218
1772789929209595400,7.738595458984375,-0.0036570527590811253,0.012920591980218887,0.0010420948965474963
1772789929219661600,7.74866162109375,-0.006313023157417774,0.010847854427993298,0.0008532768115401268
1772789929229727500,7.7587275390625,-0.0035300198942422867,0.011454788036644459,-0.0004391552647575736
1772789929239792400,7.76879248046875,-0.0040796962566673756,0.013488644734025002,0.0022983080707490444
1772789929249858300,7.7788583984375,-0.004222441930323839,0.011966647580265999,0.0014117417158558965
1772789929259924500,7.788924560546875,-0.004022172186523676,0.01068060752004385,-0.00026525085559114814
1772789929269990400,7.798990478515625,-0.003567037871107459,0.01353658176958561,-0.00042317630141042173
1772789929280056600,7.809056640625,-0.004284759983420372,0.0132686672732234,0.0016421051695942879
1772789929290122500,7.81912255859375,-0.004433364141732454,0.013048424385488033,0.00031638352083973587
1772789929300188400,7.8291884765625,-0.001055943313986063,0.010355701670050621,0.001290834159590304
1772789929310254600,7.839254638671875,-0.0036647759843617678,0.013067065738141537,-0.0004727110790554434
1772789929320320300,7.8493203125,-0.003367034485563636,0.013855361379683018,0.002376604825258255
1772789929330386400,7.859386474609375,-0.005507417023181915,0.009075254201889038,-0.0016554208705201745
1772789929340452400,7.869452392578125,-0.0029726203065365553,0.011025220155715942,-0.0002162486780434847
1772789929350518500,7.8795185546875,-0.0029878003988415003,0.012889700010418892,0.0020865867845714092
1772789929360584400,7.88958447265625,-0.004165450111031532,0.01321167591959238,0.0007017429452389479
1772789929370650600,7.899650634765625,-0.0028360001742839813,0.013243366964161396,-0.000371777277905494
1772789929380716500,7.909716552734375,-0.0034961977507919073,0.01293310895562172,0.0014969628537073731
1772789929390782500,7.919782470703125,-0.003257578704506159,0.012890231795608997,0.0020354539155960083
1772789929400848400,7.929848388671875,-0.006385727785527706,0.010933607816696167,0.0018498316640034318
1772789929410914300,7.939914306640625,-0.0019718045368790627,0.011697934940457344,-0.000496945867780596
1772789929420979500,7.9499794921875,-0.004571582190692425,0.011410846374928951,-0.0007858988246880472
1772789929431045600,7.960045654296875,-0.005646434146910906,0.009285910055041313,0.0004599279200192541
1772789929441111600,7.970111572265625,-0.004167846869677305,0.01227211207151413,0.0001174454009742476
1772789929451177500,7.980177490234375,-0.005799299571663141,0.012006595730781555,0.0025947177782654762
1772789929461243400,7.990243408203125,-0.004396879114210606,0.009979397058486938,-0.0014868428697809577
1772789929471309300,8.000309326171875,-0.001885784324258566,0.012349343858659267,0.00012223910016473383
1772789929481375500,8.01037548828125,-0.00487331859767437,0.011514442972838879,0.00019387812062632293
1772789929491441400,8.02044140625,-0.002156894188374281,0.01255041267722845,0.0005004079430364072
1772789929501507600,8.030507568359376,-0.00152306177187711,0.011431884951889515,0.00011132013605674729
1772789929511573500,8.040573486328125,-0.0025683525018393993,0.01053067110478878,0.001336107961833477
1772789929521639400,8.050639404296875,-0.004988633096218109,0.012900885194540024,0.0014508900931105018
1772789929531705300,8.060705322265624,-0.0010191916953772306,0.012752014212310314,0.0006050702068023384
1772789929541771500,8.070771484375,-0.002816825406625867,0.012886237353086472,0.001945705502294004
1772789929551837400,8.08083740234375,-0.0027768779546022415,0.012663597241044044,0.0006474144756793976
1772789929561903400,8.0909033203125,-0.003457848448306322,0.012006063014268875,0.0006159891490824521
1772789929571969500,8.100969482421876,-0.0031398669816553593,0.013687049970030785,0.0013528858544304967
1772789929582035500,8.111035400390625,-0.004776113200932741,0.011537878774106503,0.0015022892039269209
1772789929592100400,8.121100341796875,-0.0017251957906410098,0.0110443951562047,0.002454369328916073
1772789929602166500,8.13116650390625,-0.00538517814129591,0.011841479688882828,0.00019121496006846428
1772789929612232400,8.141232421875,-0.00475480780005455,0.011300325393676758,0.0024261397775262594
1772789929622298400,8.15129833984375,-0.002010420197620988,0.013586648739874363,-0.0002692455891519785
1772789929632364500,8.161364501953125,-0.0049247173592448235,0.01372326910495758,-0.0009712548344396055
1772789929642430500,8.171430419921874,-0.0041611893102526665,0.012646819464862347,0.0024378576781600714
1772789929652496600,8.18149658203125,-0.003686081152409315,0.011630557477474213,0.0017931063193827868
1772789929662562300,8.191562255859376,-0.004384362138807774,0.01170592475682497,-0.0008783105295151472
1772789929672628500,8.20162841796875,-0.0029622339643538,0.012280900962650776,-0.0001001348573481664
1772789929682694400,8.2116943359375,-0.00395719101652503,0.012848952785134315,0.000054861116950633004
1772789929692760600,8.221760498046875,-0.004456267226487398,0.00984277669340372,-0.0004319647268857807
1772789929702826500,8.231826416015625,-0.0012950951931998134,0.014811436645686626,0.002353169023990631
1772789929712892400,8.241892333984374,-0.005115932319313288,0.012036156840622425,0.0007566040731035173
1772789929722958600,8.25195849609375,-0.0035832831636071205,0.011657455004751682,0.0003414172388147563
1772789929733024500,8.2620244140625,0.00002210423735959921,0.010359164327383041,0.0014168017078191042
1772789929743090700,8.272090576171875,-0.0030511836521327496,0.012506737373769283,0.00115421402733773
1772789929753156600,8.282156494140626,-0.00427250936627388,0.01239275373518467,0.002775280037894845
1772789929763222800,8.292222900390625,-0.00472391489893198,0.0109842075034976,0.0014146711910143495
1772789929773287400,8.302287353515625,-0.0025651566684246063,0.011992746964097023,0.0006447513005696237
1772789929783353600,8.312353515625,-0.004363056737929583,0.011150122620165348,0.0017845842521637678
1772789929793419500,8.32241943359375,-0.0018434401135891676,0.010817760601639748,0.0018383801216259599
1772789929803485700,8.332485595703124,-0.005426457151770592,0.010550645180046558,0.000984836951829493
1772789929813551600,8.342551513671875,-0.004223507363349199,0.010086189955472946,0.0030541131272912025
1772789929823617800,8.35261767578125,-0.006108492612838745,0.010785269550979137,-0.00014700648898724467
1772789929833683700,8.36268359375,-0.0032290827948600054,0.014090518467128277,0.0037257622461766005
1772789929843749600,8.37274951171875,-0.005219263024628162,0.011996741406619549,0.0023760723415762186
1772789929853815600,8.382815673828125,-0.00458729499951005,0.012356268242001534,0.001044758129864931
1772789929863881500,8.392881591796876,-0.00333134806714952,0.013406353071331978,0.0032232238445430994
1772789929873947600,8.40294775390625,-0.0032264196779578924,0.011915515176951885,0.001178182428702712
1772789929884013600,8.413013671875,-0.005940713454037905,0.01389637403190136,0.0021603561472147703
1772789929894079700,8.423079833984374,-0.0049196574836969376,0.009896572679281235,-0.0035715652629733086
1772789929904145700,8.433145751953125,-0.003498062025755644,0.012705941684544086,-0.00023808660625945777
1772789929914211600,8.443211669921874,-0.004294347018003464,0.01149819791316986,0.0009153284481726587
1772789929924277500,8.453277587890625,-0.00390259618870914,0.010446249507367611,0.0027622305788099766
1772789929934343700,8.46334375,-0.0013156015193089843,0.015857793390750885,-0.00013422331539914012
1772789929944409600,8.47340966796875,-0.0028474517166614532,0.012763732112944126,0.0019201391842216253
1772789929954475500,8.4834755859375,-0.005021656397730112,0.011372496373951435,0.0030269487760961056
1772789929964540700,8.493540771484374,-0.00196408131159842,0.01038313191384077,0.002418682910501957
1772789929974606600,8.503606689453125,-0.00350365461781621,0.010457168333232403,0.0013483584625646472
1772789929984672500,8.513672607421874,-0.0040916805155575275,0.01387214008718729,0.0020386497490108013
1772789929994738700,8.52373876953125,-0.0049556102603673935,0.01047421246767044,-0.0002996056282427162
1772789930004804600,8.5338046875,-0.002814695006236434,0.011026019230484962,0.002662362065166235
1772789930014870500,8.54387060546875,-0.002100168727338314,0.010547981597483158,0.0005075985100120306
1772789930024936700,8.553936767578126,-0.004600344225764275,0.0111621068790555,0.0008663262706249952
1772789930035002600,8.564002685546875,-0.0017555557424202561,0.012819658033549786,0.0019110844004899263
1772789930045068800,8.57406884765625,-0.0033071134239435196,0.010464625433087349,-0.0012655340833589435
1772789930055134500,8.584134521484375,-0.0023177489638328552,0.014304636977612972,0.0012266519479453564
1772789930065200600,8.59420068359375,-0.004222974646836519,0.013731258921325207,-0.003224022686481476
1772789930075266600,8.6042666015625,-0.001121457084082067,0.011670238338410854,-0.0002668487431947142
1772789930085332700,8.614332763671875,-0.0028450549580156803,0.01386947650462389,0.0000774979853304103
1772789930095398700,8.624398681640624,-0.0032232238445430994,0.01136717014014721,0.0023821976501494646
1772789930105464600,8.634464599609375,-0.003454119898378849,0.010669955052435398,0.0004623247659765184
1772789930115530800,8.64453076171875,-0.004622981417924166,0.011090467683970928,-0.0003347593592479825
1772789930125596400,8.654596435546875,-0.0016234630020335317,0.010270214639604092,0.0011906992876902223
1772789930135662600,8.66466259765625,-0.0044104610569775105,0.012974920682609081,-0.0011595403775572777
1772789930145728500,8.674728515625,-0.0028304075822234154,0.01116370502859354,-0.00012250541476532817
1772789930155794700,8.684794677734375,-0.005820338614284992,0.011795406229794025,0.0033811493776738644
1772789930165860600,8.694860595703124,-0.002195776207372546,0.01380875613540411,0.0004271710349712521
1772789930175926800,8.7049267578125,-0.0006436860421672463,0.012537362985312939,0.00040613205055706203
1772789930185992700,8.71499267578125,-0.0027630296535789967,0.011745072901248932,0.0030037793330848217
1772789930196058600,8.72505859375,-0.004572647623717785,0.009781524538993835,0.001781921018846333
1772789930206124500,8.73512451171875,-0.0007965514669194818,0.011446799151599407,-0.0010942928493022919
1772789930216190500,8.7451904296875,-0.0031348068732768297,0.013545636087656021,0.0011177286505699158
1772789930226256600,8.755256591796876,-0.0021845910232514143,0.011830294504761696,-0.002447711303830147
1772789930236322600,8.765322509765625,-0.004450141917914152,0.012863600626587868,-0.00010253170330543071
1772789930246388700,8.775388671875,-0.004595550708472729,0.014790131710469723,0.001284975209273398
1772789930256453600,8.78545361328125,-0.003117762738838792,0.011423896066844463,0.00133850472047925
1772789930266519600,8.79551953125,-0.004715392831712961,0.013375726528465748,-0.00202240445651114
1772789930276585500,8.80558544921875,-0.004619785584509373,0.010301372967660427,0.0006761765689589083
1772789930286651600,8.815651611328125,-0.0036184368655085564,0.010341054759919643,-0.0006660565850324929
1772789930296717600,8.825717529296876,-0.0041193775832653046,0.011755991727113724,-0.00018562232435215265
1772789930306783700,8.83578369140625,-0.0037063213530927896,0.011737349443137646,0.0023451796732842922
1772789930316849700,8.845849609375,-0.004201402887701988,0.014637532643973827,0.002226402750238776
1772789930326915800,8.855915771484375,-0.002304965863004327,0.011796471662819386,0.0012245214311406016
1772789930336981500,8.8659814453125,0.00018429075134918094,0.01136823557317257,0.0008942894637584686
1772789930347047700,8.876047607421874,-0.002290851203724742,0.013997307978570461,-0.0023337281309068203
1772789930357113600,8.886113525390625,-0.003748665563762188,0.010354369878768921,0.003506850451231003
1772789930367179500,8.896179443359374,-0.0026434536557644606,0.01386681292206049,0.0026261431630700827
1772789930377245700,8.90624560546875,-0.005794771946966648,0.012982111424207687,0.0027840686962008476
1772789930387311600,8.9163115234375,-0.0013821806060150266,0.013040967285633087,0.00004340952364145778
1772789930397377800,8.926377685546875,-0.0041492050513625145,0.015084144659340382,0.003480218816548586
1772789930407443500,8.936443359375,-0.0031100395135581493,0.01281513087451458,-0.0018279937794432044
1772789930417509600,8.946509521484375,-0.0032109732273966074,0.012777580879628658,0.002674612682312727
1772789930427575600,8.956575439453125,-0.004459995776414871,0.00908723846077919,0.0034202977549284697
1772789930437641700,8.966641845703125,-0.002835467690601945,0.012510465458035469,0.002793655963614583
1772789930447707600,8.976707763671875,-0.0021968416403979063,0.01098447386175394,0.0028599686920642853
1772789930457772800,8.986772705078126,-0.005882656667381525,0.01179221086204052,0.0009065400226972997
1772789930467838500,8.99683837890625,-0.0037175065372139215,0.013969078660011292,0.00355878216214478
1772789930477904600,9.006904541015626,-0.004221909213811159,0.013427125290036201,-0.0009928264189511538
1772789930487970600,9.016970458984375,-0.0024290692526847124,0.013745373114943504,0.0018844527658075094
1772789930498036700,9.02703662109375,-0.0041129859164357185,0.012174907140433788,-0.0004316983977332711
1772789930508102700,9.0371025390625,-0.003257312346249819,0.012166384607553482,0.0012205267557874322
1772789930518168600,9.04716845703125,-0.003335076617076993,0.011979963630437851,-0.0024112260434776545
1772789930528234800,9.05723486328125,-0.005059206858277321,0.012093680910766125,0.00026258768048137426
1772789930538300400,9.067300537109375,-0.002915895078331232,0.011535748839378357,0.0012767193838953972
1772789930548366600,9.07736669921875,-0.0032208270858973265,0.011652395129203796,-0.0006964165950194001
1772789930558432500,9.0874326171875,-0.003472495824098587,0.010451043024659157,0.004201935604214668
1772789930568498700,9.097498779296876,-0.0046815709210932255,0.014039386063814163,0.0012301141396164894
1772789930578564600,9.107564697265625,-0.004314054735004902,0.012229768559336662,0.0020005665719509125
1772789930588630800,9.117630859375,-0.003970507066696882,0.01016688346862793,-0.0005640574963763356
1772789930598696700,9.12769677734375,-0.0031992553267627954,0.01007846649736166,-0.001811482128687203
1772789930608762600,9.1377626953125,-0.003866909770295024,0.011840414255857468,0.0031784826423972845
1772789930618828500,9.14782861328125,-0.001928128651343286,0.011572233401238918,0.002180596347898245
1772789930628894500,9.15789453125,-0.002353968098759651,0.01407826878130436,0.0009030779474414885
1772789930638960600,9.167960693359374,-0.003695135936141014,0.012425243854522705,0.0009523464250378311
1772789930649026600,9.178026611328125,-0.001942243310622871,0.014317953027784824,-0.00044581317342817783
1772789930659092700,9.1880927734375,-0.0035981968976557255,0.011276356875896454,-0.0022280006669461727
1772789930669157600,9.19815771484375,-0.002960369922220707,0.012401808053255081,0.0009145294898189604
1772789930679223600,9.2082236328125,-0.004289553500711918,0.01356481108814478,0.0013432984706014395
1772789930689289500,9.21828955078125,-0.005175853613764048,0.01164600346237421,-0.0009741843095980585
1772789930699355600,9.228355712890625,-0.003635481232777238,0.013836986385285854,0.0024943165481090546
1772789930709420800,9.2384208984375,-0.006986270658671856,0.010152502916753292,-0.0008431567694060504
1772789930719487000,9.248487060546875,-0.003893807763233781,0.011883823201060295,0.0025451830588281155
1772789930729553000,9.258552978515626,-0.0032490564044564962,0.010726413689553738,-0.00013928332191426307
1772789930739618800,9.268618896484375,-0.004257329273968935,0.010913367383182049,0.004044010303914547
1772789930749684700,9.278684814453126,-0.0037920749746263027,0.012479572556912899,0.0006926882197149098
1772789930759751000,9.2887509765625,-0.005530586466193199,0.014859640039503574,0.0032802154310047626
1772789930769816800,9.29881689453125,-0.003961718175560236,0.01203748770058155,-0.00018695391190703958
1772789930779883000,9.308883056640624,-0.0034045851789414883,0.01242391299456358,0.0005938849062658846
1772789930789949000,9.318948974609375,-0.0013869742397218943,0.011737349443137646,-0.0001525991247035563
1772789930800014800,9.329014892578124,-0.003260241821408272,0.013904896564781666,0.001184041379019618
1772789930810080800,9.339080810546875,-0.0012303803814575076,0.012654808349907398,-0.0003126551164314151
1772789930820146700,9.349146728515626,-0.005517270881682634,0.01347506232559681,-0.0010218549286946654
1772789930830212900,9.359212890625,-0.004984905011951923,0.01474352553486824,0.00024474450037814677
1772789930840278800,9.36927880859375,-0.004218447022140026,0.01152562815696001,0.0010037453612312675
1772789930850345000,9.379344970703125,-0.004382497631013393,0.01218635868281126,0.000028762138754245825
1772789930860411000,9.389410888671875,-0.004311657976359129,0.01374963391572237,0.00017710021347738802
1772789930870477000,9.39947705078125,-0.004626443609595299,0.012316853739321232,0.001327053178101778
1772789930880541700,9.409541748046875,-0.0037763623986393213,0.013030581176280975,0.001817607437260449
1772789930890607900,9.41960791015625,-0.0005195827106945217,0.012430571019649506,0.0012753878254443407
1772789930900673800,9.429673828125,-0.001990979304537177,0.010931743308901787,0.0012546151410788298
1772789930910740000,9.439739990234376,-0.0029236183036118746,0.008448345586657524,0.002275937469676137
1772789930920806000,9.449805908203125,-0.001746234716847539,0.009220662526786327,0.0008325041271746159
1772789930930872000,9.4598720703125,-0.004460794851183891,0.012930979020893574,0.002653839997947216
1772789930940937700,9.469937744140625,-0.0033305492252111435,0.010151970200240612,0.0020093549974262714
1772789930951004000,9.48000390625,-0.002532133599743247,0.013115535490214825,0.0005872269975952804
1772789930961069800,9.49006982421875,-0.0034264230635017157,0.011189271695911884,0.002027997048571706
1772789930971135700,9.5001357421875,-0.004828044679015875,0.011723767966032028,0.002088983543217182
1772789930981202000,9.510201904296874,-0.003427221905440092,0.011750399135053158,0.003456516657024622
1772789930991267800,9.520267822265625,-0.0025513083674013615,0.011769574135541916,-0.0015867113834246993
1772789931001334000,9.530333984375,-0.004887965973466635,0.012652944773435593,-0.0009917612187564373
1772789931011400000,9.54039990234375,-0.0036567864008247852,0.009183910675346851,-0.0010892328573390841
1772789931021465900,9.5504658203125,-0.00321896281093359,0.015593606978654861,0.0008641957538202405
1772789931031531800,9.56053173828125,-0.007660316303372383,0.013003949075937271,0.00011265171633567661
1772789931041598000,9.570597900390625,-0.0019244002178311348,0.011608718894422054,-0.0018072210950776935
1772789931051664000,9.580663818359374,-0.0020487697329372168,0.010691792704164982,0.0022570290602743626
1772789931061729800,9.590729736328125,-0.004482898861169815,0.014972291886806488,0.00020639497961383313
1772789931071796000,9.6007958984375,-0.004479703027755022,0.010276872664690018,0.00047643951256759465
1772789931081862000,9.61086181640625,-0.004728176165372133,0.013396765105426311,-0.00108284130692482
1772789931091926800,9.6209267578125,-0.004850415047258139,0.010654508136212826,0.0005510080372914672
1772789931101993000,9.630992919921875,-0.004446413833647966,0.012742958962917328,0.0023361248895525932
1772789931112059000,9.641058837890625,-0.0022421153262257576,0.013202087953686714,0.0010745854815468192
1772789931122124800,9.651124755859374,-0.0018644790397956967,0.012110725045204163,0.0017001620726659894
1772789931132191000,9.66119091796875,-0.0031166973058134317,0.011264905333518982,0.00043595946044661105
1772789931142257000,9.6712568359375,-0.003294330323114991,0.011493670754134655,-0.000030360035452758893
1772789931152322800,9.68132275390625,-0.0017414409667253494,0.011857991106808186,0.0027081684675067663
1772789931162388700,9.691388671875,-0.0025747441686689854,0.01269662007689476,0.0007076018955558538
1772789931172455000,9.701454833984375,-0.002508697798475623,0.012148009613156319,-0.001088433898985386
1772789931182520800,9.711520751953126,-0.0008692557457834482,0.012532036751508713,0.0001757686259225011
1772789931192587000,9.7215869140625,-0.004605670925229788,0.011181814596056938,0.0010748518398031592
1772789931202653000,9.73165283203125,-0.0030093719251453876,0.012173308990895748,0.00012543488992378116
1772789931212718800,9.74171875,-0.00507039250805974,0.011322163045406342,0.0036663739010691643
1772789931222784800,9.75178466796875,-0.0008162588928826153,0.011207380332052708,0.005301554687321186
1772789931232850700,9.7618505859375,-0.002013616031035781,0.013116068206727505,0.0005158542771823704
1772789931242916900,9.771916748046875,-0.0021766014397144318,0.014270015992224216,0.0019678096286952496
1772789931252982800,9.781982666015624,-0.0038725025951862335,0.012033759616315365,0.002147306688129902
1772789931263049000,9.792049072265625,-0.002855441300198436,0.013470801524817944,-0.0003049319493584335
1772789931273115000,9.802114990234376,-0.006615292280912399,0.016415191814303398,0.002980876248329878
1772789931283181000,9.81218115234375,-0.001466336427256465,0.011536546982824802,0.00159470085054636
1772789931293247000,9.8222470703125,-0.005940979812294245,0.01512861903756857,0.0020658141002058983
1772789931303312000,9.832311767578124,-0.003087136195972562,0.011393269523978233,0.0015249260468408465
1772789931313377800,9.842377685546875,-0.002981142606586218,0.01191072165966034,0.0013374395202845335
1772789931323444000,9.85244384765625,-0.005113002844154835,0.012089951895177364,0.0011241203173995018
1772789931333510000,9.862510009765625,-0.002968092914670706,0.013101687654852867,0.0025542378425598145
1772789931343576000,9.872576171875,0.00004207794336252846,0.015361645258963108,0.003564641112461686
1772789931353642000,9.88264208984375,-0.0015989618841558695,0.012561331503093243,0.0000958738019107841
1772789931363708000,9.8927080078125,-0.0037862160243093967,0.013502226211130619,0.0012101404136046767
1772789931373773800,9.90277392578125,-0.00404480891302228,0.011475827544927597,-0.0003462109307292849
1772789931383839700,9.91283984375,-0.0031728900503367186,0.011840414255857468,0.004048803821206093
1772789931393906000,9.922906005859375,-0.0033015208318829536,0.011543205007910728,0.001312405802309513
1772789931403971800,9.932971923828125,-0.0029414615128189325,0.010608435608446598,-0.000969656917732209
1772789931414038000,9.9430380859375,-0.00267727579921484,0.013192500919103622,0.00004021373388241045
1772789931424104000,9.95310400390625,-0.003910319413989782,0.011863317340612411,0.0006407565670087934
1772789931434169900,9.963169921875,-0.004412591457366943,0.011388209648430347,0.002495914464816451
1772789931444235800,9.97323583984375,-0.005768406670540571,0.013218600302934647,0.0010197244118899107
1772789931454302000,9.983302001953126,-0.004801413044333458,0.011948272585868835,-0.00037763622822239995
1772789931464367900,9.993367919921875,-0.0032647692132741213,0.012079033069312572,-0.0012913667596876621
1772789931474433800,10.003433837890626,-0.003477822057902813,0.00983505416661501,-0.0024429175537079573
1772789931484500000,10.0135,-0.004846154246479273,0.011841213330626488,0.002025333931669593
1772789931494566000,10.02356591796875,-0.0031878037843853235,0.01312086172401905,0.0008580705034546554
1772789931504630800,10.033630859375,-0.0037670412566512823,0.01318025030195713,0.0022146848496049643
1772789931514697000,10.043697021484375,-0.0006804376607760787,0.013540043495595455,0.0006958839949220419
1772789931524763000,10.053762939453126,-0.003025883575901389,0.011352789588272572,-0.0009009473724290729
1772789931534828800,10.063828857421875,-0.0032767534721642733,0.011938418261706829,0.000833036785479635
1772789931544895000,10.07389501953125,-0.004483964294195175,0.012822055257856846,0.0026293389964848757
1772789931554961000,10.0839609375,-0.004718588665127754,0.011453190818428993,-0.0013195963110774755
1772789931565026800,10.09402685546875,-0.0029702235478907824,0.013200490735471249,-0.0012152004055678844
1772789931575092700,10.1040927734375,-0.0029891319572925568,0.011841746047139168,0.0008609999786131084
1772789931585159000,10.114158935546875,-0.00484269205480814,0.012861203402280807,0.0031012510880827904
1772789931595224800,10.124224853515624,-0.0016607472207397223,0.013072391971945763,0.002110288944095373
1772789931605291000,10.134291015625,-0.004600610584020615,0.010373278521001339,0.0010274475207552314
1772789931615357000,10.14435693359375,-0.0025656893849372864,0.011431352235376835,-0.001079645473510027
1772789931625422800,10.1544228515625,-0.005290635861456394,0.012524580582976341,0.001204814063385129
1772789931635489000,10.164489013671876,-0.005342567339539528,0.011275025084614754,0.0003802994033321738
1772789931645554700,10.1745546875,-0.00392816262319684,0.012791428714990616,0.00140987744089216
1772789931655620900,10.184620849609376,-0.00210602767765522,0.011277155950665474,0.0006540723843500018
1772789931665686800,10.194686767578125,-0.003951864782720804,0.012809005565941334,-0.0023840616922825575
1772789931675753000,10.2047529296875,-0.0027744811959564686,0.013579457998275757,0.0034791536163538694
1772789931685817900,10.21481787109375,-0.004164917394518852,0.013645238243043423,-0.001148088718764484
1772789931695884000,10.224884033203125,-0.004157194402068853,0.012972789816558361,0.0026487798895686865
1772789931705949700,10.23494970703125,-0.004310592543333769,0.010259827598929405,-0.00047377636656165123
1772789931716017000,10.245016845703125,-0.0029470541048794985,0.01381062064319849,0.003174221608787775
1772789931726083000,10.2550830078125,-0.005641906522214413,0.011031345464289188,0.000474575295811519
1772789931736149000,10.26514892578125,-0.003087136195972562,0.010846256278455257,-0.0003028014034498483
1772789931746215200,10.275215087890626,-0.004050401505082846,0.012108061462640762,-0.00021784658019896597
1772789931756281000,10.285281005859375,-0.0018101505702361465,0.012191951274871826,-0.0014564828015863895
1772789931766347300,10.29534716796875,-0.004600610584020615,0.01315175462514162,-0.0011257182341068983
1772789931776413200,10.3054130859375,-0.0046301716938614845,0.014780277386307716,0.0012093414552509785
1772789931786479000,10.31547900390625,-0.004378769546747208,0.0104752779006958,-0.0012450277572497725
1772789931796545000,10.325544921875,-0.003338272450491786,0.012509400025010109,0.0005491438205353916
1772789931806611000,10.33561083984375,-0.005150287412106991,0.01324150338768959,0.0010282464791089296
1772789931816677000,10.345677001953124,-0.0031334753148257732,0.01050590444356203,0.0022887205705046654
1772789931826743000,10.355742919921875,-0.006509298458695412,0.01182097289711237,-0.0003254382754676044
1772789931836809200,10.365809326171876,-0.0032408006954938173,0.011999404989182949,0.0012412993237376213
1772789931846874000,10.3758740234375,-0.002365685999393463,0.012033759616315365,0.0013611416798084974
1772789931856940000,10.38593994140625,-0.004029895178973675,0.013101687654852867,0.0006255765329115093
1772789931867006000,10.396005859375,-0.004357197787612677,0.011041199788451195,-0.0014679343439638615
1772789931877072100,10.406072021484375,-0.004658135119825602,0.012518455274403095,0.0005803027888759971
1772789931887138000,10.416137939453124,-0.002397377509623766,0.010090184397995472,0.001461010193452239
1772789931897204200,10.426204345703125,-0.0009600695921108127,0.011057444848120213,0.0010428938549011946
1772789931907270100,10.436270263671876,-0.004664793144911528,0.009820406325161457,0.0030748858116567135
1772789931917336000,10.446336181640625,-0.006982542108744383,0.009765544906258583,-0.001326786819845438
1772789931927402000,10.456402099609376,-0.00304612354375422,0.012601279653608799,0.0015374429058283567
1772789931937468200,10.46646826171875,-0.00541340745985508,0.01344470214098692,0.0003382214636076242
1772789931947534000,10.4765341796875,-0.004749747924506664,0.010099239647388458,-0.0005001416429877281
1772789931957600000,10.48660009765625,-0.005824067164212465,0.013087838888168335,0.0011728560784831643
1772789931967666200,10.496666259765625,-0.0031198931392282248,0.010544786229729652,0.0009526127250865102
1772789931977732000,10.506732177734374,-0.005791310220956802,0.01127768773585558,-0.0000756337758502923
1772789931987798000,10.516798095703125,-0.005515406373888254,0.011216435581445694,0.0022919164039194584
1772789931997864000,10.526864013671876,-0.002263686852529645,0.010488061234354973,-0.00022796659322921187
1772789932007930000,10.53693017578125,-0.003023753175511956,0.013555489480495453,0.0025835325941443443
1772789932017995000,10.5469951171875,-0.0038192393258213997,0.013000220991671085,0.0007872303831391037
1772789932028061200,10.557061279296875,-0.0017925737192854285,0.011502192355692387,0.0009006810723803937
1772789932038127000,10.567127197265625,-0.005429652985185385,0.013144563883543015,0.0016325177857652307
1772789932048193000,10.577193115234374,-0.005817941855639219,0.010176471434533596,0.0011472897604107857
1772789932058259000,10.587259033203125,-0.003919640555977821,0.015693210065364838,0.0012306467397138476
1772789932068325000,10.5973251953125,-0.0016879114555194974,0.010409764014184475,0.0025180187076330185
1772789932078391000,10.60739111328125,-0.00358834327198565,0.013095828704535961,-0.0011387676931917667
1772789932088457200,10.617457275390626,-0.0023694143164902925,0.011254784651100636,-0.0012916331179440022
1772789932098523100,10.627523193359375,-0.0020836573094129562,0.010817227885127068,0.0014389059506356716
1772789932108589000,10.637589111328126,-0.005881324876099825,0.013790646567940712,0.0022394522093236446
1772789932118655000,10.647655029296875,-0.004081294406205416,0.011115767993032932,0.002397377509623766
1772789932128721000,10.657720947265625,-0.004087952431291342,0.011616175994277,0.003282346064224839
1772789932138787000,10.667787109375,-0.003950799349695444,0.013413011096417904,0.0019022959750145674
1772789932148853000,10.67785302734375,-0.005224056541919708,0.010358897969126701,0.00023462448734790087
1772789932158919200,10.687919189453124,-0.004436559975147247,0.01306067407131195,-0.0006713828770443797
1772789932168984000,10.697984130859375,-0.002659432590007782,0.012813267298042774,0.0006402239087037742
1772789932179050000,10.708050048828126,-0.0037020600866526365,0.011136806569993496,0.0015627428656443954
1772789932189116000,10.718115966796875,-0.002796851797029376,0.012402074411511421,0.00245117349550128
1772789932199182000,10.72818212890625,-0.002237854292616248,0.011446000076830387,0.0026370619889348745
1772789932209248000,10.738248046875,-0.0029939257074147463,0.011514975689351559,0.0016556872287765145
1772789932219314200,10.748314208984375,-0.004321777727454901,0.01158714760094881,-0.0002061286650132388
1772789932229380000,10.758380126953124,-0.003434146288782358,0.010745855048298836,-0.0007992146420292556
1772789932239446300,10.7684462890625,-0.004504736978560686,0.013704360462725163,-0.0025949841365218163
1772789932249512200,10.77851220703125,-0.002873817225918174,0.011919775977730751,0.002668487373739481
1772789932259578000,10.788578125,-0.004550543148070574,0.012851350009441376,-0.0021877868566662073
1772789932269644000,10.79864404296875,-0.004244545940309763,0.013918478973209858,0.002799514913931489
1772789932279710000,10.8087099609375,-0.004313522018492222,0.01429238636046648,0.006193447392433882
1772789932289776000,10.818776123046876,-0.0033518546260893345,0.015603993088006973,0.0008026767172850668
1772789932299842000,10.828842041015625,-0.0034996599424630404,0.011226022616028786,-0.00001997370782191865
1772789932309908200,10.838908203125,-0.004802478477358818,0.01134080532938242,-0.0013278521364554763
1772789932319972900,10.848972900390624,-0.004034955520182848,0.011517372913658619,-0.0018290589796379209
1772789932330039000,10.8590390625,-0.00487358495593071,0.012528575025498867,-0.00040799626731313765
1772789932340105000,10.86910498046875,-0.0029169602785259485,0.013759221881628036,0.004772651009261608
1772789932350171100,10.879171142578125,-0.0035840822383761406,0.011030014604330063,0.0007715177489444613
1772789932360237000,10.889237060546876,-0.001478320686146617,0.014704910106956959,0.004828311037272215
1772789932370303200,10.89930322265625,-0.004339088220149279,0.012657738290727139,-0.00011132013605674729
1772789932380369200,10.909369140625,-0.004691690672188997,0.01085744146257639,0.0015065502375364304
1772789932390435000,10.91943505859375,-0.0007906925166025758,0.01173415407538414,0.0010005496442317963
