time,seconds_elapsed,z,y,x
1772788679962051300,0.07005126953125,-0.005037102848291397,0.002229332225397229,0.07895153760910034
1772788679972116500,0.080116455078125,-0.008331432938575745,0.010116017423570156,0.06952395290136337
1772788679982181600,0.090181640625,-0.010045710019767284,-0.005633917171508074,0.052138302475214005
1772788679992246300,0.100246337890625,-0.010002566501498222,-0.017613347619771957,0.03527196869254112
1772788680002311400,0.1103115234375,-0.009394301101565361,-0.020891433581709862,0.018796857446432114
1772788680012377600,0.120377685546875,-0.013058277778327465,-0.018744392320513725,0.006911169271916151
1772788680022442500,0.1304423828125,-0.009554622694849968,-0.011446799151599407,-0.0032796829473227262
1772788680032507100,0.140507080078125,-0.013983726501464844,0.007623564917594194,-0.011237474158406258
1772788680042572300,0.150572265625,-0.015502792783081532,0.014993596822023392,-0.020173445343971252
1772788680052637400,0.160637451171875,-0.009343700483441353,0.01182470191270113,-0.022825952619314194
1772788680062703400,0.170703369140625,-0.011444668285548687,0.00811917893588543,-0.030418092384934425
1772788680072768300,0.180768310546875,-0.0030953921377658844,-0.0017776599852368236,-0.028440961614251137
1772788680082833400,0.19083349609375,-0.0022237394005060196,-0.0057138120755553246,-0.028507275506854057
1772788680092898300,0.200898193359375,-0.0034551850985735655,-0.0012769857421517372,-0.018430139869451523
1772788680102963200,0.210963134765625,-0.0006929545197635889,0.0032410670537501574,-0.009916280396282673
1772788680113029000,0.221029052734375,-0.003022687742486596,-0.0015137407463043928,-0.005894640926271677
1772788680123094300,0.23109423828125,-0.006857373286038637,0.0023329290561378,0.0048919604159891605
1772788680133159400,0.241159423828125,-0.00746084563434124,0.0007163903210312128,0.009985788725316525
1772788680143224300,0.251224365234375,-0.0026176210958510637,-0.0005808354471810162,0.017006680369377136
1772788680153289200,0.261289306640625,-0.006727145053446293,-0.0006207828409969807,0.021269069984555244
1772788680163355400,0.27135546875,-0.008672051131725311,-0.002058889716863632,0.02653626911342144
1772788680173420300,0.281420166015625,-0.0076392777264118195,-0.009908024221658707,0.025472603738307953
1772788680183485200,0.291485107421875,-0.010693657211959362,-0.013629259541630745,0.020894629880785942
1772788680193550300,0.30155029296875,-0.012490757741034031,-0.0008162588928826153,0.016410665586590767
1772788680203615200,0.311615234375,-0.015927568078041077,0.012979447841644287,0.0034226945135742426
1772788680213681200,0.32168115234375,-0.01968235895037651,0.017586184665560722,-0.011721903458237648
1772788680223746300,0.331746337890625,-0.018791530281305313,0.023551398888230324,-0.015780027955770493
1772788680233811500,0.3418115234375,-0.015852466225624084,0.017196564003825188,-0.019700201228260994
1772788680243876000,0.3518759765625,-0.018265822902321815,0.013481720350682735,-0.02147306688129902
1772788680253941200,0.361941162109375,-0.013579191640019417,0.012828713282942772,-0.02101234160363674
1772788680264007400,0.37200732421875,-0.011929896660149097,0.014825818128883839,-0.023967118933796883
1772788680274072300,0.382072265625,-0.008039284497499466,0.02046346291899681,-0.017666079103946686
1772788680284137200,0.39213720703125,-0.004571582190692425,0.020685570314526558,-0.006884004920721054
1772788680294202400,0.402202392578125,0.002127333078533411,0.014418886974453926,-0.004895955324172974
1772788680304267500,0.412267578125,0.0015515576815232635,0.01683730259537697,-0.0009677927591837943
1772788680314333200,0.422333251953125,0.004963599611073732,0.02720818482339382,0.005735383834689856
1772788680324398300,0.4323984375,0.003177950158715248,0.02653440460562706,0.010408165864646435
1772788680334463200,0.442463134765625,0.005797701422125101,0.012373578734695911,0.018034927546977997
1772788680344528100,0.452528076171875,0.005980127956718206,-0.004238953348249197,0.020241621881723404
1772788680354593300,0.46259326171875,0.003203516360372305,-0.01067954208701849,0.02359107881784439
1772788680364659200,0.4726591796875,-0.000030360035452758893,-0.003632285399362445,0.02081739716231823
1772788680374724400,0.482724365234375,-0.0038748993538320065,0.00660437298938632,0.012124041095376015
1772788680384789200,0.492789306640625,-0.007053914945572615,0.00983478780835867,0.002368349116295576
1772788680394854400,0.5028544921875,-0.01068167295306921,0.015363243408501148,-0.005073854699730873
1772788680404919300,0.512919189453125,-0.01038446370512247,0.021761754527688026,-0.012559734284877777
1772788680414985200,0.522985107421875,-0.01131230965256691,0.0258044321089983,-0.022180402651429176
1772788680425050400,0.53305029296875,-0.0073199644684791565,0.018746789544820786,-0.02804974466562271
1772788680435115300,0.543115234375,-0.0041276332922279835,0.012724583968520164,-0.030615966767072678
1772788680445180200,0.55318017578125,-0.0026069683954119682,0.006368949543684721,-0.02148318849503994
1772788680455246300,0.563246337890625,0.0030208237003535032,0.006313822232186794,-0.01110378373414278
1772788680465311200,0.573311279296875,0.006331132724881172,0.007980162277817726,-0.002838397165760398
1772788680475376400,0.58337646484375,0.006580670829862356,0.010601777583360672,0.007306648883968592
1772788680485441300,0.593441162109375,0.007060572504997253,0.009937052614986897,0.013790646567940712
1772788680495506200,0.603506103515625,0.008127168752253056,0.008129831403493881,0.0203353650867939
1772788680505572400,0.613572265625,0.007015032693743706,0.01299489475786686,0.022435534745454788
1772788680515637500,0.623637451171875,0.005394499283283949,0.023069100454449654,0.025550367310643196
1772788680525702100,0.6337021484375,0.001457548001781106,0.02876480296254158,0.021223263815045357
1772788680535767300,0.643767333984375,0.005914880894124508,0.024638500064611435,0.011814314872026443
1772788680545832400,0.65383251953125,0.007023288402706385,0.02370399795472622,0.0028969866689294577
1772788680555898000,0.663898193359375,0.013429256156086922,0.020237360149621964,-0.004399542231112719
1772788680565963300,0.67396337890625,0.01495258416980505,0.025073396041989326,-0.009214270859956741
1772788680576028400,0.6840283203125,0.014552843756973743,0.0313885472714901,-0.004454669542610645
1772788680586093300,0.69409326171875,0.017000554129481316,0.034454911947250366,0.004509530495852232
1772788680596158200,0.704158203125,0.013919809833168983,0.01919872872531414,-0.0029113676864653826
1772788680606224400,0.714224365234375,0.011668906547129154,0.002377936616539955,-0.006728210020810366
1772788680616289300,0.724289306640625,0.013274526223540306,-0.013108611106872559,-0.01062255073338747
1772788680626354200,0.734354248046875,0.009338374249637127,-0.02046053297817707,-0.016051670536398888
1772788680636419300,0.74441943359375,0.010341587476432323,-0.005392901133745909,-0.013003949075937271
1772788680646485200,0.7544853515625,0.008243815042078495,0.012692359276115894,-0.0067899953573942184
1772788680656550400,0.76455029296875,0.0073111760430037975,0.01889273151755333,-0.0027153589762747288
1772788680666615300,0.774615234375,0.009325590915977955,0.019885024055838585,0.0009299758239649236
1772788680676680400,0.784680419921875,0.011543205007910728,0.024100808426737785,0.0041494714096188545
1772788680686745300,0.794745361328125,0.007818507961928844,0.031434886157512665,0.00974210910499096
1772788680696811300,0.804811279296875,0.010418818332254887,0.022283734753727913,0.006755907088518143
1772788680706876200,0.814876220703125,0.010259827598929405,0.01888474076986313,0.0011020160745829344
1772788680716941300,0.82494140625,0.011578625068068504,0.016825584694743156,0.001977929612621665
1772788680727006200,0.835006103515625,0.010419883765280247,0.02149224281311035,0.0005685848882421851
1772788680737071400,0.8450712890625,0.014129667542874813,0.015802398324012756,0.006086654495447874
1772788680747137300,0.85513720703125,0.01393019687384367,0.00936127733439207,0.007668572477996349
1772788680757202400,0.865202392578125,0.012060125358402729,0.004741758108139038,0.006493585649877787
1772788680767267300,0.875267333984375,0.01152855809777975,0.007502124644815922,0.009453688748180866
1772788680777332200,0.885332275390625,0.010352772660553455,0.011971973814070225,0.007334611844271421
1772788680787398400,0.8953984375,0.007689877413213253,0.012105665169656277,0.0036884781438857317
1772788680797463300,0.90546337890625,0.00734233483672142,0.002989398315548897,0.006900783162564039
1772788680807528200,0.915528076171875,0.003014165675267577,-0.0005816344055347145,0.007553790230304003
1772788680817593300,0.92559326171875,0.002192314248532057,0.0013222594279795885,0.007202252745628357
1772788680827658200,0.935658203125,0.0020415792241692543,0.001115598133765161,0.014544587582349777
1772788680837724200,0.94572412109375,-0.0040796962566673756,0.008205465972423553,0.011954663321375847
1772788680847789300,0.955789306640625,-0.008039284497499466,0.016043948009610176,0.010981012135744095
1772788680857854500,0.9658544921875,-0.009965016506612301,0.013259080238640308,0.004511395003646612
1772788680867919000,0.975919189453125,-0.010581271722912788,0.010758372023701668,-0.0009275790071114898
1772788680877985300,0.9859853515625,-0.01152802538126707,0.002820287598297,-0.003552390495315194
1772788680888050400,0.996050537109375,-0.008704542182385921,0.006916495505720377,-0.010780209675431252
1772788680898115300,1.006115234375,-0.010274209082126617,0.014122476801276207,-0.010478206910192966
1772788680908180200,1.01618017578125,-0.010436927899718285,0.008361260406672955,-0.01227743923664093
1772788680918245400,1.026245361328125,-0.009220129810273647,-0.0018431737553328276,-0.010470484383404255
1772788680928311300,1.036311279296875,-0.0068182251416146755,-0.0034019220620393753,-0.010453173890709877
1772788680938376200,1.046376220703125,-0.007917577400803566,-0.0018615495646372437,-0.007901598699390888
1772788680948441300,1.05644140625,-0.006287190597504377,0.0008727178792469203,-0.0039116512052714825
1772788680958506200,1.06650634765625,-0.008527708239853382,0.003465837799012661,-0.005073055624961853
1772788680968572400,1.076572509765625,-0.008609467186033726,0.004038683604449034,-0.0049284459091722965
1772788680978637300,1.08663720703125,-0.009348494000732899,0.0037414750549942255,-0.007311708759516478
1772788680988702200,1.0967021484375,-0.0099008334800601,0.0009840379934757948,-0.009167399257421494
1772788680998767400,1.106767333984375,-0.010430802591145039,0.0044264402240514755,-0.008873386308550835
1772788681008832300,1.116832275390625,-0.011862518265843391,0.01077062264084816,-0.012134959921240807
1772788681018898200,1.126898193359375,-0.01423353049904108,0.013075588271021843,-0.014287326484918594
1772788681028963000,1.136963134765625,-0.014120345935225487,0.003998203668743372,-0.010614028200507164
1772788681039028200,1.1470283203125,-0.012914733029901981,0.002496979897841811,-0.009287508204579353
1772788681049093000,1.157093017578125,-0.017430122941732407,-0.005304750520735979,-0.006024602800607681
1772788681059159000,1.167158935546875,-0.015915051102638245,-0.013549364171922207,-0.0032732912804931402
1772788681069224200,1.17722412109375,-0.017662350088357925,-0.0062975771725177765,0.0036213663406670094
1772788681079289000,1.1872890625,-0.020680511370301247,0.005549761466681957,0.008711732923984528
1772788681089354000,1.19735400390625,-0.021141238510608673,0.01375096570700407,0.01714836061000824
1772788681099419100,1.207419189453125,-0.02466193586587906,0.01635979861021042,0.017682591453194618
1772788681109485000,1.217485107421875,-0.021987324580550194,0.009030246175825596,0.014190121553838253
1772788681119550200,1.22755029296875,-0.02365020103752613,0.005815278738737106,0.006161755882203579
1772788681129615000,1.237614990234375,-0.022007564082741737,0.014947524294257164,-0.009068862535059452
1772788681139680300,1.24768017578125,-0.020171580836176872,0.01654835045337677,-0.008218514733016491
1772788681149746200,1.25774609375,-0.018308965489268303,0.010604707524180412,-0.019526829943060875
1772788681159811000,1.26781103515625,-0.018327342346310616,0.005301021970808506,-0.01798059791326523
1772788681169876200,1.277876220703125,-0.014957644045352936,0.0038013961166143417,-0.008857673965394497
1772788681179941000,1.287941162109375,-0.01594754122197628,0.007518103811889887,-0.003257578704506159
1772788681190006000,1.298006103515625,-0.014109160751104355,0.011858790181577206,-0.0017571536591276526
1772788681200072000,1.308072021484375,-0.016331568360328674,0.018704978749155998,0.0018687400734052062
1772788681210137000,1.31813720703125,-0.013668940402567387,0.022411299869418144,0.004391286056488752
1772788681220202200,1.3282021484375,-0.01543434988707304,0.0179305300116539,0.0006178533658385277
1772788681230267100,1.33826708984375,-0.014810637570917606,0.023136211559176445,-0.0021441110875457525
1772788681240333000,1.3483330078125,-0.013629792258143425,0.016100939363241196,-0.009288307279348373
1772788681250398200,1.358398193359375,-0.011759720742702484,0.016640761867165565,-0.012360263615846634
1772788681260463400,1.36846337890625,-0.009473929181694984,0.01587909832596779,-0.013597034849226475
1772788681270528000,1.378528076171875,-0.006162820849567652,0.019718578085303307,-0.011987687088549137
1772788681280594200,1.38859423828125,-0.005646434146910906,0.016751816496253014,0.0019443739438429475
1772788681290659000,1.3986591796875,-0.003379018744453788,0.01212830189615488,0.013262808322906494
1772788681300724000,1.408723876953125,-0.007203318178653717,0.00896633043885231,0.021325262263417244
1772788681310789000,1.4187890625,-0.007938883267343044,0.008550611324608326,0.027113908901810646
1772788681320854300,1.428854248046875,-0.004223507363349199,0.010790595784783363,0.03241785988211632
1772788681330920200,1.438920166015625,-0.006043245084583759,0.010942662134766579,0.030235666781663895
1772788681340985000,1.448985107421875,-0.00717562111094594,0.013558153063058853,0.021046163514256477
1772788681351050200,1.45905029296875,-0.0065590995363891125,0.015726765617728233,0.011964784003794193
1772788681361115100,1.469115234375,-0.009008142165839672,0.017163274809718132,0.004217115696519613
1772788681371181000,1.47918115234375,-0.006594785954803228,0.016328373923897743,-0.0028929917607456446
1772788681381246200,1.48924609375,-0.006232063286006451,0.016949422657489777,-0.008762865327298641
1772788681391311000,1.49931103515625,-0.004705006722360849,0.03098294883966446,-0.012192217633128166
1772788681401376000,1.5093759765625,-0.006712763570249081,0.031739555299282074,-0.009298427030444145
1772788681411442000,1.51944189453125,-0.005910885985940695,0.031492412090301514,-0.008536762557923794
1772788681421507000,1.529507080078125,-0.0012394351651892066,0.024265125393867493,-0.007389206904917955
1772788681431572200,1.539572265625,0.0036796897184103727,0.017978733405470848,-0.004887433256953955
1772788681441637000,1.54963720703125,0.005110073368996382,0.010759969241917133,-0.002374740783125162
1772788681451703000,1.559703125,0.007335943635553122,0.02178226038813591,0.0022240057587623596
1772788681461768200,1.569768310546875,0.00452897185459733,0.025056883692741394,0.011738148517906666
1772788681471833300,1.579833251953125,0.005563343409448862,0.02539430558681488,0.018994729965925217
1772788681481898000,1.58989794921875,0.0034088462125509977,0.023431822657585144,0.019691945984959602
1772788681491963100,1.599963134765625,-0.0026181535795331,0.026617495343089104,0.022223280742764473
1772788681502029000,1.610029052734375,-0.0034000577870756388,0.028923260048031807,0.023081351071596146
1772788681512094000,1.620093994140625,-0.006833404768258333,0.03405064344406128,0.02418576367199421
1772788681522159000,1.6301591796875,-0.007278951816260815,0.03387594223022461,0.016944361850619316
1772788681532224300,1.640224365234375,-0.006848318502306938,0.029213545843958855,0.007182012777775526
1772788681542290200,1.650290283203125,-0.008279501460492611,0.02161341719329357,0.0002990729990415275
1772788681552355000,1.66035498046875,-0.005108209326863289,0.010487794876098633,-0.008613994345068932
1772788681562420200,1.670420166015625,-0.007526892237365246,0.008376174606382847,-0.012861203402280807
1772788681572485000,1.680485107421875,-0.0037033918779343367,0.011812184937298298,-0.011653460562229156
1772788681582551300,1.69055126953125,-0.008725580759346485,0.015982694923877716,-0.01110298465937376
1772788681592616200,1.7006162109375,-0.006481068674474955,0.016744891181588173,-0.004093811381608248
1772788681602681000,1.71068115234375,-0.00803129468113184,0.017735853791236877,0.004305266309529543
1772788681612746200,1.720746337890625,-0.00866352953016758,0.008233695290982723,0.012048939242959023
1772788681622812200,1.730812255859375,-0.008701612241566181,0.009296828880906105,0.017167534679174423
1772788681632877000,1.740876953125,-0.009998838417232037,0.007385744713246822,0.014702512882649899
1772788681642942200,1.750942138671875,-0.00830666534602642,0.005107410252094269,0.01720854826271534
1772788681653007000,1.761007080078125,-0.01356481108814478,0.01110271830111742,0.013479323126375675
1772788681663072000,1.771072021484375,-0.014026336371898651,0.009149822406470776,0.011854528449475765
1772788681673138200,1.78113818359375,-0.014753646217286587,0.01128088403493166,0.011776498518884182
1772788681683203300,1.791203369140625,-0.010455570183694363,0.014341388829052448,0.010948254726827145
1772788681693268000,1.80126806640625,-0.012064119800925255,0.011392470449209213,0.009078982286155224
1772788681703333000,1.8113330078125,-0.009428389370441437,0.012288091704249382,0.007869641296565533
1772788681713399300,1.8213994140625,-0.008393485099077225,0.007423028815537691,0.0005542038124985993
1772788681723464000,1.8314638671875,-0.006457899231463671,0.0028210864402353764,-0.0032807481475174427
1772788681733529000,1.841529052734375,-0.002814961364492774,0.0008221178431995213,-0.007249124348163605
1772788681743594200,1.85159423828125,-0.002942526713013649,-0.003665042342618108,-0.0043710460886359215
1772788681753660200,1.86166015625,-0.003370763035491109,-0.0018809906905516982,-0.0038842204958200455
1772788681763725000,1.87172509765625,-0.002639725338667631,-0.001978195970878005,-0.0043923514895141125
1772788681773790200,1.881790283203125,-0.0018485001055523753,0.002522812457755208,-0.004044010303914547
1772788681783855000,1.891855224609375,-0.002555569401010871,0.007414506748318672,-0.0028482507914304733
1772788681793921300,1.90192138671875,-0.00318886898458004,0.010820955969393253,-0.000523843802511692
1772788681803986200,1.911986083984375,-0.003290335414931178,0.009782589972019196,-0.0013467605458572507
1772788681814051000,1.922051025390625,-0.008195345290005207,0.005845105741173029,-0.0037321539130061865
1772788681824116200,1.9321162109375,-0.005609150044620037,0.0038008634001016617,-0.001115598133765161
1772788681834182100,1.94218212890625,-0.009364473633468151,0.006924218963831663,-0.0012892362428829074
1772788681844247000,1.9522470703125,-0.009847836568951607,0.01273044291883707,-0.006217415910214186
1772788681854312200,1.962312255859375,-0.010276339948177338,0.014735536649823189,-0.0019832560792565346
1772788681864377000,1.972377197265625,-0.00691889226436615,0.01775076799094677,-0.007141000125557184
1772788681874443000,1.982443115234375,-0.009726130403578281,0.011414041742682457,-0.008902414701879025
1772788681884508200,1.992508056640625,-0.009958092123270035,0.007989482954144478,-0.018027469515800476
1772788681894573300,2.0025732421875,-0.002953445538878441,0.010933607816696167,-0.020930582657456398
1772788681904638000,2.012637939453125,-0.005763080436736345,0.014674017205834389,-0.02376658283174038
1772788681914704100,2.0227041015625,-0.006097041070461273,0.015354988165199757,-0.021219534799456596
1772788681924769300,2.032769287109375,-0.005573729984462261,0.011634285561740398,-0.014066816307604313
1772788681934834200,2.042834228515625,-0.00626002624630928,0.008416121825575829,-0.007327953819185495
1772788681944899000,2.052899169921875,-0.005050684791058302,0.007789480034261942,-0.0024836640805006027
1772788681954964200,2.062964111328125,-0.004181695636361837,0.010005230084061623,0.0023033679462969303
1772788681965030100,2.073030029296875,-0.005378253757953644,0.008363657630980015,0.0070339408703148365
1772788681975095000,2.083094970703125,-0.004619519226253033,0.011267301626503468,0.0041159153915941715
1772788681985160200,2.09316015625,-0.006424875929951668,0.01341860368847847,-0.0028780782595276833
1772788681995225000,2.10322509765625,-0.003710582386702299,0.01854146085679531,-0.010715228505432606
1772788682005291300,2.113291259765625,-0.00044554684427566826,0.016470320522785187,-0.02298281341791153
1772788682015356200,2.123356201171875,0.0016945693641901016,0.008068046532571316,-0.033852506428956985
1772788682025421000,2.133421142578125,0.007000918034464121,0.009750631637871265,-0.029925674200057983
1772788682035486200,2.143486328125,0.0075902752578258514,0.003959055058658123,-0.02484356425702572
1772788682045552000,2.15355224609375,0.010716826654970646,-0.00415453128516674,-0.016053268685936928
1772788682055617000,2.163616943359375,0.011333081871271133,-0.0010567422723397613,-0.004916994366794825
1772788682065682200,2.17368212890625,0.0059926449321210384,0.006707703694701195,0.0038373488932847977
1772788682075747000,2.1837470703125,0.00929310079663992,0.01218582596629858,0.015255386009812355
1772788682085813000,2.19381298828125,0.004895955324172974,0.012314190156757832,0.017543040215969086
1772788682095878100,2.203878173828125,0.006518885493278503,0.015201590023934841,0.021439511328935623
1772788682105943300,2.213943359375,0.0062733422964811325,0.010860104113817215,0.02299533039331436
1772788682116008000,2.224008056640625,0.0033878071699291468,0.007021424360573292,0.018922824412584305
1772788682126074000,2.23407421875,-0.0007906925166025758,0.01031442265957594,0.01257864199578762
1772788682136139300,2.24413916015625,0.0006101301987655461,0.010975952260196209,0.007470965851098299
1772788682146204200,2.2542041015625,-0.0007776430575177073,0.006684001535177231,0.004583033733069897
1772788682156269000,2.26426904296875,-0.0010428938549011946,0.013515542261302471,0.0018959043081849813
1772788682166335200,2.274335205078125,-0.0012740562669932842,0.022581208497285843,0.0019475696608424187
1772788682176400100,2.284400146484375,-0.005960687063634396,0.026035062968730927,-0.0009914948605000973
1772788682186465000,2.294465087890625,-0.00276196445338428,0.02509230375289917,-0.001073786523193121
1772788682196530200,2.3045302734375,-0.001303351018577814,0.016206134110689163,-0.0006769755273126066
1772788682206596000,2.31459619140625,-0.0006988134700804949,0.00520674604922533,-0.0014317154418677092
1772788682216661200,2.3246611328125,-0.0030980552546679974,0.007128483150154352,0.001181111903861165
1772788682226726100,2.33472607421875,-0.0026224146131426096,0.013287309557199478,-0.00030839405371807516
1772788682236791000,2.344791015625,-0.002026399364694953,0.006962834391742945,0.0028855351265519857
1772788682246857200,2.354857177734375,-0.004773716442286968,0.005377188324928284,0.006358297076076269
1772788682256922400,2.36492236328125,-0.007435545790940523,0.008444883860647678,0.009382583200931549
1772788682266987000,2.374987060546875,-0.0064805359579622746,0.00914316438138485,0.010974620468914509
1772788682277052200,2.38505224609375,-0.008017712272703648,0.017231451347470284,0.013341105543076992
1772788682287118000,2.3951181640625,-0.008215053007006645,0.017915617674589157,0.009316802956163883
1772788682297183000,2.405182861328125,-0.005114068277180195,0.009968211874365807,0.007870440371334553
1772788682307248000,2.415248046875,-0.0070192934945225716,0.00956607423722744,0.004584365524351597
1772788682317314000,2.42531396484375,-0.007249390706419945,0.008437160402536392,-0.0016538230702280998
1772788682327379200,2.435379150390625,-0.007394266780465841,0.007196660153567791,-0.007846471853554249
1772788682337444000,2.445444091796875,-0.009235842153429985,-0.0013920343481004238,-0.01366308145225048
1772788682347509200,2.45550927734375,-0.00818069837987423,-0.0024554345291107893,-0.019156649708747864
1772788682357574100,2.46557421875,-0.007800132501870394,0.0028045750223100185,-0.01161697506904602
1772788682367640000,2.47564013671875,-0.009571666829288006,-0.0021105550695210695,-0.011662248522043228
1772788682377705200,2.485705322265625,-0.009917345829308033,0.0007949535502120852,-0.005653624422848225
1772788682387770000,2.49577001953125,-0.012313125655055046,0.00734260119497776,-0.006070675794035196
1772788682397836300,2.505836181640625,-0.014853248372673988,0.0015773903578519821,-0.0019566244445741177
1772788682407901000,2.51590087890625,-0.014243383891880512,0.0004809668753296137,-0.0007771103992126882
1772788682417966000,2.525966064453125,-0.013966149650514126,0.007619570009410381,-0.00395825644955039
1772788682428031200,2.53603125,-0.014544853940606117,0.013201556168496609,-0.008668056689202785
1772788682438097200,2.54609716796875,-0.01635953225195408,0.009836917743086815,-0.011145861819386482
1772788682448162000,2.556162109375,-0.014824219979345798,0.015367238782346249,-0.010672351345419884
1772788682458227200,2.566227294921875,-0.01618056744337082,0.019531888887286186,-0.01392646785825491
1772788682468292400,2.576292236328125,-0.015729693695902824,0.015912653878331184,-0.016143282875418663
1772788682478358000,2.58635791015625,-0.014085724949836731,0.01708977110683918,-0.01593768782913685
1772788682488423200,2.596423095703125,-0.012998622842133045,0.00932292826473713,-0.01643463410437107
1772788682498488000,2.606488037109375,-0.008019044063985348,0.002812031889334321,-0.014247911982238293
1772788682508553000,2.616552978515625,-0.007958324626088142,0.0000828243064461276,-0.014300109818577766
1772788682518619100,2.626619140625,-0.00911679957062006,0.005890646018087864,-0.007309045642614365
1772788682528684000,2.63668408203125,-0.00905341561883688,0.016813334077596664,-0.004328702110797167
1772788682538749200,2.646749267578125,-0.008792959153652191,0.02232208289206028,-0.0017718010349199176
1772788682548814000,2.65681396484375,-0.008945558220148087,0.02612374536693096,-0.005790777504444122
1772788682558880000,2.6668798828125,-0.00875034835189581,0.03008972480893135,-0.009857957251369953
1772788682568945200,2.676945068359375,-0.009136239998042583,0.026763703674077988,-0.017425062134861946
1772788682579010000,2.687010009765625,-0.0070395334623754025,0.013777864165604115,-0.018704978749155998
1772788682589075200,2.6970751953125,-0.004246943164616823,0.0008876316132955253,-0.0205694567412138
1772788682599141000,2.70714111328125,-0.0036394759081304073,-0.009210809133946896,-0.01835237629711628
1772788682609206300,2.717206298828125,-0.003060770919546485,-0.006126602180302143,-0.017250092700123787
1772788682619271000,2.72727099609375,-0.0021888520568609238,-0.00869016069918871,-0.014228736981749535
1772788682629336000,2.737336181640625,-0.005765477195382118,-0.004728708881884813,-0.015195464715361595
1772788682639402200,2.74740234375,-0.005785717628896236,0.012355469167232513,-0.010236658155918121
1772788682649467100,2.757467041015625,-0.008259793743491173,0.018161160871386528,-0.011125088669359684
1772788682659532000,2.767531982421875,-0.008625978603959084,0.016997626051306725,-0.007633684668689966
1772788682669598200,2.77759814453125,-0.008638761937618256,0.009837450459599495,-0.005599562544375658
1772788682679663000,2.7876630859375,-0.00421391986310482,0.008726646192371845,-0.0024682176299393177
1772788682689728000,2.79772802734375,-0.005769205745309591,0.015737418085336685,-0.0012831110507249832
1772788682699793200,2.807793212890625,-0.008223309181630611,0.019716979935765266,0.0009408948244526982
1772788682709859000,2.817859130859375,-0.003709516953676939,0.021435517817735672,0.004257595632225275
1772788682719924200,2.82792431640625,-0.002123870886862278,0.01624182052910328,-0.0023760723415762186
1772788682729989000,2.837989013671875,-0.0014205301413312554,0.022427810356020927,-0.004517786670476198
1772788682740054000,2.848053955078125,0.0011643340112641454,0.021974807605147362,-0.006082127336412668
1772788682750120200,2.8581201171875,0.0004569984448608011,0.01506736595183611,-0.010455836541950703
1772788682760185300,2.868185302734375,0.004472779110074043,0.0005938849062658846,-0.015971509739756584
1772788682770250000,2.87825,0.007312507834285498,-0.003038400551304221,-0.009459814056754112
1772788682780315100,2.888315185546875,0.004602208733558655,-0.00785739067941904,-0.010880344547331333
1772788682790381300,2.89838134765625,0.002808836055919528,-0.009828928858041763,-0.008731439709663391
1772788682800446000,2.908446044921875,0.004033091012388468,-0.0023092268966138363,-0.009631854481995106
1772788682810511000,2.918510986328125,-0.00028522455249913037,0.007607585750520229,-0.01441169623285532
1772788682820576300,2.928576171875,-0.004689293913543224,0.020130569115281105,-0.017225591465830803
1772788682830642200,2.93864208984375,-0.0035947347059845924,0.02804068848490715,-0.012664929032325745
1772788682840707000,2.94870703125,-0.006213953718543053,0.02106240764260292,-0.009369533509016037
1772788682850772200,2.958772216796875,-0.006847786251455545,0.0173246618360281,-0.013155216351151466
1772788682860837000,2.968837158203125,-0.003933222498744726,0.012573848478496075,-0.010084591805934906
1772788682870903000,2.978903076171875,-0.003261040663346648,0.008468586020171642,-0.009920008480548859
1772788682880968200,2.98896826171875,-0.0010964233661070466,0.0020271982066333294,-0.008312257938086987
1772788682891033000,2.999033203125,-0.006653109099715948,0.0023790018167346716,-0.003593669505789876
1772788682901099300,3.009099365234375,-0.0044229780323803425,0.003555586328729987,0.00637827068567276
1772788682911164200,3.0191640625,-0.004820588044822216,0.008345548063516617,0.014036723412573338
1772788682921229000,3.02922900390625,-0.0035776905715465546,0.011229218915104866,0.01631692238152027
1772788682931294200,3.039294189453125,-0.006880276836454868,0.01745089516043663,0.015361378900706768
1772788682941360000,3.049360107421875,-0.0027776770293712616,0.004437092691659927,0.01613769121468067
1772788682951425000,3.059425048828125,-0.004221909213811159,0.012956544756889343,0.016444487497210503
1772788682961490200,3.069490234375,-0.006865629460662603,0.010410563088953495,0.012207929976284504
1772788682971555300,3.079555419921875,-0.004344148561358452,0.009667807258665562,0.013742177747189999
1772788682981621000,3.08962109375,-0.0025531724095344543,0.004305799026042223,0.013021259568631649
1772788682991686100,3.09968603515625,-0.0002924150903709233,0.010783405043184757,0.014089986681938171
1772788683001751300,3.109751220703125,-0.0009930927772074938,0.009892045520246029,0.008853678591549397
1772788683011816000,3.11981591796875,-0.0017531589837744832,0.023136477917432785,0.009276589378714561
1772788683021882000,3.129882080078125,-0.0016972325975075364,0.02370000258088112,0.005687713157385588
1772788683031947000,3.139947021484375,-0.0006767092272639275,0.02286243811249733,0.0009334379574283957
1772788683042012000,3.150011962890625,-0.000758734589908272,0.016286561265587807,0.002525209216400981
1772788683052077000,3.1600771484375,0.0010391654213890433,0.0006511429091915488,-0.0017411747248843312
1772788683062143000,3.17014306640625,0.0037550569977611303,-0.00774766830727458,-0.00561181316152215
1772788683072208000,3.180207763671875,-0.000028229507734067738,-0.0009853695519268513,0.00016192019393201917
1772788683082273000,3.19027294921875,-0.0008143946761265397,0.011523764580488205,-0.002162486780434847
1772788683092339000,3.2003388671875,-0.0059929112903773785,0.014209828339517117,-0.0010285128373652697
1772788683102404000,3.210404052734375,-0.008322378620505333,0.015279353596270084,0.00140987744089216
1772788683112469000,3.220468994140625,-0.012051336467266083,0.020126573741436005,0.010327205993235111
1772788683122534100,3.2305341796875,-0.009891512803733349,0.018514828756451607,0.015478558838367462
1772788683132600000,3.24060009765625,-0.010437460616230965,0.018436796963214874,0.018145181238651276
1772788683142665000,3.2506650390625,-0.007596134208142757,0.007699464913457632,0.016816530376672745
1772788683152730000,3.260730224609375,-0.006332464516162872,0.010976218618452549,0.016805877909064293
1772788683162795000,3.270794921875,-0.006016347091645002,0.008918926119804382,0.011798602528870106
1772788683172861200,3.280861083984375,-0.005135905928909779,0.003404052462428808,0.0016998957144096494
1772788683182925800,3.29092578125,-0.0031411985401064157,-0.0011294466676190495,-0.0011861718958243728
1772788683192991000,3.300990966796875,-0.0036221654154360294,-0.0016642092959955335,-0.007868575863540173
1772788683203056000,3.31105615234375,-0.0027683558873832226,0.0030029804911464453,-0.010054764337837696
1772788683213121800,3.321121826171875,-0.0049510826356709,0.009857690893113613,-0.002670884132385254
1772788683223187000,3.33118701171875,-0.00560941593721509,0.016699884086847305,0.0037055222783237696
1772788683233252000,3.341252197265625,-0.007786017842590809,0.012261193245649338,-0.0017630126094445586
1772788683243318000,3.351318115234375,-0.00999297946691513,0.01617817021906376,-0.005714078433811665
1772788683253383000,3.3613828125,-0.00881133507937193,0.01794145070016384,0.00023941817926242948
1772788683263448000,3.371447998046875,-0.004878911189734936,0.006854443810880184,0.0028879318851977587
1772788683273513000,3.381512939453125,-0.006931142881512642,0.0012335762148723006,0.007539142854511738
1772788683283579100,3.3915791015625,-0.006789462640881538,0.006609965581446886,0.0056799896992743015
1772788683293644000,3.40164404296875,-0.009313340298831463,0.014478541910648346,0.008914132602512836
1772788683303709000,3.411708984375,-0.009825732558965683,0.013006079941987991,0.00035499935620464385
1772788683313774000,3.421774169921875,-0.007730357814580202,0.010211891494691372,-0.0026160231791436672
1772788683323840000,3.431840087890625,-0.005479720421135426,0.012148807756602764,-0.0020010992884635925
1772788683333905000,3.44190478515625,-0.0038224351592361927,0.011152519844472408,-0.0012594088912010193
1772788683343970000,3.451969970703125,-0.004653607495129108,0.01218955498188734,-0.0030072415247559547
1772788683354036000,3.462035888671875,-0.0002490055630914867,0.008975385688245296,-0.0027803401462733746
1772788683364100900,3.472100830078125,-0.000007989483492565341,0.004481301177293062,-0.008521050214767456
1772788683374166000,3.482166015625,0.000022370553779182956,0.010319748893380165,-0.010513094253838062
1772788683384231200,3.492231201171875,0.0019297265680506825,0.01071016862988472,-0.014991199597716331
1772788683394296800,3.502296875,0.004560397006571293,0.00905448105186224,-0.013561614789068699
1772788683404362000,3.512362060546875,0.001243696198798716,0.004505003336817026,-0.01068114023655653
1772788683414427100,3.52242724609375,0.0023284016642719507,0.004642955027520657,-0.01056342851370573
1772788683424492000,3.532491943359375,-0.0004215783847030252,0.0016250609187409282,-0.0018045579781755805
1772788683434558000,3.542557861328125,-0.002377670258283615,0.005089034326374531,0.00020879182557109743
1772788683444623000,3.552623046875,-0.0008993495139293373,0.007940215058624744,0.0009273127070628107
1772788683454688000,3.56268798828125,-0.003391801845282316,0.008290686644613743,0.0052147358655929565
1772788683464754200,3.572754150390625,-0.004427238833159208,0.009689644910395145,0.004135889001190662
1772788683474819000,3.582819091796875,-0.005568936001509428,0.015566443093121052,0.00618279492482543
1772788683484884000,3.592884033203125,-0.008024903014302254,0.018800320103764534,0.0067423246800899506
1772788683494949000,3.60294921875,-0.0067907944321632385,0.014026602730154991,0.003939614165574312
1772788683505014800,3.613014892578125,-0.007439806591719389,0.0021611552219837904,-0.005249356850981712
1772788683515080000,3.623079833984375,-0.006191316992044449,0.004547081422060728,-0.008241950534284115
1772788683525145000,3.63314501953125,-0.008700015023350716,0.004536428488790989,-0.005136438645422459
1772788683535210000,3.6432099609375,-0.009130114689469337,0.004141481593251228,-0.0064983791671693325
1772788683545276000,3.65327587890625,-0.008319715037941933,0.01028859056532383,-0.005568403284996748
1772788683555341000,3.663341064453125,-0.00911626685410738,0.005724198184907436,-0.0025246767327189445
1772788683565406200,3.67340625,-0.008808937855064869,0.0041492050513625145,-0.003910852130502462
1772788683575472000,3.68347216796875,-0.008787100203335285,-0.0007526093395426869,0.001583249308168888
1772788683585537000,3.693537109375,-0.012510731816291809,0.0005925533478148282,0.002666090615093708
1772788683595602000,3.703601806640625,-0.010306965559720993,0.006192914675921202,-0.0029055087361484766
1772788683605667000,3.7136669921875,-0.006660033017396927,0.007311975117772818,-0.007710650097578764
1772788683615733000,3.72373291015625,-0.009957026690244675,0.006222209427505732,-0.006216616835445166
1772788683625798000,3.7337978515625,-0.008405735716223717,0.01013732235878706,-0.005794771946966648
1772788683635863000,3.743863037109375,-0.011050520464777946,0.015897739678621292,0.004101268015801907
1772788683645928000,3.753927978515625,-0.009072057902812958,0.012292885221540928,0.0064837317913770676
1772788683655993900,3.763993896484375,-0.010880610905587673,0.008345015347003937,0.010967163369059563
1772788683666059000,3.77405908203125,-0.004790494218468666,0.007564176339656115,0.009638512507081032
1772788683676124200,3.784124267578125,-0.005182245280593634,0.012516590766608715,0.004451207350939512
1772788683686189800,3.79418994140625,-0.005584915168583393,0.008655806072056293,-0.007445399183779955
1772788683696255000,3.8042548828125,-0.004424042999744415,0.00341523764654994,-0.007152185309678316
1772788683706320100,3.814320068359375,-0.00515907583758235,-0.0037742317654192448,-0.00902784988284111
1772788683716384800,3.824384765625,-0.0032141690608114004,-0.013316337950527668,-0.0054602790623903275
1772788683726451000,3.834450927734375,-0.007217965554445982,-0.00905634555965662,-0.001061802264302969
1772788683736516000,3.84451611328125,-0.0068208882585167885,-0.0032413334120064974,0.003918575122952461
1772788683746581000,3.8545810546875,-0.010435863398015499,-0.012659070082008839,0.006967894732952118
1772788683756646000,3.86464599609375,-0.013336578384041786,0.00905448105186224,0.0015164038632065058
1772788683766712000,3.874712158203125,-0.016402408480644226,0.024469656869769096,0.0017030915478244424
1772788683776777000,3.88477685546875,-0.015241004526615143,0.02593066729605198,-0.0021947110071778297
1772788683786842000,3.894842041015625,-0.013804228976368904,0.014646054245531559,-0.004714327864348888
1772788683796907800,3.90490771484375,-0.010297112166881561,0.0027297399938106537,-0.00538331363350153
1772788683806973000,3.914972900390625,-0.00697881355881691,-0.007750864140689373,-0.008422513492405415
1772788683817038000,3.9250380859375,-0.005727394018322229,-0.01671852543950081,-0.006315154023468494
1772788683827103000,3.93510302734375,-0.0041734399273991585,-0.009284844622015953,-0.009409214369952679
1772788683837169000,3.9451689453125,-0.004267981741577387,0.0020764668006449938,-0.003704723436385393
1772788683847234000,3.955234130859375,-0.003034405643120408,0.00529542937874794,0.00006578007742064074
1772788683857299200,3.96529931640625,-0.000898550555575639,0.010477940551936626,0.0019598202779889107
1772788683867365000,3.975365234375,-0.001422128058038652,0.01461702585220337,-0.0016676714876666665
1772788683877430000,3.985429931640625,0.0013901700731366873,0.010341853834688663,-0.007454986684024334
1772788683887495200,3.9954951171875,0.0002996056282427162,0.013705159537494183,-0.00526586826890707
1772788683897560000,4.00556005859375,-0.0026530411560088396,0.010419351048767567,-0.0065772091038525105
1772788683907625000,4.015625,0.0018809906905516982,0.0023462448734790087,-0.003977963700890541
1772788683917690000,4.025690185546875,-0.00012303804396651685,0.002397377509623766,-0.003949734382331371
1772788683927756000,4.035756103515625,0.000358461489668116,0.0065535069443285465,0.0028999161440879107
1772788683937821000,4.045821044921875,0.0002258360618725419,0.008446482010185719,0.0030186930671334267
1772788683947886000,4.055885986328125,-0.001389371114782989,0.016517192125320435,0.002703907433897257
1772788683957952000,4.065951904296875,-0.0019976370967924595,0.02299080230295658,0.0033750240691006184
1772788683968017200,4.07601708984375,-0.0018367822049185634,0.027719778940081596,0.0051652006804943085
1772788683978082000,4.08608203125,-0.0022064289078116417,0.01683969981968403,0.004548945464193821
1772788683988147000,4.09614697265625,0.00350418733432889,0.0057255299761891365,0.005757754202932119
1772788683998213000,4.106213134765625,0.005584915168583393,0.006070942152291536,0.006225405260920525
1772788684008278000,4.116278076171875,0.0023411849979311228,0.005660548806190491,0.007766576483845711
1772788684018343000,4.126343017578125,0.0020090886391699314,0.016812002286314964,0.0065593658946454525
1772788684028409000,4.1364091796875,0.006460295990109444,0.012892895378172398,0.00042876892257481813
1772788684038474800,4.146474853515625,0.0029084382113069296,0.012741894461214542,-0.0034815503749996424
1772788684048540000,4.156539794921875,0.0021792647894471884,0.018099108710885048,-0.004284227266907692
1772788684058604800,4.166604736328125,0.0004468784318305552,0.015402392484247684,-0.0052147358655929565
1772788684068670700,4.176670654296875,-0.0007091998122632504,0.019962789490818977,-0.006109557580202818
1772788684078736000,4.18673583984375,-0.0017164073651656508,0.021858161315321922,-0.010974354110658169
1772788684088801000,4.196801025390625,-0.001484712352976203,0.02780020609498024,-0.006814230233430862
1772788684098866700,4.20686669921875,0.0013781858142465353,0.022343123331665993,-0.007822236977517605
1772788684108931800,4.216931884765625,0.0017917747609317303,0.011575962416827679,-0.004349208436906338
1772788684118996700,4.226996826171875,0.0013797837309539318,0.0062882560305297375,-0.0024810009635984898
1772788684129061600,4.2370615234375,0.0046421559527516365,0.009207612834870815,0.0007451524725183845
1772788684139127800,4.2471279296875,0.005253884010016918,0.013550962321460247,0.0028639633674174547
1772788684149192700,4.257192626953125,0.006269081030040979,0.011088604107499123,0.004662395920604467
1772788684159257900,4.2672578125,0.0019323896849527955,0.014054300263524055,0.009403621777892113
1772788684169323800,4.27732373046875,0.0018804579740390182,0.011293134652078152,0.008173507638275623
1772788684179388700,4.287388671875,0.0031502533238381147,0.01350382436066866,0.0117312241345644
1772788684189453800,4.297453857421875,-0.0012487561907619238,0.016743293032050133,0.007831557653844357
1772788684199518700,4.307518798828125,-0.005619802512228489,0.015270831994712353,0.004917527083307505
1772788684209584600,4.317584716796875,-0.005416336935013533,0.018605908378958702,0.0009097357979044318
1772788684219649800,4.32764990234375,-0.00669278996065259,0.01272538211196661,-0.003073554253205657
1772788684229715000,4.33771484375,-0.006968161091208458,0.021249894052743912,-0.005931925028562546
1772788684239779600,4.347779541015625,-0.004449343308806419,0.015499863773584366,-0.0028873991686850786
1772788684249845800,4.357845703125,-0.0034234935883432627,0.009198824875056744,-0.0013680658303201199
1772788684259911000,4.367910888671875,-0.0043686493299901485,0.013001552782952785,0.006968427449464798
1772788684269975800,4.377975830078125,-0.003507649526000023,0.013396232388913631,0.009512278251349926
1772788684280041700,4.388041748046875,-0.004566788673400879,0.02022111602127552,0.008407066576182842
1772788684290107000,4.39810693359375,-0.006158293690532446,0.02016039565205574,0.0070395334623754025
1772788684300171800,4.408171875,-0.004463191609829664,0.019596071913838387,0.0070704263634979725
1772788684310236700,4.418236572265625,-0.004710066597908735,0.012721654027700424,0.010953848250210285
1772788684320302800,4.428302734375,-0.00475374236702919,0.013976802118122578,0.013137905858457088
1772788684330367700,4.43836767578125,-0.004733768757432699,0.015302523970603943,0.009620935656130314
1772788684340433000,4.448432861328125,-0.0043928842060267925,0.008388957008719444,0.004382497631013393
1772788684350498600,4.45849853515625,-0.0076363482512533665,0.0065380604937672615,-0.0010908307740464807
1772788684360563700,4.468563720703125,-0.005656553898006678,0.0071753547526896,-0.005376656074076891
1772788684370628900,4.47862890625,-0.006461361423134804,0.009646502323448658,-0.010761301033198833
1772788684380694000,4.488694091796875,-0.003344397759065032,0.011386345140635967,-0.014682273380458355
1772788684390759700,4.498759765625,-0.007556186988949776,0.014536332339048386,-0.02046186476945877
1772788684400824800,4.508824951171875,-0.007786284200847149,0.01883893460035324,-0.011541075073182583
1772788684410890000,4.518889892578125,-0.004941761493682861,0.017418405041098595,-0.005502090789377689
1772788684420956000,4.528955810546875,-0.005228317808359861,0.010808438993990421,0.004662662278860807
1772788684431020800,4.539020751953125,-0.004822718445211649,0.012623916380107403,0.009134642779827118
1772788684441085700,4.549085693359375,-0.003885552054271102,0.00939163751900196,0.008245945908129215
1772788684451150800,4.55915087890625,-0.0015073491958901286,0.013311011716723442,0.010236391797661781
1772788684461216800,4.569216796875,-0.0017129451734945178,0.011863317340612411,0.009971939958631992
1772788684471281700,4.57928173828125,-0.0057678744196891785,0.010273143649101257,0.0080885523930192
1772788684481346800,4.589346923828125,-0.001930791768245399,0.015474563464522362,0.005971073638647795
1772788684491413000,4.5994130859375,-0.006283462047576904,0.0178716741502285,0.00960016343742609
1772788684501477600,4.6094775390625,-0.00833649281412363,0.021675733849406242,0.00824008695781231
1772788684511542800,4.619542724609375,-0.005892243701964617,0.018269551917910576,0.010149306617677212
1772788684521608000,4.62960791015625,-0.00586641114205122,0.019629893824458122,0.01070990227162838
1772788684531673900,4.639673828125,-0.007158576976507902,0.023575900122523308,0.007758587133139372
1772788684541738800,4.64973876953125,-0.004547347314655781,0.02370958961546421,0.004089816473424435
1772788684551804000,4.659803955078125,-0.0046631949953734875,0.013659353367984295,-0.0007946872501634061
1772788684561869800,4.669869873046875,-0.003674363251775503,0.015565910376608372,-0.004914863966405392
1772788684571934700,4.679934814453125,-0.004442685283720493,0.009573531337082386,-0.01465670671314001
1772788684581999900,4.689999755859375,0.0008258462767116725,0.010105631314218044,-0.017780860885977745
1772788684592065800,4.700065673828125,-0.0010381002211943269,0.006956443190574646,-0.014996526762843132
1772788684602131000,4.710130859375,-0.0005550027708522975,0.0002596582053229213,-0.008562595583498478
1772788684612195800,4.72019580078125,0.0015760586829856038,-0.0038892803713679314,-0.005066930316388607
1772788684622261800,4.73026171875,-0.003930559381842613,-0.0017193368403241038,-0.0014974954538047314
1772788684632327000,4.740326904296875,-0.007601194549351931,0.0021105550695210695,0.002600044244900346
1772788684642391800,4.750391845703125,-0.008164985105395317,0.007762315683066845,0.004520449787378311
1772788684652456700,4.760456787109375,-0.010977284051477909,0.01798885315656662,0.001463939668610692
1772788684662523000,4.77052294921875,-0.012336826883256435,0.022669626399874687,0.0027254789602011442
1772788684672587800,4.780587890625,-0.00932239554822445,0.020506873726844788,-0.001344363670796156
1772788684682652700,4.790652587890625,-0.006836334243416786,0.0178128182888031,-0.005008340813219547
1772788684692718800,4.80071875,-0.004288754425942898,0.016744358465075493,-0.005664010997861624
1772788684702783700,4.81078369140625,-0.0032557144295424223,0.00936101097613573,-0.0031614385079592466
1772788684712849000,4.820848876953125,-0.0022090920247137547,0.005258944351226091,-0.0011864382540807128
1772788684722913800,4.830913818359375,0.00030599720776081085,0.00384427304379642,0.00010705907334340736
1772788684732979700,4.840979736328125,-0.0012785836588591337,0.005368666257709265,0.008900283835828304
1772788684743044900,4.851044921875,-0.0007315703551284969,0.0037710361648350954,0.009137305431067944
1772788684753109800,4.86110986328125,-0.0032730249222368,0.007922638207674026,0.016395751386880875
1772788684763175700,4.87117578125,-0.00660437298938632,0.013740579597651958,0.014879080466926098
1772788684773240800,4.88124072265625,-0.00643686018884182,0.011447331868112087,0.016558736562728882
1772788684783306000,4.891305908203125,-0.0059961071237921715,0.013196495361626148,0.017613613978028297
1772788684793370600,4.90137060546875,-0.007191067561507225,0.011243333108723164,0.021142570301890373
1772788684803436800,4.911436767578125,-0.00968778133392334,0.017248494550585747,0.01805250346660614
1772788684813502000,4.921501953125,-0.008203601464629173,0.0175614170730114,0.020834974944591522
1772788684823566600,4.931566650390625,-0.008791361004114151,0.01678697019815445,0.016054600477218628
1772788684833632800,4.9416328125,-0.009358881041407585,0.011158378794789314,0.006427539046853781
1772788684843697700,4.95169775390625,-0.006607568822801113,0.015625031664967537,-0.000016777914424892515
1772788684853762800,4.9617626953125,-0.0062336609698832035,0.021225128322839737,-0.001472461735829711
1772788684863827700,4.97182763671875,-0.003993676509708166,0.017648767679929733,-0.0038541266694664955
1772788684873893600,4.9818935546875,-0.0023606258910149336,0.011741078458726406,-0.0032415995374321938
1772788684883958800,4.991958740234375,0.002189651131629944,0.007954595610499382,-0.006768157705664635
1772788684894024000,5.00202392578125,0.002921487670391798,0.0005073322099633515,-0.007387076038867235
1772788684904089600,5.012089599609375,0.0026820695493370295,0.0004982774262316525,-0.002921754028648138
1772788684914154800,5.02215478515625,0.00307595101185143,-0.0011206581257283688,0.0027779433876276016
1772788684924220000,5.032219970703125,0.0012484899489209056,0.005117530468851328,0.007065366487950087
1772788684934285800,5.042285888671875,-0.000030360035452758893,0.01931457594037056,0.012583968229591846
1772788684944350700,5.052350830078125,-0.0030421288684010506,0.021860558539628983,0.01932682655751705
1772788684954415900,5.062415771484375,-0.0027166905347257853,0.01629907824099064,0.016744358465075493
1772788684964480800,5.072480712890625,-0.0036858150269836187,0.015356585383415222,0.011516041122376919
1772788684974547000,5.082546875,-0.0019867182709276676,0.01594141498208046,0.004971322603523731
1772788684984611800,5.09261181640625,-0.001966478070244193,0.013940582983195782,0.00004261057620169595
1772788684994676700,5.1026767578125,-0.002945189829915762,0.01122415903955698,-0.0026764769572764635
1772788685004743000,5.112742919921875,-0.0015195996966212988,0.015339274890720844,-0.005914348177611828
1772788685014807800,5.122807861328125,-0.0035574506036937237,0.01158927846699953,-0.004965730011463165
1772788685024872700,5.132872802734375,-0.0019225359428673983,0.011275291442871094,-0.008627310395240784
1772788685034937300,5.142937255859375,-0.0043840957805514336,0.008273109793663025,-0.010005762800574303
1772788685045003300,5.153003173828125,-0.001511343871243298,0.006655772216618061,-0.007799333427101374
1772788685055068200,5.163068115234375,-0.0038988678716123104,0.007163370493799448,-0.0025244103744626045
1772788685065133300,5.17313330078125,-0.00640783179551363,0.007663245778530836,-0.0017323862994089723
1772788685075199500,5.183199462890625,-0.007232879288494587,0.017101222649216652,0.004877046681940556
1772788685085264100,5.19326416015625,-0.006095442920923233,0.02345952019095421,0.005665342323482037
1772788685095329300,5.203329345703125,-0.009139436297118664,0.025726668536663055,0.006268548313528299
1772788685105394400,5.21339453125,-0.007529821712523699,0.0218949131667614,0.005393966566771269
1772788685115460400,5.22346044921875,-0.007601460441946983,0.019114039838314056,0.003186472225934267
1772788685125525200,5.233525146484375,-0.006686931010335684,0.021103953942656517,0.0012660667998716235
1772788685135590400,5.24359033203125,-0.00842517614364624,0.015497200191020966,-0.003079679561778903
1772788685145656300,5.25365625,-0.009470733813941479,0.01836009882390499,-0.005410477984696627
1772788685155721200,5.26372119140625,-0.007861917838454247,0.015660718083381653,-0.004590224474668503
1772788685165786400,5.273786376953125,-0.008526376448571682,0.01381035428494215,-0.0022746059112250805
1772788685175852300,5.283852294921875,-0.007674963679164648,0.013372796587646008,0.0022184131667017937
1772788685185917400,5.29391748046875,-0.007451790850609541,0.009128251112997532,0.0067604342475533485
1772788685195982300,5.303982421875,-0.009483516216278076,0.012403139844536781,0.0057526943273842335
1772788685206047200,5.314047119140625,-0.010528807528316975,0.009998039342463017,0.0023875238839536905
1772788685216113400,5.324113525390625,-0.00806138850748539,0.006943127140402794,-0.0023086944129318
1772788685226178300,5.33417822265625,-0.00646828580647707,0.00788721814751625,-0.01050403993576765
1772788685236243200,5.3442431640625,-0.00651595601812005,0.006988134700804949,-0.016266588121652603
1772788685246309400,5.354309326171875,-0.005934321787208319,0.010850783437490463,-0.021914087235927582
1772788685256374300,5.364374267578125,-0.0020208065398037434,0.010096576064825058,-0.01780802570283413
1772788685266439200,5.374439208984375,-0.001990712946280837,0.012299543246626854,-0.016274310648441315
1772788685276504300,5.38450439453125,-0.0007600661483593285,0.016347015276551247,-0.0072901370003819466
1772788685286570200,5.3945703125,-0.0019196064677089453,0.014749917201697826,-0.003953995183110237
1772788685296635400,5.404635498046875,-0.0018927085911855102,0.017431454733014107,-0.0009885653853416443
1772788685306700300,5.4147001953125,-0.004297010600566864,0.01630999706685543,0.003547064261510968
1772788685316766200,5.42476611328125,-0.00669305631890893,0.016523849219083786,0.0031121699139475822
1772788685326831400,5.434831298828125,-0.0049398974515497684,0.015470835380256176,0.004279167391359806
1772788685336896300,5.444896240234375,-0.006898119580000639,0.018626946955919266,0.011240670457482338
1772788685346962200,5.454962158203125,-0.0043859598226845264,0.016092151403427124,0.007445931900292635
1772788685357027300,5.46502734375,-0.00239258399233222,0.008583101443946362,0.007274424657225609
1772788685367092500,5.475092529296875,-0.003999002743512392,0.010806575417518616,-0.004495149478316307
1772788685377157000,5.4851572265625,-0.002796052722260356,0.013569071888923645,-0.00711809704080224
1772788685387223300,5.495223388671875,-0.0031217574141919613,0.018871426582336426,-0.010266751982271671
1772788685397288400,5.505288330078125,-0.0037641117814928293,0.016265522688627243,-0.008579373359680176
1772788685407353300,5.515353271484375,-0.001270594191737473,0.007693339604884386,-0.011153851635754108
1772788685417419300,5.525419189453125,-0.001264202524907887,0.01001934427767992,-0.00891120359301567
1772788685427484200,5.535484130859375,-0.0024487765040248632,0.013932060450315475,-0.00138058268930763
1772788685437549300,5.54554931640625,-0.003082609036937356,0.016717728227376938,0.0012639362830668688
1772788685447615500,5.555615478515625,-0.0023180153220891953,0.013627927750349045,0.0006506102508865297
1772788685457680100,5.56568017578125,-0.0029736857395619154,0.01239168830215931,-0.0046328348107635975
1772788685467745300,5.575745361328125,-0.003739078063517809,0.019061574712395668,-0.008442486636340618
1772788685477810400,5.585810546875,-0.005889314226806164,0.014698784798383713,-0.014737932942807674
1772788685487876000,5.5958759765625,-0.0057340520434081554,0.01522715575993061,-0.01912495866417885
1772788685497941200,5.605941162109375,-0.0057039582170546055,0.008126636035740376,-0.022056033834815025
1772788685508006400,5.61600634765625,-0.0012042814632877707,0.005637645721435547,-0.016214389353990555
1772788685518072300,5.626072265625,-0.0008767126128077507,0.004614459350705147,-0.00956820510327816
1772788685528137200,5.63613720703125,-0.0016610135789960623,0.0059785302728414536,-0.005089034326374531
1772788685538202400,5.646202392578125,-0.001068193931132555,0.010805509984493256,-0.0011022823164239526
1772788685548268300,5.656268310546875,-0.005489041097462177,0.024025175720453262,0.003947869874536991
1772788685558333400,5.66633349609375,-0.009829727932810783,0.024336231872439384,0.003863980295136571
1772788685568398300,5.6763984375,-0.006138852797448635,0.021999575197696686,0.0013590110465884209
1772788685578463200,5.686463134765625,-0.008105331100523472,0.018454374745488167,-0.0065290057100355625
1772788685588529400,5.696529296875,-0.00999164767563343,0.0214829221367836,-0.003899400355294347
1772788685598594300,5.70659423828125,-0.008407332934439182,0.010292585007846355,-0.008896555751562119
1772788685608659200,5.7166591796875,-0.008623847737908363,0.00833622645586729,-0.008852614089846611
1772788685618725400,5.726725341796875,-0.005869873333722353,0.013671337626874447,-0.002252501668408513
1772788685628790300,5.736790283203125,-0.0073567163199186325,0.01697365753352642,0.00449994346126914
1772788685638855200,5.746855224609375,-0.005675196181982756,0.012560532428324223,0.007065366487950087
1772788685648921300,5.75692138671875,-0.001606685109436512,0.009016931056976318,0.00788428820669651
1772788685658986200,5.766986328125,-0.003495931625366211,0.015420234762132168,0.012044412083923817
1772788685669051400,5.777051513671875,-0.0007488809060305357,0.011569038033485413,0.018017616122961044
1772788685679116300,5.7871162109375,-0.0020532971248030663,0.009039567783474922,0.01715448498725891
1772788685689182200,5.79718212890625,-0.0037113812286406755,0.01714702881872654,0.01702478900551796
1772788685699247400,5.807247314453125,-0.0032826124224811792,0.010357832536101341,0.01327186357229948
1772788685709312300,5.817312255859375,-0.006474943365901709,0.007963384501636028,0.00950988195836544
1772788685719378200,5.827378173828125,-0.006040581967681646,0.009209477342665195,0.00962706096470356
1772788685729443300,5.837443359375,-0.007537011988461018,0.006994792725890875,0.006009955424815416
1772788685739508500,5.847508544921875,-0.006057892460376024,0.021673602983355522,0.00037497308221645653
1772788685749574100,5.85757421875,-0.010865696705877781,0.029194103553891182,-0.0029236183036118746
1772788685759639300,5.867639404296875,-0.009072590619325638,0.028749356046319008,-0.00558225205168128
1772788685769704400,5.877704345703125,-0.004476241301745176,0.02490268647670746,-0.010252371430397034
1772788685779769000,5.88776904296875,-0.0034964641090482473,0.0182314682751894,-0.008445416577160358
1772788685789835300,5.897835205078125,-0.0008178567513823509,0.005870406050235033,-0.008714661933481693
1772788685799900400,5.907900390625,-0.001660214620642364,0.005872003734111786,-0.0070914654061198235
1772788685809965300,5.91796533203125,-0.0011073424248024821,0.003626959165558219,-0.004724713973701
1772788685820031500,5.928031494140625,-0.00039281626231968403,0.008989499881863594,-0.008268049918115139
1772788685830096100,5.93809619140625,-0.004452539142221212,0.02251010201871395,0.0025124261155724525
1772788685840161300,5.948161376953125,-0.006113286130130291,0.02623985894024372,0.007602259516716003
1772788685850227500,5.9582275390625,-0.011039601638913155,0.028133898973464966,0.015391739085316658
1772788685860292000,5.9682919921875,-0.008860869333148003,0.02521054819226265,0.018017349764704704
1772788685870357200,5.978357177734375,-0.00809174869209528,0.028173048049211502,0.018026137724518776
1772788685880422400,5.98842236328125,-0.010349043644964695,0.02551894262433052,0.015352324582636356
1772788685890488300,5.99848828125,-0.0075636436231434345,0.022062424570322037,0.01335921511054039
1772788685900553200,6.00855322265625,-0.010966364294290543,0.02052711322903633,0.01411501970142126
1772788685910618400,6.018618408203125,-0.006226204335689545,0.018328674137592316,0.002793922321870923
1772788685920684300,6.028684326171875,-0.00663553224876523,0.012938168831169605,-0.0015853798249736428
1772788685930749200,6.038749267578125,-0.006824882701039314,0.00971574429422617,-0.006488525774329901
1772788685940814300,6.048814453125,-0.0004796353168785572,-0.03263171389698982,-0.007850999012589455
1772788685950880300,6.05888037109375,-0.003611512714996934,0.001163002452813089,-0.007046990562230349
1772788685960945400,6.0689453125,-0.006351106334477663,0.01438399963080883,-0.0031350732315331697
1772788685971010300,6.07901025390625,-0.002258893335238099,0.015132347121834755,0.002683401107788086
1772788685981076200,6.089076171875,-0.0031502533238381147,0.01720721647143364,0.0024687503464519978
1772788685991141400,6.099141357421875,-0.004810201469808817,-0.010191118344664574,0.011321097612380981
1772788686001206300,6.109206298828125,-0.004381965380162001,0.0010982876410707831,0.006788930390030146
1772788686011271200,6.119271240234375,-0.008383364416658878,0.020009661093354225,0.006037918850779533
1772788686021337300,6.12933740234375,-0.0057010287418961525,0.017067667096853256,0.010537062771618366
1772788686031402200,6.13940234375,-0.007693073246628046,0.009809487499296665,0.004789428785443306
1772788686041467600,6.149467529296875,-0.009583118371665478,0.004013383761048317,0.006068279035389423
1772788686051533800,6.159533935546875,-0.00893863383680582,0.006762032397091389,0.005617139395326376
1772788686061598500,6.169598388671875,-0.00857537891715765,0.0104726143181324,0.0036155073903501034
1772788686071663600,6.17966357421875,-0.00932239554822445,0.022340459749102592,0.0009376989910379052
1772788686081729500,6.1897294921875,-0.008622250519692898,0.028007665649056435,0.00899509247392416
1772788686091794700,6.199794677734375,-0.008199340663850307,0.018625348806381226,0.006366020068526268
1772788686101859600,6.209859619140625,-0.0056893108412623405,0.015153919346630573,0.011353322304785252
1772788686111924700,6.2199248046875,-0.003855191869661212,0.01251126453280449,0.009476592764258385
1772788686121990700,6.22999072265625,-0.0007579356315545738,0.01221352256834507,0.009241967462003231
1772788686132055600,6.2400556640625,-0.00009853696246864274,0.005601160228252411,0.0032149681355804205
1772788686142120700,6.25012060546875,-0.00007163903501350433,0.0022857910953462124,0.0012772521004080772
1772788686152186600,6.2601865234375,0.00003408846168895252,0.006808104924857616,-0.0009209210984408855
1772788686162251800,6.270251708984375,-0.001514806062914431,0.007386809680610895,-0.0012325108982622623
1772788686172316700,6.280316650390625,-0.0014423680258914828,0.015229819342494011,-0.0014772554859519005
1772788686182382600,6.290382568359375,-0.003733219113200903,0.023567376658320427,-0.0067572384141385555
1772788686192447700,6.30044775390625,-0.006585198454558849,0.01768418774008751,-0.006941529456526041
1772788686202512600,6.3105126953125,-0.009412144310772419,0.007483482826501131,-0.009474461898207664
1772788686212578600,6.32057861328125,-0.006773217581212521,0.0037553233560174704,-0.007821970619261265
1772788686222643700,6.330643798828125,-0.006001433357596397,0.013219399377703667,-0.005983323790132999
1772788686232708600,6.34070849609375,-0.004263720940798521,0.01962083950638771,-0.00444028852507472
1772788686242773500,6.3507734375,-0.005762814078480005,0.017837585881352425,-0.0010628675809130073
1772788686252839700,6.360839599609375,-0.001133441342972219,0.016865000128746033,0.0033105756156146526
1772788686262904600,6.370904541015625,0.0008064051507972181,0.014808240346610546,0.0010844392236322165
1772788686272969700,6.3809697265625,0.0009387642494402826,0.015411446802318096,-0.0004900216590613127
1772788686283035400,6.391035400390625,-0.0011385013349354267,0.015964850783348083,-0.0029558425303548574
1772788686293100500,6.4011005859375,0.00022770027862861753,0.018333999440073967,-0.003748132847249508
1772788686303165700,6.411165771484375,-0.0006223807577043772,0.009104282595217228,-0.001592037733644247
1772788686313231600,6.421231689453125,-0.001484179636463523,0.0038903458043932915,0.004787032026797533
1772788686323296500,6.431296630859375,-0.00014674017438665032,-0.0008572715451009572,0.0016498282784596086
1772788686333361700,6.441361572265625,-0.0023965786676853895,-0.0022418489679694176,0.0030834078788757324
1772788686343426800,6.4514267578125,-0.0037987329997122288,0.007518636528402567,0.005226986017078161
1772788686353492700,6.46149267578125,-0.004509264137595892,0.016021577641367912,0.0022011026740074158
1772788686363557600,6.4715576171875,-0.004750014282763004,0.01841256208717823,-0.0008005462004803121
1772788686373622500,6.48162255859375,-0.006517820525914431,0.016446352005004883,-0.007492537144571543
1772788686383688700,6.491688720703125,-0.004954544827342033,0.020596887916326523,-0.01110218558460474
1772788686393753600,6.501753662109375,-0.004019775427877903,0.01702132821083069,-0.015023157931864262
1772788686403818500,6.511818603515625,-0.002549710450693965,0.0070467242039740086,-0.012664129957556725
1772788686413884700,6.521884765625,0.0035955337807536125,-0.0025654230266809464,-0.013251356780529022
1772788686423949800,6.53194970703125,0.003519633784890175,-0.003206712193787098,-0.006113286130130291
1772788686434014500,6.542014404296875,-0.002612028270959854,0.0019025622168555856,-0.0024884575977921486
1772788686444079600,6.55207958984375,0.0027478495612740517,0.005086903925985098,0.004575044382363558
1772788686454145800,6.562145751953125,-0.001683384063653648,0.01453020703047514,0.011113370768725872
1772788686464210400,6.57221044921875,-0.004580903332680464,0.01781335100531578,0.008696818724274635
1772788686474275600,6.582275634765625,-0.0034935346338897943,0.014503042213618755,0.008183094672858715
1772788686484341500,6.592341552734375,-0.004964132327586412,0.01266812440007925,0.001796834752894938
1772788686494406700,6.60240673828125,-0.005032042972743511,0.012194614857435226,0.00404534162953496
1772788686504471600,6.612471435546875,-0.004543885588645935,0.009636647999286652,0.0010759170399978757
1772788686514537500,6.622537353515625,-0.001288171042688191,0.0011864382540807128,0.0014066817238926888
1772788686524602600,6.6326025390625,-0.00018855179951060563,0.001017593895085156,-0.002886333968490362
1772788686534667800,6.642667724609375,0.0022985744290053844,0.006366819143295288,-0.006530869752168655
1772788686544733400,6.6527333984375,-0.0021291973534971476,0.015798671171069145,-0.01082788035273552
1772788686554798600,6.662798583984375,-0.0015840481501072645,0.020809940993785858,-0.008813731372356415
1772788686564863700,6.67286376953125,-0.0024288028944283724,0.018515894189476967,-0.006000900641083717
1772788686574928600,6.6829287109375,0.00012250541476532817,0.010427607223391533,-0.0024202808272093534
1772788686584994600,6.69299462890625,0.0014444985426962376,0.005650162696838379,0.0028634308837354183
1772788686595059700,6.703059814453125,0.0012855078093707561,0.003940679598599672,0.0038274950347840786
1772788686605124600,6.71312451171875,-0.0008428904693573713,-0.0011779161868616939,0.004683967679738998
1772788686615190800,6.723190673828125,0.00022796659322921187,0.0046789078041911125,-0.0004394215648062527
1772788686625255700,6.733255615234375,0.0006785734440200031,0.014126471243798733,0.0034669029992073774
1772788686635320600,6.743320556640625,-0.0022562299855053425,0.016823986545205116,0.007583883590996265
1772788686645386800,6.75338671875,-0.0019861855544149876,0.02014921046793461,0.011463310569524765
1772788686655451600,6.76345166015625,-0.0009752495680004358,0.024105602875351906,0.013316604308784008
1772788686665516500,6.7735166015625,-0.0011358382180333138,0.02527792565524578,0.012447881512343884
1772788686675581700,6.783581787109375,-0.004478904418647289,0.02159370854496956,0.010212955996394157
1772788686685647600,6.793647705078125,-0.001181644620373845,0.01320954505354166,0.0046823699958622456
1772788686695712500,6.80371240234375,0.0022892532870173454,0.00875247921794653,-0.0022913836874067783
1772788686705777700,6.813777587890625,-0.0024658208712935448,0.0075814868323504925,-0.00714526092633605
1772788686715843600,6.823843505859375,-0.0023299995809793472,0.0025875272694975138,-0.010118413716554642
1772788686725908500,6.833908447265625,-0.00490287970751524,-0.0021142836194485426,-0.013244965113699436
1772788686735973600,6.8439736328125,-0.0036634444259107113,0.005624862387776375,-0.008506668731570244
1772788686746039600,6.85403955078125,-0.00384400668554008,0.010115484707057476,-0.004640558268874884
1772788686756104700,6.864104736328125,-0.006966030225157738,0.007017429452389479,0.002356364857405424
1772788686766169600,6.874169677734375,-0.007333546411246061,0.009499229490756989,0.0062363240867853165
1772788686776234800,6.88423486328125,-0.008194279856979847,0.009945575147867203,0.007484015077352524
1772788686786300700,6.89430078125,-0.006660832092165947,0.007197192870080471,0.010325341485440731
1772788686796365800,6.90436572265625,-0.010789263993501663,0.008641957305371761,0.011491806246340275
1772788686806430500,6.914430419921875,-0.012104866094887257,0.006168147549033165,0.0117940753698349
1772788686816496600,6.92449658203125,-0.01130724884569645,0.009953830391168594,0.010699516162276268
1772788686826561800,6.934561767578125,-0.014908907935023308,0.00577746145427227,0.0006173207075335085
1772788686836626400,6.94462646484375,-0.011470767669379711,0.006840062793344259,-0.001392300589941442
1772788686846692600,6.954692626953125,-0.011952267028391361,0.007897071540355682,-0.00213585514575243
1772788686856757800,6.9647578125,-0.013114470057189465,0.006087719928473234,-0.003948935307562351
1772788686866822700,6.97482275390625,-0.010450510308146477,0.005805158521980047,-0.007452589925378561
1772788686876887600,6.984887451171875,-0.01122043002396822,0.008625179529190063,-0.006668555550277233
1772788686886953500,6.994953369140625,-0.011922173202037811,0.004517253953963518,-0.008671252056956291
1772788686897018600,7.0050185546875,-0.009971673600375652,0.011068097315728664,-0.004494616761803627
1772788686907083500,7.01508349609375,-0.005922603886574507,0.012811402790248394,-0.005016596522182226
1772788686917149400,7.0251494140625,-0.005755091086030006,0.008133027702569962,-0.004605937283486128
1772788686927214600,7.035214599609375,-0.0035198999103158712,0.0067873322404921055,-0.00279072648845613
1772788686937279700,7.04527978515625,-0.0025033713318407536,0.006370281334966421,-0.0005731122801080346
1772788686947345700,7.055345703125,-0.000601075473241508,0.006490123458206654,0.00293267285451293
1772788686957410600,7.06541064453125,-0.004355067387223244,0.01013865415006876,0.002389654517173767
1772788686967475700,7.075475830078125,-0.005319930613040924,0.011210842989385128,0.001990180229768157
1772788686977540600,7.08554052734375,-0.009211341850459576,0.0075964005663990974,-0.0011749867117032409
1772788686987606500,7.0956064453125,-0.004450940992683172,0.00806431844830513,-0.003989148885011673
1772788686997671700,7.105671630859375,-0.006397445686161518,0.008114918135106564,-0.009127185679972172
1772788687007736600,7.115736572265625,-0.007285609841346741,0.0004777711001224816,-0.011262241750955582
1772788687017802800,7.125802734375,-0.007995608262717724,-0.00004793690095539205,-0.014667891897261143
1772788687027867600,7.13586767578125,-0.007571633439511061,0.000023435817638528533,-0.013407152146100998
1772788687037932300,7.145932373046875,-0.009814547374844551,0.00920574925839901,-0.014177870936691761
1772788687047998500,7.15599853515625,-0.009661149233579636,0.014081197790801525,-0.015627695247530937
1772788687058063600,7.166063720703125,-0.009282448329031467,0.01498187892138958,-0.016262859106063843
1772788687068128500,7.17612841796875,-0.009995642118155956,0.012806342914700508,-0.013058544136583805
1772788687078193400,7.186193359375,-0.00711836339905858,0.015152853913605213,-0.006994526367634535
1772788687088259600,7.196259521484375,-0.005614742636680603,0.021413413807749748,-0.0023941819090396166
1772788687098324500,7.206324462890625,-0.0011965582380071282,0.018907111138105392,-0.0027827369049191475
1772788687108389600,7.2163896484375,-0.005048288032412529,0.015970710664987564,-0.012179167941212654
1772788687118455300,7.226455322265625,0.006452306639403105,0.0062826634384691715,-0.012966930866241455
1772788687128520400,7.2365205078125,0.00410499656572938,0.023493075743317604,-0.01673823408782482
1772788687138585600,7.246585693359375,0.004457865376025438,0.022105036303400993,-0.015341139398515224
1772788687148651500,7.256651611328125,0.007266434840857983,0.004712196998298168,-0.008730107918381691
1772788687158716400,7.26671630859375,0.008892028592526913,-0.002674612682312727,-0.005206213798373938
1772788687168781600,7.276781494140625,0.006336192600429058,-0.0031398669816553593,-0.0004010720585938543
1772788687178846700,7.2868466796875,0.003973968792706728,-0.0017622136510908604,-0.004059456288814545
1772788687188912400,7.296912353515625,0.0002836266648955643,0.006121275946497917,0.0000018642127770363004
1772788687198977500,7.3069775390625,-0.003239469137042761,0.019508719444274902,-0.006493585649877787
1772788687209042400,7.31704248046875,-0.008250473067164421,0.023437149822711945,-0.005280515644699335
1772788687219108600,7.327108642578125,-0.00905607920140028,0.030854851007461548,-0.0067545752972364426
1772788687229173500,7.337173583984375,-0.008347411639988422,0.02268880046904087,-0.006809703074395657
1772788687239238400,7.34723828125,-0.004391552414745092,0.016110260039567947,-0.005918342620134354
1772788687249303600,7.357303466796875,-0.0030397321097552776,0.008465656079351902,-0.014361095614731312
1772788687259369700,7.36736962890625,-0.002237055217847228,0.0037180392537266016,-0.017528660595417023
1772788687269434400,7.377434326171875,0.0006713828770443797,0.0002814961189869791,-0.01943894475698471
1772788687279499500,7.38749951171875,0.0028735508676618338,-0.003014165675267577,-0.012461995705962181
1772788687289565400,7.3975654296875,0.0030245520174503326,0.0043864925391972065,-0.007005711551755667
1772788687299630300,7.40763037109375,0.004297010600566864,0.01417334284633398,0.0041191112250089645
1772788687309695500,7.417695556640625,-0.001466336427256465,0.01684822142124176,0.008500011637806892
1772788687319760600,7.4277607421875,0.00010253170330543071,0.02238520048558712,0.0107107013463974
1772788687329826600,7.43782666015625,-0.004343882203102112,0.014073474332690239,0.012052401900291443
1772788687339891500,7.447891357421875,-0.0038157771341502666,0.01210060529410839,0.009459814056754112
1772788687349956600,7.45795654296875,-0.004818989895284176,0.009038768708705902,0.008643022738397121
1772788687360022500,7.4680224609375,-0.005921538453549147,0.00589650496840477,0.0051867724396288395
1772788687370087400,7.47808740234375,-0.007321029901504517,0.0029973878990858793,0.002120941411703825
1772788687380152600,7.488152587890625,-0.006610764656215906,0.0029891319572925568,-0.000904409505892545
1772788687390217500,7.498217529296875,-0.006960703991353512,0.0034762241411954165,-0.006228334736078978
1772788687400283600,7.50828369140625,-0.0065527078695595264,0.0173821859061718,-0.012411662377417088
1772788687410348300,7.518348388671875,-0.010731739923357964,0.024645691737532616,-0.011812451295554638
1772788687420413400,7.528413330078125,-0.008617723360657692,0.019267970696091652,-0.019571837037801743
1772788687430479600,7.538479736328125,-0.0035204326268285513,0.008582568727433681,-0.020725784823298454
1772788687440544500,7.54854443359375,0.0009257147903554142,0.0015307849971577525,-0.018398448824882507
1772788687450609400,7.558609375,0.0019619506783783436,0.001657285145483911,-0.018561966717243195
1772788687460674600,7.568674560546875,0.002959837205708027,0.003576625371351838,-0.013051886111497879
1772788687470740500,7.578740478515625,0.0020277309231460094,0.003869839245453477,-0.009183644317090511
1772788687480805400,7.588805419921875,0.0009653958841226995,0.007130879908800125,-0.0034501252230256796
1772788687490870500,7.59887060546875,-0.0001960086519829929,0.01540372334420681,0.00469488650560379
1772788687500936400,7.6089365234375,-0.00324852392077446,0.018730012699961662,0.009327189065515995
1772788687511001600,7.619001708984375,-0.004743356257677078,0.02009062096476555,0.005468801129609346
1772788687521066500,7.62906640625,-0.00290417717769742,0.0182876605540514,0.005293831694871187
1772788687531131400,7.63913134765625,-0.0033888723701238632,0.012930179946124554,-0.0028764803428202868
1772788687541197600,7.649197509765625,-0.0017931063193827868,0.005293565336614847,-0.0059963734820485115
1772788687551262700,7.6592626953125,-0.0036250948905944824,0.008854211308062077,-0.0129924975335598
1772788687561327400,7.669327392578125,-0.004790494218468666,0.0047028763219714165,-0.016643159091472626
1772788687571393500,7.6793935546875,-0.00358754419721663,0.0020927118603140116,-0.018451711162924767
1772788687581458700,7.689458740234375,-0.00324799120426178,0.0023086944129318,-0.020986242219805717
1772788687591523300,7.6995234375,-0.006850715726613998,0.002784601179882884,-0.018628545105457306
1772788687601588500,7.70958837890625,-0.005520200356841087,-0.00152332813013345,-0.016292154788970947
1772788687611654400,7.719654296875,-0.005935919936746359,0.0003438140847720206,-0.010920558124780655
1772788687621719600,7.729719482421875,-0.005982791539281607,-0.00216488353908062,-0.006563893053680658
1772788687631784400,7.739784423828125,-0.007065632846206427,0.0006865629111416638,-0.004550276789814234
1772788687641850400,7.749850341796875,-0.009849701076745987,0.0005305017111822963,-0.0008167914929799736
1772788687651915500,7.75991552734375,-0.009904562495648861,0.0048948898911476135,0.0009576727170497179
1772788687661980400,7.76998046875,-0.008116249926388264,0.009606288745999336,-0.000294545607175678
1772788687672045600,7.780045654296875,-0.009610283188521862,0.012181831523776054,-0.001127582392655313
1772788687682111500,7.790111572265625,-0.009281649254262447,0.005095159634947777,-0.001094559207558632
1772788687692176600,7.8001767578125,-0.009423329494893551,0.006410228554159403,-0.006314621306955814
1772788687702241500,7.810241455078125,-0.008832906372845173,0.010695254430174828,-0.00854475237429142
1772788687712307500,7.820307373046875,-0.010320015251636505,0.007433947641402483,-0.011151987127959728
1772788687722372600,7.83037255859375,-0.010702711530029774,0.0056986319832503796,-0.010031328536570072
1772788687732437500,7.8404375,-0.008667523972690105,0.0030594393610954285,-0.011801531538367271
1772788687742502400,7.85050244140625,-0.0073716300539672375,0.0017427726415917277,-0.011787417344748974
1772788687752568600,7.860568603515625,-0.012264389544725418,0.007500526960939169,-0.010066748596727848
1772788687762633500,7.870633544921875,-0.010399111546576023,0.010683270171284676,-0.004412857815623283
1772788687772698400,7.880698486328125,-0.010463560000061989,0.00694978516548872,-0.005595301277935505
1772788687782764500,7.8907646484375,-0.010898986831307411,0.0065228804014623165,-0.0002921487612184137
1772788687792829400,7.900829345703125,-0.011255850084125996,0.006639526691287756,0.003200853243470192
1772788687802894600,7.91089453125,-0.010450776666402817,0.006186523009091616,0.007510646712034941
1772788687812959500,7.92095947265625,-0.0090568782761693,0.0020999026019126177,0.00016777914424892515
1772788687823025400,7.931025390625,-0.00869042705744505,0.003117230022326112,-0.003442934714257717
1772788687833090600,7.941090576171875,-0.00866326317191124,0.010131197050213814,-0.0035033884923905134
1772788687843155500,7.951155517578125,-0.012138688005506992,0.008835037238895893,-0.003967577591538429
1772788687853220400,7.961220458984375,-0.009643572382628918,0.0068238177336752415,-0.002114816103130579
1772788687863286500,7.97128662109375,-0.010554106906056404,0.007576693315058947,-0.0034061830956488848
1772788687873351700,7.9813515625,-0.010471283458173275,0.01131071150302887,-0.003067961661145091
1772788687883416300,7.991416259765625,-0.009460346773266792,0.010937602259218693,-0.009588179178535938
1772788687893481500,8.0014814453125,-0.01047581061720848,0.013025254011154175,-0.015323828905820847
1772788687903547600,8.011547607421875,-0.012731507420539856,0.011345598846673965,-0.018930813297629356
1772788687913612500,8.021612548828125,-0.013204218819737434,0.01125238835811615,-0.022058697417378426
1772788687923677400,8.031677490234374,-0.01119299978017807,0.008820655755698681,-0.010455303825438023
1772788687933743400,8.041743408203125,-0.009442237205803394,0.004506601020693779,-0.0032647692132741213
1772788687943808500,8.05180859375,-0.011512845754623413,0.009755158796906471,0.0010359697043895721
1772788687953873400,8.061873291015624,-0.010751713998615742,0.012329104356467724,0.004126301966607571
1772788687963938600,8.0719384765625,-0.006380667444318533,0.012595686130225658,0.006765494588762522
1772788687974004500,8.08200439453125,-0.008761267177760601,0.016647152602672577,0.003181145992130041
1772788687984069600,8.092069580078125,-0.007722634356468916,0.021696506068110466,0.0019377160351723433
1772788687994134500,8.102134521484375,-0.0057502975687384605,0.013373329304158688,-0.0030146983917802572
1772788688004199400,8.112199462890626,-0.0024503744207322598,0.011129084043204784,-0.009998572058975697
1772788688014265600,8.122265625,-0.001056476030498743,0.008754609152674675,-0.018912171944975853
1772788688024330500,8.13233056640625,0.0008428904693573713,0.009325857274234295,-0.020307667553424835
1772788688034395400,8.1423955078125,0.0007901599165052176,0.0016982977977022529,-0.01679708994925022
1772788688044461000,8.1524609375,0.002587793627753854,-0.009542904794216156,-0.01200100313872099
1772788688054526200,8.162526123046876,0.0013310478534549475,-0.015597601421177387,-0.0098038949072361
1772788688064590800,8.1725908203125,-0.009402822703123093,-0.005144162103533745,-0.004856806714087725
1772788688074656000,8.182656005859375,-0.010787134058773518,0.0010341054294258356,0.0005976133397780359
1772788688084722000,8.192721923828126,-0.014786935411393642,0.013548832386732101,0.0003126551164314151
1772788688094787000,8.202787109375,-0.012923521921038628,0.02154151163995266,0.004491953644901514
1772788688104852000,8.21285205078125,-0.012688897550106049,0.02045467495918274,-0.003674629610031843
1772788688114917000,8.222917236328126,-0.011721637099981308,0.02190316841006279,-0.004924184642732143
1772788688124983000,8.232983154296875,-0.00881852488964796,0.017478326335549355,-0.01381221879273653
1772788688135048200,8.243048095703125,-0.0070336745120584965,0.013944843783974648,-0.017943579703569412
1772788688145113000,8.253113037109374,0.003573695896193385,0.004670652095228434,-0.017484717071056366
1772788688155179000,8.263178955078125,0.003066896228119731,-0.0002793656021822244,-0.016408534720540047
1772788688165244200,8.273244140625,0.01335921511054039,0.003963849041610956,-0.007831557653844357
1772788688175309000,8.28330908203125,0.008985239081084728,0.00726430444046855,0.003492469433695078
1772788688185374000,8.2933740234375,0.006124471314251423,0.013736851513385773,0.010979147627949715
1772788688195440000,8.303440185546876,0.006990797817707062,0.011540808714926243,0.01624741218984127
1772788688205505000,8.313505126953125,0.005846171174198389,0.011815113946795464,0.02299213409423828
1772788688215570000,8.32356982421875,0.003349990351125598,0.016275376081466675,0.021917017176747322
1772788688225635000,8.333635009765626,0.0013278521364554763,0.014050837606191635,0.02317269705235958
1772788688235701000,8.343700927734375,-0.0023435817565768957,0.0072805495001375675,0.018015485256910324
1772788688245766100,8.35376611328125,-0.0023220102302730083,0.008382299914956093,0.014772821217775345
1772788688255831000,8.3638310546875,-0.00640942994505167,0.011590342968702316,0.014561365358531475
1772788688265897000,8.37389697265625,-0.008746886625885963,0.008489091880619526,0.010974620468914509
1772788688275962000,8.383962158203126,-0.00606428412720561,0.0073596457950770855,0.0041097900830209255
1772788688286027000,8.394027099609374,-0.00691995769739151,0.012679842300713062,0.0014471617760136724
1772788688296092200,8.404092041015625,-0.005766808986663818,0.017648767679929733,0.005425391718745232
1772788688306158000,8.414157958984376,-0.0030573089607059956,0.015327024273574352,0.0025595640763640404
1772788688316223200,8.42422314453125,-0.00032384038786403835,0.015509184449911118,-0.0018210695125162601
1772788688326288000,8.434287841796875,0.002028529765084386,0.01242151577025652,-0.006699447985738516
1772788688336353000,8.44435302734375,0.0003802994033321738,0.011712050065398216,-0.007423827890306711
1772788688346419200,8.454419189453125,0.0033103092573583126,0.007715177722275257,-0.0014471617760136724
1772788688356483800,8.46448388671875,0.0007656587986275554,0.002653839997947216,0.0014242585748434067
1772788688366549000,8.474549072265624,0.0016793893883004785,0.007245395798236132,0.007693605963140726
1772788688376614100,8.4846142578125,-0.003260241821408272,0.0051681301556527615,0.015327556990087032
1772788688386680000,8.49468017578125,-0.003326288191601634,0.01560905296355486,0.019541477784514427
1772788688396745000,8.504744873046874,-0.005530586466193199,0.02226642332971096,0.01823945716023445
1772788688406810000,8.51481005859375,-0.005659483373165131,0.02316417545080185,0.01823892444372177
1772788688416876000,8.5248759765625,-0.006888266187161207,0.02413276582956314,0.015093198977410793
1772788688426941200,8.534941162109375,-0.0075718993321061134,0.020288759842514992,0.00737216230481863
1772788688437006000,8.545006103515625,-0.006139651406556368,0.01335601881146431,0.004163319710642099
1772788688447071000,8.555071044921876,-0.006709568202495575,0.004479170776903629,-0.0031249532476067543
1772788688457137200,8.56513720703125,-0.002924150787293911,0.0026612968649715185,-0.007212905213236809
1772788688467202000,8.5752021484375,-0.0049319081008434296,0.005330583080649376,-0.013141634874045849
1772788688477267000,8.585266845703124,-0.004206462763249874,0.009362875483930111,-0.005446430761367083
1772788688487332000,8.59533203125,-0.0028759476263076067,0.008654740639030933,-0.001371794263832271
1772788688497398000,8.60539794921875,-0.005682386923581362,0.006630471907556057,0.004620584659278393
1772788688507463000,8.615462890625,-0.007926899008452892,0.00866379588842392,0.009303753264248371
1772788688517528000,8.625528076171875,-0.007967911660671234,0.008899752050638199,0.007791610434651375
1772788688527594000,8.635593994140624,-0.00845420453697443,0.006424609571695328,0.005992112215608358
1772788688537659000,8.645658935546875,-0.006618488114327192,0.008026234805583954,0.004198207054287195
1772788688547724000,8.65572412109375,-0.008637163788080215,0.010946124792098999,0.005307946354150772
1772788688557790000,8.6657900390625,-0.011088604107499123,0.008624646812677383,0.005579056218266487
1772788688567855000,8.675855224609375,-0.01064944826066494,0.010932276025414467,0.00427144393324852
1772788688577920000,8.685919921875,-0.007366036996245384,0.01595473103225231,0.0035055188927799463
1772788688587985200,8.695985107421874,-0.009493636898696423,0.0107120331376791,0.004552141297608614
1772788688598051000,8.706051025390625,-0.008510664105415344,0.008390288800001144,0.008851548656821251
1772788688608116200,8.7161162109375,-0.007440872024744749,0.004034156445413828,0.004506068304181099
1772788688618180900,8.726180908203125,-0.005231780000030994,0.000040746363083599135,0.0013422331539914012
1772788688628246000,8.73624609375,-0.008551410399377346,0.00785605888813734,-0.002043443499132991
1772788688638312200,8.746312255859374,-0.009781524538993835,0.009850233793258667,-0.004595817066729069
1772788688648376800,8.756376953125,-0.011059841141104698,0.013907560147345066,-0.004480768460780382
1772788688658442000,8.76644189453125,-0.010076070204377174,0.02021578885614872,-0.005766009911894798
1772788688668507100,8.776507080078124,-0.005388373974710703,0.014800251461565495,-0.005438707303255796
1772788688678573000,8.786572998046875,-0.0049255164340138435,0.005590774118900299,-0.002883404493331909
1772788688688638000,8.796637939453126,-0.005645102355629206,0.0012721919920295477,-0.0021315941121429205
1772788688698703000,8.806703125,-0.0057074204087257385,-0.0020999026019126177,0.0006186523241922259
1772788688708769000,8.81676904296875,-0.0041734399273991585,-0.0014895059866830707,0.0027353328187018633
1772788688718834200,8.826834228515626,-0.0046906257048249245,-0.0005496764206327498,0.005024852231144905
1772788688728899000,8.836899169921875,-0.004286624025553465,0.010017214342951775,0.006984139792621136
1772788688738964000,8.8469638671875,-0.007959122769534588,0.014260961674153805,0.012219381518661976
1772788688749030100,8.857030029296874,-0.007735684048384428,0.01781095564365387,0.014733672142028809
1772788688759095000,8.867094970703125,-0.008044344373047352,0.014772022143006325,0.014575214125216007
1772788688769160000,8.877159912109375,-0.010307231917977333,0.010823086835443974,0.013105682097375393
1772788688779225000,8.88722509765625,-0.01064811646938324,0.007699464913457632,0.009218798018991947
1772788688789291300,8.897291259765625,-0.010129866190254688,0.010402040556073189,-0.00027563716867007315
1772788688799356000,8.90735595703125,-0.010957842692732811,0.013615144416689873,-0.0033188313245773315
1772788688809421000,8.917421142578124,-0.0062371231615543365,0.015003183856606483,-0.007650995627045631
1772788688819486200,8.927486328125,-0.0029523803386837244,0.0131509555503726,-0.008388424292206764
1772788688829551900,8.9375517578125,-0.0009749832679517567,0.018099641427397728,-0.007929296232759953
1772788688839617000,8.947616943359375,-0.0015611450653523207,0.02419455163180828,-0.01570918783545494
1772788688849682200,8.95768212890625,-0.0017190704820677638,0.018973957747220993,-0.015397598035633564
1772788688859746800,8.967746826171876,-0.0006969492533244193,0.009347429499030113,-0.01561145018786192
1772788688869813000,8.97781298828125,0.0016772588714957237,-0.0005185174522921443,-0.0126995500177145
1772788688879878100,8.987878173828125,-0.0011398328933864832,0.005093295592814684,-0.001023452845402062
1772788688889943000,8.997943115234374,-0.005508482456207275,0.01004837267100811,0.008599613793194294
1772788688900008000,9.008008056640625,-0.0070704263634979725,0.012632970698177814,0.013276390731334686
1772788688910074000,9.01807421875,-0.010950651951134205,0.017775002866983414,0.017590710893273354
1772788688920139000,9.028138916015624,-0.011578891426324844,0.020205669105052948,0.01841575838625431
1772788688930204200,9.0382041015625,-0.014200507663190365,0.021853899583220482,0.012925120070576668
1772788688940269000,9.04826904296875,-0.0073593794368207455,0.01769111305475235,0.009778328239917755
1772788688950335000,9.0583349609375,-0.006777478381991386,0.016036756336688995,0.009492571465671062
1772788688960400100,9.068400146484375,-0.005629123654216528,0.011639878153800964,0.003980626817792654
1772788688970465000,9.078465087890624,-0.002225070958957076,0.00694925244897604,-0.000049801110435510054
1772788688980530000,9.088530029296875,-0.001898301183246076,0.007230216171592474,-0.00570023013278842
1772788688990596000,9.09859619140625,-0.005397428758442402,0.009995642118155956,-0.007496265694499016
1772788689000661200,9.1086611328125,-0.002380333375185728,0.013232181780040264,-0.003096457337960601
1772788689010726000,9.118725830078125,0.0008010788587853312,0.011655057780444622,0.0021403825376182795
1772788689020791000,9.128791015625,-0.002814428647980094,0.006992395501583815,0.006050435826182365
1772788689030857000,9.13885693359375,-0.003227218519896269,0.014678810723125935,0.010630007833242416
1772788689040921900,9.148921875,-0.0033417344093322754,0.017714282497763634,0.00959803257137537
1772788689050987000,9.158987060546876,-0.0046485476195812225,0.019156649708747864,0.008931176736950874
1772788689061053000,9.169052978515625,-0.003385410411283374,0.013712350279092789,0.0028333370573818684
1772788689071118000,9.1791181640625,-0.004323641769587994,0.014314756728708744,0.006114351563155651
1772788689081183000,9.189182861328124,-0.0071005201898515224,0.015858592465519905,0.00826964806765318
1772788689091248000,9.199248046875,-0.004070641472935677,0.013109942898154259,0.004427771549671888
1772788689101314000,9.20931396484375,-0.0018287927377969027,0.0252787247300148,0.007161506451666355
1772788689111379000,9.21937890625,-0.0033659692853689194,0.024093085899949074,0.009822803549468517
1772788689121444000,9.229444091796875,-0.004082093480974436,0.02178838662803173,0.010408432222902775
1772788689131509000,9.239509033203126,0.0011211908422410488,0.011087272316217422,0.0057257963344454765
1772788689141575200,9.2495751953125,0.006065615452826023,0.006821686867624521,-0.0003640541108325124
1772788689151640000,9.25964013671875,0.004189951345324516,0.005103149451315403,-0.0068299430422484875
1772788689161705000,9.269705078125,0.0020594224333763123,0.004338821861892939,-0.009497631341218948
1772788689171770000,9.27977001953125,0.0014658038271591067,0.009812682867050171,-0.011464908719062805
1772788689181835800,9.289835693359375,0.004041613079607487,0.01817740499973297,-0.01438186876475811
1772788689191901000,9.29990087890625,-0.00021491710504051298,0.02123764343559742,-0.009689112193882465
1772788689201966000,9.309966064453125,-0.0020482372492551804,0.023070165887475014,-0.00629038643091917
1772788689212031000,9.320031005859375,-0.0008157262345775962,0.027347734197974205,0.0020703414920717478
1772788689222097000,9.330096923828124,0.000018375811123405583,0.028736572712659836,0.0127584058791399
1772788689232162000,9.340162109375,0.0012474246323108673,0.028175178915262222,0.010889398865401745
1772788689242227200,9.350227294921876,0.0013254552613943815,0.023689882829785347,0.011846006847918034
1772788689252291800,9.360291748046874,0.0023278691805899143,0.015180017799139023,0.011331483721733093
1772788689262358000,9.37035791015625,-0.0005696501466445625,0.013961355201900005,0.0054450989700853825
1772788689272423000,9.3804228515625,-0.00210602767765522,0.00936127733439207,0.004054662771522999
1772788689282488000,9.390488037109375,0.00037257623625919223,0.005908755585551262,0.0014897723449394107
1772788689292553000,9.400552978515625,-0.00361790438182652,0.005942843854427338,0.004487426485866308
1772788689302619000,9.410618896484374,-0.0016831178218126297,0.006806773599237204,0.0036253612488508224
1772788689312684000,9.42068408203125,-0.003471696749329567,0.009042763151228428,0.005477323196828365
1772788689322749000,9.4307490234375,-0.0018013621447607875,0.004735899157822132,0.006845389027148485
1772788689332814000,9.44081396484375,-0.004002731293439865,0.005044027231633663,0.0016620787791907787
1772788689342880000,9.4508798828125,-0.0019089538836851716,0.010517888702452183,-0.0009214537567459047
1772788689352945200,9.460945068359376,-0.005368932615965605,0.011779960244894028,-0.00253453035838902
1772788689363010000,9.471010009765624,-0.0067939902655780315,0.020794494077563286,-0.00027803401462733746
1772788689373075000,9.481074951171875,-0.009036371484398842,0.02160675823688507,-0.0019800602458417416
1772788689383141000,9.49114111328125,-0.009787383489310741,0.021939121186733246,0.0010932276491075754
1772788689393206000,9.5012060546875,-0.007406251039355993,0.023331953212618828,-0.0001930791768245399
1772788689403271000,9.51127099609375,-0.009141034446656704,0.01774304360151291,0.001972869737073779
1772788689413336000,9.521336181640624,-0.008709602057933807,0.014658038504421711,0.0012692625168710947
1772788689423402000,9.531402099609375,-0.0062549663707613945,0.010785535909235477,0.003982490859925747
1772788689433467000,9.541466796875,-0.011150122620165348,0.01308384444564581,0.00612287363037467
1772788689443532000,9.551531982421874,-0.009272061288356781,0.008480836637318134,0.007288006599992514
1772788689453597200,9.56159716796875,-0.010537861846387386,0.008577242493629456,0.0029827402904629707
1772788689463661800,9.571661865234375,-0.009189236909151077,0.01110112015157938,-0.00016831177345011383
1772788689473728000,9.58172802734375,-0.009444368071854115,0.010977017693221569,0.004416320007294416
1772788689483793000,9.59179296875,-0.008612662553787231,0.01565166376531124,0.006207295693457127
1772788689493858000,9.601858154296876,-0.011464109644293785,0.012170379981398582,0.003885285696014762
1772788689503923000,9.6119228515625,-0.010999388061463833,0.005690908990800381,0.005477855913341045
1772788689513988900,9.62198876953125,-0.010036388412117958,0.0047090016305446625,0.003209641668945551
1772788689524054000,9.632053955078124,-0.009555954486131668,0.0006487460341304541,-0.009152752347290516
1772788689534119000,9.642118896484375,-0.010898454114794731,-0.002965696156024933,-0.012021508999168873
1772788689544184000,9.65218408203125,-0.012280368246138096,0.005560680292546749,-0.011456119827926159
1772788689554250000,9.66225,-0.01327053178101778,0.018003234639763832,-0.013981595635414124
1772788689564315100,9.672315185546875,-0.012509400025010109,0.020893031731247902,-0.01312245987355709
1772788689574380000,9.682380126953126,-0.011530954390764236,0.023610521107912064,-0.008106661960482597
1772788689584445000,9.69244482421875,-0.011098457500338554,0.01570998691022396,-0.0002926813904196024
1772788689594511000,9.702510986328125,-0.004565723240375519,0.006217682268470526,0.003233077470213175
1772788689604576000,9.712575927734376,-0.0012727247085422277,0.004683434963226318,0.0022953785955905914
1772788689614641000,9.722640869140625,-0.0015646071406081319,0.009033442474901676,0.005630987696349621
1772788689624706000,9.7327060546875,-0.0016439693281427026,0.015250857919454575,0.0063002402894198895
1772788689634772000,9.74277197265625,0.00196381495334208,0.015366706065833569,0.006867493502795696
1772788689644836900,9.7528369140625,0.0035808864049613476,0.014694523997604847,0.005360144190490246
1772788689654902000,9.762902099609375,0.0016277240356430411,0.01182070653885603,0.0006234460161067545
1772788689664967200,9.77296728515625,0.0017353157745674253,0.01480797491967678,-0.007060306146740913
1772788689675033000,9.783033203125,0.0002759034978225827,0.017763817682862282,-0.01629961095750332
1772788689685098000,9.793097900390626,-0.0010242518037557602,0.010973288677632809,-0.015632756054401398
1772788689695163100,9.8031630859375,-0.0030623688362538815,0.005271993577480316,-0.01594647578895092
1772788689705228000,9.81322802734375,-0.0016535567119717598,0.0032692966051399708,-0.004145210143178701
1772788689715294000,9.8232939453125,-0.003689543344080448,0.00012996226723771542,-0.0003400856803636998
1772788689725358800,9.83335888671875,-0.002895122393965721,0.005512476898729801,0.002073537092655897
1772788689735424000,9.843424072265625,-0.005154548212885857,0.01552356593310833,0.0019598202779889107
1772788689745489200,9.8534892578125,-0.005546831991523504,0.02315964736044407,0.008412925526499748
1772788689755554800,9.863554931640625,-0.00965395849198103,0.021407553926110268,0.00475534051656723
1772788689765620000,9.873619873046875,-0.006111155729740858,0.02592933550477028,0.0000125168571685208
1772788689775685000,9.88368505859375,-0.007949535734951496,0.01938781328499317,-0.005018726922571659
1772788689785750000,9.89375,-0.0012900352012366056,0.017292704433202744,-0.00893676932901144
1772788689795816000,9.90381591796875,-0.005425924435257912,0.009110940620303154,-0.010603642091155052
1772788689805881000,9.913881103515624,-0.0008290420519188046,0.004193147178739309,-0.010981544852256775
1772788689815946000,9.923946044921875,-0.002010686555877328,0.002130528911948204,-0.004077299498021603
1772788689826011000,9.934010986328126,-0.00024101608141791075,0.011214038357138634,0.0037651772145181894
1772788689836077000,9.9440771484375,-0.003522296901792288,0.01076582819223404,0.011928564868867397
1772788689846142000,9.954141845703125,-0.0011241203173995018,0.01306120678782463,0.01714250072836876
1772788689856206800,9.964206787109376,-0.0018492990639060736,0.01792307384312153,0.018308699131011963
1772788689866272000,9.97427197265625,-0.0029696908313781023,0.01860138028860092,0.01877102442085743
1772788689876337200,9.984337158203125,-0.001919073867611587,0.017586983740329742,0.0178809966892004
1772788689886403000,9.994403076171874,0.0007661914569325745,0.012367719784379005,0.014387194998562336
1772788689896468000,10.004468017578125,-0.0006013417732901871,0.0022690133191645145,0.008644354529678822
1772788689906533000,10.014533203125,-0.0025539714843034744,0.0020791299175471067,0.005067463032901287
1772788689916598000,10.024597900390624,0.0014777880860492587,0.01133707631379366,-0.0030605047941207886
1772788689926664200,10.034664306640625,0.0032594427466392517,0.027895813807845116,0.00046818371629342437
1772788689936728800,10.044728759765626,-0.004603540059179068,0.03350096940994263,-0.001019990653730929
1772788689946794000,10.0547939453125,-0.003840810852125287,0.027226561680436134,-0.002694852650165558
1772788689956859100,10.064859130859375,0.0003225088003091514,0.021689049899578094,0.000029294771593413316
1772788689966924800,10.0749248046875,0.00009108010999625549,0.014375477097928524,-0.0013044163351878524
1772788689976990000,10.084989990234375,-0.0014831144362688065,0.012237224727869034,0.002394448034465313
1772788689987055000,10.09505517578125,0.0021222729701548815,0.007220628671348095,0.001686579897068441
1772788689997120000,10.1051201171875,0.00270710326731205,0.008710667490959167,-0.0023284016642719507
1772788690007186000,10.11518603515625,0.000985103310085833,0.016450079157948494,-0.003168629016727209
1772788690017251000,10.1252509765625,-0.0013720606220886111,0.028975192457437515,0.0012897689593955874
1772788690027316000,10.13531591796875,-0.0019893813878297806,0.031188013032078743,0.0005550027708522975
1772788690037380600,10.145380615234375,-0.004758269991725683,0.027355991303920746,0.006318083498626947
1772788690047446800,10.15544677734375,-0.0018122810870409012,0.028300879523158073,0.010771687142550945
1772788690057511700,10.16551171875,-0.004815527703613043,0.022779880091547966,0.006360427476465702
1772788690067576600,10.17557666015625,-0.0034879420418292284,0.02117292955517769,0.0049068741500377655
1772788690077641700,10.185641845703126,-0.0029465213883668184,0.015454590320587158,0.003947869874536991
1772788690087707000,10.195706787109375,-0.002329467097297311,0.01979767344892025,0.0046876962296664715
1772788690097772800,10.205772705078125,-0.0040735709480941296,0.012198875658214092,0.0023664848413318396
1772788690107837700,10.215837646484376,-0.001112935016863048,0.010173541493713856,-0.0001483380765421316
1772788690117902800,10.22590283203125,-0.001540638622827828,0.01444285549223423,-0.002261822810396552
1772788690127967700,10.2359677734375,-0.0013560815714299679,0.0101991081610322,-0.004415787290781736
1772788690138034000,10.246033935546874,-0.0006293049664236605,0.012795157730579376,-0.003940679598599672
1772788690148098800,10.256098876953125,-0.001184307737275958,0.012345349416136742,-0.002703374717384577
1772788690158163700,10.266163818359376,-0.0017025588313117623,0.013082779012620449,-0.00028309403569437563
1772788690168228900,10.276228759765624,-0.0059745353646576405,0.01543434988707304,0.0009861685102805495
1772788690178294800,10.286294677734375,-0.005166798830032349,0.009516273625195026,-0.00014194648247212172
1772788690188359700,10.296359619140626,-0.005524727515876293,0.00920415110886097,-0.00250550196506083
1772788690198424800,10.3064248046875,-0.005032309330999851,0.007535680662840605,-0.003510312642902136
1772788690208489700,10.31648974609375,-0.0054762582294642925,0.007667507044970989,-0.0014644722687080503
1772788690218555600,10.3265556640625,-0.007122091483324766,0.017825867980718613,-0.006628075148910284
1772788690228620800,10.336620849609375,-0.008786833845078945,0.024748489260673523,-0.0029736857395619154
1772788690238686000,10.34668603515625,-0.00771890627220273,0.03045324608683586,-0.0035902075469493866
1772788690248750600,10.35675048828125,-0.006521282717585564,0.02394075319170952,0.00239205127581954
1772788690258815700,10.366815673828125,-0.00264824740588665,0.020237093791365623,0.0041524008847773075
1772788690268882000,10.3768818359375,-0.0014623417519032955,0.016505740582942963,0.00965662207454443
1772788690278946600,10.386946533203124,-0.000966993800830096,0.013261210173368454,0.008779376745223999
1772788690289011700,10.39701171875,-0.0021017666440457106,0.008318649604916573,0.006615025922656059
1772788690299076900,10.407076904296876,-0.0032754219137132168,0.006095176562666893,0.007520766928792
1772788690309142800,10.417142822265625,-0.0027292075101286173,0.013217268511652946,0.004736698232591152
1772788690319207700,10.427207763671875,-0.0027268105186522007,0.012682772241532803,0.0006325007416307926
1772788690329272800,10.43727294921875,-0.003200853243470192,0.014701714739203453,-0.006569752003997564
1772788690339337700,10.447337646484375,-0.003757453989237547,0.01961258426308632,-0.0054696002043783665
1772788690349404000,10.45740380859375,-0.007375091779977083,0.011245996691286564,-0.005530053749680519
1772788690359468800,10.46746875,-0.002838130807504058,0.013072658330202103,-0.00033635724685154855
1772788690369533700,10.47753369140625,-0.00785552617162466,0.016648484393954277,0.005826463922858238
1772788690379598800,10.487598876953125,-0.005596100352704525,0.024099476635456085,0.008112787269055843
1772788690389663700,10.497663818359374,-0.009603891521692276,0.017352359369397163,0.011742942035198212
1772788690399729700,10.507729736328125,-0.0070523167960345745,0.016977651044726372,0.006235259119421244
1772788690409794800,10.517794921875,-0.005151086021214724,0.014639129862189293,0.0008751147543080151
1772788690419859700,10.527859619140624,-0.006013950332999229,0.02050740458071232,-0.0018154769204556942
1772788690429924600,10.537924560546875,-0.004566522315144539,0.01583409123122692,-0.004911401774734259
1772788690439990800,10.54799072265625,-0.005663744639605284,0.006376939360052347,-0.006881341803818941
1772788690450056000,10.558055908203125,-0.006990797817707062,0.004159324802458286,-0.00009960222087102011
1772788690460120600,10.56812060546875,-0.0054128747433424,0.001814411603845656,-0.0004324973560869694
1772788690470185700,10.578185791015626,-0.004049602895975113,0.005717274267226458,0.0017528926255181432
1772788690480252000,10.588251953125,-0.007738879881799221,0.01549533661454916,0.0025723471771925688
1772788690490316800,10.59831689453125,-0.007399060297757387,0.028973860666155815,0.0021912488155066967
1772788690500381700,10.608381591796874,-0.007245395798236132,0.031444475054740906,-0.0009190568816848099
1772788690510446800,10.61844677734375,-0.005307413637638092,0.025522403419017792,-0.0026732811238616705
1772788690520511700,10.62851171875,-0.003858121344819665,0.026944000273942947,-0.006165218073874712
1772788690530577700,10.63857763671875,-0.003614974906668067,0.024641962721943855,-0.007417968939989805
1772788690540642800,10.648642822265625,-0.00558092026039958,0.017422134056687355,-0.005940979812294245
1772788690550707700,10.658707763671876,-0.0025798040442168713,0.007544735446572304,-0.0029017801862210035
1772788690560772600,10.668772705078124,-0.004768389742821455,0.0068113007582724094,-0.005313538946211338
1772788690570838800,10.6788388671875,-0.0036155073903501034,0.00045060686534270644,0.003177683800458908
1772788690580903700,10.688903564453126,-0.005609150044620037,0.0086603332310915,0.008015049621462822
1772788690590968800,10.69896875,-0.008823585696518421,0.03105645254254341,0.013706757687032223
1772788690601033700,10.70903369140625,-0.0073053170926868916,0.03746588155627251,0.008718390017747879
1772788690611099600,10.719099609375,-0.008257930167019367,0.03230121359229088,0.008223042823374271
1772788690621164800,10.729164794921875,-0.0067931911908090115,0.028318190947175026,0.013589045964181423
1772788690631229700,10.739229736328125,-0.007230216171592474,0.03779824450612068,0.00905661191791296
1772788690641294600,10.749294677734374,-0.005835785064846277,0.03586798533797264,0.005736715160310268
1772788690651359700,10.75935986328125,-0.003232811111956835,0.01992310769855976,0.0011499529937282205
1772788690661426000,10.769426025390626,0.007392934989184141,-0.015026086941361427,0.0015249260468408465
1772788690671490600,10.779490478515624,0.002341451123356819,0.009431851096451283,-0.00011691277177305892
1772788690681555700,10.7895556640625,-0.002314553363248706,0.03358938544988632,0.006951116491109133
1772788690691620900,10.799620849609376,-0.0026130937039852142,0.05360889807343483,0.008117581717669964
1772788690701686800,10.809686767578125,0.000699079770129174,0.037278663367033005,0.008973787538707256
1772788690711751700,10.819751708984375,0.006642189808189869,0.016227439045906067,0.0033907366450875998
1772788690721816800,10.82981689453125,0.011694739572703838,-0.009247028268873692,0.007736749015748501
1772788690731882000,10.839882080078125,0.010322678834199905,-0.0024141555186361074,0.009443835355341434
1772788690741946600,10.849946533203125,0.009646502323448658,0.006649114191532135,0.01607537269592285
1772788690752012800,10.8600126953125,0.010244647972285748,0.005627791862934828,0.020378507673740387
1772788690762077700,10.87007763671875,0.005566272884607315,0.01347666047513485,0.024081900715827942
1772788690772142600,10.880142578125,0.004911668132990599,0.02461586333811283,0.025136245414614677
1772788690782207700,10.890207763671874,0.006189186125993729,0.024985510855913162,0.022899456322193146
1772788690792273700,10.900273681640625,0.0038962047547101974,0.02545422688126564,0.02418549731373787
1772788690802338800,10.9103388671875,0.0038751657120883465,0.029146432876586914,0.027959462255239487
1772788690812403700,10.92040380859375,-0.0019598202779889107,0.0758630707859993,0.03153342381119728
1772788690822468900,10.93046875,-0.0038400120101869106,0.06499204784631729,0.010326406918466091
1772788690832534800,10.94053466796875,0.001767273643054068,0.04850415140390396,-0.005075985100120306
1772788690842600000,10.950599853515625,0.0037499971222132444,0.04023823142051697,-0.015105183236300945
1772788690852664800,10.960664794921875,0.0034730283077806234,0.03567144647240639,-0.013410081155598164
1772788690862729700,10.970729736328124,0.0030714236199855804,0.022774022072553635,-0.01810896210372448
1772788690872795000,10.980794921875,0.0036464000586420298,-0.005228051450103521,-0.014037521556019783
1772788690882860500,10.990860595703126,0.004150536376982927,-0.02834136039018631,-0.009725064970552921
1772788690892925700,11.00092578125,-0.00013395700079854578,-0.045107290148735046,-0.006917028222233057
1772788690902990800,11.010990966796875,-0.0009345032158307731,-0.06055016443133354,-0.0010058758780360222
1772788690913055700,11.0210556640625,-0.0035454663448035717,-0.04441140592098236,0.0120087256655097
1772788690923121700,11.03112158203125,-0.009923737496137619,0.016148610040545464,0.019161710515618324
1772788690933186800,11.041186767578125,-0.019838418811559677,0.046717703342437744,0.008472580462694168
