time,seconds_elapsed,z,y,x
1772797627788485600,0.100485595703125,2.7468154430389404,1.2126379013061523,0.8014516830444336
1772797627798512600,0.1105126953125,2.668128728866577,1.2616780996322632,0.6514416933059692
1772797627808538600,0.12053857421875,2.551384449005127,1.314557671546936,0.6138373613357544
1772797627818564600,0.130564697265625,2.4235928058624268,1.3538936376571655,0.634110152721405
1772797627828591600,0.140591552734375,2.2875092029571533,1.391861081123352,0.6817964315414429
1772797627838617600,0.15061767578125,2.132347822189331,1.5096447467803955,0.7184103727340698
1772797627848643600,0.1606435546875,1.9749670028686523,1.6082706451416016,0.7808060646057129
1772797627858670600,0.170670654296875,1.8323097229003906,1.5791822671890259,0.8465741872787476
1772797627868696600,0.180696533203125,1.7287871837615967,1.45428466796875,0.9022212028503418
1772797627878722600,0.19072265625,1.6896463632583618,1.2815648317337036,0.9645527601242065
1772797627888749600,0.20074951171875,1.677032232284546,1.0885509252548218,0.9423015117645264
1772797627898775600,0.210775634765625,1.6918425559997559,0.9132936596870422,0.899290144443512
1772797627908801500,0.220801513671875,1.6684792041778564,0.8200033903121948,0.7884708642959595
1772797627918828500,0.23082861328125,1.6144766807556152,0.7763624787330627,0.657447338104248
1772797627928854800,0.240854736328125,1.5177325010299683,0.7159936428070068,0.5148641467094421
1772797627938880800,0.250880859375,1.425140142440796,0.6373880505561829,0.2600470781326294
1772797627948907500,0.260907470703125,1.3099579811096191,0.5216258764266968,0.014110002666711807
1772797627958933500,0.27093359375,1.1951019763946533,0.424025297164917,-0.23730120062828064
1772797627968959500,0.28095947265625,1.0951015949249268,0.3962078392505646,-0.575048565864563
1772797627978986500,0.290986572265625,1.0427472591400146,0.40517497062683105,-0.8798422813415527
1772797627989012500,0.301012451171875,1.0414245128631592,0.4041500985622406,-1.1332086324691772
1772797627999038700,0.311038818359375,1.0801059007644653,0.45398691296577454,-1.3075755834579468
1772797628009065700,0.321065673828125,1.1359411478042603,0.4953664541244507,-1.3961362838745117
1772797628019091700,0.331091796875,1.1946377754211426,0.5372073650360107,-1.4244389533996582
1772797628029117700,0.34111767578125,1.2443914413452148,0.5735954642295837,-1.4516102075576782
1772797628039144400,0.35114453125,1.2552385330200195,0.612120509147644,-1.4910163879394531
1772797628049170400,0.36117041015625,1.260097622871399,0.6057245135307312,-1.5721863508224487
1772797628059196400,0.371196533203125,1.2404602766036987,0.574958324432373,-1.6967413425445557
1772797628069223700,0.3812236328125,1.2213057279586792,0.5277335047721863,-1.822991132736206
1772797628079249700,0.391249755859375,1.2530678510665894,0.5049994587898254,-1.8996353149414062
1772797628089275600,0.401275634765625,1.33993399143219,0.49464184045791626,-1.930506706237793
1772797628099302700,0.411302734375,1.4294377565383911,0.48823586106300354,-1.9784393310546875
1772797628109328400,0.421328369140625,1.5378177165985107,0.46394243836402893,-2.0365841388702393
1772797628119354400,0.431354248046875,1.6234489679336548,0.4394032955169678,-2.091472864151001
1772797628129381600,0.441381591796875,1.6901626586914062,0.37269875407218933,-2.1516098976135254
1772797628139407600,0.45140771484375,1.7259010076522827,0.3047361969947815,-2.192087173461914
1772797628149433600,0.46143359375,1.7533522844314575,0.18479564785957336,-2.249239921569824
1772797628159460600,0.471460693359375,1.7898269891738892,0.07347311079502106,-2.2885234355926514
1772797628169486600,0.481486572265625,1.8466161489486694,0.019526276737451553,-2.2830636501312256
1772797628179512600,0.4915126953125,1.9092692136764526,0.12652650475502014,-2.27988600730896
1772797628189539600,0.50153955078125,2.075556755065918,0.2618846297264099,-2.286555290222168
1772797628199565600,0.511565673828125,2.3159234523773193,0.25411325693130493,-2.356022357940674
1772797628209591600,0.521591552734375,2.6152114868164062,-0.04378210008144379,-2.7114601135253906
1772797628219618600,0.53161865234375,3.007830858230591,-0.5483765602111816,-3.4228620529174805
1772797628229644500,0.54164453125,3.2828001976013184,-0.8100152611732483,-4.211497783660889
1772797628239670500,0.55167041015625,3.3787426948547363,-0.5272653102874756,-4.094123363494873
1772797628249697800,0.56169775390625,3.3905582427978516,0.6347182393074036,-2.2969729900360107
1772797628259723800,0.571723876953125,3.1640641689300537,1.5353058576583862,0.05722690746188164
1772797628269749800,0.581749755859375,3.0718510150909424,1.4802438020706177,2.4229578971862793
1772797628279776500,0.591776611328125,2.9508485794067383,0.7113652229309082,4.163534641265869
1772797628289802500,0.601802490234375,3.041980266571045,0.08122894912958145,4.8603196144104
1772797628299828500,0.611828369140625,2.9939730167388916,-0.03448619693517685,4.58748722076416
1772797628309855700,0.621855712890625,2.860511064529419,0.04956011846661568,3.8777260780334473
1772797628319881700,0.6318818359375,2.5958778858184814,0.07866580784320831,3.4378650188446045
1772797628329907700,0.64190771484375,2.262455940246582,-0.04962048679590225,3.4341626167297363
1772797628339934500,0.6519345703125,1.9276485443115234,-0.251511812210083,3.556840181350708
1772797628349960400,0.66196044921875,1.6276557445526123,-0.37910258769989014,3.574273109436035
1772797628359986400,0.671986328125,1.3619837760925293,-0.30783215165138245,3.4721665382385254
1772797628370013400,0.682013427734375,1.201939582824707,-0.05151639133691788,3.321923017501831
1772797628380039700,0.692039794921875,1.1565876007080078,0.37618327140808105,3.1296780109405518
1772797628390065700,0.702065673828125,1.0791893005371094,0.6672833561897278,2.9739935398101807
1772797628400092700,0.7120927734375,0.9880953431129456,0.8837386965751648,2.824272632598877
1772797628410118700,0.72211865234375,0.9334978461265564,1.0456204414367676,2.682084321975708
1772797628420144600,0.73214453125,0.8595981001853943,1.1535452604293823,2.555784225463867
1772797628430171400,0.74217138671875,0.8076708912849426,1.188947081565857,2.4228758811950684
1772797628440197600,0.75219775390625,0.7389264702796936,1.1646931171417236,2.178694725036621
1772797628450223600,0.7622236328125,0.6899299621582031,1.086220622062683,1.8150768280029297
1772797628460250600,0.772250732421875,0.6674041748046875,0.9621659517288208,1.5120689868927002
1772797628470276600,0.782276611328125,0.651714563369751,0.8200438618659973,1.3312262296676636
1772797628480302600,0.792302490234375,0.5852868556976318,0.724284291267395,1.175429105758667
1772797628490329600,0.80232958984375,0.4947216808795929,0.6449902653694153,0.9674767851829529
1772797628500355600,0.81235546875,0.3864458203315735,0.5556247234344482,0.6938359141349792
1772797628510381800,0.8223818359375,0.24964231252670288,0.4457717537879944,0.2961699962615967
1772797628520408600,0.83240869140625,0.11888616532087326,0.34439852833747864,-0.10922542214393616
1772797628530434600,0.8424345703125,-0.002125596394762397,0.3001740574836731,-0.5549383759498596
1772797628540461600,0.852461669921875,-0.05044066533446312,0.27283886075019836,-0.9689096808433533
1772797628550487600,0.862487548828125,-0.05078766867518425,0.271488755941391,-1.3095518350601196
1772797628560513500,0.872513427734375,0.0076514058746397495,0.2700756788253784,-1.5761326551437378
1772797628570540500,0.88254052734375,0.09712684154510498,0.26437094807624817,-1.7338683605194092
1772797628580566500,0.89256640625,0.16247601807117462,0.28214380145072937,-1.8226417303085327
1772797628590592500,0.902592529296875,0.20776338875293732,0.3136677145957947,-1.8790844678878784
1772797628600619500,0.91261962890625,0.2182149589061737,0.3060015141963959,-1.929030418395996
1772797628610645500,0.9226455078125,0.2033148854970932,0.3120427429676056,-2.0103323459625244
1772797628620671500,0.93267138671875,0.19720639288425446,0.3368767201900482,-2.1379802227020264
1772797628630698800,0.94269873046875,0.17165349423885345,0.37621498107910156,-2.325847864151001
1772797628640724700,0.952724853515625,0.11594337224960327,0.4044274687767029,-2.5543224811553955
1772797628650751200,0.962751220703125,0.07959240674972534,0.35158950090408325,-2.7543833255767822
1772797628660778200,0.9727783203125,0.08064302057027817,0.17455586791038513,-2.89156436920166
1772797628670804500,0.982804443359375,0.13024240732192993,-0.03965040296316147,-2.940903425216675
1772797628680830500,0.99283056640625,0.15273946523666382,-0.32552820444107056,-2.942840576171875
1772797628690857500,1.002857421875,0.12350476533174515,-0.5851852893829346,-2.9661166667938232
1772797628700883500,1.012883544921875,0.20067943632602692,-0.6945685148239136,-2.9186534881591797
1772797628710910200,1.02291015625,0.2905147969722748,-0.7782213091850281,-2.7641866207122803
1772797628720936200,1.032936279296875,0.39857736229896545,-0.9206157326698303,-2.5678462982177734
1772797628730962200,1.042962158203125,0.5528618097305298,-0.9740752577781677,-2.3979504108428955
1772797628740989400,1.052989501953125,0.6866810321807861,-0.9608670473098755,-2.325413942337036
1772797628751015400,1.063015380859375,0.8060616254806519,-0.607394814491272,-2.5275611877441406
1772797628761041400,1.07304150390625,0.8389705419540405,-0.23609109222888947,-3.108567237854004
1772797628771068400,1.083068359375,0.8169766664505005,-0.1422683149576187,-3.8876099586486816
1772797628781094400,1.093094482421875,1.1085786819458008,0.12092311680316925,-4.03190803527832
1772797628791120400,1.103120361328125,1.5596455335617065,0.1328427642583847,-2.8169784545898438
1772797628801147400,1.1131474609375,1.9363638162612915,-0.2863481044769287,-0.18203669786453247
1772797628811173400,1.12317333984375,2.1100313663482666,-1.082519292831421,2.935946464538574
1772797628821199400,1.133199462890625,2.094494581222534,-1.4405901432037354,4.516367435455322
1772797628831226400,1.143226318359375,2.1369705200195312,-1.1968965530395508,4.468079566955566
1772797628841252400,1.15325244140625,2.06093168258667,-0.7065125107765198,3.5356357097625732
1772797628851279600,1.163279541015625,1.7157529592514038,-0.30366209149360657,2.6690614223480225
1772797628861305600,1.1733056640625,1.46146559715271,-0.03867382928729057,2.3335611820220947
1772797628871331300,1.183331298828125,1.341933012008667,-0.004240634851157665,2.3919265270233154
1772797628881358300,1.1933583984375,1.2221664190292358,-0.02097673900425434,2.5632832050323486
1772797628891384300,1.20338427734375,1.092703104019165,0.0778365209698677,2.5611934661865234
1772797628901410300,1.213410400390625,1.0199609994888306,0.2337222546339035,2.3853042125701904
1772797628911437300,1.223437255859375,0.9473376870155334,0.3881302773952484,2.215376377105713
1772797628921463600,1.233463623046875,0.8124949336051941,0.5859677195549011,2.0867867469787598
1772797628931489500,1.243489501953125,0.6614611148834229,0.785499632358551,1.9826377630233765
1772797628941516300,1.253516357421875,0.5505082607269287,0.9620171785354614,1.9053866863250732
1772797628951542300,1.263542236328125,0.4930882453918457,1.0007728338241577,1.9007078409194946
1772797628961569300,1.2735693359375,0.46067014336586,0.9173093438148499,1.9804192781448364
1772797628971595300,1.28359521484375,0.4252353310585022,0.8599681258201599,2.0541396141052246
1772797628981621200,1.293621337890625,0.41359490156173706,0.7161835432052612,2.0854125022888184
1772797628991648500,1.3036484375,0.4023422300815582,0.5481170415878296,2.0340075492858887
1772797629001674500,1.313674560546875,0.3484917879104614,0.3480236530303955,1.814513087272644
1772797629011700500,1.323700439453125,0.2745589017868042,0.22821421921253204,1.4757802486419678
1772797629021727200,1.333727294921875,0.2086203545331955,0.18465955555438995,1.0655226707458496
1772797629031753200,1.343753173828125,0.1714228242635727,0.21050532162189484,0.5841810703277588
1772797629041779200,1.353779296875,0.1324906051158905,0.25205275416374207,0.04213648661971092
1772797629051806500,1.363806396484375,0.09302455186843872,0.36610284447669983,-0.4183363616466522
1772797629061832400,1.37383251953125,0.04608739912509918,0.48144781589508057,-0.7637118697166443
1772797629071859500,1.383859375,-0.020358243957161903,0.5507127046585083,-1.0387423038482666
1772797629081885400,1.393885498046875,-0.09619548171758652,0.5987667441368103,-1.25956130027771
1772797629091911400,1.403911376953125,-0.1724781095981598,0.5886683464050293,-1.4261128902435303
1772797629101938400,1.4139384765625,-0.24071095883846283,0.4899710714817047,-1.543596625328064
1772797629111964400,1.42396435546875,-0.28078222274780273,0.29858672618865967,-1.6073881387710571
1772797629121990400,1.433990478515625,-0.2960866093635559,0.02276339754462242,-1.6277350187301636
1772797629132017400,1.444017333984375,-0.2908024787902832,-0.2883700430393219,-1.6084585189819336
1772797629142043400,1.45404345703125,-0.2557432949542999,-0.6035378575325012,-1.563228726387024
1772797629152069400,1.4640693359375,-0.22475460171699524,-0.8515219688415527,-1.506152629852295
1772797629162096400,1.474096435546875,-0.1932603269815445,-0.9929144978523254,-1.4600298404693604
1772797629172122400,1.484122314453125,-0.1577034741640091,-1.044593095779419,-1.4260540008544922
1772797629182149400,1.4941494140625,-0.1263548731803894,-1.0184600353240967,-1.388484239578247
1772797629192175400,1.50417529296875,-0.11616615206003189,-0.9556227326393127,-1.319724678993225
1772797629202201300,1.514201416015625,-0.12289303541183472,-0.9079252481460571,-1.2253481149673462
1772797629212228400,1.524228271484375,-0.13663338124752045,-0.8643161058425903,-1.1312506198883057
1772797629222254300,1.53425439453125,-0.14290271699428558,-0.7983767986297607,-1.0580333471298218
1772797629232280600,1.544280517578125,-0.1426742672920227,-0.738623857498169,-1.0280028581619263
1772797629242307300,1.554307373046875,-0.13620544970035553,-0.7102457284927368,-1.0348479747772217
1772797629252333300,1.564333251953125,-0.11819083988666534,-0.6765435934066772,-1.0402599573135376
1772797629262359300,1.574359375,-0.07872651517391205,-0.5817577242851257,-0.9710233807563782
1772797629272386300,1.58438623046875,-0.010007146745920181,-0.5339199900627136,-0.8344650864601135
1772797629282412300,1.594412353515625,0.11409376561641693,-0.5809780955314636,-0.6994638442993164
1772797629292439600,1.604439453125,0.28969210386276245,-0.5140243172645569,-0.5775848031044006
1772797629302465500,1.614465576171875,0.41285398602485657,-0.29959988594055176,-0.5148583054542542
1772797629312491500,1.624491455078125,0.5366694331169128,0.15662437677383423,-0.44203364849090576
1772797629322518300,1.634518310546875,0.7006341218948364,0.4793033301830292,-0.6607881188392639
1772797629332544300,1.644544189453125,0.8241512179374695,0.1439460813999176,-1.24936044216156
1772797629342570200,1.6545703125,1.0561410188674927,-0.34742894768714905,-1.2744146585464478
1772797629352597500,1.664597412109375,1.0760637521743774,-0.7404084801673889,-0.4624800384044647
1772797629362623500,1.67462353515625,1.0177723169326782,-0.6704149842262268,0.7665871381759644
1772797629372650500,1.684650390625,0.8161560893058777,0.05904893949627876,1.8160555362701416
1772797629382676500,1.694676513671875,0.5795890688896179,1.104567050933838,2.254878520965576
1772797629392702500,1.704702392578125,0.5888778567314148,1.7672910690307617,1.9607890844345093
1772797629402729200,1.714729248046875,0.7946192622184753,1.7883225679397583,1.300015926361084
1772797629412755500,1.72475537109375,1.1816304922103882,1.2402375936508179,1.1012187004089355
1772797629422781400,1.734781494140625,1.2702817916870117,0.34261080622673035,1.3596537113189697
1772797629432808400,1.744808349609375,1.2023353576660156,-0.5067591667175293,1.6303575038909912
1772797629442834400,1.75483447265625,1.0469297170639038,-0.8675075173377991,1.5972075462341309
1772797629452860400,1.7648603515625,0.8565316200256348,-0.719501256942749,1.375308871269226
1772797629462887200,1.77488720703125,0.688337504863739,-0.22434401512145996,1.1455382108688354
1772797629472913200,1.7849130859375,0.5570442080497742,0.44541215896606445,0.9170494675636292
1772797629482940400,1.7949404296875,0.4864422678947449,1.0681349039077759,0.7489059567451477
1772797629492966400,1.80496630859375,0.4972338378429413,1.444577932357788,0.7053605318069458
1772797629502992400,1.814992431640625,0.5521479249000549,1.5048266649246216,0.8031930923461914
1772797629513019400,1.825019287109375,0.5556320548057556,1.3950648307800293,0.9514681100845337
1772797629523045400,1.83504541015625,0.532150149345398,1.2125093936920166,1.116652250289917
1772797629533071400,1.8450712890625,0.4521544873714447,1.0598729848861694,1.2393643856048584
1772797629543098400,1.855098388671875,0.3358190953731537,0.9266360402107239,1.2824615240097046
1772797629553124400,1.865124267578125,0.23815977573394775,0.8215427398681641,1.217188835144043
1772797629563151400,1.8751513671875,0.12643350660800934,0.7431275844573975,1.0564239025115967
1772797629573177300,1.88517724609375,0.045037075877189636,0.6166527271270752,0.8382201194763184
1772797629583203300,1.895203369140625,-0.022722529247403145,0.45577970147132874,0.5822985768318176
1772797629593230600,1.905230712890625,-0.07127267867326736,0.3352489173412323,0.2791544198989868
1772797629603256600,1.915256591796875,-0.11586331576108932,0.28096598386764526,-0.020849063992500305
1772797629613282600,1.925282470703125,-0.16837140917778015,0.2074042707681656,-0.25749409198760986
1772797629623309300,1.935309326171875,-0.211681067943573,0.10453833639621735,-0.4131348133087158
1772797629633335300,1.945335205078125,-0.28223034739494324,0.006896094884723425,-0.5404747128486633
1772797629643361300,1.955361328125,-0.3478442430496216,0.03258867561817169,-0.6833740472793579
1772797629653387000,1.965386962890625,-0.39827775955200195,0.09163316339254379,-0.8748560547828674
1772797629663413000,1.9754130859375,-0.43142399191856384,0.11921605467796326,-1.050970435142517
1772797629673440000,1.98543994140625,-0.4518531560897827,0.06368060410022736,-1.2140486240386963
1772797629683466000,1.995466064453125,-0.44813272356987,-0.02398720197379589,-1.3286045789718628
1772797629693492000,2.005491943359375,-0.4143098294734955,-0.09363280981779099,-1.3591282367706299
1772797629703519000,2.01551904296875,-0.37539517879486084,-0.17457479238510132,-1.3177229166030884
1772797629713545000,2.025544921875,-0.334640771150589,-0.3011625111103058,-1.2285372018814087
1772797629723571000,2.035571044921875,-0.27379366755485535,-0.3972080945968628,-1.120242714881897
1772797629733598000,2.045597900390625,-0.21309074759483337,-0.4350101053714752,-1.0304332971572876
1772797629743624000,2.0556240234375,-0.15367242693901062,-0.44796130061149597,-0.9778304100036621
1772797629753650000,2.06564990234375,-0.12451398372650146,-0.4336220622062683,-0.9720207452774048
1772797629763677000,2.075677001953125,-0.1254761815071106,-0.38323795795440674,-1.0044529438018799
1772797629773703000,2.085702880859375,-0.10986392945051193,-0.2644100785255432,-1.0620883703231812
1772797629783730000,2.09572998046875,-0.07863543182611465,-0.1749182790517807,-1.1264923810958862
1772797629793756000,2.105755859375,-0.011384722776710987,-0.1506374329328537,-1.1676033735275269
1772797629803782000,2.115781982421875,0.06578756123781204,-0.1337740272283554,-1.1543573141098022
1772797629813809000,2.125808837890625,0.0991993099451065,-0.09359759092330933,-1.0746906995773315
1772797629823835000,2.1358349609375,0.10041184723377228,-0.0474625900387764,-0.9073829054832458
1772797629833860900,2.14586083984375,0.1239781603217125,-0.15735505521297455,-0.7237427830696106
1772797629843888000,2.15588818359375,0.24344037473201752,-0.4977099895477295,-0.4423348009586334
1772797629853914000,2.1659140625,0.45559701323509216,-0.911202609539032,-0.2107265740633011
1772797629863940900,2.17594091796875,0.7210808396339417,-1.1546045541763306,-0.1386483907699585
1772797629873966800,2.185966796875,0.8733123540878296,-0.8568291068077087,-0.2613708972930908
1772797629883992800,2.195992919921875,1.1242258548736572,-0.3521832227706909,-0.7171943187713623
1772797629894020000,2.20602001953125,1.559543490409851,0.21475081145763397,-1.2945224046707153
1772797629904046000,2.216046142578125,1.6762444972991943,0.8891851305961609,-1.6771200895309448
1772797629914072000,2.226072021484375,1.5005589723587036,1.0503333806991577,-1.16566002368927
1772797629924099000,2.23609912109375,1.367219090461731,1.0584626197814941,0.24107791483402252
1772797629934125000,2.246125,1.3062752485275269,1.2124249935150146,1.467854619026184
1772797629944151000,2.256151123046875,1.2850534915924072,1.3670893907546997,2.004565954208374
1772797629954177800,2.266177734375,1.4296075105667114,1.210057258605957,1.9050501585006714
1772797629964204000,2.2762041015625,1.5682004690170288,0.7922154664993286,1.63632333278656
1772797629974230000,2.28622998046875,1.63204824924469,0.2077864110469818,1.580768346786499
1772797629984257000,2.296257080078125,1.633757472038269,-0.30609872937202454,1.6686291694641113
1772797629994283000,2.306282958984375,1.6531010866165161,-0.552505612373352,1.733121395111084
1772797630004310000,2.31631005859375,1.6512483358383179,-0.5701639652252197,1.7473453283309937
1772797630014335700,2.326335693359375,1.6150888204574585,-0.461121141910553,1.7506179809570312
1772797630024361700,2.33636181640625,1.5656670331954956,-0.3139713704586029,1.807868242263794
1772797630034389000,2.346388916015625,1.398346185684204,-0.14178811013698578,1.8036028146743774
1772797630044415000,2.3564150390625,1.2412865161895752,0.10314628481864929,1.7425589561462402
1772797630054441000,2.36644091796875,1.1069930791854858,0.4383969008922577,1.649971842765808
1772797630064468000,2.376468017578125,1.0091402530670166,0.775390088558197,1.5587900876998901
1772797630074494000,2.386493896484375,1.130958914756775,1.072516918182373,1.5806050300598145
1772797630084521000,2.39652099609375,1.402686357498169,1.2783758640289307,1.6963551044464111
1772797630094547000,2.406546875,1.4750678539276123,1.2424519062042236,1.8123140335083008
1772797630104573000,2.416572998046875,1.3815592527389526,1.0837091207504272,1.8465982675552368
1772797630114600000,2.426599853515625,1.229056715965271,1.0172710418701172,1.795319676399231
1772797630124626000,2.4366259765625,1.0524036884307861,1.029076099395752,1.6426931619644165
1772797630134652000,2.44665185546875,0.8776059150695801,0.9588575959205627,1.3888695240020752
1772797630144679200,2.45667919921875,0.8112798929214478,0.9120479822158813,1.0705461502075195
1772797630154705200,2.466705078125,0.8431746959686279,0.8628069162368774,0.7885814309120178
1772797630164732000,2.47673193359375,0.8565086126327515,0.7721739411354065,0.5677310824394226
1772797630174758000,2.4867578125,0.8215547204017639,0.6705968976020813,0.3635365962982178
1772797630184784000,2.496783935546875,0.727171778678894,0.5558221340179443,0.15263232588768005
1772797630194811000,2.506810791015625,0.5439457893371582,0.4579355716705322,-0.11364187300205231
1772797630204837000,2.516837158203125,0.31426411867141724,0.3881612718105316,-0.4361184537410736
1772797630214863000,2.526863037109375,0.10908479988574982,0.3594707250595093,-0.7665112018585205
1772797630224890000,2.53689013671875,-0.06588168442249298,0.31196579337120056,-1.0794934034347534
1772797630234916000,2.546916015625,-0.1869449019432068,0.25118404626846313,-1.3530211448669434
1772797630244941800,2.55694189453125,-0.25480222702026367,0.19435139000415802,-1.5612601041793823
1772797630254968800,2.56696875,-0.260636568069458,0.18578185141086578,-1.6863932609558105
1772797630264994800,2.576994873046875,-0.19410470128059387,0.19118806719779968,-1.6991060972213745
1772797630275022000,2.58702197265625,-0.018635639920830727,0.1282387524843216,-1.6135432720184326
1772797630285048000,2.597048095703125,0.10607726126909256,-0.04221927002072334,-1.4590938091278076
1772797630295074000,2.607073974609375,0.23006191849708557,-0.2655249238014221,-1.2860530614852905
1772797630305100800,2.617100830078125,0.31383830308914185,-0.482622355222702,-1.1890863180160522
1772797630315126800,2.627126708984375,0.3101508617401123,-0.7484774589538574,-1.1424143314361572
1772797630325152800,2.63715283203125,0.2712157070636749,-1.0087766647338867,-1.1103365421295166
1772797630335180000,2.647179931640625,0.2607232630252838,-1.1163020133972168,-1.1194157600402832
1772797630345206000,2.6572060546875,0.2703774869441986,-1.11905038356781,-1.1277644634246826
1772797630355232000,2.66723193359375,0.31774914264678955,-0.8148693442344666,-1.0494465827941895
1772797630365259000,2.677259033203125,0.3609948754310608,-0.5989111661911011,-1.0826263427734375
1772797630375285000,2.687284912109375,0.38963332772254944,-0.35070544481277466,-1.064373254776001
1772797630385312000,2.69731201171875,0.2951560914516449,-0.0849028080701828,-0.894145131111145
1772797630395338000,2.707337890625,0.07410727441310883,-0.10062967240810394,-0.9111862182617188
1772797630405364000,2.717364013671875,-0.08558811247348785,-0.18421350419521332,-0.9202534556388855
1772797630415391000,2.727390869140625,-0.08328166604042053,-0.2125476449728012,-0.9500441551208496
1772797630425417000,2.7374169921875,0.27355101704597473,-0.37681835889816284,-1.0656723976135254
1772797630435443000,2.74744287109375,0.9122075438499451,-0.9182745218276978,-1.4647278785705566
1772797630445470000,2.757469970703125,1.5672050714492798,-2.0135581493377686,-2.171881914138794
1772797630455496200,2.76749609375,1.986989140510559,-3.3790462017059326,-3.000344753265381
1772797630465522200,2.777522216796875,2.122067451477051,-3.841747760772705,-3.444272518157959
1772797630475549000,2.787548828125,1.622632622718811,-2.26816463470459,-2.3226287364959717
1772797630485575000,2.797574951171875,1.2322959899902344,0.6243695616722107,-0.7349600195884705
1772797630495602000,2.807601806640625,1.052147626876831,2.604907512664795,-0.3910069763660431
1772797630505628000,2.8176279296875,0.8636442422866821,3.4538357257843018,0.12616585195064545
1772797630515654000,2.82765380859375,0.9374725222587585,2.843083620071411,0.7245052456855774
1772797630525681000,2.837680908203125,1.1988308429718018,1.7467246055603027,1.0600616931915283
1772797630535707000,2.847706787109375,1.4142241477966309,1.1082576513290405,1.4415807723999023
1772797630545732900,2.85773291015625,1.4234181642532349,0.7861174941062927,1.5479718446731567
1772797630555759900,2.867759765625,1.2290074825286865,0.8002182245254517,1.427911639213562
1772797630565785900,2.877785888671875,1.0782654285430908,1.0708940029144287,1.148255705833435
1772797630575811800,2.887811767578125,1.0200928449630737,1.353510856628418,0.9012233018875122
1772797630585839000,2.897839111328125,0.9762985706329346,1.4340741634368896,0.8470410108566284
1772797630595865000,2.907864990234375,0.982464611530304,1.2830325365066528,0.9752260446548462
1772797630605891800,2.917891845703125,1.0299879312515259,1.0867284536361694,1.1546978950500488
1772797630615917800,2.927917724609375,1.0734522342681885,0.9496251940727234,1.325203776359558
1772797630625943800,2.93794384765625,1.0388410091400146,0.8639600872993469,1.4403879642486572
1772797630635971000,2.94797119140625,0.963764488697052,0.8151548504829407,1.5245178937911987
1772797630645997000,2.9579970703125,0.8968645930290222,0.7221623659133911,1.6085119247436523
1772797630656024600,2.968024658203125,0.8617836236953735,0.5569970011711121,1.6598111391067505
1772797630666051300,2.97805126953125,0.8916815519332886,0.3399997353553772,1.7167325019836426
1772797630676077300,2.988077392578125,0.9534494280815125,0.10337449610233307,1.790560007095337
1772797630686103600,2.998103515625,0.9538651704788208,-0.05753715708851814,1.9065531492233276
1772797630696130600,3.008130615234375,0.8537679314613342,-0.11554673314094543,1.8801634311676025
1772797630706156500,3.018156494140625,0.8035790920257568,-0.12906333804130554,1.7137665748596191
1772797630716183300,3.028183349609375,0.7439664602279663,-0.06659092009067535,1.400007963180542
1772797630726209300,3.038209228515625,0.6822642087936401,0.0583515428006649,0.9821904897689819
1772797630736235300,3.0482353515625,0.640918493270874,0.17933306097984314,0.5732722282409668
1772797630746262500,3.058262451171875,0.5686792135238647,0.25482890009880066,0.22520828247070312
1772797630756288500,3.06828857421875,0.4699639081954956,0.262813538312912,-0.07351315766572952
1772797630766314500,3.078314453125,0.3529454171657562,0.2659637928009033,-0.3098207712173462
1772797630776341500,3.088341552734375,0.23120512068271637,0.20693467557430267,-0.5685819983482361
1772797630786367500,3.098367431640625,0.16548310220241547,0.2651212811470032,-0.735724925994873
1772797630796393500,3.1083935546875,0.15705397725105286,0.2696725130081177,-0.8782655596733093
1772797630806420500,3.11842041015625,0.17060494422912598,0.22035743296146393,-0.9656795859336853
1772797630816446500,3.128446533203125,0.1658119261264801,0.07594158500432968,-1.0053071975708008
1772797630826472400,3.138472412109375,0.17283494770526886,-0.09314357489347458,-1.0372682809829712
1772797630836499500,3.14849951171875,0.18858547508716583,-0.24704185128211975,-1.0799363851547241
1772797630846525400,3.158525390625,0.2083602398633957,-0.3779607117176056,-1.1206134557724
1772797630856552400,3.168552490234375,0.23033758997917175,-0.434154212474823,-1.1632426977157593
1772797630866578700,3.17857861328125,0.26651930809020996,-0.41034501791000366,-1.2071971893310547
1772797630876604700,3.188604736328125,0.25994449853897095,-0.3248050808906555,-1.2527955770492554
1772797630886631400,3.19863134765625,0.22366078197956085,-0.24739763140678406,-1.291159749031067
1772797630896657400,3.208657470703125,0.1843578815460205,-0.17698585987091064,-1.3510929346084595
1772797630906683400,3.218683349609375,0.12787437438964844,-0.1561034768819809,-1.3784902095794678
1772797630916710400,3.22871044921875,0.09191130101680756,-0.16148056089878082,-1.3836822509765625
1772797630926736400,3.238736328125,0.08836477249860764,-0.1888650357723236,-1.405017614364624
1772797630936762600,3.2487626953125,0.10766302794218063,-0.21953654289245605,-1.4453366994857788
1772797630946789400,3.258789306640625,0.1547466665506363,-0.2309684157371521,-1.4580416679382324
1772797630956815400,3.2688154296875,0.18284296989440918,-0.23086753487586975,-1.4717975854873657
1772797630966842400,3.27884228515625,0.19388842582702637,-0.19593378901481628,-1.4922232627868652
1772797630976868400,3.288868408203125,0.2447851151227951,-0.1182926818728447,-1.5470027923583984
1772797630986894300,3.298894287109375,0.3977522850036621,-0.09694691002368927,-1.5996812582015991
1772797630996921600,3.308921630859375,0.6114328503608704,-0.06971961259841919,-1.7373700141906738
1772797631006947600,3.318947509765625,0.8694124817848206,-0.08555902540683746,-2.4114832878112793
1772797631016973600,3.3289736328125,1.1134848594665527,-0.02246752381324768,-3.7814385890960693
1772797631027000300,3.339000244140625,1.0893020629882812,0.04746096208691597,-4.718800067901611
1772797631037026300,3.3490263671875,1.12361741065979,0.1853296458721161,-3.6375930309295654
1772797631047052300,3.35905224609375,1.5782309770584106,0.4630129337310791,-1.1494877338409424
1772797631057079600,3.36907958984375,1.9469658136367798,0.17747299373149872,1.5019476413726807
1772797631067105500,3.37910546875,1.9857456684112549,-0.5130578279495239,3.181198835372925
1772797631077132500,3.389132568359375,2.053680658340454,-0.5418363213539124,3.7227296829223633
1772797631087158500,3.399158447265625,2.2350778579711914,-0.10196521133184433,3.4465036392211914
1772797631097184500,3.4091845703125,2.249889850616455,0.21413762867450714,2.727848768234253
1772797631107211300,3.419211181640625,2.0221099853515625,0.20621977746486664,2.2533769607543945
1772797631117237500,3.429237548828125,1.7506091594696045,0.14811746776103973,2.1280856132507324
1772797631127263500,3.439263427734375,1.5585037469863892,0.21869416534900665,2.0824389457702637
1772797631137290500,3.44929052734375,1.4319254159927368,0.3853994309902191,1.9076642990112305
1772797631147316500,3.45931640625,1.2871381044387817,0.6123574376106262,1.6377590894699097
1772797631157342500,3.469342529296875,1.1551066637039185,0.9355568885803223,1.3715063333511353
1772797631167369500,3.479369384765625,1.0775537490844727,1.3349539041519165,1.1861436367034912
1772797631177395500,3.4893955078125,1.0447062253952026,1.6298673152923584,0.968185544013977
1772797631187421400,3.49942138671875,1.1074585914611816,1.7246668338775635,0.8206775784492493
1772797631197448400,3.509448486328125,1.24517023563385,1.5696492195129395,0.7637916803359985
1772797631207474400,3.519474365234375,1.3991637229919434,1.1825270652770996,0.8197324275970459
1772797631217501400,3.52950146484375,1.4963148832321167,0.7530472874641418,0.9396761059761047
1772797631227527400,3.53952734375,1.5095785856246948,0.3042657673358917,1.0927479267120361
1772797631237553400,3.549553466796875,1.4780211448669434,-0.0730639398097992,1.2352691888809204
1772797631247580400,3.559580322265625,1.4202468395233154,-0.306307852268219,1.3069452047348022
1772797631257606400,3.5696064453125,1.336968183517456,-0.4580165445804596,1.3418735265731812
1772797631267632400,3.57963232421875,1.2273164987564087,-0.4806922972202301,1.2772176265716553
1772797631277659400,3.589659423828125,1.143829345703125,-0.38338223099708557,1.1019901037216187
1772797631287685400,3.599685302734375,1.0866262912750244,-0.22815537452697754,0.788953423500061
1772797631297711400,3.60971142578125,1.055446982383728,-0.07378064095973969,0.416888564825058
1772797631307738600,3.619738525390625,1.0364874601364136,0.10922006517648697,0.003526019863784313
1772797631317764600,3.6297646484375,1.0081017017364502,0.22421599924564362,-0.3179210424423218
1772797631327790600,3.63979052734375,0.9204104542732239,0.1864537000656128,-0.4851747453212738
1772797631337817300,3.6498173828125,0.8211167454719543,0.09376377612352371,-0.5835958123207092
1772797631347843300,3.65984326171875,0.7080008387565613,0.06993887573480606,-0.7051206231117249
1772797631357870600,3.66987060546875,0.6110314726829529,0.13228511810302734,-0.918336033821106
1772797631367896600,3.679896484375,0.5305518507957458,0.20171186327934265,-1.1735897064208984
1772797631377922600,3.689922607421875,0.4676990211009979,0.24027866125106812,-1.3982021808624268
1772797631387949600,3.699949462890625,0.4330326318740845,0.20699606835842133,-1.544998288154602
1772797631397975600,3.7099755859375,0.4237993657588959,0.1382642239332199,-1.594510555267334
1772797631408001500,3.72000146484375,0.44265055656433105,0.026266587898135185,-1.6057136058807373
1772797631418028300,3.7300283203125,0.42151370644569397,-0.06286950409412384,-1.5884685516357422
1772797631428054500,3.740054443359375,0.40945199131965637,-0.09768181294202805,-1.5830551385879517
1772797631438080500,3.75008056640625,0.43068641424179077,-0.07757285237312317,-1.5718417167663574
1772797631448107500,3.760107421875,0.46200382709503174,-0.06724138557910919,-1.5162063837051392
1772797631458133500,3.770133544921875,0.5221883058547974,-0.09538275003433228,-1.471935510635376
1772797631468159500,3.780159423828125,0.5780891180038452,-0.1435990184545517,-1.4106255769729614
1772797631478186500,3.7901865234375,0.639983057975769,-0.21677178144454956,-1.4011136293411255
1772797631488212200,3.800212158203125,0.6056109666824341,-0.22520947456359863,-1.438941478729248
1772797631498238500,3.810238525390625,0.5151770710945129,-0.07843009382486343,-1.4872876405715942
1772797631508265500,3.820265380859375,0.4379768371582031,0.19454233348369598,-1.57756507396698
1772797631518291500,3.83029150390625,0.40915995836257935,0.5034632086753845,-1.6983485221862793
1772797631528318500,3.840318359375,0.3580693304538727,0.5782221555709839,-1.7804864645004272
1772797631538344400,3.850344482421875,0.4508110284805298,0.3644631505012512,-1.6571475267410278
1772797631548370400,3.860370361328125,0.7609981894493103,0.012259580194950104,-1.3681697845458984
1772797631558397400,3.8703974609375,1.187087059020996,-0.43281999230384827,-1.1065040826797485
1772797631568423400,3.88042333984375,1.5077459812164307,-0.8877438306808472,-0.9928517937660217
1772797631578449400,3.890449462890625,1.8499029874801636,-1.121538519859314,-0.996254563331604
1772797631588476400,3.900476318359375,2.122180461883545,-1.1456241607666016,-1.2017337083816528
1772797631598502400,3.91050244140625,2.3337156772613525,-1.4092265367507935,-0.8678324222564697
1772797631608528400,3.9205283203125,2.124906301498413,-1.4750518798828125,0.08816488087177277
1772797631618555600,3.9305556640625,1.7740586996078491,-1.1407004594802856,1.209539532661438
1772797631628581600,3.94058154296875,1.695844292640686,-0.1574014574289322,2.2552168369293213
1772797631638607600,3.950607666015625,1.6936352252960205,0.7981401085853577,2.4709017276763916
1772797631648634400,3.96063427734375,1.6219940185546875,1.4320728778839111,2.2739086151123047
1772797631658659600,3.97065966796875,1.7336345911026,1.5154510736465454,2.0238711833953857
1772797631668686600,3.9806865234375,1.7622824907302856,1.0815744400024414,1.8394484519958496
1772797631678712600,3.990712646484375,1.6741514205932617,0.5114930868148804,1.7819850444793701
1772797631688738600,4.000738525390625,1.5247771739959717,0.18658769130706787,1.7543689012527466
1772797631698765600,4.010765625,1.4226397275924683,0.09054625779390335,1.724655270576477
1772797631708791600,4.02079150390625,1.3258836269378662,0.08922399580478668,1.682512879371643
1772797631718817500,4.030817626953125,1.212462306022644,0.09317382425069809,1.6351487636566162
1772797631728844500,4.040844482421875,1.0718148946762085,0.07725904136896133,1.620605230331421
1772797631738870500,4.05087060546875,0.9411029815673828,0.03338179737329483,1.6967817544937134
1772797631748896500,4.060896484375,0.8449759483337402,0.06686945259571075,1.8279142379760742
1772797631758923500,4.070923583984375,0.7598097324371338,0.1070723906159401,1.9557660818099976
1772797631768949500,4.080949462890625,0.6924054026603699,0.1318562924861908,1.9893817901611328
1772797631778975500,4.0909755859375,0.6564381122589111,0.20601846277713776,1.9825466871261597
1772797631789002800,4.101002685546875,0.6123737096786499,0.3263547420501709,1.959195613861084
1772797631799028700,4.11102880859375,0.5465649366378784,0.38569915294647217,1.8219189643859863
1772797631809054700,4.1210546875,0.5001736879348755,0.4033452570438385,1.5822739601135254
1772797631819081500,4.13108154296875,0.5240812301635742,0.4762936532497406,1.3124130964279175
1772797631829107500,4.141107421875,0.5320491790771484,0.4804673492908478,0.9982970356941223
1772797631839133400,4.151133544921875,0.528289794921875,0.36541399359703064,0.6905714273452759
1772797631849160700,4.16116064453125,0.46265411376953125,0.26744431257247925,0.3441452980041504
1772797631859186700,4.171186767578125,0.1707693636417389,0.2568817138671875,-0.0024499702267348766
1772797631869213700,4.181213623046875,-0.000022873282432556152,0.2890356779098511,-0.39628276228904724
1772797631879239700,4.19123974609375,-0.22951960563659668,0.34402191638946533,-0.8144184350967407
1772797631889265700,4.201265625,-0.3794451653957367,0.3517291247844696,-1.2031216621398926
1772797631899292700,4.211292724609375,-0.4281722903251648,0.3377794623374939,-1.5438880920410156
1772797631909318700,4.221318603515625,-0.4171920716762543,0.2715865969657898,-1.7926372289657593
1772797631919344600,4.2313447265625,-0.3973926603794098,0.23881137371063232,-1.9711101055145264
1772797631929371600,4.24137158203125,-0.36828163266181946,0.2224627584218979,-2.0905439853668213
1772797631939397600,4.251397705078125,-0.299667090177536,0.12267446517944336,-2.1486217975616455
1772797631949423600,4.261423583984375,-0.19442027807235718,-0.03821800649166107,-2.106355667114258
1772797631959450400,4.271450439453125,-0.04672646149992943,-0.1910610795021057,-1.9980437755584717
1772797631969476600,4.2814765625,0.08378094434738159,-0.3503285050392151,-1.862767219543457
1772797631979502600,4.291502685546875,0.17812049388885498,-0.48012426495552063,-1.7287272214889526
1772797631989529600,4.301529541015625,0.21108271181583405,-0.561941385269165,-1.6074631214141846
1772797631999555600,4.3115556640625,0.20410162210464478,-0.5831061601638794,-1.5207433700561523
1772797632009581600,4.32158154296875,0.1910979300737381,-0.6029844880104065,-1.4542664289474487
1772797632019608600,4.331608642578125,0.12691137194633484,-0.5431120991706848,-1.4706060886383057
1772797632029634600,4.341634521484375,0.024125337600708008,-0.5399714112281799,-1.4777053594589233
1772797632039660800,4.351660888671875,-0.07337165623903275,-0.4759857654571533,-1.5418152809143066
1772797632049687600,4.3616875,-0.08808455616235733,-0.4581438899040222,-1.619999885559082
1772797632059713500,4.371713623046875,-0.0649457573890686,-0.47143641114234924,-1.7302278280258179
1772797632069740500,4.381740478515625,-0.044790156185626984,-0.4503263533115387,-1.883151888847351
1772797632079766500,4.3917666015625,-0.019730303436517715,-0.3276033103466034,-1.9088664054870605
1772797632089792500,4.40179248046875,0.18825112283229828,-0.20726943016052246,-1.6665489673614502
1772797632099818800,4.41181884765625,0.5329008102416992,-0.17889663577079773,-1.1684958934783936
1772797632109845800,4.421845703125,0.7673963904380798,-0.12484432011842728,-0.8141505718231201
1772797632119871700,4.431871826171875,0.9766883850097656,-0.11887990683317184,-0.7070525884628296
1772797632129898500,4.4418984375,1.3550125360488892,-0.6892285943031311,-0.5693482756614685
1772797632139924500,4.451924560546875,1.641251564025879,-1.1821925640106201,-0.04994427412748337
1772797632149950500,4.461950439453125,1.396262288093567,-0.961691677570343,1.0237621068954468
1772797632159977700,4.471977783203125,0.9689656496047974,-0.05336776748299599,2.010648250579834
1772797632170003700,4.482003662109375,0.5874454379081726,1.045562982559204,2.679426908493042
1772797632180029700,4.49202978515625,0.4537966251373291,1.7033573389053345,3.103832960128784
1772797632190056400,4.502056396484375,0.568791389465332,1.8266716003417969,2.989377498626709
1772797632200082400,4.51208251953125,0.7470909357070923,1.5152050256729126,2.5863139629364014
1772797632210108400,4.5221083984375,0.8274244070053101,0.9259731769561768,2.354382038116455
1772797632220135700,4.5321357421875,0.8580893278121948,0.34274908900260925,2.3997609615325928
1772797632230161700,4.54216162109375,0.8223468065261841,0.027355168014764786,2.459059476852417
1772797632240187600,4.552187744140625,0.7797961831092834,-0.04009811580181122,2.4219014644622803
1772797632250214700,4.562214599609375,0.7511528134346008,-0.034847959876060486,2.3191373348236084
1772797632260240600,4.57224072265625,0.6831750869750977,-0.031830668449401855,2.2423501014709473
1772797632270266600,4.5822666015625,0.5695614218711853,0.04837522655725479,2.2088027000427246
1772797632280293600,4.592293701171875,0.5090110301971436,0.21714138984680176,2.193575620651245
1772797632290319600,4.602319580078125,0.5294198989868164,0.4814382791519165,2.1844518184661865
1772797632300345600,4.612345703125,0.6237980127334595,0.6721447110176086,2.188298463821411
1772797632310372600,4.62237255859375,0.7401259541511536,0.8386942744255066,2.1472015380859375
1772797632320398600,4.632398681640625,0.8524793386459351,0.9304807186126709,2.0713391304016113
1772797632330425600,4.642425537109375,0.8846359848976135,0.814742386341095,1.9703174829483032
1772797632340451600,4.65245166015625,0.8374456167221069,0.6033676862716675,1.857882022857666
1772797632350477600,4.6624775390625,0.7425976991653442,0.3588449954986572,1.5991002321243286
1772797632360503600,4.672503662109375,0.6659581065177917,0.20663174986839294,1.2666226625442505
1772797632370530600,4.682530517578125,0.5876672863960266,0.20765440165996552,0.9279940128326416
1772797632380556500,4.692556640625,0.5092063546180725,0.22774891555309296,0.6600674986839294
1772797632390583600,4.70258349609375,0.40138691663742065,0.2911745011806488,0.35270488262176514
1772797632400609500,4.712609619140625,0.3058752119541168,0.347612589597702,0.01179684791713953
1772797632410635500,4.722635498046875,0.2091018110513687,0.38127681612968445,-0.31421905755996704
1772797632420662500,4.73266259765625,0.10270559787750244,0.39426860213279724,-0.588799774646759
1772797632430688500,4.7426884765625,0.0018564813071861863,0.3833978474140167,-0.8212236762046814
1772797632440714500,4.752714599609375,-0.07811710238456726,0.3028378486633301,-1.00723135471344
1772797632450741500,4.762741455078125,-0.13309460878372192,0.19625067710876465,-1.16542387008667
1772797632460767500,4.772767578125,-0.1630314141511917,0.10918891429901123,-1.3085496425628662
1772797632470793500,4.78279345703125,-0.15760256350040436,0.07703203707933426,-1.4228376150131226
1772797632480820700,4.79282080078125,-0.13728630542755127,0.1256725788116455,-1.4781136512756348
1772797632490846700,4.8028466796875,-0.12126818299293518,0.20740365982055664,-1.481003999710083
1772797632500872700,4.812872802734375,-0.1315145194530487,0.24125629663467407,-1.4866054058074951
1772797632510899500,4.8228994140625,-0.1469390094280243,0.21078839898109436,-1.5430837869644165
1772797632520925400,4.832925537109375,-0.18264484405517578,0.15084315836429596,-1.642858624458313
1772797632530951400,4.842951416015625,-0.2358958125114441,0.08313813805580139,-1.7646420001983643
1772797632540978700,4.852978759765625,-0.279065877199173,0.019873904064297676,-1.903004765510559
1772797632551004700,4.863004638671875,-0.3102288544178009,-0.02281790040433407,-2.047924518585205
1772797632561030700,4.87303076171875,-0.31758052110671997,-0.10346507281064987,-2.1540112495422363
1772797632571057700,4.8830576171875,-0.32054755091667175,-0.14138874411582947,-2.2596354484558105
1772797632581083600,4.893083740234375,-0.28810617327690125,-0.22614127397537231,-2.326108932495117
1772797632591109600,4.903109619140625,-0.27966660261154175,-0.2863420248031616,-2.31127667427063
1772797632601136600,4.91313671875,-0.2395857870578766,-0.28317323327064514,-2.2776029109954834
1772797632611162600,4.92316259765625,-0.18498006463050842,-0.21180692315101624,-2.2460100650787354
1772797632621188600,4.933188720703125,-0.1180025041103363,-0.16740602254867554,-2.1999616622924805
1772797632631215600,4.943215576171875,0.01805759407579899,-0.26840588450431824,-2.0806384086608887
1772797632641241600,4.95324169921875,0.21258313953876495,-0.6094945073127747,-1.9002419710159302
1772797632651267800,4.963267822265625,0.45527058839797974,-1.0982273817062378,-1.7721987962722778
1772797632661294600,4.973294677734375,0.7030201554298401,-1.802486538887024,-1.9442590475082397
1772797632671320600,4.983320556640625,0.9215276837348938,-2.1262035369873047,-2.1977779865264893
1772797632681346600,4.9933466796875,1.176758050918579,-1.8639644384384155,-2.112947940826416
1772797632691373800,5.003373779296875,1.2681231498718262,-1.5545223951339722,-1.1614532470703125
1772797632701399800,5.01339990234375,1.1609948873519897,-1.1193979978561401,0.6747080087661743
1772797632711425800,5.02342578125,0.9866300225257874,-0.4112128019332886,2.3566014766693115
1772797632721452800,5.033452880859375,0.9608365297317505,0.2937453091144562,3.2467427253723145
1772797632731478800,5.043478759765625,1.0831254720687866,0.7270323038101196,3.350903034210205
1772797632741504800,5.0535048828125,1.066640853881836,0.6759985685348511,3.106343984603882
1772797632751531500,5.063531494140625,1.0123875141143799,0.2205982655286789,2.8520596027374268
1772797632761557800,5.073557861328125,0.9495620131492615,-0.30712130665779114,2.727250576019287
1772797632771584800,5.083584716796875,0.8217704892158508,-0.6048954129219055,2.715768814086914
1772797632781610800,5.09361083984375,0.7130249738693237,-0.626688539981842,2.6669414043426514
1772797632791636700,5.10363671875,0.5758383274078369,-0.4529055058956146,2.5578997135162354
1772797632801663700,5.113663818359375,0.46243637800216675,-0.19797031581401825,2.462383270263672
1772797632811689700,5.123689697265625,0.35396263003349304,0.12651614844799042,2.4559998512268066
1772797632821715700,5.1337158203125,0.2830837666988373,0.5190545320510864,2.523117780685425
1772797632831742700,5.14374267578125,0.3082546293735504,0.8023415803909302,2.6617634296417236
1772797632841768700,5.153768798828125,0.3829846680164337,1.021818995475769,2.761765718460083
1772797632851794700,5.163794677734375,0.48482900857925415,1.2246954441070557,2.7732436656951904
1772797632861821700,5.17382177734375,0.5922990441322327,1.3441113233566284,2.740243434906006
1772797632871847700,5.18384765625,0.7236801981925964,1.3069456815719604,2.6680495738983154
1772797632881873700,5.193873779296875,0.8590719103813171,1.1321370601654053,2.5846612453460693
1772797632891900700,5.203900634765625,0.9403707385063171,0.9205078482627869,2.415175437927246
1772797632901926700,5.2139267578125,1.002603530883789,0.7310705780982971,2.2018861770629883
1772797632911952600,5.22395263671875,1.0326822996139526,0.5990198254585266,1.9175037145614624
1772797632921979600,5.233979736328125,1.050490379333496,0.44673559069633484,1.6145793199539185
1772797632932005600,5.244005615234375,1.0405000448226929,0.30252328515052795,1.3103432655334473
1772797632942031600,5.254031494140625,0.9842979311943054,0.14885154366493225,0.964421272277832
1772797632952059000,5.264058837890625,0.8803406357765198,0.002164105186238885,0.582308828830719
1772797632962084900,5.2740849609375,0.671572208404541,-0.07470109313726425,0.09354230016469955
1772797632972110800,5.28411083984375,0.4422617256641388,-0.08195766806602478,-0.4662514925003052
1772797632982137600,5.2941376953125,0.1940860003232956,-0.032989587634801865,-1.0006177425384521
1772797632992163600,5.30416357421875,-0.05380849167704582,0.1410256177186966,-1.5174152851104736
1772797633002189600,5.314189453125,-0.24676087498664856,0.31630802154541016,-1.9360535144805908
1772797633012216800,5.324216796875,-0.4156572222709656,0.35953935980796814,-2.1816179752349854
1772797633022242800,5.334242919921875,-0.48315635323524475,0.3952212333679199,-2.336961030960083
1772797633032268800,5.344268798828125,-0.5016448497772217,0.32992294430732727,-2.404799461364746
1772797633042295800,5.3542958984375,-0.4957135319709778,0.24152998626232147,-2.377737522125244
1772797633052321800,5.36432177734375,-0.452284038066864,0.12999945878982544,-2.286698579788208
1772797633062347800,5.37434765625,-0.40329447388648987,0.03220430389046669,-2.1959500312805176
1772797633072374800,5.384374755859375,-0.36001572012901306,-0.02207544632256031,-2.146315336227417
1772797633082400800,5.39440087890625,-0.31923213601112366,-0.07651939243078232,-2.1295406818389893
1772797633092426800,5.4044267578125,-0.30694830417633057,-0.15101945400238037,-2.1320719718933105
1772797633102453800,5.414453857421875,-0.30883800983428955,-0.2800942659378052,-2.155843496322632
1772797633112479700,5.424479736328125,-0.33040133118629456,-0.4053530991077423,-2.1913344860076904
1772797633122505700,5.434505615234375,-0.38384580612182617,-0.4711299240589142,-2.217024326324463
1772797633132532500,5.444532470703125,-0.4351673126220703,-0.5068101286888123,-2.2484374046325684
1772797633142558700,5.454558837890625,-0.470045268535614,-0.5599358677864075,-2.29018235206604
1772797633152584700,5.464584716796875,-0.5077609419822693,-0.605242908000946,-2.3022778034210205
1772797633162611700,5.47461181640625,-0.533951997756958,-0.6348735690116882,-2.266606569290161
1772797633172637700,5.4846376953125,-0.5547046661376953,-0.6592105627059937,-2.2196738719940186
1772797633182663700,5.49466357421875,-0.49625957012176514,-0.7731022238731384,-2.2986412048339844
1772797633192690700,5.504690673828125,-0.32718586921691895,-1.0078116655349731,-2.5773985385894775
1772797633202717000,5.514717041015625,-0.07408926635980606,-1.5432430505752563,-3.1534738540649414
1772797633212743000,5.524742919921875,0.09628885984420776,-2.3727638721466064,-3.8103976249694824
1772797633222769700,5.534769775390625,0.230955109000206,-3.2074344158172607,-3.630631446838379
1772797633232795600,5.544795654296875,0.40531307458877563,-3.2429604530334473,-2.3121278285980225
1772797633242821600,5.554821533203125,0.5414302349090576,-2.1655075550079346,-0.5461276769638062
1772797633252848600,5.5648486328125,0.5050663948059082,-0.6132636070251465,0.7631592154502869
1772797633262874600,5.57487451171875,0.52375727891922,0.8116427063941956,1.5622175931930542
1772797633272900900,5.58490087890625,0.6647618412971497,2.038850784301758,2.1851820945739746
1772797633282927900,5.594927978515625,0.820288360118866,2.6145801544189453,2.5365378856658936
1772797633292953900,5.604953857421875,0.8949098587036133,2.398674726486206,2.533024311065674
1772797633302979600,5.6149794921875,0.9166212677955627,1.439483642578125,2.379795789718628
1772797633313006600,5.625006591796875,0.9070040583610535,0.5647478699684143,2.283336877822876
1772797633323032600,5.635032470703125,0.9099414944648743,-0.021115433424711227,2.3804574012756348
1772797633333058800,5.645058837890625,0.815292477607727,-0.24636797606945038,2.435701847076416
1772797633343085800,5.6550859375,0.6690912842750549,-0.1779583990573883,2.299898386001587
1772797633353111800,5.66511181640625,0.5041007399559021,0.07995889335870743,2.0630030632019043
1772797633363137800,5.6751376953125,0.38106024265289307,0.35487860441207886,1.8769598007202148
1772797633373164500,5.68516455078125,0.2389044463634491,0.6367936134338379,1.8262248039245605
1772797633383190500,5.6951904296875,0.06203775852918625,0.9188359975814819,1.8451167345046997
1772797633393216500,5.705216552734375,-0.07893534004688263,1.1644688844680786,1.8204752206802368
1772797633403243800,5.715243896484375,-0.2108202576637268,1.3503823280334473,1.788941502571106
1772797633413269800,5.725269775390625,-0.29576441645622253,1.510871410369873,1.686410903930664
1772797633423295700,5.735295654296875,-0.2716038227081299,1.6632124185562134,1.5605533123016357
1772797633433322800,5.74532275390625,-0.18291470408439636,1.6618646383285522,1.4499585628509521
1772797633443348700,5.7553486328125,-0.0036975410766899586,1.467973232269287,1.3584731817245483
1772797633453374700,5.765374755859375,0.1843477338552475,1.2044774293899536,1.2573540210723877
1772797633463401700,5.775401611328125,0.37325727939605713,0.9174551367759705,1.1709036827087402
1772797633473427700,5.785427734375,0.5215596556663513,0.5983914136886597,1.0607303380966187
1772797633483453700,5.79545361328125,0.6392326951026917,0.3374766409397125,0.9459876418113708
1772797633493480700,5.805480712890625,0.6879411339759827,0.13968102633953094,0.8532769083976746
1772797633503506700,5.815506591796875,0.6911836266517639,0.08630133420228958,0.7800005674362183
1772797633513534000,5.825533935546875,0.5245770812034607,0.2003386914730072,0.6474417448043823
1772797633523560000,5.835559814453125,0.13178008794784546,0.23756562173366547,0.3935796022415161
1772797633533585700,5.845585693359375,-0.22876931726932526,0.3007427155971527,0.01753966137766838
1772797633543612700,5.85561279296875,-0.4769674837589264,0.3291189968585968,-0.4800301790237427
1772797633553638700,5.865638671875,-0.6275982856750488,0.26715710759162903,-0.9770506024360657
1772797633563664600,5.87566455078125,-0.7583401203155518,0.08447927981615067,-1.4332584142684937
1772797633573690600,5.885690673828125,-0.8646058440208435,-0.12855497002601624,-1.806662917137146
1772797633583718000,5.8957177734375,-0.9349096417427063,-0.3374679982662201,-2.044717788696289
1772797633593744000,5.905743896484375,-0.9542814493179321,-0.5609948635101318,-2.1406071186065674
1772797633603769900,5.915769775390625,-0.924102246761322,-0.809439480304718,-2.0550310611724854
1772797633613796600,5.925796630859375,-0.8462087512016296,-0.9615685343742371,-1.8361648321151733
1772797633623822600,5.935822509765625,-0.7781412601470947,-1.0254939794540405,-1.597692847251892
1772797633633849600,5.945849609375,-0.7420101761817932,-0.9879207015037537,-1.4377777576446533
1772797633643875600,5.95587548828125,-0.7547621130943298,-0.8913717865943909,-1.3906762599945068
1772797633653902600,5.965902587890625,-0.7993021607398987,-0.7918841242790222,-1.429272174835205
1772797633663929300,5.975929443359375,-0.8382428884506226,-0.7086683511734009,-1.527923822402954
1772797633673955300,5.985955322265625,-0.8425492644309998,-0.7248864769935608,-1.631135106086731
1772797633683981300,5.995981201171875,-0.8330327272415161,-0.8151694536209106,-1.683413028717041
1772797633694008600,6.006008544921875,-0.8150867819786072,-0.8954488635063171,-1.6645208597183228
1772797633704034600,6.01603466796875,-0.7963247299194336,-0.850014865398407,-1.6468394994735718
1772797633714060500,6.026060546875,-0.7637695074081421,-0.6975616812705994,-1.6158230304718018
1772797633724087600,6.036087646484375,-0.7591443061828613,-0.49937325716018677,-1.6366780996322632
1772797633734113500,6.046113525390625,-0.7723032236099243,-0.3218115270137787,-1.760894775390625
1772797633744139500,6.056139404296875,-0.6892521977424622,-0.3017978072166443,-2.0611367225646973
1772797633754166500,6.06616650390625,-0.6260774731636047,-0.7503859996795654,-2.640280246734619
1772797633764192500,6.076192626953125,-0.5638232827186584,-1.7584593296051025,-3.58840274810791
1772797633774218500,6.086218505859375,-0.5741127133369446,-3.021544933319092,-4.565280437469482
1772797633784244500,6.096244384765625,-0.45145097374916077,-4.028083324432373,-4.850008487701416
1772797633794271500,6.106271484375,0.03605158254504204,-3.9786417484283447,-3.7586991786956787
1772797633804297500,6.11629736328125,0.5597069263458252,-2.257582664489746,-1.5029058456420898
1772797633814324700,6.12632470703125,0.6634085178375244,-0.03197013586759567,0.9542331099510193
1772797633824350700,6.136350830078125,0.6272614598274231,1.6282050609588623,2.5550825595855713
1772797633834376400,6.14637646484375,0.8572826981544495,2.6919960975646973,3.3496134281158447
1772797633844403500,6.156403564453125,1.3131299018859863,2.7231414318084717,4.060825347900391
1772797633854429400,6.166429443359375,1.6466460227966309,2.0098791122436523,4.603119850158691
1772797633864455400,6.176455322265625,1.7070854902267456,1.2276818752288818,4.512956619262695
1772797633874482400,6.186482421875,1.4662466049194336,0.7921072840690613,3.794931173324585
1772797633884508700,6.1965087890625,1.0948537588119507,0.7770943641662598,2.9753150939941406
1772797633894534700,6.20653466796875,0.6854602694511414,0.9416660070419312,2.3431155681610107
1772797633904560600,6.216560546875,0.3481231927871704,1.0502099990844727,1.9227256774902344
1772797633914587400,6.22658740234375,0.0812763199210167,1.0810948610305786,1.6102551221847534
1772797633924613400,6.23661328125,-0.11831135302782059,1.1656619310379028,1.3215227127075195
1772797633934640400,6.246640380859375,-0.23270957171916962,1.2950350046157837,0.9862781167030334
1772797633944666600,6.25666650390625,-0.24511776864528656,1.4535895586013794,0.7221755981445312
1772797633954692600,6.266692626953125,-0.1644894927740097,1.6183748245239258,0.6120375990867615
1772797633964719600,6.2767197265625,-0.03913740813732147,1.720477819442749,0.6709360480308533
1772797633974745600,6.28674560546875,0.0843437910079956,1.7191030979156494,0.8535130620002747
1772797633984771600,6.296771484375,0.21292942762374878,1.6557843685150146,1.1235469579696655
1772797633994798300,6.30679833984375,0.35026994347572327,1.5040371417999268,1.3825817108154297
1772797634004824300,6.31682421875,0.5069825053215027,1.2656888961791992,1.5557996034622192
1772797634014850600,6.3268505859375,0.6174991726875305,0.8997865319252014,1.640849232673645
1772797634024877600,6.336877685546875,0.6667304635047913,0.5432596206665039,1.6821948289871216
1772797634034903600,6.346903564453125,0.665863037109375,0.23196592926979065,1.5880508422851562
1772797634044929500,6.356929443359375,0.6784961223602295,-0.03178311884403229,1.444724202156067
1772797634054956500,6.36695654296875,0.629514753818512,-0.19002468883991241,1.1899404525756836
1772797634064982500,6.376982421875,0.5502743124961853,-0.30160459876060486,0.8235570788383484
1772797634075008500,6.387008544921875,0.4673139452934265,-0.37329262495040894,0.4857686161994934
1772797634085035500,6.397035400390625,0.38898906111717224,-0.43546971678733826,0.24187898635864258
1772797634095061500,6.4070615234375,0.3012685179710388,-0.46659010648727417,0.06530475616455078
1772797634105087500,6.41708740234375,0.2260267734527588,-0.407518595457077,-0.07697058469057083
1772797634115114500,6.427114501953125,0.13229788839817047,-0.2742779850959778,-0.1782974749803543
1772797634125140500,6.437140380859375,0.053546953946352005,-0.13906967639923096,-0.31522098183631897
1772797634135166500,6.44716650390625,-0.022406399250030518,-0.006361162289977074,-0.5277449488639832
1772797634145193500,6.457193359375,-0.11384104937314987,0.009519183076918125,-0.7736692428588867
1772797634155219500,6.467219482421875,-0.22895725071430206,-0.14192092418670654,-1.045533537864685
1772797634165245400,6.477245361328125,-0.41669535636901855,-0.327213853597641,-1.2882499694824219
1772797634175272400,6.4872724609375,-0.526130199432373,-0.3940027356147766,-1.4904440641403198
1772797634185298400,6.49729833984375,-0.625684380531311,-0.43627843260765076,-1.634928822517395
1772797634195324400,6.507324462890625,-0.6922090649604797,-0.38649091124534607,-1.640883207321167
1772797634205350400,6.517350341796875,-0.7236663699150085,-0.2643037736415863,-1.534161925315857
1772797634215377700,6.527377685546875,-0.7443119883537292,-0.17490039765834808,-1.4072973728179932
1772797634225403600,6.537403564453125,-0.7491551637649536,-0.10771764069795609,-1.3011819124221802
1772797634235429600,6.5474296875,-0.7386681437492371,-0.04683617874979973,-1.2340705394744873
1772797634245456400,6.557456298828125,-0.6906364560127258,0.012199428863823414,-1.1952714920043945
1772797634255482400,6.567482421875,-0.6655386090278625,-0.031784538179636,-1.166098952293396
1772797634265508400,6.57750830078125,-0.7107495665550232,-0.11507714539766312,-1.1311653852462769
1772797634275535600,6.58753564453125,-0.752517819404602,-0.2521052956581116,-1.0827860832214355
1772797634285561600,6.5975615234375,-0.7251754999160767,-0.4548352062702179,-0.9516928195953369
1772797634295587600,6.607587646484375,-0.5846737623214722,-0.6747156381607056,-0.7533783912658691
1772797634305614600,6.617614501953125,-0.42076489329338074,-0.8005940318107605,-0.566654622554779
1772797634315640600,6.627640625,-0.2630985677242279,-0.7579810619354248,-0.40129223465919495
1772797634325667600,6.63766748046875,-0.035789087414741516,-0.4440770745277405,-0.5337021946907043
1772797634335693600,6.647693603515625,0.1828487068414688,-0.4270848035812378,-1.3647950887680054
1772797634345719600,6.657719482421875,0.1253717541694641,-0.7934338450431824,-2.9694113731384277
1772797634355745500,6.66774560546875,-0.14943289756774902,-1.188850998878479,-3.9872522354125977
1772797634365772500,6.6777724609375,-0.42069393396377563,-1.120712399482727,-3.353182792663574
1772797634375798500,6.687798583984375,-0.10557246953248978,-0.6169862151145935,-0.9754055142402649
1772797634385824500,6.697824462890625,0.35738566517829895,-0.5167176723480225,2.0855891704559326
1772797634395851500,6.7078515625,0.6516879200935364,-0.426986962556839,3.9501843452453613
1772797634405877500,6.71787744140625,0.9452210664749146,0.005905291996896267,4.458730220794678
1772797634415903500,6.727903564453125,1.0739068984985352,0.2613777816295624,4.095045566558838
1772797634425930500,6.737930419921875,1.0803754329681396,0.15347856283187866,3.48148775100708
1772797634435956500,6.74795654296875,0.9334141612052917,0.08374715596437454,3.0486910343170166
1772797634445982500,6.757982421875,0.6985980868339539,0.16052354872226715,2.7350199222564697
1772797634456009500,6.768009521484375,0.443347692489624,0.31032928824424744,2.3245303630828857
1772797634466035700,6.77803564453125,0.21217353641986847,0.4550304114818573,1.797784447669983
1772797634476061700,6.788061767578125,0.052142057567834854,0.6450765132904053,1.3304271697998047
1772797634486088400,6.79808837890625,-0.04026605188846588,0.7987939119338989,1.0084542036056519
1772797634496114400,6.808114501953125,-0.039923302829265594,0.8455667495727539,0.8541948795318604
1772797634506140400,6.818140380859375,0.0427342914044857,0.8745602965354919,0.7932206988334656
1772797634516167400,6.82816748046875,0.20303048193454742,0.785638153553009,0.8426702618598938
1772797634526193700,6.838193603515625,0.3790303170681,0.582061767578125,0.8898851871490479
1772797634536219600,6.8482197265625,0.4416513442993164,0.3468516170978546,0.9292730689048767
1772797634546246700,6.85824658203125,0.41421133279800415,0.2053881287574768,0.8632597327232361
1772797634556272400,6.8682724609375,0.35525932908058167,0.21176986396312714,0.6515594720840454
1772797634566298400,6.87829833984375,0.27132222056388855,0.1391754150390625,0.34856605529785156
1772797634576325400,6.888325439453125,0.14402393996715546,-0.036869123578071594,0.060701239854097366
1772797634586351400,6.898351318359375,0.01200358010828495,-0.28974249958992004,-0.15481242537498474
1772797634596377600,6.908377685546875,-0.11558447033166885,-0.5202968716621399,-0.2767854630947113
1772797634606404600,6.918404541015625,-0.18898651003837585,-0.6393532752990723,-0.3771546483039856
1772797634616430600,6.9284306640625,-0.2098177671432495,-0.6313499808311462,-0.49812260270118713
1772797634626456600,6.93845654296875,-0.18079021573066711,-0.5634909868240356,-0.7017785310745239
1772797634636483300,6.9484833984375,-0.10260060429573059,-0.4717261791229248,-0.8858983516693115
1772797634646509300,6.95850927734375,-0.04882967472076416,-0.3904779851436615,-1.005908727645874
1772797634656534500,6.968534423828125,-0.023537369444966316,-0.29621434211730957,-1.0813698768615723
1772797634666561300,6.978561279296875,-0.02163933590054512,-0.18297059834003448,-1.1551344394683838
1772797634676587500,6.98858740234375,-0.04848186671733856,-0.07174049317836761,-1.2511147260665894
1772797634686613500,6.998613525390625,-0.10811731219291687,-0.03632475435733795,-1.329393744468689
1772797634696640500,7.008640625,-0.18111614882946014,-0.06194569915533066,-1.3377454280853271
1772797634706666500,7.01866650390625,-0.24189884960651398,-0.059437524527311325,-1.2386482954025269
1772797634716692500,7.0286923828125,-0.2963397204875946,-0.07101881504058838,-1.0374971628189087
1772797634726719500,7.038719482421875,-0.3204365074634552,-0.11013303697109222,-0.7879427671432495
1772797634736745500,7.048745361328125,-0.3269023895263672,-0.18747521936893463,-0.5452616810798645
1772797634746771500,7.058771484375,-0.3381789028644562,-0.2749265432357788,-0.3345898985862732
1772797634756798500,7.068798583984375,-0.36316362023353577,-0.2958219647407532,-0.18705211579799652
1772797634766824400,7.078824462890625,-0.39058399200439453,-0.28974449634552,-0.08829572051763535
1772797634776850400,7.088850341796875,-0.4087211787700653,-0.22424963116645813,-0.001725147245451808
1772797634786877400,7.09887744140625,-0.40752077102661133,-0.12445024400949478,0.04024914652109146
1772797634796903400,7.1089033203125,-0.4035673141479492,-0.07668857276439667,0.09295070171356201
1772797634806929400,7.118929443359375,-0.3553192913532257,-0.07423747330904007,0.25392553210258484
1772797634816956400,7.128956298828125,-0.25803589820861816,-0.07348806411027908,0.488714337348938
1772797634826982400,7.138982421875,-0.14433987438678741,-0.03109544888138771,0.7274350523948669
1772797634837008400,7.14900830078125,0.0006948085501790047,0.0518132820725441,0.9239925742149353
1772797634847035400,7.159035400390625,0.1143995001912117,0.1545136719942093,0.8964225053787231
1772797634857061400,7.169061279296875,0.19030624628067017,0.19308370351791382,0.5982653498649597
1772797634867087400,7.17908740234375,0.1497138887643814,0.06596391648054123,0.16633765399456024
1772797634877114600,7.189114501953125,-0.03631430119276047,-0.24140694737434387,-0.2892612814903259
1772797634887140600,7.199140625,-0.3597572147846222,-0.7346171736717224,-0.7194303274154663
1772797634897166600,7.20916650390625,-0.6157479286193848,-1.1060611009597778,-0.8075021505355835
1772797634907192600,7.219192626953125,-0.6535879969596863,-0.929269552230835,-0.28346335887908936
1772797634917219300,7.22921923828125,-0.3940317928791046,-0.4786089062690735,0.5967031121253967
1772797634927245300,7.239245361328125,-0.03332611918449402,-0.03912278264760971,1.4469281435012817
1772797634937271300,7.249271240234375,0.19429931044578552,0.24622561037540436,1.9016560316085815
1772797634947298600,7.259298583984375,0.32882454991340637,0.42984381318092346,1.9760380983352661
1772797634957324500,7.269324462890625,0.3613564074039459,0.45776280760765076,1.7633998394012451
1772797634967350500,7.2793505859375,0.36398375034332275,0.43892407417297363,1.419321060180664
1772797634977377500,7.28937744140625,0.34975555539131165,0.5585801601409912,1.1139662265777588
1772797634987403500,7.299403564453125,0.3264942169189453,0.7344149947166443,0.8186376690864563
1772797634997429200,7.30942919921875,0.29324063658714294,0.7740737199783325,0.5567386746406555
1772797635007456500,7.31945654296875,0.24729089438915253,0.5553579926490784,0.39304429292678833
1772797635017482500,7.329482421875,0.2017045021057129,0.27913758158683777,0.312893807888031
1772797635027508500,7.339508544921875,0.16372066736221313,0.1572749763727188,0.2138667106628418
1772797635037535500,7.349535400390625,0.10877059400081635,0.21022766828536987,0.10238173604011536
1772797635047561500,7.3595615234375,0.0837615430355072,0.35832151770591736,0.040805257856845856
1772797635057587500,7.36958740234375,0.07144895195960999,0.4706651270389557,0.146993488073349
1772797635067614500,7.379614501953125,0.09416457265615463,0.49384981393814087,0.37654197216033936
1772797635077640400,7.389640380859375,0.13582174479961395,0.39756909012794495,0.6768631935119629
1772797635087666400,7.39966650390625,0.1686103790998459,0.2685461938381195,0.9144911766052246
1772797635097693400,7.409693359375,0.1823405772447586,0.1057543233036995,0.9903715252876282
1772797635107719400,7.419719482421875,0.17912058532238007,-0.041682008653879166,0.9076052904129028
1772797635117745400,7.429745361328125,0.14317163825035095,-0.13611184060573578,0.7009860873222351
1772797635127772700,7.439772705078125,0.08501284569501877,-0.17143362760543823,0.5323083996772766
1772797635137798700,7.449798583984375,0.0485784076154232,-0.23455427587032318,0.4210226237773895
1772797635147824600,7.45982470703125,0.008836621418595314,-0.2857913374900818,0.3113035559654236
1772797635157851400,7.469851318359375,-0.005364418961107731,-0.3389487862586975,0.18984848260879517
1772797635167877400,7.47987744140625,0.012542299926280975,-0.4141067862510681,0.08256976306438446
1772797635177903400,7.4899033203125,0.03934914991259575,-0.5278189182281494,-0.010180414654314518
1772797635187930600,7.4999306640625,0.05238162353634834,-0.6058257222175598,-0.11810614913702011
1772797635197956600,7.50995654296875,0.04737754538655281,-0.6663556694984436,-0.2210618257522583
1772797635207982600,7.519982666015625,0.0441322959959507,-0.7137414216995239,-0.3086331784725189
1772797635218008600,7.530008544921875,0.054161228239536285,-0.7125802636146545,-0.3495001792907715
1772797635228035300,7.540035400390625,0.060569096356630325,-0.6616002321243286,-0.3421037793159485
1772797635238061300,7.550061279296875,0.04926664009690285,-0.5386626124382019,-0.29388806223869324
1772797635248087300,7.56008740234375,0.0359090231359005,-0.40694987773895264,-0.2207334339618683
1772797635258114600,7.570114501953125,0.017559845000505447,-0.29352107644081116,-0.04088856279850006
1772797635268140500,7.580140625,-0.011170489713549614,-0.2755931317806244,0.1294296234846115
1772797635278166500,7.59016650390625,-0.031933825463056564,-0.30128785967826843,0.24032552540302277
1772797635288193500,7.600193603515625,-0.030597452074289322,-0.3624872863292694,0.3020740747451782
1772797635298219500,7.610219482421875,-0.05749457702040672,-0.40881749987602234,0.3354203402996063
1772797635308245500,7.62024560546875,-0.10498388111591339,-0.43793874979019165,0.35217079520225525
1772797635318272300,7.630272216796875,-0.1478027105331421,-0.4287148714065552,0.356224924325943
1772797635328298500,7.640298583984375,-0.18510781228542328,-0.3994119167327881,0.4022161364555359
1772797635338324500,7.650324462890625,-0.21399565041065216,-0.34395211935043335,0.5613893270492554
1772797635348351500,7.6603515625,-0.24098774790763855,-0.31895995140075684,0.8311145305633545
