time,seconds_elapsed,z,y,x
1772790124677895400,0.0688955078125,1.4924373626708984,0.5405005216598511,0.044989313930273056
1772790124687961300,0.07896142578125,1.5117939710617065,0.4705560505390167,0.0809055045247078
1772790124698027300,0.08902734375,1.5272011756896973,0.4096066951751709,0.09625490009784698
1772790124708093400,0.099093505859375,1.5357768535614014,0.37360021471977234,0.09019061177968979
1772790124718159400,0.109159423828125,1.5342196226119995,0.3344554901123047,0.07654643803834915
1772790124728225500,0.1192255859375,1.521167278289795,0.2828202545642853,0.07406517118215561
1772790124738291200,0.129291259765625,1.4913365840911865,0.23031815886497498,0.09479361772537231
1772790124748357400,0.139357421875,1.4565091133117676,0.20929010212421417,0.12153787910938263
1772790124758423300,0.14942333984375,1.4125661849975586,0.19873440265655518,0.1517045795917511
1772790124768489500,0.159489501953125,1.3683233261108398,0.17495982348918915,0.17526262998580933
1772790124778555400,0.169555419921875,1.314492106437683,0.11943931132555008,0.1923484057188034
1772790124788621300,0.179621337890625,1.2544423341751099,0.06842140108346939,0.21319003403186798
1772790124798687500,0.1896875,1.1919670104980469,0.04996383190155029,0.23602983355522156
1772790124808753400,0.19975341796875,1.1299318075180054,0.06348469853401184,0.26922082901000977
1772790124818819300,0.2098193359375,1.0655179023742676,0.09888742864131927,0.28520137071609497
1772790124828885200,0.21988525390625,0.9906157851219177,0.11728694289922714,0.2836839258670807
1772790124838951400,0.229951416015625,0.9162456393241882,0.15833024680614471,0.27530479431152344
1772790124849017300,0.240017333984375,0.8531138300895691,0.2235420048236847,0.2598198652267456
1772790124859083500,0.25008349609375,0.7931333184242249,0.2735031843185425,0.2351376861333847
1772790124869149400,0.2601494140625,0.7341738343238831,0.29305610060691833,0.2094203382730484
1772790124879215400,0.27021533203125,0.6742199659347534,0.28625306487083435,0.1828254759311676
1772790124889282000,0.280281982421875,0.627478301525116,0.29722556471824646,0.15317943692207336
1772790124899348000,0.290347900390625,0.5952546000480652,0.3245045840740204,0.1295342892408371
1772790124909414100,0.3004140625,0.5659084320068359,0.35620710253715515,0.0919264629483223
1772790124919480000,0.31047998046875,0.5254395604133606,0.3489585220813751,0.047570981085300446
1772790124929546200,0.320546142578125,0.4895814061164856,0.29599809646606445,-0.007141266483813524
1772790124939612200,0.330612060546875,0.4635452926158905,0.2336748093366623,-0.05344538018107414
1772790124949678000,0.340677978515625,0.4427529275417328,0.20876014232635498,-0.08388771116733551
1772790124959744000,0.350743896484375,0.43099960684776306,0.22058138251304626,-0.10961011797189713
1772790124969810000,0.360809814453125,0.4337306618690491,0.2473008632659912,-0.14617079496383667
1772790124979876000,0.3708759765625,0.4437257647514343,0.2624063193798065,-0.18322335183620453
1772790124989942000,0.38094189453125,0.4607122242450714,0.27034226059913635,-0.21625614166259766
1772790125000008200,0.39100830078125,0.4738522469997406,0.2640971541404724,-0.23535925149917603
1772790125010074000,0.40107421875,0.4876612722873688,0.24396313726902008,-0.2562352418899536
1772790125020140300,0.411140380859375,0.4939673840999603,0.22221362590789795,-0.2764076292514801
1772790125030206200,0.421206298828125,0.4870346486568451,0.20850101113319397,-0.30543261766433716
1772790125040272000,0.43127197265625,0.4808233380317688,0.21665747463703156,-0.3348917067050934
1772790125050338000,0.441338134765625,0.48235172033309937,0.20542505383491516,-0.35799703001976013
1772790125060404000,0.451404052734375,0.4736618399620056,0.176539346575737,-0.3556979298591614
1772790125070470100,0.46147021484375,0.46612828969955444,0.13031433522701263,-0.3246009945869446
1772790125080536000,0.4715361328125,0.4685400426387787,0.07228564471006393,-0.26554059982299805
1772790125090601200,0.481601318359375,0.48080524802207947,0.016439693048596382,-0.1878143697977066
1772790125100668200,0.491668212890625,0.48783811926841736,-0.04945197328925133,-0.1028323695063591
1772790125110734000,0.501734130859375,0.48871323466300964,-0.08290579915046692,-0.02111860178411007
1772790125120799000,0.511799072265625,0.473967045545578,-0.06738702952861786,0.041908834129571915
1772790125130865200,0.521865234375,0.42548391222953796,-0.05416283756494522,0.09239384531974792
1772790125140931000,0.53193115234375,0.350056529045105,-0.0340554378926754,0.11374600976705551
1772790125150997200,0.541997314453125,0.26645326614379883,-0.012791961431503296,0.0969017818570137
1772790125161063200,0.552063232421875,0.18329951167106628,0.0029230855870991945,0.043848682194948196
1772790125171129000,0.562129150390625,0.10443426668643951,0.00063383235828951,-0.028546955436468124
1772790125181195000,0.572195068359375,0.03713458403944969,-0.026545323431491852,-0.09942219406366348
1772790125191261000,0.582260986328125,-0.03117522969841957,-0.049373406916856766,-0.14420564472675323
1772790125201327000,0.5923271484375,-0.10463479906320572,-0.04897073656320572,-0.1635308712720871
1772790125211393000,0.60239306640625,-0.1718500554561615,-0.020420320332050323,-0.17478325963020325
1772790125221459200,0.612459228515625,-0.21607717871665955,0.021348431706428528,-0.18844448029994965
1772790125231525000,0.622525146484375,-0.26369714736938477,0.049311090260744095,-0.2272411435842514
1772790125241591000,0.632591064453125,-0.31011152267456055,0.02414075657725334,-0.2784222960472107
1772790125251657000,0.642656982421875,-0.3540547490119934,-0.03564108535647392,-0.33117660880088806
1772790125261723100,0.65272314453125,-0.39903339743614197,-0.09661974757909775,-0.3650043308734894
1772790125271789000,0.6627890625,-0.42150622606277466,-0.11764939874410629,-0.37554460763931274
1772790125281855200,0.672855224609375,-0.4296155571937561,-0.10898108035326004,-0.3658996820449829
1772790125291921200,0.682921142578125,-0.42714253067970276,-0.07398448139429092,-0.3551948368549347
1772790125301987000,0.692987060546875,-0.4177253246307373,-0.026734674349427223,-0.3613318204879761
1772790125312053200,0.70305322265625,-0.39857107400894165,-0.008674981072545052,-0.3948107063770294
1772790125322119000,0.713118896484375,-0.3615818917751312,-0.022583872079849243,-0.43035030364990234
1772790125332185000,0.72318505859375,-0.32968470454216003,-0.012713930569589138,-0.44878923892974854
1772790125342251000,0.7332509765625,-0.2952529489994049,0.013360812328755856,-0.4393685758113861
1772790125352317200,0.743317138671875,-0.26439863443374634,-0.006189985200762749,-0.41071590781211853
1772790125362383000,0.753383056640625,-0.22700625658035278,-0.04062891751527786,-0.3707037568092346
1772790125372449300,0.76344921875,-0.18345291912555695,-0.06004655733704567,-0.3342299163341522
1772790125382515200,0.77351513671875,-0.13705745339393616,-0.11262508481740952,-0.3198853135108948
1772790125392580900,0.783580810546875,-0.09343354403972626,-0.16705690324306488,-0.3294822871685028
1772790125402647000,0.79364697265625,-0.048589374870061874,-0.23368892073631287,-0.3566470742225647
1772790125412713000,0.803712890625,-0.014054033905267715,-0.2694178819656372,-0.37609800696372986
1772790125422779100,0.813779052734375,-0.006205431651324034,-0.256094366312027,-0.3961627781391144
1772790125432845000,0.823844970703125,0.01913747563958168,-0.2403191328048706,-0.4248383641242981
1772790125442911200,0.8339111328125,0.055331166833639145,-0.1914551854133606,-0.46314847469329834
1772790125452977200,0.84397705078125,0.09466099739074707,-0.1536436229944229,-0.5005802512168884
1772790125463043000,0.85404296875,0.13609552383422852,-0.1697365641593933,-0.5278465151786804
1772790125473109000,0.86410888671875,0.17542880773544312,-0.19152362644672394,-0.5251790881156921
1772790125483175000,0.8741748046875,0.21793046593666077,-0.1867656260728836,-0.47401151061058044
1772790125493241000,0.884240966796875,0.2676117420196533,-0.15138685703277588,-0.38866758346557617
1772790125503307000,0.89430712890625,0.30982205271720886,-0.09128410369157791,-0.29221323132514954
1772790125513373200,0.904373291015625,0.3448394238948822,-0.036971598863601685,-0.20428815484046936
1772790125523439000,0.914439208984375,0.3695034682750702,-0.021703964099287987,-0.1443561166524887
1772790125533505300,0.92450537109375,0.3810999393463135,-0.02713654562830925,-0.09344020485877991
1772790125543571000,0.934571044921875,0.3877192437648773,-0.010471283458173275,-0.05378706380724907
1772790125553637000,0.94463720703125,0.3932439684867859,0.02105521783232689,-0.02503264881670475
1772790125563703000,0.954703125,0.39101701974868774,0.042221490293741226,-0.009832124225795269
1772790125573769200,0.964769287109375,0.37870684266090393,0.05738739296793938,-0.008258196525275707
1772790125583835100,0.974835205078125,0.3555509150028229,0.07834487408399582,-0.01501223910599947
1772790125593901000,0.984901123046875,0.3405804932117462,0.0991675928235054,-0.02106080949306488
1772790125603967200,0.99496728515625,0.31745094060897827,0.11720838397741318,-0.0384477898478508
1772790125614033000,1.005032958984375,0.29875075817108154,0.12081696838140488,-0.04693235456943512
1772790125624099000,1.01509912109375,0.2849888503551483,0.1390702724456787,-0.047568850219249725
1772790125634165000,1.0251650390625,0.26534298062324524,0.1746532917022705,-0.03420004993677139
1772790125644231200,1.035231201171875,0.24136121571063995,0.2047741860151291,-0.026859045028686523
1772790125654297000,1.045297119140625,0.22710639238357544,0.21898747980594635,-0.024894164875149727
1772790125664363300,1.05536328125,0.21154899895191193,0.22210736572742462,-0.03885125741362572
1772790125674429200,1.06542919921875,0.19955012202262878,0.23194348812103271,-0.05734371766448021
1772790125684494800,1.075494873046875,0.1858188658952713,0.22517985105514526,-0.07138177007436752
1772790125694561000,1.08556103515625,0.17112194001674652,0.20557233691215515,-0.06477047502994537
1772790125704627000,1.095626953125,0.16501425206661224,0.19691786170005798,-0.037220072001218796
1772790125714692000,1.105692138671875,0.1679525226354599,0.22292523086071014,0.0037763623986393213
1772790125724758300,1.11575830078125,0.17396220564842224,0.25092649459838867,0.02528351917862892
1772790125734824200,1.12582421875,0.18780185282230377,0.2599450349807739,0.01410676445811987
1772790125744889900,1.135889892578125,0.19998954236507416,0.21966710686683655,-0.033243175595998764
1772790125754956000,1.1459560546875,0.20411238074302673,0.17842885851860046,-0.08610772341489792
1772790125765022000,1.15602197265625,0.19872267544269562,0.1690169870853424,-0.1351410448551178
1772790125775088000,1.166088134765625,0.19017393887043,0.198915496468544,-0.17098213732242584
1772790125785154000,1.176154052734375,0.17244340479373932,0.2511283755302429,-0.2043483406305313
1772790125795220200,1.18622021484375,0.12418559938669205,0.2541680932044983,-0.24490082263946533
1772790125805286100,1.1962861328125,0.04699280858039856,0.15474137663841248,-0.30795755982398987
1772790125815352300,1.206352294921875,-0.06335633248090744,-0.005262140184640884,-0.37911561131477356
1772790125825418000,1.21641796875,-0.17380428314208984,-0.22031958401203156,-0.4207991659641266
1772790125835484000,1.22648388671875,-0.264873206615448,-0.4315226376056671,-0.3979897201061249
1772790125845550000,1.236550048828125,-0.32597675919532776,-0.5701521635055542,-0.28575053811073303
1772790125855616000,1.246615966796875,-0.3714323937892914,-0.6138988137245178,-0.10614241659641266
1772790125865682200,1.25668212890625,-0.3713008463382721,-0.5531127452850342,0.11027457565069199
1772790125875748000,1.266748046875,-0.3130332827568054,-0.37285399436950684,0.33274519443511963
1772790125885814300,1.276814208984375,-0.22158139944076538,-0.09238425642251968,0.5199020504951477
1772790125895883500,1.286883544921875,-0.10438552498817444,0.2556072771549225,0.6399842500686646
1772790125905949700,1.29694970703125,-0.0028991170693188906,0.5497382283210754,0.653469979763031
1772790125916015600,1.307015625,0.06853032857179642,0.7276970148086548,0.5744709968566895
1772790125926081500,1.31708154296875,0.10895337909460068,0.8194019198417664,0.43689078092575073
1772790125936147700,1.327147705078125,0.1230955645442009,0.8702802658081055,0.2923589050769806
1772790125946213400,1.33721337890625,0.1165846660733223,0.8800719380378723,0.176202192902565
1772790125956279600,1.347279541015625,0.11312815546989441,0.8673880696296692,0.09913883358240128
1772790125966345500,1.357345458984375,0.09958065301179886,0.8148423433303833,0.05925427004694939
1772790125976411600,1.36741162109375,0.07908762991428375,0.6952639818191528,0.037644047290086746
1772790125986477600,1.3774775390625,0.05843454599380493,0.5446521043777466,0.0401998832821846
1772790125996543700,1.387543701171875,0.04114503785967827,0.392345666885376,0.061408232897520065
1772790126006609700,1.397609619140625,0.024036627262830734,0.24380919337272644,0.09365671873092651
1772790126016675600,1.407675537109375,0.011119229719042778,0.10341666638851166,0.11641449481248856
1772790126026741500,1.417741455078125,0.01452701073139906,-0.02906467393040657,0.12793879210948944
1772790126036807400,1.427807373046875,0.025714950636029243,-0.1662515550851822,0.1200379878282547
1772790126046873600,1.43787353515625,0.02901061251759529,-0.3006879389286041,0.10232024639844894
1772790126056939500,1.447939453125,0.017361413687467575,-0.42002683877944946,0.06634680181741714
1772790126067005700,1.458005615234375,-0.0035891421139240265,-0.5043150782585144,0.018209097906947136
1772790126077071600,1.468071533203125,-0.03232545033097267,-0.54812091588974,-0.02756824530661106
1772790126087137800,1.4781376953125,-0.06934604793787003,-0.5533159375190735,-0.08002132922410965
1772790126097203500,1.488203369140625,-0.11821532249450684,-0.5468683838844299,-0.13763882219791412
1772790126107269600,1.49826953125,-0.15117141604423523,-0.5538075566291809,-0.1766834259033203
1772790126117335600,1.50833544921875,-0.16574981808662415,-0.550433874130249,-0.19037286937236786
1772790126127401500,1.5184013671875,-0.16213484108448029,-0.4901665151119232,-0.16333167254924774
1772790126137467600,1.528467529296875,-0.134828120470047,-0.34351155161857605,-0.10034284740686417
1772790126147533600,1.538533447265625,-0.07962451875209808,-0.13476713001728058,-0.03292679041624069
1772790126157599700,1.548599853515625,-0.006310360040515661,0.09193684905767441,0.02009567990899086
1772790126167665400,1.55866552734375,0.07978803664445877,0.2668308913707733,0.041486188769340515
1772790126177731600,1.568731689453125,0.14560194313526154,0.3813619911670685,0.02454555593430996
1772790126187797500,1.578797607421875,0.1941167414188385,0.43464094400405884,-0.010631338693201542
1772790126197863700,1.58886376953125,0.21697571873664856,0.46291252970695496,-0.03900279104709625
1772790126207928600,1.598928466796875,0.2109236866235733,0.4768221974372864,-0.06277550011873245
1772790126217994800,1.608994873046875,0.17845416069030762,0.45337626338005066,-0.08478253334760666
1772790126228060400,1.619060302734375,0.1365027129650116,0.4093092083930969,-0.11461339890956879
1772790126238126600,1.629126708984375,0.07866125553846359,0.3392249345779419,-0.15011359751224518
1772790126248192500,1.639192626953125,0.023064306005835533,0.22968405485153198,-0.18296955525875092
1772790126258258700,1.6492587890625,-0.04073970764875412,0.1359967142343521,-0.20622506737709045
1772790126268324600,1.65932470703125,-0.1002136841416359,0.044431913644075394,-0.20801818370819092
1772790126278390500,1.669390625,-0.15186142921447754,-0.06973779946565628,-0.1837621033191681
1772790126288456700,1.679456787109375,-0.19353537261486053,-0.17131130397319794,-0.1370912790298462
1772790126298522400,1.6895224609375,-0.21757227182388306,-0.2297346591949463,-0.08784011006355286
1772790126308588500,1.699588623046875,-0.24202780425548553,-0.2683020234107971,-0.04393922910094261
1772790126318654500,1.709654541015625,-0.2751133143901825,-0.2828143835067749,-0.021202756091952324
1772790126328720600,1.719720703125,-0.3181212544441223,-0.2657802700996399,-0.01089525781571865
1772790126338786600,1.72978662109375,-0.36521950364112854,-0.22696763277053833,-0.027528030797839165
1772790126348852700,1.739852783203125,-0.4225914776325226,-0.17049238085746765,-0.06286418437957764
1772790126358918700,1.749918701171875,-0.4712247848510742,-0.09959343820810318,-0.11191374808549881
1772790126368984600,1.759984619140625,-0.5092747211456299,-0.030950991436839104,-0.1537565439939499
1772790126379050500,1.770050537109375,-0.5387393832206726,0.020556939765810966,-0.17461921274662018
1772790126389116400,1.780116455078125,-0.5572108030319214,0.0583525225520134,-0.16746142506599426
1772790126399182600,1.7901826171875,-0.5567399263381958,0.09278879314661026,-0.13583825528621674
1772790126409248500,1.80024853515625,-0.5515406727790833,0.12348917871713638,-0.07880453765392303
1772790126419314700,1.810314697265625,-0.542896568775177,0.15877340734004974,-0.007446464616805315
1772790126429380600,1.820380615234375,-0.5408172011375427,0.17387992143630981,0.06428098678588867
1772790126439446800,1.83044677734375,-0.5366666316986084,0.16546405851840973,0.11345678567886353
1772790126449512400,1.840512451171875,-0.5355720520019531,0.11663740128278732,0.1434812694787979
1772790126459578600,1.85057861328125,-0.530948281288147,0.06378483772277832,0.15581250190734863
1772790126469644500,1.86064453125,-0.5268454551696777,0.026617761701345444,0.17154432833194733
1772790126479710500,1.87071044921875,-0.5303171277046204,0.0015150723047554493,0.18849001824855804
1772790126489776600,1.880776611328125,-0.5213316082954407,-0.011842544190585613,0.20021910965442657
1772790126499842600,1.890842529296875,-0.511150062084198,-0.02075294964015484,0.19737938046455383
1772790126509908700,1.90090869140625,-0.5055763721466064,-0.0462641678750515,0.17373929917812347
1772790126519974400,1.910974365234375,-0.5037561058998108,-0.11172892898321152,0.13246749341487885
1772790126530040600,1.92104052734375,-0.5110600590705872,-0.1901174783706665,0.08227330446243286
1772790126540106500,1.9311064453125,-0.5182346105575562,-0.255903959274292,0.037942588329315186
1772790126550172700,1.941172607421875,-0.5274797677993774,-0.23373658955097198,0.010874219238758087
1772790126560238600,1.951238525390625,-0.5357555747032166,-0.13482706248760223,-0.02347469888627529
1772790126570304500,1.961304443359375,-0.5438750386238098,-0.06847146898508072,-0.08992695808410645
1772790126580370700,1.97137060546875,-0.5672125816345215,-0.04048644006252289,-0.19845104217529297
1772790126590436600,1.9814365234375,-0.5998903512954712,-0.0850544422864914,-0.33643847703933716
1772790126600502500,1.99150244140625,-0.6427930593490601,-0.15880508720874786,-0.46605610847473145
1772790126610568400,2.001568359375,-0.6801705360412598,-0.25771382451057434,-0.5489369034767151
1772790126620634600,2.011634521484375,-0.7089028358459473,-0.3784836530685425,-0.5601165890693665
1772790126630700500,2.021700439453125,-0.712945282459259,-0.4929378032684326,-0.4706958830356598
1772790126640765700,2.031765625,-0.6854891180992126,-0.5512282848358154,-0.2986205220222473
1772790126650831600,2.04183154296875,-0.6314765214920044,-0.5244925022125244,-0.07529502362012863
1772790126660897500,2.0518974609375,-0.5385305881500244,-0.43189388513565063,0.16361476480960846
1772790126670963500,2.06196337890625,-0.4325072169303894,-0.2710842192173004,0.3704718053340912
1772790126681029600,2.072029541015625,-0.33242589235305786,-0.09710391610860825,0.5232573747634888
1772790126691095600,2.082095458984375,-0.24513332545757294,0.04674327000975609,0.5991641283035278
1772790126701161700,2.09216162109375,-0.17190997302532196,0.146017387509346,0.6054792404174805
1772790126711227600,2.1022275390625,-0.10735921561717987,0.2360796481370926,0.5726997256278992
1772790126721293600,2.11229345703125,-0.06328416615724564,0.31569698452949524,0.5329651236534119
1772790126731359500,2.122359375,-0.04368169978260994,0.3415975570678711,0.5136950016021729
1772790126741425400,2.13242529296875,-0.040763940662145615,0.2991486191749573,0.531696617603302
1772790126751491600,2.14249169921875,-0.061337925493717194,0.2374541014432907,0.5854852795600891
1772790126761557500,2.1525576171875,-0.09732761979103088,0.1642264872789383,0.6606748700141907
1772790126771623700,2.162623779296875,-0.15204119682312012,0.06364741921424866,0.7451673746109009
1772790126781689600,2.172689697265625,-0.22152812778949738,-0.04104064404964447,0.8116194009780884
1772790126791755800,2.182755859375,-0.2995685935020447,-0.12227051705121994,0.8539785742759705
1772790126801821400,2.192821533203125,-0.3704896569252014,-0.19258728623390198,0.8593519926071167
1772790126811887600,2.2028876953125,-0.4372292757034302,-0.25587198138237,0.822200357913971
1772790126821953500,2.21295361328125,-0.511657178401947,-0.3104603886604309,0.7473490238189697
1772790126832019500,2.22301953125,-0.6028424501419067,-0.33075955510139465,0.6305012702941895
1772790126842085600,2.233085693359375,-0.6974195837974548,-0.32407766580581665,0.48475149273872375
1772790126852151600,2.243151611328125,-0.7848942875862122,-0.29891666769981384,0.31141167879104614
1772790126862217700,2.2532177734375,-0.8486911058425903,-0.2619889974594116,0.13082432746887207
1772790126872283600,2.26328369140625,-0.8875186443328857,-0.18305504322052002,-0.05257106572389603
1772790126882349600,2.273349609375,-0.884361207485199,-0.09076132625341415,-0.2113300859928131
1772790126892411600,2.28341162109375,-0.8472817540168762,-0.010391654446721077,-0.32671844959259033
1772790126902477800,2.293477783203125,-0.7960622310638428,0.0615357980132103,-0.4009721875190735
1772790126912543500,2.30354345703125,-0.7437289953231812,0.11451006680727005,-0.4348204433917999
1772790126922609700,2.313609619140625,-0.6993498206138611,0.12351368367671967,-0.43128347396850586
1772790126932675600,2.323675537109375,-0.6630906462669373,0.0978754311800003,-0.40881866216659546
1772790126942741800,2.33374169921875,-0.644208550453186,0.05877649784088135,-0.37447240948677063
1772790126952807700,2.3438076171875,-0.6326016783714294,0.014249509200453758,-0.34194135665893555
1772790126962873600,2.35387353515625,-0.6264540553092957,-0.03663630783557892,-0.3139563202857971
1772790126972939800,2.363939697265625,-0.6281542181968689,-0.07550061494112015,-0.29509955644607544
1772790126983005400,2.37400537109375,-0.6379138827323914,-0.1055152416229248,-0.2881058156490326
1772790126993070600,2.384070556640625,-0.6467654705047607,-0.14361229538917542,-0.3075154721736908
1772790127003136500,2.394136474609375,-0.65086430311203,-0.20700404047966003,-0.347698837518692
1772790127013202700,2.40420263671875,-0.6459774374961853,-0.2540453374385834,-0.39892423152923584
1772790127023268600,2.4142685546875,-0.6371695399284363,-0.3072952330112457,-0.4453122317790985
1772790127033334800,2.424334716796875,-0.6234414577484131,-0.3727128505706787,-0.4777250289916992
1772790127043400400,2.434400390625,-0.6185018420219421,-0.42213499546051025,-0.4896993935108185
1772790127053466600,2.444466552734375,-0.6192749738693237,-0.458618700504303,-0.49314579367637634
1772790127063532500,2.454532470703125,-0.6185428500175476,-0.47923049330711365,-0.48724982142448425
1772790127073598700,2.4645986328125,-0.6027274131774902,-0.501728355884552,-0.4682590961456299
1772790127083664600,2.47466455078125,-0.58384770154953,-0.4987354874610901,-0.42064976692199707
1772790127093730800,2.484730712890625,-0.5546658635139465,-0.46145790815353394,-0.34724292159080505
1772790127103796700,2.494796630859375,-0.524069607257843,-0.3930516839027405,-0.2606792747974396
1772790127113862400,2.5048623046875,-0.4938882887363434,-0.2968069016933441,-0.17811061441898346
1772790127123928600,2.514928466796875,-0.4605971574783325,-0.18235036730766296,-0.11391405016183853
1772790127133994500,2.524994384765625,-0.42479202151298523,-0.09729592502117157,-0.07925593852996826
1772790127144060700,2.535060791015625,-0.3980933129787445,-0.0592726431787014,-0.08105383813381195
1772790127154126600,2.545126708984375,-0.3826187551021576,-0.060147758573293686,-0.10235673189163208
1772790127164192800,2.55519287109375,-0.3785638213157654,-0.07269258052110672,-0.12217330932617188
1772790127174258700,2.5652587890625,-0.3806176483631134,-0.07633738219738007,-0.12162017077207565
1772790127184324900,2.575324951171875,-0.388714998960495,-0.07029413431882858,-0.10835736244916916
1772790127194390500,2.585390625,-0.4035016596317291,-0.05438627675175667,-0.09837770462036133
1772790127204456400,2.59545654296875,-0.3987226188182831,-0.06325247138738632,-0.09057490527629852
1772790127214522600,2.605522705078125,-0.40026459097862244,-0.07474134862422943,-0.08219713717699051
1772790127224588500,2.615588623046875,-0.4147774875164032,-0.09560695290565491,-0.07308592647314072
1772790127234654700,2.62565478515625,-0.42330387234687805,-0.1374497413635254,-0.06822273135185242
1772790127244720600,2.635720703125,-0.41374391317367554,-0.15181562304496765,-0.05847476050257683
1772790127254786800,2.645786865234375,-0.39733830094337463,-0.1371149718761444,-0.03551671653985977
1772790127264852500,2.6558525390625,-0.38501933217048645,-0.11859056353569031,-0.0016759273130446672
1772790127274918700,2.665918701171875,-0.3760007917881012,-0.13302436470985413,0.03622777760028839
1772790127284984600,2.675984619140625,-0.36863023042678833,-0.15454643964767456,0.08500809967517853
1772790127295050500,2.686050537109375,-0.3550851345062256,-0.1596921980381012,0.1343892365694046
1772790127305115600,2.69611572265625,-0.3426913022994995,-0.1348198652267456,0.18782609701156616
1772790127315181800,2.706181884765625,-0.33263707160949707,-0.10719835758209229,0.23030990362167358
1772790127325247500,2.71624755859375,-0.3385429084300995,-0.10841356217861176,0.25093236565589905
1772790127335313700,2.726313720703125,-0.3584337830543518,-0.11744966357946396,0.24998480081558228
1772790127345379600,2.736379638671875,-0.3751419186592102,-0.1259842962026596,0.24714267253875732
1772790127355445500,2.746445556640625,-0.3993583023548126,-0.10758531838655472,0.24830514192581177
1772790127365511700,2.75651171875,-0.42446738481521606,-0.09007316827774048,0.2527742087841034
1772790127375577600,2.76657763671875,-0.45446762442588806,-0.10213861614465714,0.26702529191970825
1772790127385643800,2.776643798828125,-0.49296894669532776,-0.12751880288124084,0.2870000898838043
1772790127395709400,2.78670947265625,-0.533639669418335,-0.15583167970180511,0.3166980445384979
1772790127405775600,2.796775634765625,-0.559924840927124,-0.1685434728860855,0.346871942281723
1772790127415841500,2.806841552734375,-0.5894036293029785,-0.17812979221343994,0.3851833641529083
1772790127425907700,2.81690771484375,-0.6183329820632935,-0.1985999047756195,0.4031847417354584
1772790127435973600,2.8269736328125,-0.6427968144416809,-0.23187556862831116,0.40284597873687744
1772790127446039600,2.83703955078125,-0.6600591540336609,-0.25782036781311035,0.4068828225135803
1772790127456105700,2.847105712890625,-0.6631801128387451,-0.24874909222126007,0.4301721453666687
1772790127466171600,2.857171630859375,-0.6572303175926208,-0.17968854308128357,0.48585885763168335
1772790127476237600,2.867237548828125,-0.642564058303833,-0.050287406891584396,0.5574417114257812
1772790127486303500,2.877303466796875,-0.6197943091392517,0.09676968306303024,0.6260710954666138
1772790127496369700,2.88736962890625,-0.5966351628303528,0.21801196038722992,0.6796685457229614
1772790127506435600,2.897435546875,-0.5832003355026245,0.29547637701034546,0.6984004378318787
1772790127516501800,2.907501708984375,-0.5799863934516907,0.3362978398799896,0.6821306347846985
1772790127526567700,2.917567626953125,-0.5826796889305115,0.32546597719192505,0.6501567363739014
1772790127536633900,2.9276337890625,-0.5818604826927185,0.2983531355857849,0.631885290145874
1772790127546699500,2.937699462890625,-0.5882347822189331,0.28205937147140503,0.6299606561660767
1772790127556765400,2.947765380859375,-0.5935874581336975,0.249334454536438,0.6318179368972778
1772790127566831600,2.95783154296875,-0.60042804479599,0.17591696977615356,0.6179708242416382
1772790127576897500,2.9678974609375,-0.6140801906585693,0.08378038555383682,0.5908436179161072
1772790127586962700,2.977962646484375,-0.6326754689216614,-0.022760972380638123,0.5594789981842041
1772790127597028600,2.988028564453125,-0.6600005626678467,-0.11084902286529541,0.5239148736000061
1772790127607094500,2.998094482421875,-0.6924991011619568,-0.18272987008094788,0.4784110486507416
1772790127617160400,3.008160400390625,-0.7367405891418457,-0.2528359889984131,0.41385123133659363
1772790127627226600,3.0182265625,-0.8034560084342957,-0.3443232774734497,0.33407917618751526
1772790127637292500,3.02829248046875,-0.8902257680892944,-0.4611383378505707,0.24187840521335602
1772790127647358700,3.038358642578125,-0.9877336621284485,-0.5745586156845093,0.14973357319831848
1772790127657424600,3.048424560546875,-1.1009323596954346,-0.6670281291007996,0.06709727644920349
1772790127667490800,3.05849072265625,-1.2168635129928589,-0.7460342645645142,-0.02286749891936779
1772790127677556500,3.068556396484375,-1.3155632019042969,-0.8121546506881714,-0.09878649562597275
1772790127687622700,3.07862255859375,-1.391750693321228,-0.829962968826294,-0.16225095093250275
1772790127697688600,3.0886884765625,-1.432549238204956,-0.8083604574203491,-0.1799764186143875
1772790127707754500,3.09875439453125,-1.436518907546997,-0.7417508363723755,-0.150201216340065
1772790127717820700,3.108820556640625,-1.399229884147644,-0.6167694330215454,-0.0737149640917778
1772790127727886600,3.118886474609375,-1.3303160667419434,-0.4135287404060364,0.036008335649967194
1772790127737952800,3.128952880859375,-1.2400256395339966,-0.17037279903888702,0.1385038197040558
1772790127748018700,3.139018798828125,-1.158037781715393,0.03358432650566101,0.20133018493652344
1772790127758084600,3.149084716796875,-1.1079347133636475,0.14519181847572327,0.19921642541885376
1772790127768150500,3.159150634765625,-1.0908437967300415,0.1659945696592331,0.1366659700870514
1772790127778216700,3.169216796875,-1.1179838180541992,0.1657615303993225,0.04060468450188637
1772790127788282600,3.17928271484375,-1.1824389696121216,0.1333703100681305,-0.05439320206642151
1772790127798348500,3.1893486328125,-1.2626030445098877,0.052130844444036484,-0.13257695734500885
1772790127808414700,3.199414794921875,-1.3357774019241333,-0.06502347439527512,-0.17073498666286469
1772790127818480600,3.209480712890625,-1.3872640132904053,-0.18084940314292908,-0.16083627939224243
1772790127828546600,3.219546630859375,-1.417453408241272,-0.27666327357292175,-0.11119389533996582
1772790127838612500,3.229612548828125,-1.435987114906311,-0.3604884147644043,-0.053108491003513336
1772790127848678700,3.2396787109375,-1.4365428686141968,-0.44834157824516296,-0.0009680590592324734
1772790127858743600,3.24974365234375,-1.4335579872131348,-0.5095668435096741,0.04532859846949577
1772790127868809700,3.259809814453125,-1.4359534978866577,-0.5176301002502441,0.06949412077665329
1772790127878875600,3.269875732421875,-1.4373115301132202,-0.4963783323764801,0.0701918676495552
1772790127888941600,3.279941650390625,-1.4428322315216064,-0.45296189188957214,0.05452955514192581
1772790127899013400,3.290013427734375,-1.4454346895217896,-0.37243083119392395,0.020913271233439445
1772790127909079300,3.300079345703125,-1.4311481714248657,-0.2903745770454407,-0.009367402642965317
1772790127919145200,3.310145263671875,-1.4154682159423828,-0.21536557376384735,-0.022310098633170128
1772790127929211100,3.320211181640625,-1.3967208862304688,-0.16911712288856506,-0.017763284966349602
1772790127939277000,3.330277099609375,-1.3841737508773804,-0.14674896001815796,-0.006944192573428154
1772790127949343200,3.34034326171875,-1.3680799007415771,-0.15075808763504028,0.010301639325916767
1772790127959409200,3.3504091796875,-1.3701287508010864,-0.19978182017803192,0.03569621220231056
1772790127969475300,3.360475341796875,-1.3881772756576538,-0.2455676794052124,0.0777302160859108
1772790127979541200,3.370541259765625,-1.4089720249176025,-0.30086901783943176,0.11585097014904022
1772790127989607200,3.380607177734375,-1.4171196222305298,-0.3382353186607361,0.1445702314376831
1772790127999673000,3.390673095703125,-1.4126948118209839,-0.3350064754486084,0.16570454835891724
1772790128009739300,3.4007392578125,-1.4085466861724854,-0.3214086592197418,0.15992681682109833
1772790128019805200,3.41080517578125,-1.3972399234771729,-0.3188498914241791,0.13558365404605865
1772790128029871000,3.42087109375,-1.3750816583633423,-0.33788031339645386,0.09870074689388275
1772790128039937300,3.430937255859375,-1.349402904510498,-0.35482147336006165,0.0683329850435257
1772790128050003200,3.441003173828125,-1.3233447074890137,-0.3484650254249573,0.05320170149207115
1772790128060069400,3.4510693359375,-1.2985517978668213,-0.3285467326641083,0.049615491181612015
1772790128070135000,3.461135009765625,-1.263984203338623,-0.3071040213108063,0.06386127322912216
1772790128080201200,3.471201171875,-1.2223432064056396,-0.3150207996368408,0.10113593935966492
1772790128090267100,3.48126708984375,-1.183807611465454,-0.3409149646759033,0.16796769201755524
1772790128100333300,3.491333251953125,-1.143776535987854,-0.35285234451293945,0.2562696039676666
1772790128110399200,3.501399169921875,-1.1007318496704102,-0.3485390841960907,0.3294830918312073
1772790128120464400,3.51146435546875,-1.0491440296173096,-0.3363085091114044,0.38218972086906433
1772790128130530000,3.521530029296875,-1.0112550258636475,-0.30788034200668335,0.4015119969844818
1772790128140596200,3.53159619140625,-0.9863395094871521,-0.2881271243095398,0.38409918546676636
1772790128150662100,3.541662109375,-0.9660505056381226,-0.297786146402359,0.34025585651397705
1772790128160728300,3.551728271484375,-0.9593217372894287,-0.3114233911037445,0.2962380647659302
1772790128170794200,3.561794189453125,-0.9632776379585266,-0.32108455896377563,0.2659192979335785
1772790128180860200,3.571860107421875,-0.9702550768852234,-0.3082510530948639,0.2536914050579071
1772790128190926300,3.58192626953125,-0.9746003150939941,-0.3041844069957733,0.2423146367073059
1772790128200992000,3.591991943359375,-0.9802981615066528,-0.30030497908592224,0.23070085048675537
1772790128211058200,3.60205810546875,-0.9878724217414856,-0.31113070249557495,0.1958256959915161
1772790128221124000,3.6121240234375,-1.0128145217895508,-0.3341052830219269,0.13005760312080383
1772790128231190300,3.622190185546875,-1.0436036586761475,-0.38294923305511475,0.010331466794013977
1772790128241256200,3.632256103515625,-1.0749988555908203,-0.4548708498477936,-0.14116059243679047
1772790128251322400,3.642322265625,-1.1001079082489014,-0.5369182825088501,-0.2775815427303314
1772790128261388300,3.65238818359375,-1.128096103668213,-0.5929983258247375,-0.3578907549381256
1772790128271454200,3.6624541015625,-1.1322267055511475,-0.6424385905265808,-0.3639097809791565
1772790128281520000,3.67252001953125,-1.0972540378570557,-0.626576840877533,-0.2876347005367279
1772790128291586000,3.6825859375,-1.0274055004119873,-0.5209092497825623,-0.1473335325717926
1772790128301652200,3.69265234375,-0.9337450265884399,-0.33081814646720886,0.027486750856041908
1772790128311718100,3.70271826171875,-0.8176908493041992,-0.07354479283094406,0.2096744030714035
1772790128321784300,3.712784423828125,-0.6942280530929565,0.15566283464431763,0.3580854535102844
1772790128331850200,3.722850341796875,-0.579439640045166,0.31293100118637085,0.46296578645706177
1772790128341916400,3.73291650390625,-0.4724964499473572,0.4073137044906616,0.527357280254364
1772790128351981000,3.74298095703125,-0.37970098853111267,0.4515434801578522,0.5514327883720398
1772790128362047200,3.753047119140625,-0.3112170100212097,0.4303279519081116,0.5580416917800903
1772790128372113200,3.763113037109375,-0.2707124650478363,0.3537042737007141,0.5610276460647583
1772790128382179300,3.773179443359375,-0.2752736508846283,0.25152915716171265,0.5725849270820618
1772790128392245200,3.783245361328125,-0.33122506737709045,0.11393295973539352,0.6047106385231018
1772790128402311400,3.7933115234375,-0.41304323077201843,-0.030723024159669876,0.6518440842628479
1772790128412377000,3.803377197265625,-0.5266403555870056,-0.1364680975675583,0.7081230878829956
1772790128422443300,3.813443359375,-0.6533439755439758,-0.19970671832561493,0.7405960559844971
1772790128432509200,3.82350927734375,-0.8092584609985352,-0.28070488572120667,0.7405548095703125
1772790128442575000,3.8335751953125,-0.9664124250411987,-0.42458775639533997,0.6936869025230408
1772790128452641300,3.843641357421875,-1.1210968494415283,-0.5552507042884827,0.6061594486236572
1772790128462707200,3.853707275390625,-1.257882833480835,-0.6351455450057983,0.4942619204521179
1772790128472773400,3.8637734375,-1.373077392578125,-0.6730905175209045,0.3706260025501251
1772790128482839000,3.873839111328125,-1.4562110900878906,-0.6576958298683167,0.24089090526103973
1772790128492905200,3.8839052734375,-1.5218535661697388,-0.6269347667694092,0.11782064288854599
1772790128502971100,3.89397119140625,-1.5675230026245117,-0.6009691953659058,-0.006450442597270012
1772790128513037300,3.904037353515625,-1.6084275245666504,-0.5902938842773438,-0.10779277235269547
1772790128523103200,3.914103271484375,-1.6319818496704102,-0.564794659614563,-0.1683884859085083
1772790128533169200,3.924169189453125,-1.6326197385787964,-0.49255111813545227,-0.18048828840255737
1772790128543235300,3.9342353515625,-1.6064014434814453,-0.39230626821517944,-0.15833450853824615
1772790128553301000,3.944301025390625,-1.5529861450195312,-0.2946241796016693,-0.11975516378879547
1772790128563367200,3.9543671875,-1.470643401145935,-0.23983415961265564,-0.08351406455039978
1772790128573433000,3.96443310546875,-1.3744374513626099,-0.23250381648540497,-0.03247591853141785
1772790128583498200,3.974498291015625,-1.282363772392273,-0.25068894028663635,0.00935994554311037
1772790128593564200,3.984564208984375,-1.1960461139678955,-0.28651273250579834,0.060808222740888596
1772790128603630300,3.99463037109375,-1.1206108331680298,-0.316425085067749,0.0862502008676529
1772790128613696000,4.004696044921875,-1.056195616722107,-0.3330237567424774,0.0899522602558136
1772790128623762200,4.01476220703125,-1.0166540145874023,-0.3154304027557373,0.06733110547065735
1772790128633828000,4.024828125,-0.9971104264259338,-0.2823651134967804,0.020660536363720894
1772790128643893200,4.034893310546875,-0.9767553210258484,-0.23824505507946014,-0.04430194944143295
1772790128653959200,4.044959228515625,-0.955855667591095,-0.192453071475029,-0.11618785560131073
1772790128664025300,4.055025390625,-0.9373823404312134,-0.18389074504375458,-0.1758570522069931
1772790128674091000,4.065091064453125,-0.909232497215271,-0.21167629957199097,-0.22508105635643005
1772790128684157200,4.0751572265625,-0.8745746612548828,-0.26134636998176575,-0.2652044892311096
1772790128694223000,4.08522314453125,-0.8311778903007507,-0.3345383107662201,-0.29562631249427795
1772790128704289300,4.095289306640625,-0.7956933975219727,-0.4064495265483856,-0.31106308102607727
1772790128714355200,4.105355224609375,-0.7646896839141846,-0.45023295283317566,-0.30291274189949036
1772790128724421400,4.11542138671875,-0.7358614802360535,-0.45965254306793213,-0.2850770056247711
1772790128734487300,4.1254873046875,-0.6988694071769714,-0.45325934886932373,-0.2694610357284546
1772790128744553200,4.13555322265625,-0.6526616811752319,-0.46628114581108093,-0.267112672328949
1772790128754619100,4.145619140625,-0.5856600403785706,-0.4867190420627594,-0.260873943567276
1772790128764685000,4.15568505859375,-0.5160604119300842,-0.5045230984687805,-0.2552453577518463
1772790128774751200,4.165751220703125,-0.4578804671764374,-0.5107026696205139,-0.23431609570980072
1772790128784817200,4.175817138671875,-0.4078617990016937,-0.4832153916358948,-0.19258622825145721
1772790128794883300,4.18588330078125,-0.35735175013542175,-0.4191994071006775,-0.15073411166667938
1772790128804949200,4.19594921875,-0.31671589612960815,-0.3634788691997528,-0.12089899182319641
1772790128815015400,4.206015380859375,-0.2846626341342926,-0.34685036540031433,-0.10909586399793625
1772790128825081000,4.2160810546875,-0.2596014738082886,-0.3482978045940399,-0.10788226127624512
1772790128835147300,4.226147216796875,-0.2503938674926758,-0.3727322816848755,-0.10105124861001968
1772790128845213200,4.236213134765625,-0.2389443963766098,-0.3703889846801758,-0.07607825845479965
1772790128855278300,4.2462783203125,-0.22126634418964386,-0.3381895124912262,-0.03778839111328125
1772790128865344300,4.25634423828125,-0.19753438234329224,-0.30445975065231323,0.013911820948123932
1772790128875410400,4.266410400390625,-0.1877581775188446,-0.29663434624671936,0.06441600620746613
1772790128885476000,4.27647607421875,-0.19231991469860077,-0.29714858531951904,0.11163891106843948
1772790128895540000,4.2865400390625,-0.2118869572877884,-0.30692026019096375,0.1539219170808792
1772790128905606100,4.296606201171875,-0.23057089745998383,-0.30989155173301697,0.19048498570919037
1772790128915672000,4.306672119140625,-0.2315424084663391,-0.2896144986152649,0.21981358528137207
1772790128925738000,4.316738037109375,-0.22050601243972778,-0.25101545453071594,0.24262969195842743
1772790128935804000,4.326803955078125,-0.1931454837322235,-0.22885528206825256,0.2612907290458679
1772790128945869800,4.336869873046875,-0.16246400773525238,-0.24579139053821564,0.27259984612464905
1772790128955936000,4.34693603515625,-0.13576342165470123,-0.28984299302101135,0.2837070822715759
1772790128966002000,4.357001953125,-0.1137409433722496,-0.31857985258102417,0.2995278537273407
1772790128976068000,4.367068115234375,-0.0864880234003067,-0.3238326609134674,0.3246228098869324
1772790128986134000,4.377134033203125,-0.04902693256735802,-0.29780852794647217,0.3580327033996582
1772790128996200000,4.387199951171875,-0.007904262281954288,-0.23195387423038483,0.4094540774822235
1772790129006265900,4.397265869140625,0.017596038058400154,-0.17391666769981384,0.4593715965747833
1772790129016332000,4.40733203125,0.062259379774332047,-0.16109035909175873,0.4944685697555542
1772790129026398000,4.41739794921875,0.09766903519630432,-0.13071221113204956,0.5151999592781067
1772790129036463900,4.4274638671875,0.13655517995357513,-0.12077169120311737,0.5212450623512268
1772790129046530000,4.437530029296875,0.14898042380809784,-0.1544143408536911,0.5204567909240723
1772790129056596000,4.447595947265625,0.16379079222679138,-0.18325477838516235,0.5280295014381409
1772790129066662100,4.457662109375,0.18388567864894867,-0.18193624913692474,0.5456055402755737
1772790129076727800,4.467727783203125,0.21317192912101746,-0.1565006673336029,0.5898720622062683
1772790129086793000,4.47779296875,0.23420371115207672,-0.11600623279809952,0.6488307118415833
1772790129096859000,4.48785888671875,0.2541257441043854,-0.07884714752435684,0.7030686736106873
1772790129106925000,4.497925048828125,0.28317177295684814,-0.06010488048195839,0.7431159615516663
1772790129116991000,4.507990966796875,0.32659009099006653,-0.06133366376161575,0.7657743692398071
1772790129127057200,4.51805712890625,0.3722689151763916,-0.05494074523448944,0.7736730575561523
1772790129137122800,4.528122802734375,0.4054822623729706,-0.03716627508401871,0.7640262842178345
1772790129147189000,4.53818896484375,0.4241592586040497,-0.004211789462715387,0.7326454520225525
1772790129157255000,4.5482548828125,0.41981858015060425,-0.008067780174314976,0.6732205152511597
1772790129167321000,4.558321044921875,0.39638835191726685,0.015479889698326588,0.5901066660881042
1772790129177387000,4.568386962890625,0.3523532450199127,0.07052823156118393,0.4905630648136139
1772790129187453000,4.578452880859375,0.31235310435295105,0.1483156979084015,0.37215757369995117
1772790129197519000,4.58851904296875,0.2914819121360779,0.24173806607723236,0.24512267112731934
1772790129207584800,4.598584716796875,0.30654048919677734,0.31218427419662476,0.10305048525333405
1772790129217651000,4.60865087890625,0.3406856656074524,0.35427337884902954,-0.03972504287958145
1772790129227716900,4.618716796875,0.39094486832618713,0.357487291097641,-0.17091715335845947
1772790129237783000,4.628782958984375,0.4268466532230377,0.2771349251270294,-0.2509864270687103
1772790129247849000,4.638848876953125,0.46834030747413635,0.1455385535955429,-0.2952130138874054
1772790129257915100,4.6489150390625,0.4824334979057312,0.016523050144314766,-0.2933863401412964
1772790129267981000,4.65898095703125,0.4672148525714874,-0.08790721744298935,-0.27726516127586365
1772790129278046700,4.669046630859375,0.41692957282066345,-0.16482463479042053,-0.2718466818332672
1772790129288111900,4.67911181640625,0.33652928471565247,-0.2354852259159088,-0.29097431898117065
1772790129298178000,4.689177978515625,0.24930089712142944,-0.3191087543964386,-0.325729638338089
1772790129308244000,4.699243896484375,0.1470581591129303,-0.41107648611068726,-0.3897440433502197
1772790129318310100,4.70931005859375,0.05983084440231323,-0.49924787878990173,-0.46089065074920654
1772790129328376000,4.7193759765625,-0.02268853411078453,-0.5631616115570068,-0.5221878290176392
1772790129338441700,4.729441650390625,-0.09121912717819214,-0.567780077457428,-0.5494441986083984
1772790129348508000,4.7395078125,-0.1291273534297943,-0.48861682415008545,-0.5345795154571533
1772790129358573800,4.74957373046875,-0.1238766685128212,-0.33014729619026184,-0.4888727366924286
1772790129368640000,4.759639892578125,-0.06913086771965027,-0.10763804614543915,-0.43090105056762695
1772790129378706000,4.769705810546875,0.02202966809272766,0.1550537645816803,-0.3601648509502411
1772790129388772000,4.779772216796875,0.10517142713069916,0.44673222303390503,-0.3050456643104553
1772790129398838000,4.789838134765625,0.1804850846529007,0.6943454742431641,-0.29228219389915466
1772790129408904200,4.799904296875,0.23034799098968506,0.8305786848068237,-0.32141023874282837
1772790129418969900,4.809969970703125,0.2611013650894165,0.8667848706245422,-0.3831484615802765
1772790129429035800,4.820035888671875,0.26953479647636414,0.838401198387146,-0.4417872726917267
1772790129439102000,4.83010205078125,0.25413721799850464,0.7720751762390137,-0.48108381032943726
1772790129449168000,4.84016796875,0.23411396145820618,0.6954749226570129,-0.48961710929870605
1772790129459234000,4.850234130859375,0.22296090424060822,0.5970516800880432,-0.4810795485973358
1772790129469300000,4.860300048828125,0.21403585374355316,0.4675394892692566,-0.45554861426353455
1772790129479366100,4.8703662109375,0.20390838384628296,0.33189326524734497,-0.4128988981246948
1772790129489431800,4.880431884765625,0.193573459982872,0.20179197192192078,-0.35654932260513306
1772790129499497000,4.8904970703125,0.1677863448858261,0.08324082940816879,-0.2924342453479767
1772790129509563000,4.90056298828125,0.14313265681266785,-0.04494909942150116,-0.23044146597385406
1772790129519629000,4.910629150390625,0.12066729366779327,-0.16121739149093628,-0.17082713544368744
1772790129529695000,4.920695068359375,0.09469854831695557,-0.2382945865392685,-0.11827284842729568
1772790129539761200,4.93076123046875,0.07510194182395935,-0.27949556708335876,-0.06928373128175735
1772790129549826800,4.940826904296875,0.04910283163189888,-0.2829459607601166,-0.02863856963813305
1772790129559893000,4.95089306640625,0.017074856907129288,-0.2598392963409424,-0.0025387913919985294
1772790129569959000,4.960958984375,-0.00009507485083304346,-0.20554304122924805,0.005327120888978243
1772790129580024800,4.97102490234375,-0.0028213527984917164,-0.12585513293743134,0.005769738461822271
1772790129590091000,4.981091064453125,-0.005323392804712057,-0.05649789795279503,-0.010759437456727028
1772790129600157000,4.991156982421875,0.004399808589369059,-0.019145464524626732,-0.037103161215782166
1772790129610223000,5.00122314453125,0.010022540576756,0.004306863993406296,-0.06506608426570892
1772790129620288800,5.011288818359375,0.02033589780330658,0.03207484632730484,-0.07547904551029205
1772790129630355000,5.02135498046875,0.020365726202726364,0.05788220837712288,-0.061460163444280624
1772790129640420900,5.0314208984375,0.009767409414052963,0.0825289636850357,-0.029764553532004356
1772790129650487000,5.041487060546875,-0.006636330857872963,0.09504581987857819,0.022904783487319946
1772790129660553000,5.051552978515625,-0.033006154000759125,0.08782120048999786,0.08437533676624298
1772790129670619100,5.061619140625,-0.05367308109998703,0.07152105122804642,0.1462823748588562
1772790129680685000,5.07168505859375,-0.06569325923919678,0.01697179302573204,0.19918793439865112
1772790129690751000,5.0817509765625,-0.06927148252725601,-0.0704728364944458,0.2285490185022354
1772790129700816000,5.09181591796875,-0.06805974245071411,-0.15162308514118195,0.2497704178094864
1772790129710882000,5.101882080078125,-0.0792868360877037,-0.20463889837265015,0.26982802152633667
1772790129720948000,5.111947998046875,-0.08996450901031494,-0.2239694446325302,0.2853347957134247
1772790129731014000,5.122013916015625,-0.10433120280504227,-0.21969081461429596,0.3161230683326721
1772790129741080000,5.132080078125,-0.10681406408548355,-0.22889789938926697,0.34706926345825195
1772790129751146000,5.14214599609375,-0.10529313236474991,-0.25482961535453796,0.3738614618778229
1772790129761212000,5.1522119140625,-0.09164922684431076,-0.28525224328041077,0.39768505096435547
1772790129771277800,5.16227783203125,-0.0778212919831276,-0.3009515702724457,0.4065757393836975
1772790129781344000,5.172343994140625,-0.06406287103891373,-0.27663320302963257,0.4101920425891876
1772790129791410000,5.182409912109375,-0.04976356029510498,-0.23786023259162903,0.3976491093635559
1772790129801476000,5.19247607421875,-0.059960007667541504,-0.20600083470344543,0.3696829676628113
1772790129811542000,5.2025419921875,-0.06794176995754242,-0.16831231117248535,0.32118627429008484
1772790129821608200,5.212608154296875,-0.07082384079694748,-0.15016525983810425,0.2585703134536743
1772790129831673900,5.222673828125,-0.08875890076160431,-0.1698036789894104,0.1802147775888443
1772790129841739800,5.23273974609375,-0.11918684095144272,-0.21434850990772247,0.10586464405059814
1772790129851806000,5.242805908203125,-0.1453217715024948,-0.2432219684123993,0.06464823335409164
1772790129861871900,5.252871826171875,-0.1642368733882904,-0.2546229660511017,0.06457766145467758
1772790129871938000,5.26293798828125,-0.1769188493490219,-0.23365269601345062,0.1046782061457634
1772790129882004000,5.27300390625,-0.1753004491329193,-0.17120982706546783,0.18085047602653503
1772790129892068900,5.28306884765625,-0.16389518976211548,-0.10278896242380142,0.2669544517993927
1772790129902131500,5.29313134765625,-0.1312994360923767,-0.040651287883520126,0.3531319499015808
1772790129912197600,5.30319775390625,-0.09588471800088882,0.016955547034740448,0.44307196140289307
1772790129922263600,5.313263671875,-0.06263195723295212,0.09284072369337082,0.49825319647789
1772790129932329700,5.323329833984375,-0.03313664719462395,0.15225504338741302,0.5230637192726135
1772790129942395600,5.333395751953125,-0.0036549223586916924,0.19192789494991302,0.5054849982261658
1772790129952461600,5.343461669921875,0.02142166905105114,0.23579202592372894,0.4614059627056122
1772790129962527500,5.353527587890625,0.03981425613164902,0.2509390115737915,0.3984887897968292
1772790129972593700,5.36359375,0.05064986273646355,0.19756607711315155,0.3213660418987274
1772790129982659600,5.37365966796875,0.035947348922491074,0.14523601531982422,0.2517038881778717
1772790129992725500,5.3837255859375,0.004803277086466551,0.05168716236948967,0.1798592507839203
1772790130002791700,5.393791748046875,-0.04775873199105263,-0.05703319236636162,0.10770595818758011
1772790130012857600,5.403857666015625,-0.10866549611091614,-0.1934831738471985,0.0442337729036808
1772790130022923500,5.413923583984375,-0.16165120899677277,-0.32919013500213623,0.011713647283613682
1772790130032989400,5.423989501953125,-0.21074259281158447,-0.4174550175666809,0.024478711187839508
1772790130043055600,5.4340556640625,-0.25238776206970215,-0.43966153264045715,0.06412012875080109
1772790130053121500,5.44412158203125,-0.2927325367927551,-0.40282946825027466,0.10270374268293381
1772790130063187700,5.454187744140625,-0.3256867527961731,-0.3264729082584381,0.11522086709737778
1772790130073253600,5.464253662109375,-0.3525815010070801,-0.22651037573814392,0.10113540291786194
1772790130083318500,5.474318603515625,-0.3785688877105713,-0.09374646842479706,0.06282396614551544
1772790130093384400,5.484384521484375,-0.39978548884391785,0.03598383441567421,-0.0006327670416794717
1772790130103450600,5.49445068359375,-0.4188108444213867,0.11364347487688065,-0.07853102684020996
1772790130113516500,5.5045166015625,-0.4366723895072937,0.15345560014247894,-0.15154051780700684
1772790130123582700,5.514582763671875,-0.44340166449546814,0.1813652664422989,-0.20980116724967957
1772790130133648600,5.524648681640625,-0.4407161474227905,0.21807268261909485,-0.2543710172176361
1772790130143714600,5.534714599609375,-0.42561575770378113,0.24981889128684998,-0.2865760922431946
1772790130153780700,5.54478076171875,-0.39479658007621765,0.25655749440193176,-0.3115245997905731
1772790130163846400,5.554846435546875,-0.3527737557888031,0.22683393955230713,-0.3098103106021881
1772790130173912600,5.56491259765625,-0.32276126742362976,0.20179437100887299,-0.2737883925437927
1772790130183978500,5.574978515625,-0.2883968949317932,0.14127403497695923,-0.2098911851644516
1772790130194044700,5.585044677734375,-0.27052736282348633,0.09317655116319656,-0.13365820050239563
1772790130204110600,5.595110595703125,-0.2571697533130646,0.04436693340539932,-0.057612162083387375
1772790130214176800,5.6051767578125,-0.23697419464588165,0.046717703342437744,-0.014838866889476776
1772790130224242700,5.61524267578125,-0.21741461753845215,0.05936958268284798,-0.004048004746437073
1772790130234308600,5.62530859375,-0.19633781909942627,0.04670865088701248,-0.029254823923110962
1772790130244374500,5.63537451171875,-0.17750288546085358,0.002686596941202879,-0.07623884826898575
1772790130254440400,5.6454404296875,-0.16106319427490234,-0.03552603721618652,-0.11583845317363739
1772790130264505600,5.655505615234375,-0.14935167133808136,-0.05867716297507286,-0.13954031467437744
1772790130274571800,5.66557177734375,-0.14745603501796722,-0.11429595202207565,-0.14127057790756226
1772790130284637700,5.6756376953125,-0.13068903982639313,-0.16608218848705292,-0.1367274820804596
1772790130294703400,5.685703369140625,-0.0938122421503067,-0.15414056181907654,-0.11874609440565109
1772790130304769500,5.69576953125,-0.05269943177700043,-0.12780509889125824,-0.09417736530303955
1772790130314835500,5.70583544921875,-0.019339343532919884,-0.10941224545240402,-0.06351771950721741
1772790130324901600,5.715901611328125,0.007767375558614731,-0.08448665589094162,-0.04033437371253967
1772790130334967600,5.725967529296875,0.033482592552900314,-0.08565418422222137,-0.01563621684908867
1772790130345033700,5.73603369140625,0.06197069212794304,-0.06271744519472122,0.008828911930322647
1772790130355099600,5.746099609375,0.09713107347488403,-0.014150706119835377,0.030708378180861473
1772790130365165600,5.75616552734375,0.129426971077919,0.04615497961640358,0.03332892805337906
1772790130375231500,5.7662314453125,0.14875885844230652,0.08951230347156525,0.03664775937795639
1772790130385297700,5.776297607421875,0.15618294477462769,0.10874032974243164,0.03429112955927849
1772790130395363600,5.786363525390625,0.16478335857391357,0.11815273761749268,0.02503078430891037
1772790130405429500,5.796429443359375,0.17646345496177673,0.12311500310897827,0.007400392089039087
1772790130415495700,5.80649560546875,0.17916016280651093,0.13202567398548126,-0.004688761197030544
1772790130425561600,5.8165615234375,0.1855805218219757,0.09395073354244232,-0.021408086642622948
1772790130435627800,5.826627685546875,0.19690561294555664,0.0162974800914526,-0.008387359790503979
1772790130445692400,5.8366923828125,0.1943678855895996,-0.04664713144302368,0.03491270914673805
1772790130455758600,5.846758544921875,0.17837212979793549,-0.07785777747631073,0.08101895451545715
1772790130465824500,5.856824462890625,0.1576886922121048,-0.10991158336400986,0.11365891993045807
1772790130475890700,5.866890625,0.14147137105464935,-0.13416419923305511,0.11993732303380966
1772790130485956600,5.87695654296875,0.12754836678504944,-0.12317892163991928,0.11008575558662415
1772790130496022800,5.887022705078125,0.11554497480392456,-0.0866645872592926,0.09528257697820663
1772790130506088400,5.89708837890625,0.10116390138864517,-0.05150420218706131,0.078425832092762
1772790130516154600,5.907154541015625,0.08995971828699112,-0.004627508576959372,0.05895652621984482
1772790130526220500,5.917220458984375,0.09451372176408768,0.04188885912299156,0.03675934672355652
1772790130536286700,5.92728662109375,0.10331067442893982,0.07425186038017273,0.019650399684906006
1772790130546352600,5.9373525390625,0.11577346920967102,0.11536813527345657,0.023910392075777054
1772790130556418600,5.94741845703125,0.13117240369319916,0.14425677061080933,0.04910842329263687
1772790130566484700,5.957484619140625,0.13464675843715668,0.1508486270904541,0.08255133777856827
1772790130576550400,5.96755029296875,0.131352961063385,0.13145096600055695,0.11223972588777542
1772790130586616600,5.977616455078125,0.13572187721729279,0.11496413499116898,0.1495937556028366
1772790130596682500,5.9876826171875,0.15177834033966064,0.11820360273122787,0.18440526723861694
1772790130606748700,5.997748779296875,0.1633377969264984,0.11851546168327332,0.2144704908132553
1772790130616813600,6.0078134765625,0.17055203020572662,0.07953131198883057,0.23385962843894958
1772790130626879700,6.017879638671875,0.17392119765281677,0.03579581528902054,0.24049223959445953
1772790130636945400,6.0279453125,0.17349615693092346,0.04201748967170715,0.24100595712661743
1772790130647011600,6.038011474609375,0.1749449074268341,0.09031764417886734,0.23542024195194244
1772790130657077500,6.048077392578125,0.16774879395961761,0.11589623987674713,0.22241948544979095
1772790130667143700,6.058143798828125,0.16660362482070923,0.15133439004421234,0.21932916343212128
1772790130677209600,6.068209716796875,0.1533200442790985,0.18442630767822266,0.21434824168682098
1772790130687275800,6.07827587890625,0.1259523332118988,0.18078842759132385,0.20124869048595428
1772790130697341700,6.088341796875,0.08644834160804749,0.13463157415390015,0.16884255409240723
1772790130707407400,6.098407470703125,0.03003033623099327,0.038901060819625854,0.12169607728719711
1772790130717473500,6.1084736328125,-0.034029338508844376,-0.07340763509273529,0.059304334223270416
1772790130727539500,6.11853955078125,-0.09915774315595627,-0.18713048100471497,0.017469804733991623
1772790130737605600,6.128605712890625,-0.18092264235019684,-0.28748664259910583,0.00711756432428956
1772790130747671600,6.138671630859375,-0.27375778555870056,-0.36702966690063477,0.029628200456500053
1772790130757737700,6.14873779296875,-0.35325101017951965,-0.38553890585899353,0.07583297789096832
1772790130767803600,6.1588037109375,-0.4137604236602783,-0.36027801036834717,0.13739940524101257
1772790130777869800,6.168869873046875,-0.44403550028800964,-0.2722104787826538,0.2338535040616989
1772790130787934500,6.1789345703125,-0.4572168290615082,-0.13981914520263672,0.32144859433174133
1772790130798000600,6.189000732421875,-0.45231392979621887,-0.0010013486025854945,0.38844919204711914
1772790130808066600,6.199066650390625,-0.4286669194698334,0.14280934631824493,0.4229384660720825
1772790130818132700,6.2091328125,-0.4086415469646454,0.23503701388835907,0.4209512174129486
1772790130828198700,6.21919873046875,-0.39782780408859253,0.2828298509120941,0.38878849148750305
1772790130838264600,6.2292646484375,-0.3918237090110779,0.3141299784183502,0.34296107292175293
1772790130848330500,6.23933056640625,-0.3865343928337097,0.3205910623073578,0.2992788553237915
1772790130858396400,6.249396484375,-0.3808176517486572,0.31201329827308655,0.26816248893737793
1772790130868462600,6.259462646484375,-0.37394458055496216,0.28616437315940857,0.2599671185016632
1772790130878528500,6.269528564453125,-0.3693210482597351,0.23974654078483582,0.2629818320274353
1772790130888594700,6.2795947265625,-0.36949363350868225,0.17595185339450836,0.2657954692840576
1772790130898660000,6.28966015625,-0.37160977721214294,0.08416041731834412,0.2639658749103546
1772790130908726000,6.29972607421875,-0.377137690782547,-0.029145102947950363,0.26480424404144287
1772790130918792000,6.3097919921875,-0.38316869735717773,-0.1442735493183136,0.2599135935306549
1772790130928858000,6.319858154296875,-0.3960972726345062,-0.24323847889900208,0.24933339655399323
1772790130938924000,6.329924072265625,-0.4102269411087036,-0.3247424066066742,0.2278273105621338
1772790130948989200,6.3399892578125,-0.4326677918434143,-0.39222103357315063,0.17756147682666779
1772790130959055000,6.35005517578125,-0.4563949704170227,-0.4473138451576233,0.1180744394659996
1772790130969121000,6.36012109375,-0.48185744881629944,-0.4838889241218567,0.06328389793634415
1772790130979187000,6.37018701171875,-0.5155003666877747,-0.49846944212913513,0.012369051575660706
1772790130989253000,6.380253173828125,-0.5473203659057617,-0.5056373476982117,-0.027470773085951805
1772790130999319000,6.390319091796875,-0.5825180411338806,-0.5268920660018921,-0.08533567190170288
1772790131009385200,6.40038525390625,-0.6180323362350464,-0.5588976144790649,-0.13113804161548615
1772790131019451100,6.410451171875,-0.6537072658538818,-0.5616694688796997,-0.16615062952041626
1772790131029517000,6.42051708984375,-0.6956871747970581,-0.5200639367103577,-0.17199546098709106
1772790131039583200,6.430583251953125,-0.7320725917816162,-0.439972847700119,-0.15904690325260162
1772790131049649000,6.44064892578125,-0.7400836944580078,-0.31076639890670776,-0.12934520840644836
1772790131059715000,6.450715087890625,-0.7301090955734253,-0.18824367225170135,-0.08023998141288757
1772790131069781000,6.460781005859375,-0.7057477831840515,-0.04412059113383293,-0.020926853641867638
1772790131079847200,6.47084716796875,-0.6772221326828003,0.09075147658586502,0.042149052023887634
1772790131089913000,6.4809130859375,-0.6584237217903137,0.17994500696659088,0.08669654279947281
1772790131099979300,6.490979248046875,-0.6553858518600464,0.23032055795192719,0.10574933141469955
1772790131110044000,6.5010439453125,-0.6641199588775635,0.24757863581180573,0.10842660814523697
1772790131120110000,6.511110107421875,-0.6952019333839417,0.24557115137577057,0.09034214913845062
1772790131130176000,6.521176025390625,-0.7490121722221375,0.20101380348205566,0.073904849588871
1772790131140242200,6.5312421875,-0.8140076994895935,0.10707931220531464,0.047150202095508575
1772790131150308000,6.54130810546875,-0.881884753704071,-0.013917413540184498,0.03491084650158882
1772790131160374300,6.551374267578125,-0.9418895244598389,-0.12620000541210175,0.038600921630859375
1772790131170440200,6.561440185546875,-0.9989650249481201,-0.23392567038536072,0.06363250315189362
1772790131180506000,6.571506103515625,-1.0545912981033325,-0.32257911562919617,0.09645383805036545
1772790131190572000,6.581572021484375,-1.1051361560821533,-0.3985700309276581,0.12116584181785583
1772790131200638000,6.591637939453125,-1.1455738544464111,-0.4709502160549164,0.14095258712768555
1772790131210704100,6.6017041015625,-1.1862894296646118,-0.5256485939025879,0.15605537593364716
1772790131220770000,6.61177001953125,-1.2298624515533447,-0.5453251004219055,0.1798352748155594
1772790131230836200,6.621836181640625,-1.2718753814697266,-0.5248706936836243,0.20463304221630096
1772790131240902100,6.631902099609375,-1.3036924600601196,-0.4848899841308594,0.21240893006324768
1772790131250968000,6.641968017578125,-1.3256951570510864,-0.43209096789360046,0.20977932214736938
1772790131261034000,6.652033935546875,-1.3480700254440308,-0.3680539131164551,0.19817300140857697
1772790131271100200,6.66210009765625,-1.3739404678344727,-0.3392281234264374,0.17392945289611816
1772790131281165000,6.6721650390625,-1.402374029159546,-0.3731685280799866,0.1307593435049057
1772790131291231200,6.682231201171875,-1.4290975332260132,-0.45417362451553345,0.09607406705617905
1772790131301297200,6.692297119140625,-1.4552960395812988,-0.5339975953102112,0.08507707715034485
1772790131311363000,6.702363037109375,-1.4809271097183228,-0.5897447466850281,0.10775922238826752
1772790131321429000,6.712428955078125,-1.5056750774383545,-0.6215037703514099,0.14955194294452667
1772790131331495200,6.7224951171875,-1.5174989700317383,-0.6367554068565369,0.17910157144069672
1772790131341561000,6.73256103515625,-1.523918867111206,-0.649735689163208,0.1891142576932907
1772790131351627000,6.742626953125,-1.5331621170043945,-0.6483492255210876,0.1785590946674347
1772790131361693200,6.752693115234375,-1.549100399017334,-0.653255045413971,0.15255385637283325
1772790131371759000,6.762759033203125,-1.5550479888916016,-0.6578790545463562,0.12428200244903564
1772790131381825000,6.772824951171875,-1.5621298551559448,-0.6396611928939819,0.1064675897359848
1772790131391891000,6.782890869140625,-1.5676000118255615,-0.6141926050186157,0.11051639169454575
1772790131401957000,6.79295703125,-1.576521873474121,-0.6198328733444214,0.1185612678527832
1772790131412023000,6.80302294921875,-1.5766619443893433,-0.6506086587905884,0.1326480507850647
1772790131422089200,6.813089111328125,-1.5820143222808838,-0.6763947010040283,0.1543605476617813
1772790131432155100,6.823155029296875,-1.5947927236557007,-0.7008065581321716,0.17975085973739624
1772790131442220000,6.833219970703125,-1.6173518896102905,-0.7221584916114807,0.21851502358913422
1772790131452286000,6.843285888671875,-1.6444156169891357,-0.7147897481918335,0.26908978819847107
1772790131462352100,6.85335205078125,-1.6674144268035889,-0.6745715141296387,0.3187316358089447
1772790131472418000,6.86341796875,-1.6855676174163818,-0.6350328922271729,0.3582790493965149
1772790131482484200,6.873484130859375,-1.7066566944122314,-0.5998027324676514,0.3812600076198578
1772790131492550100,6.883550048828125,-1.7314752340316772,-0.5695950388908386,0.4007655382156372
1772790131502616000,6.893615966796875,-1.7614057064056396,-0.517113983631134,0.40830013155937195
1772790131512682200,6.90368212890625,-1.79941725730896,-0.42448604106903076,0.4092801809310913
1772790131522748000,6.913747802734375,-1.8409188985824585,-0.3544635474681854,0.39008039236068726
1772790131532814000,6.92381396484375,-1.8849622011184692,-0.3493092656135559,0.3625342547893524
1772790131542880000,6.9338798828125,-1.9348446130752563,-0.3908279538154602,0.3292069137096405
1772790131552946200,6.9439462890625,-1.9920841455459595,-0.45726582407951355,0.29355332255363464
1772790131563012000,6.95401220703125,-2.056800127029419,-0.5312010049819946,0.2566291391849518
1772790131573078300,6.964078369140625,-2.1208224296569824,-0.6019782423973083,0.20905521512031555
1772790131583144200,6.974144287109375,-2.1848206520080566,-0.6910650134086609,0.1531546711921692
1772790131593209900,6.9842099609375,-2.244378089904785,-0.772808313369751,0.0932263508439064
1772790131603275000,6.99427490234375,-2.2935869693756104,-0.8423123359680176,0.018145181238651276
1772790131613341200,7.004341064453125,-2.33530330657959,-0.8810573220252991,-0.06958866864442825
1772790131623407000,7.014406982421875,-2.360318660736084,-0.8836501836776733,-0.16252845525741577
1772790131633473300,7.024473388671875,-2.3671581745147705,-0.841468870639801,-0.2290922999382019
1772790131643539200,7.034539306640625,-2.3602194786071777,-0.763536810874939,-0.2764475643634796
1772790131653604900,7.04460498046875,-2.3345673084259033,-0.6717203259468079,-0.28817853331565857
1772790131663671000,7.054671142578125,-2.3031303882598877,-0.5912968516349792,-0.2785724997520447
1772790131673737000,7.064737060546875,-2.256214141845703,-0.5278065800666809,-0.24710486829280853
1772790131683803100,7.07480322265625,-2.1927802562713623,-0.48541489243507385,-0.21257324516773224
1772790131693869000,7.084869140625,-2.1182799339294434,-0.4331274628639221,-0.1700447052717209
1772790131703935200,7.094935302734375,-2.058734893798828,-0.4058905243873596,-0.12918035686016083
1772790131714001200,7.105001220703125,-2.0103001594543457,-0.40803062915802,-0.0848802700638771
1772790131724067000,7.115067138671875,-1.9578646421432495,-0.44622302055358887,-0.04246490076184273
1772790131734133000,7.125133056640625,-1.8942995071411133,-0.5353891253471375,-0.006953513715416193
1772790131744199000,7.135198974609375,-1.8277218341827393,-0.6142423748970032,0.03869359940290451
1772790131754265000,7.14526513671875,-1.7615222930908203,-0.7017911672592163,0.10379830002784729
1772790131764330200,7.155330322265625,-1.6964285373687744,-0.7527214288711548,0.17498859763145447
1772790131774396200,7.165396240234375,-1.632033348083496,-0.7989616394042969,0.2295924425125122
1772790131784462000,7.175462158203125,-1.5743683576583862,-0.8561743497848511,0.2584296762943268
1772790131794528000,7.185528076171875,-1.5410858392715454,-0.9151201844215393,0.26341938972473145
1772790131804594000,7.195593994140625,-1.5296827554702759,-0.9797452688217163,0.25336089730262756
1772790131814660000,7.20566015625,-1.5325056314468384,-1.012213945388794,0.224747896194458
1772790131824726000,7.21572607421875,-1.5333503484725952,-1.0146564245224,0.19533488154411316
1772790131834792200,7.225792236328125,-1.541505217552185,-1.0355746746063232,0.157990962266922
1772790131844858000,7.235858154296875,-1.5673874616622925,-1.0902416706085205,0.09215256571769714
1772790131854924300,7.24592431640625,-1.6110692024230957,-1.2058295011520386,-0.014308631420135498
1772790131864990000,7.255989990234375,-1.6668314933776855,-1.3598971366882324,-0.13655145466327667
1772790131875056000,7.26605615234375,-1.7217634916305542,-1.5030990839004517,-0.22075873613357544
1772790131885122000,7.2761220703125,-1.763549566268921,-1.6016939878463745,-0.23568123579025269
1772790131895188000,7.28618798828125,-1.7910802364349365,-1.6191928386688232,-0.18581700325012207
1772790131905258500,7.296258544921875,-1.7986729145050049,-1.5831011533737183,-0.09614277631044388
1772790131915323400,7.306323486328125,-1.7962861061096191,-1.5242363214492798,0.006645918358117342
1772790131925389300,7.316389404296875,-1.7921361923217773,-1.4393110275268555,0.08832799643278122
1772790131935455200,7.326455322265625,-1.7917300462722778,-1.3413255214691162,0.13297109305858612
1772790131945521400,7.336521484375,-1.78640615940094,-1.2564016580581665,0.13274046778678894
1772790131955587300,7.34658740234375,-1.7732295989990234,-1.1141307353973389,0.1040387824177742
1772790131965653500,7.356653564453125,-1.7650896310806274,-0.9478440880775452,0.0528072863817215
1772790131975719400,7.366719482421875,-1.7770302295684814,-0.7962238788604736,0.0020149475894868374
1772790131985785600,7.37678564453125,-1.7998950481414795,-0.6798853278160095,-0.03502403199672699
1772790131995851300,7.386851318359375,-1.8389028310775757,-0.5954908132553101,-0.06921688467264175
1772790132005917200,7.396917236328125,-1.8839569091796875,-0.5720123648643494,-0.1039959043264389
1772790132015983400,7.4069833984375,-1.9249541759490967,-0.5970210433006287,-0.13562174141407013
1772790132026049300,7.41704931640625,-1.9684333801269531,-0.6611350774765015,-0.15609613060951233
1772790132036115500,7.427115478515625,-2.009348154067993,-0.7518306374549866,-0.1399800032377243
1772790132046181400,7.437181396484375,-2.038196325302124,-0.8308330178260803,-0.09141113609075546
1772790132056246300,7.447246337890625,-2.056332588195801,-0.8610455393791199,-0.038062162697315216
1772790132066312200,7.457312255859375,-2.0499203205108643,-0.8309898972511292,0.008520783856511116
1772790132076378400,7.46737841796875,-2.0383999347686768,-0.7701659202575684,0.03141491487622261
1772790132086444300,7.4774443359375,-2.021193027496338,-0.699650764465332,0.019888220354914665
1772790132096510500,7.487510498046875,-2.000927448272705,-0.6190358400344849,-0.020739100873470306
1772790132106576400,7.497576416015625,-1.9803473949432373,-0.5259298086166382,-0.0850248783826828
1772790132116642600,7.507642578125,-1.9444918632507324,-0.4313538074493408,-0.15197354555130005
1772790132126708200,7.517708251953125,-1.9102305173873901,-0.3298199772834778,-0.20768128335475922
1772790132136774400,7.5277744140625,-1.8800185918807983,-0.2270943969488144,-0.24201317131519318
1772790132146840300,7.53784033203125,-1.8464585542678833,-0.16626860201358795,-0.26030880212783813
1772790132156906200,7.54790625,-1.8135277032852173,-0.13885881006717682,-0.258035808801651
1772790132166972400,7.557972412109375,-1.776788592338562,-0.14908695220947266,-0.25309163331985474
1772790132177038300,7.568038330078125,-1.740233302116394,-0.1719461977481842,-0.2430262267589569
1772790132187104500,7.5781044921875,-1.699454426765442,-0.22100748121738434,-0.23786023259162903
1772790132197170400,7.58817041015625,-1.6598860025405884,-0.2955171465873718,-0.2322888970375061
1772790132207236400,7.598236328125,-1.6299360990524292,-0.3748966455459595,-0.21487262845039368
1772790132217301200,7.60830126953125,-1.598780870437622,-0.43595466017723083,-0.18859733641147614
1772790132227367400,7.618367431640625,-1.5637294054031372,-0.4590093791484833,-0.1582101434469223
1772790132237433300,7.628433349609375,-1.5253931283950806,-0.4485815167427063,-0.1323833465576172
1772790132247499500,7.63849951171875,-1.4767826795578003,-0.4013865888118744,-0.10982636362314224
1772790132257565400,7.6485654296875,-1.4186999797821045,-0.3325422704219818,-0.09221754223108292
1772790132267631400,7.65863134765625,-1.3560703992843628,-0.2533329427242279,-0.07230854779481888
1772790132277697300,7.668697265625,-1.2869808673858643,-0.1584887057542801,-0.04826420173048973
1772790132287763500,7.678763427734375,-1.2143388986587524,-0.07844820618629456,-0.028124844655394554
1772790132297829400,7.688829345703125,-1.150327444076538,-0.032102543860673904,-0.020305272191762924
1772790132307895300,7.698895263671875,-1.0974825620651245,-0.027002057060599327,-0.035476502031087875
1772790132317961500,7.70896142578125,-1.052015781402588,-0.06771966069936752,-0.07422523200511932
1772790132328027400,7.71902734375,-1.0187627077102661,-0.15598534047603607,-0.12040577083826065
1772790132338093300,7.72909326171875,-1.0051885843276978,-0.2904842793941498,-0.14769971370697021
1772790132348159200,7.7391591796875,-0.9954624176025391,-0.4498683512210846,-0.1410125195980072
1772790132358224400,7.749224365234375,-0.9833732843399048,-0.605216383934021,-0.09860380738973618
1772790132368290300,7.759290283203125,-0.9721193313598633,-0.7025416493415833,0.0002364887041039765
1772790132378356500,7.7693564453125,-0.9551320672035217,-0.6987253427505493,0.14310602843761444
1772790132388422400,7.77942236328125,-0.9298133850097656,-0.6091176867485046,0.28921663761138916
1772790132398488300,7.78948828125,-0.885630190372467,-0.47854340076446533,0.4211759865283966
1772790132408554200,7.79955419921875,-0.8342903256416321,-0.2951467037200928,0.5128433108329773
1772790132418620400,7.809620361328125,-0.7831611037254333,-0.09261435270309448,0.5442728996276855
1772790132428686300,7.819686279296875,-0.7413944602012634,0.07094581425189972,0.5043835043907166
1772790132438752500,7.82975244140625,-0.6969620585441589,0.1693541407585144,0.4079621732234955
1772790132448818400,7.839818359375,-0.6587262153625488,0.2126893699169159,0.3052339553833008
1772790132458884400,7.84988427734375,-0.6458711624145508,0.22958312928676605,0.22319233417510986
1772790132468950300,7.8599501953125,-0.6415038108825684,0.23600667715072632,0.1577017456293106
1772790132479016200,7.87001611328125,-0.6392598748207092,0.2332409769296646,0.09914522618055344
1772790132489082400,7.880082275390625,-0.6488930583000183,0.1817045509815216,0.03129240870475769
1772790132499147500,7.8901474609375,-0.6558029055595398,0.128681018948555,-0.04274240508675575
1772790132509213400,7.90021337890625,-0.6604056358337402,0.04565643519163132,-0.12672892212867737
1772790132519279400,7.910279296875,-0.6701144576072693,-0.09981340914964676,-0.2087460160255432
1772790132529345300,7.92034521484375,-0.6918458342552185,-0.27003201842308044,-0.2871580123901367
1772790132539411200,7.9304111328125,-0.7169442772865295,-0.41550105810165405,-0.3505316376686096
1772790132549477400,7.940477294921875,-0.7422261834144592,-0.5015299320220947,-0.3753592371940613
1772790132559543300,7.950543212890625,-0.7604520320892334,-0.531760036945343,-0.37555310130119324
1772790132569609500,7.960609375,-0.7614976167678833,-0.4827914237976074,-0.34373632073402405
1772790132579675400,7.97067529296875,-0.7564863562583923,-0.33818337321281433,-0.2980652451515198
1772790132589741600,7.980741455078125,-0.7387419939041138,-0.13831952214241028,-0.24648673832416534
1772790132599807200,7.99080712890625,-0.7000086903572083,0.053046971559524536,-0.20369000732898712
1772790132609873400,8.000873291015624,-0.6313713192939758,0.22925662994384766,-0.12999847531318665
1772790132619939300,8.010939208984375,-0.5392986536026001,0.40111973881721497,-0.046131543815135956
1772790132630005200,8.021005126953124,-0.44356706738471985,0.5598819255828857,0.03846030682325363
1772790132640070400,8.0310703125,-0.33835700154304504,0.6786597371101379,0.08385361731052399
1772790132650136600,8.041136474609376,-0.24745719134807587,0.7486398816108704,0.09794600307941437
1772790132660202200,8.0512021484375,-0.18519940972328186,0.74253910779953,0.06765174865722656
1772790132670268400,8.061268310546875,-0.13215750455856323,0.6273446083068848,0.02863883599638939
1772790132680334300,8.071334228515624,-0.10199560970067978,0.4826281666755676,0.009273393079638481
1772790132690400300,8.081400146484375,-0.07266514748334885,0.34445324540138245,0.028309136629104614
1772790132700466400,8.091466552734374,-0.05096997320652008,0.22729626297950745,0.07582738250494003
1772790132710532400,8.101532470703125,-0.04964025691151619,0.14757134020328522,0.13119716942310333
1772790132720598500,8.1115986328125,-0.0723080188035965,0.08599267154932022,0.18580742180347443
1772790132730664400,8.12166455078125,-0.11689306050539017,0.018998192623257637,0.24339215457439423
1772790132740730400,8.13173046875,-0.1616850346326828,-0.047747548669576645,0.2855939269065857
1772790132750796300,8.14179638671875,-0.22510848939418793,-0.0900111123919487,0.3108425736427307
1772790132760862500,8.151862548828126,-0.2798614799976349,-0.13343928754329681,0.3287491202354431
1772790132770928400,8.161928466796875,-0.31449320912361145,-0.17873086035251617,0.32377514243125916
1772790132780993500,8.17199365234375,-0.3364730775356293,-0.17911861836910248,0.29510700702667236
1772790132791059500,8.1820595703125,-0.350047767162323,-0.15588679909706116,0.2498961240053177
1772790132801125400,8.19212548828125,-0.3616391718387604,-0.14430338144302368,0.1942882537841797
1772790132811191300,8.20219140625,-0.38257959485054016,-0.1359538435935974,0.13535809516906738
1772790132821257500,8.212257568359375,-0.3881613314151764,-0.1084657534956932,0.09554889053106308
1772790132831323400,8.222323486328126,-0.3952011168003082,-0.06208920478820801,0.07386090606451035
1772790132841389300,8.232389404296875,-0.3999024033546448,-0.003213370218873024,0.06696571409702301
1772790132851455500,8.24245556640625,-0.39671698212623596,0.06378776580095291,0.08103200048208237
1772790132861521400,8.252521484375,-0.3773305118083954,0.13481533527374268,0.09964616596698761
1772790132871587300,8.26258740234375,-0.3596958518028259,0.22546134889125824,0.12101723253726959
1772790132881653200,8.2726533203125,-0.3449254333972931,0.3068438172340393,0.11438143998384476
1772790132891719400,8.282719482421875,-0.3120686709880829,0.3343058228492737,0.08500170707702637
1772790132901781000,8.292781005859375,-0.2915666103363037,0.3229950964450836,0.04210883751511574
1772790132911847200,8.30284716796875,-0.280333936214447,0.3030983507633209,-0.005293298978358507
1772790132921912300,8.312912353515625,-0.2704906165599823,0.29096633195877075,-0.042695533484220505
1772790132931978000,8.32297802734375,-0.2559089958667755,0.27538469433784485,-0.06720593571662903
1772790132942044000,8.3330439453125,-0.24403797090053558,0.24946469068527222,-0.07975581288337708
1772790132952110000,8.343110107421875,-0.2333160787820816,0.19671465456485748,-0.08520783483982086
1772790132962176000,8.353176025390624,-0.2184835970401764,0.10199480503797531,-0.07863675802946091
1772790132972242200,8.3632421875,-0.2030194252729416,0.016514794901013374,-0.0602891743183136
1772790132982308000,8.37330810546875,-0.18203318119049072,-0.05206240341067314,-0.029893450438976288
1772790132992374300,8.383374267578125,-0.15392404794692993,-0.1207442581653595,0.0003336940717417747
1772790133002440000,8.39343994140625,-0.1341000199317932,-0.18188990652561188,0.016442090272903442
1772790133012506000,8.403506103515625,-0.10505051910877228,-0.21313224732875824,0.016996560618281364
1772790133022572000,8.413572021484375,-0.08128420263528824,-0.2329602837562561,0.0016490293201059103
1772790133032638000,8.423637939453124,-0.060264404863119125,-0.2503128945827484,-0.025774072855710983
1772790133042704100,8.4337041015625,-0.04273095354437828,-0.27358654141426086,-0.05961539223790169
1772790133052769300,8.443769287109374,-0.037819817662239075,-0.29354533553123474,-0.08631491661071777
1772790133062835000,8.4538349609375,-0.05000244826078415,-0.3105456233024597,-0.0950532779097557
1772790133072901000,8.463901123046876,-0.08514338731765747,-0.32547369599342346,-0.09566020965576172
1772790133082967000,8.473967041015625,-0.12637418508529663,-0.3244478404521942,-0.09228625148534775
1772790133093033000,8.484032958984375,-0.1609625220298767,-0.3000032305717468,-0.09448655694723129
1772790133103099100,8.49409912109375,-0.20016318559646606,-0.2893362045288086,-0.10192316770553589
1772790133113165000,8.5041650390625,-0.23086144030094147,-0.3039553761482239,-0.11333135515451431
1772790133123231200,8.514231201171874,-0.2543816864490509,-0.3142671287059784,-0.11918258666992188
1772790133133297200,8.524297119140625,-0.25651833415031433,-0.3009209632873535,-0.11189004778862
1772790133143363000,8.534363037109374,-0.2453833967447281,-0.2640817165374756,-0.08985159546136856
1772790133153429000,8.544428955078125,-0.2337070256471634,-0.21521110832691193,-0.06292756646871567
1772790133163495200,8.5544951171875,-0.22276011109352112,-0.1925143152475357,-0.031450867652893066
1772790133173561000,8.56456103515625,-0.21425344049930573,-0.19395509362220764,0.0004932174342684448
1772790133183627000,8.574626953125,-0.21385183930397034,-0.20414142310619354,0.04033277556300163
1772790133193692000,8.58469189453125,-0.21123874187469482,-0.22483684122562408,0.08298303186893463
1772790133203759000,8.594759033203125,-0.21458740532398224,-0.24768303334712982,0.1382865011692047
1772790133213825000,8.604824951171874,-0.21089306473731995,-0.24898532032966614,0.1988915205001831
1772790133223891000,8.614890869140625,-0.19443552196025848,-0.22784461081027985,0.25776734948158264
1772790133233957000,8.62495703125,-0.16672906279563904,-0.19648456573486328,0.31365805864334106
1772790133244023000,8.63502294921875,-0.13389389216899872,-0.17730261385440826,0.35952433943748474
1772790133254089200,8.645089111328126,-0.10478659719228745,-0.14142556488513947,0.39020583033561707
1772790133264155100,8.655155029296875,-0.07803381234407425,-0.07611207664012909,0.40758854150772095
1772790133274221000,8.665220947265626,-0.06449270993471146,-0.010613229125738144,0.3807681202888489
1772790133284286000,8.675285888671874,-0.061704110354185104,0.041728273034095764,0.3191058039665222
1772790133294352100,8.68535205078125,-0.06071075052022934,0.02021445706486702,0.22355133295059204
1772790133304418000,8.69541796875,-0.07903596013784409,-0.06453398615121841,0.13960103690624237
1772790133314484200,8.705484130859375,-0.11171668022871017,-0.17019303143024445,0.08680200576782227
1772790133324550100,8.715550048828124,-0.15825088322162628,-0.2546088397502899,0.09084681421518326
1772790133334616000,8.725615966796875,-0.20247428119182587,-0.2952689230442047,0.14563655853271484
1772790133344682000,8.735681884765626,-0.23077435791492462,-0.30925318598747253,0.24474024772644043
1772790133354748000,8.745747802734375,-0.22152945399284363,-0.29673871397972107,0.36206021904945374
1772790133364814000,8.75581396484375,-0.18974649906158447,-0.22908644378185272,0.46810221672058105
1772790133374880000,8.7658798828125,-0.15043450891971588,-0.14975221455097198,0.5569609999656677
1772790133384946200,8.7759462890625,-0.1143374964594841,-0.08117687702178955,0.6097916960716248
1772790133395012000,8.78601220703125,-0.08331992477178574,-0.030350448563694954,0.6224046945571899
1772790133405078300,8.796078369140625,-0.052563074976205826,-0.014369351789355278,0.6083195209503174
1772790133415143000,8.806142822265626,-0.03761688247323036,-0.036971867084503174,0.587498664855957
1772790133425209000,8.816208984375,-0.04819602519273758,-0.06934098899364471,0.5754420161247253
1772790133435275000,8.82627490234375,-0.09540721029043198,-0.10181903839111328,0.579055905342102
1772790133445341200,8.836341064453125,-0.17225725948810577,-0.13754934072494507,0.5744805932044983
1772790133455407000,8.846406982421875,-0.2629986107349396,-0.17853592336177826,0.5545319318771362
1772790133465473300,8.856473388671875,-0.35169118642807007,-0.23724611103534698,0.5114185214042664
1772790133475539000,8.8665390625,-0.4391864240169525,-0.29970070719718933,0.4483809769153595
1772790133485605000,8.876605224609374,-0.5136164426803589,-0.3394414484500885,0.3782639503479004
1772790133495671000,8.886671142578125,-0.5755770206451416,-0.3498988747596741,0.31066787242889404
1772790133505737000,8.896737060546876,-0.631730854511261,-0.3358144760131836,0.2405356466770172
1772790133515803100,8.90680322265625,-0.6840717792510986,-0.29125288128852844,0.16976293921470642
1772790133525869000,8.916869140625,-0.7283114194869995,-0.2052716612815857,0.10221478343009949
1772790133535935200,8.926935302734375,-0.7870429158210754,-0.09717555344104767,0.023334616795182228
1772790133546000100,8.937000244140625,-0.8456252813339233,-0.013083045370876789,-0.07049626857042313
1772790133556066000,8.947066162109374,-0.8957278728485107,0.031673505902290344,-0.17559899389743805
1772790133566132000,8.957132080078125,-0.926571786403656,0.058447062969207764,-0.2731529772281647
1772790133576198100,8.9671982421875,-0.9367426633834839,0.08841881155967712,-0.3497585356235504
1772790133586264000,8.97726416015625,-0.9355524778366089,0.1385887712240219,-0.4020529091358185
1772790133596330200,8.987330322265626,-0.9199788570404053,0.17363490164279938,-0.43742048740386963
1772790133606396200,8.997396240234375,-0.904602587223053,0.17894631624221802,-0.4636582136154175
1772790133616462000,9.007462158203126,-0.8832389712333679,0.1385219246149063,-0.48553580045700073
1772790133626528000,9.017528076171875,-0.8563226461410522,0.07912570983171463,-0.5053236484527588
1772790133636594200,9.02759423828125,-0.8263242840766907,-0.0025600967928767204,-0.5273282527923584
1772790133646660000,9.03766015625,-0.8119258880615234,-0.11438623070716858,-0.5451732873916626
1772790133656726000,9.04772607421875,-0.7987920045852661,-0.22793357074260712,-0.5585556626319885
1772790133666792200,9.057792236328124,-0.7848908305168152,-0.3185335099697113,-0.5578265190124512
1772790133676857000,9.067857177734375,-0.7604597806930542,-0.37177222967147827,-0.5379034280776978
1772790133686923000,9.077923095703126,-0.7291133403778076,-0.38233646750450134,-0.5014495253562927
1772790133696989200,9.0879892578125,-0.6987069249153137,-0.3650813102722168,-0.470679372549057
1772790133707055000,9.09805517578125,-0.6577949523925781,-0.3257884979248047,-0.4417246878147125
1772790133717121000,9.10812109375,-0.6082872748374939,-0.28112274408340454,-0.434256911277771
1772790133727187200,9.118187255859375,-0.5547657608985901,-0.2280835062265396,-0.43298232555389404
1772790133737253000,9.128253173828124,-0.5049630403518677,-0.1652859002351761,-0.42972126603126526
1772790133747319000,9.138319091796875,-0.4532034397125244,-0.08713144063949585,-0.4204239249229431
1772790133757385000,9.148385009765626,-0.3955957889556885,-0.010717892087996006,-0.40378236770629883
1772790133767451100,9.158451171875,-0.33303841948509216,0.046713974326848984,-0.38524967432022095
1772790133777517000,9.16851708984375,-0.2801344394683838,0.07667294144630432,-0.3657715916633606
1772790133787583200,9.178583251953125,-0.2346535176038742,0.053589724004268646,-0.3536318242549896
1772790133797648100,9.188648193359375,-0.19243495166301727,-0.022779081016778946,-0.33098405599594116
1772790133807714000,9.198714111328124,-0.155003160238266,-0.11922519654035568,-0.2749897539615631
1772790133817780000,9.208780029296875,-0.12992310523986816,-0.17223408818244934,-0.19021308422088623
1772790133827846100,9.21884619140625,-0.0975465327501297,-0.15630225837230682,-0.09393075853586197
1772790133837912000,9.228912109375,-0.04905276373028755,-0.11838416755199432,-0.010183927603065968
1772790133847978200,9.238978271484376,0.003100185887888074,-0.05486990511417389,0.04987967386841774
1772790133858044200,9.249044189453125,0.05662892386317253,0.004141747951507568,0.086421437561512
1772790133868110000,9.259110107421876,0.108685202896595,0.02647901140153408,0.09474807977676392
1772790133878176000,9.269176025390625,0.1586706042289734,0.032115060836076736,0.0946817696094513
1772790133888242000,9.279241943359375,0.2105172872543335,0.0414009690284729,0.09538164734840393
1772790133898308900,9.289308837890625,0.2562373876571655,0.06643041968345642,0.11282987892627716
1772790133908374800,9.299374755859375,0.2946412265300751,0.10016148537397385,0.13823217153549194
1772790133918440700,9.309440673828124,0.3330213725566864,0.1392098218202591,0.1759987324476242
1772790133928505600,9.319505615234375,0.37044596672058105,0.1577182561159134,0.21940186619758606
1772790133938571800,9.32957177734375,0.4032406806945801,0.15260232985019684,0.2586565911769867
1772790133948637700,9.3396376953125,0.43449392914772034,0.1263643354177475,0.30398571491241455
1772790133958703900,9.349703857421876,0.45028966665267944,0.088652104139328,0.3602015972137451
1772790133968769800,9.359769775390625,0.4646094739437103,0.0581463947892189,0.4156629741191864
1772790133978835700,9.369835693359375,0.4951293170452118,0.054607052356004715,0.47634363174438477
1772790133988901600,9.379901611328124,0.525862991809845,0.06852926313877106,0.5325967669487
1772790133998967600,9.389967529296875,0.5546978116035461,0.08458226174116135,0.5772904753684998
1772790134009033700,9.40003369140625,0.5706770420074463,0.1106165274977684,0.6085991263389587
1772790134019099600,9.410099609375,0.5826008319854736,0.139423668384552,0.6229530572891235
1772790134029165800,9.420165771484376,0.6016757488250732,0.173380047082901,0.6310527920722961
1772790134039231700,9.430231689453125,0.6122918725013733,0.22690345346927643,0.6394473314285278
1772790134049296600,9.440296630859375,0.6194009184837341,0.2867313623428345,0.6342123746871948
1772790134059362600,9.450362548828124,0.6241128444671631,0.3637915253639221,0.6221812963485718
1772790134069428700,9.4604287109375,0.6252636313438416,0.4205067455768585,0.5962346196174622
1772790134079494700,9.47049462890625,0.6205056309700012,0.43902289867401123,0.5629797577857971
1772790134089560800,9.480560791015625,0.6091259121894836,0.3846914768218994,0.5148476362228394
1772790134099626800,9.490626708984376,0.5916529297828674,0.26701945066452026,0.45303618907928467
1772790134109693000,9.50069287109375,0.5738883018493652,0.12762214243412018,0.40430060029029846
1772790134119758600,9.510758544921876,0.5523175001144409,0.014083328656852245,0.4150315523147583
1772790134129824500,9.520824462890625,0.546785295009613,-0.014976019971072674,0.4843411147594452
1772790134139890700,9.530890625,0.5543609261512756,0.04314960166811943,0.604756236076355
1772790134149956600,9.54095654296875,0.5663866996765137,0.1740194708108902,0.7361624240875244
1772790134160022800,9.551022705078125,0.5834879279136658,0.3082944452762604,0.8332844376564026
1772790134170088000,9.561087890625,0.5987355709075928,0.37299275398254395,0.8845447301864624
1772790134180153600,9.571153564453125,0.5938979387283325,0.37351658940315247,0.8879583477973938
1772790134190219500,9.581219482421876,0.5792995691299438,0.37393444776535034,0.8442667722702026
1772790134200285700,9.59128564453125,0.5753239989280701,0.4094245433807373,0.7735366821289062
1772790134210351600,9.6013515625,0.5708928108215332,0.43683353066444397,0.6811524629592896
1772790134220417800,9.611417724609375,0.5729761719703674,0.42691537737846375,0.5939016938209534
1772790134230483700,9.621483642578125,0.5648370385169983,0.4020872414112091,0.5226213932037354
1772790134240550000,9.6315498046875,0.5495323538780212,0.38807129859924316,0.4828808903694153
1772790134250615600,9.641615478515625,0.5407487154006958,0.3691660463809967,0.4525781273841858
1772790134260681700,9.651681640625,0.5417950749397278,0.3325001895427704,0.42837104201316833
1772790134270747600,9.66174755859375,0.5536485314369202,0.28002578020095825,0.4186800718307495
1772790134280813600,9.6718134765625,0.5607658624649048,0.21952064335346222,0.4127945005893707
1772790134290878700,9.681878662109375,0.5754667520523071,0.16162724792957306,0.3924995958805084
1772790134300945000,9.69194482421875,0.6128881573677063,0.10002646595239639,0.36201173067092896
1772790134311010600,9.702010498046874,0.6557549238204956,0.08640546351671219,0.30945026874542236
1772790134321076700,9.71207666015625,0.6791281700134277,0.08692184835672379,0.2455250769853592
1772790134331142700,9.722142578125,0.6726162433624268,0.10701540112495422,0.17497260868549347
1772790134341208600,9.73220849609375,0.6496919989585876,0.1199548989534378,0.0906529352068901
1772790134351274800,9.742274658203126,0.6334016919136047,0.11513511091470718,0.0012098740553483367
1772790134361340700,9.752340576171875,0.6038914918899536,0.08158726990222931,-0.07286594808101654
1772790134371406800,9.76240673828125,0.5716030597686768,0.0022397185675799847,-0.13590963184833527
1772790134381472800,9.77247265625,0.5455586910247803,-0.07555574178695679,-0.18257327377796173
1772790134391538700,9.78253857421875,0.4949745833873749,-0.11540462076663971,-0.2143343985080719
1772790134401604600,9.7926044921875,0.42170703411102295,-0.10230027139186859,-0.22420912981033325
1772790134411669800,9.802669677734375,0.3599965274333954,-0.07325823605060577,-0.2282842993736267
1772790134421735700,9.812735595703124,0.326816201210022,-0.04651690274477005,-0.23481038212776184
1772790134431801900,9.8228017578125,0.3321073651313782,0.008350075222551823,-0.24475568532943726
1772790134441867800,9.83286767578125,0.365742564201355,0.09685757011175156,-0.2536061704158783
1772790134451933700,9.84293359375,0.402161568403244,0.2001730352640152,-0.26217329502105713
1772790134461999600,9.85299951171875,0.4326363801956177,0.29424306750297546,-0.27572745084762573
1772790134472065800,9.863065673828125,0.45968157052993774,0.4151873290538788,-0.27248692512512207
1772790134482131700,9.873131591796875,0.47380536794662476,0.5773288607597351,-0.24457326531410217
1772790134492197600,9.88319775390625,0.46868544816970825,0.6846329569816589,-0.21109279990196228
1772790134502263800,9.893263916015625,0.4648369252681732,0.6898793578147888,-0.195197194814682
1772790134512329700,9.903329833984374,0.477559894323349,0.6186088919639587,-0.21058599650859833
1772790134522395600,9.913395751953125,0.4952542185783386,0.47595587372779846,-0.2266685664653778
1772790134532460800,9.923460693359376,0.5059249401092529,0.29807910323143005,-0.2322705239057541
1772790134542526700,9.933526611328125,0.4959932565689087,0.12053919583559036,-0.2380751520395279
1772790134552592600,9.943592529296875,0.4739004671573639,-0.0174437053501606,-0.2572096884250641
1772790134562658800,9.953658935546875,0.4381789565086365,-0.10905564576387405,-0.29288432002067566
1772790134572724700,9.963724853515625,0.38674184679985046,-0.16611173748970032,-0.34274351596832275
1772790134582790700,9.973790771484374,0.343847393989563,-0.22960230708122253,-0.37307611107826233
1772790134592856600,9.983856689453125,0.30563849210739136,-0.2714940905570984,-0.38021552562713623
1772790134602922800,9.9939228515625,0.26671290397644043,-0.3065522015094757,-0.3703168034553528
1772790134612988700,10.00398876953125,0.24039582908153534,-0.29543936252593994,-0.35584011673927307
1772790134623054800,10.014054931640626,0.21345262229442596,-0.2498236894607544,-0.3165411949157715
1772790134633120800,10.024120849609375,0.16600334644317627,-0.1456725150346756,-0.2403297871351242
1772790134643186700,10.034186767578126,0.11266876012086868,0.007368167862296104,-0.15349474549293518
1772790134653251600,10.04425146484375,0.07339432090520859,0.1805463433265686,-0.08680892735719681
1772790134663317800,10.05431787109375,0.04989778622984886,0.29114556312561035,-0.0544549860060215
1772790134673383700,10.0643837890625,0.04674220457673073,0.3087509274482727,-0.07137351483106613
1772790134683449900,10.074449951171875,0.05560467392206192,0.26930657029151917,-0.1195564940571785
1772790134693515800,10.084515869140626,0.07040945440530777,0.22992587089538574,-0.16789153218269348
1772790134703581700,10.094581787109375,0.07364679127931595,0.20542345941066742,-0.190792053937912
1772790134713647600,10.104647705078126,0.0652112290263176,0.1813676655292511,-0.18422763049602509
1772790134723713500,10.114713623046875,0.05763053894042969,0.14459073543548584,-0.15872466564178467
1772790134733779700,10.12477978515625,0.04880402609705925,0.08519025892019272,-0.09949063509702682
1772790134743845600,10.134845703125,0.05377694591879845,0.034145452082157135,-0.03647811710834503
1772790134753911800,10.144911865234375,0.07002782076597214,-0.0105328019708395,0.04467372968792915
1772790134763976700,10.154976806640626,0.09509588778018951,-0.012601279653608799,0.11258380115032196
1772790134774042600,10.165042724609375,0.11696283519268036,-0.002668487373739481,0.16381263732910156
1772790134784108500,10.175108642578126,0.11474229395389557,0.0033009881153702736,0.19574978947639465
1772790134794174700,10.1851748046875,0.09971114993095398,0.009607619605958462,0.20463010668754578
1772790134804240600,10.19524072265625,0.07731316238641739,0.037580396980047226,0.2074192315340042
1772790134814306800,10.205306884765625,0.05747580900788307,0.08527255058288574,0.20812763273715973
1772790134824372700,10.215372802734375,0.041906971484422684,0.11894556134939194,0.2250560224056244
1772790134834439000,10.22543896484375,0.030190926045179367,0.13082459568977356,0.24790887534618378
1772790134844504600,10.235504638671875,0.03706134855747223,0.14663177728652954,0.286319375038147
1772790134854570800,10.24557080078125,0.04228274151682854,0.1392737329006195,0.32574987411499023
1772790134864636700,10.25563671875,0.038533542305231094,0.08248129487037659,0.35001951456069946
1772790134874702600,10.26570263671875,0.02966761402785778,0.012163189239799976,0.35549870133399963
1772790134884767700,10.275767822265625,0.014030864462256432,-0.04817871376872063,0.33888351917266846
1772790134894837000,10.2858369140625,-0.010639328509569168,-0.11084049940109253,0.31281861662864685
1772790134904903000,10.29590283203125,-0.04514537379145622,-0.1842776983976364,0.27353301644325256
1772790134914969000,10.305968994140626,-0.08046980947256088,-0.2329847812652588,0.23064066469669342
1772790134925034800,10.31603466796875,-0.10538288205862045,-0.23494113981723785,0.1788075566291809
1772790134935100700,10.3261005859375,-0.12202737480401993,-0.20113976299762726,0.12638776004314423
1772790134945166800,10.336166748046875,-0.1433425098657608,-0.14364424347877502,0.08039151132106781
1772790134955232800,10.346232666015625,-0.14638197422027588,-0.11173664778470993,0.014389059506356716
1772790134965299000,10.356298828125,-0.13745932281017303,-0.12620320916175842,-0.04944158345460892
1772790134975364900,10.36636474609375,-0.129373699426651,-0.158624529838562,-0.10743165016174316
1772790134985431000,10.37643115234375,-0.1187487542629242,-0.18436798453330994,-0.14941053092479706
1772790134995497000,10.3864970703125,-0.09127452224493027,-0.1750224083662033,-0.1804177165031433
1772790135005561900,10.396561767578126,-0.04710386320948601,-0.13440601527690887,-0.18163689970970154
1772790135015627800,10.406627685546875,0.0015691345324739814,-0.07742208987474442,-0.14884033799171448
1772790135025694000,10.41669384765625,0.05878794938325882,0.012475578114390373,-0.08473698794841766
1772790135035759900,10.426759765625,0.11068657040596008,0.15859177708625793,-0.01985626295208931
1772790135045826000,10.436825927734375,0.13876906037330627,0.2735447287559509,0.02286829799413681
1772790135055892000,10.44689208984375,0.1318208873271942,0.3149683177471161,0.005376389715820551
1772790135065958000,10.4569580078125,0.13188345730304718,0.2807602882385254,-0.0671263039112091
1772790135076023800,10.46702392578125,0.14669330418109894,0.20275470614433289,-0.1238633543252945
1772790135086089700,10.47708984375,0.13730193674564362,0.15023957192897797,-0.12206758558750153
1772790135096156000,10.487156005859376,0.13163872063159943,0.1288629025220871,-0.0591442808508873
1772790135106221800,10.497221923828125,0.13114763796329498,0.12035703659057617,0.023481890559196472
1772790135116288000,10.5072880859375,0.11738095432519913,0.08605232834815979,0.11453989148139954
1772790135126353000,10.517352783203124,0.08699481934309006,0.038778819143772125,0.2098962366580963
1772790135136418800,10.527418701171875,0.04007098823785782,-0.021683458238840103,0.2872176468372345
1772790135146484700,10.537484619140624,-0.006536995060741901,-0.0920439064502716,0.32214608788490295
1772790135156551000,10.547551025390625,-0.04605431109666824,-0.13698075711727142,0.31886133551597595
1772790135166616800,10.557616943359376,-0.07726948708295822,-0.14661234617233276,0.28072619438171387
1772790135176683000,10.56768310546875,-0.1084471121430397,-0.13489364087581635,0.21246007084846497
1772790135186749000,10.5777490234375,-0.13519643247127533,-0.1055447980761528,0.10742845386266708
1772790135196814800,10.58781494140625,-0.14816470444202423,-0.0895080417394638,-0.011110974475741386
1772790135206880800,10.597880859375,-0.16044187545776367,-0.06421360373497009,-0.11768721789121628
1772790135216947000,10.607947021484375,-0.1697205901145935,-0.005059473216533661,-0.20048090815544128
1772790135227012900,10.618012939453125,-0.17101381719112396,0.06492520123720169,-0.23529507219791412
1772790135237078800,10.628078857421874,-0.1640547215938568,0.13122913241386414,-0.23832255601882935
1772790135247144000,10.63814404296875,-0.1362726241350174,0.20829008519649506,-0.21671020984649658
1772790135257209900,10.6482099609375,-0.09380105882883072,0.329129695892334,-0.17052645981311798
1772790135267275800,10.65827587890625,-0.05335936322808266,0.44600197672843933,-0.13150689005851746
1772790135277342000,10.668342041015626,-0.0060059609822928905,0.4953343868255615,-0.11704699695110321
1772790135287407900,10.678407958984375,0.06538593024015427,0.5337582230567932,-0.14111077785491943
1772790135297473800,10.688473876953125,0.14251959323883057,0.5682682394981384,-0.18631261587142944
1772790135307540000,10.6985400390625,0.20377576351165771,0.6279741525650024,-0.17825362086296082
1772790135317606000,10.70860595703125,0.22110149264335632,0.695323646068573,-0.09916014224290848
1772790135327671800,10.718671875,0.2683773934841156,0.49926865100860596,-0.10950732231140137
1772790135337737700,10.72873779296875,0.3361596465110779,0.20524396002292633,-0.18301749229431152
1772790135347804000,10.738803955078126,0.3799497187137604,0.025886990129947662,-0.2340998500585556
1772790135357869800,10.748869873046875,0.3918439447879791,-0.0854262188076973,-0.2886834740638733
1772790135367935000,10.75893505859375,0.4047485589981079,-0.12162576615810394,-0.3784724771976471
1772790135378001000,10.7690009765625,0.4011801779270172,-0.10507981479167938,-0.466642290353775
1772790135388066800,10.77906689453125,0.4183197617530823,-0.023013707250356674,-0.49915653467178345
1772790135398132700,10.7891328125,0.4661501348018646,0.13106374442577362,-0.48198261857032776
1772790135408199000,10.799198974609375,0.5284265279769897,0.17769329249858856,-0.4761654734611511
