time,seconds_elapsed,z,y,x
1772819368417105700,0.090105712890625,-0.14384090017974377,-0.01622794422605075,0.05050475536184385
1772819368427170600,0.100170654296875,-0.13192951311171053,-0.019660055832890794,0.03346002399334684
1772819368437234700,0.110234619140625,-0.09955167659819125,0.008792597460374236,0.022493059902265668
1772819368447299600,0.120299560546875,-0.14741057536005972,0.013337200353760272,0.02820939172245562
1772819368457364500,0.130364501953125,-0.13858604839146135,0.011695972485374658,0.008033979379106312
1772819368467429600,0.1404296875,-0.06737082396149635,0.028897501850780098,-0.00837921262020245
1772819368477494500,0.15049462890625,-0.04178805441558361,0.020180928768683222,-0.005953117984440177
1772819368487559700,0.1605595703125,-0.0336930107653141,0.01562047071903944,0.003064483870845288
1772819368497624600,0.17062451171875,-0.035760464689135546,0.01595820564026944,-0.006785239693336188
1772819368507689500,0.180689453125,-0.0658130731254816,0.012832237373152746,0.007277754184324294
1772819368517753600,0.190753662109375,-0.0557744941920042,0.014922259321808814,-0.04568418507128954
1772819368527818800,0.20081884765625,-0.03212649210095406,0.03159438995167147,-0.030711035812459885
1772819368537883600,0.210883544921875,-0.053664954692125316,0.01821676625597756,-0.011745218454580753
1772819368547948500,0.220948486328125,-0.06457914741635322,-0.0016376796378521248,-0.035572942760400475
1772819368558013700,0.231013671875,-0.028951369196176528,0.006235880448576063,-0.019186510903853923
1772819368568078600,0.24107861328125,-0.08444529288113117,0.00099059107308276,-0.007547054378688335
1772819368578143500,0.2511435546875,-0.160897833442688,0.001488685921486467,0.006656791008077562
1772819368588208600,0.261208740234375,-0.10555004023015499,0.030330795190064236,-0.03985973496781662
1772819368598272500,0.2712724609375,-0.15556699380874633,0.053569983584783036,0.016350958684366194
1772819368608337700,0.281337646484375,-0.19618600444495676,0.036120256178546695,-0.03263033170355484
1772819368618402600,0.291402587890625,-0.13698328936994075,0.04978959282981232,-0.04932327222600579
1772819368628467500,0.301467529296875,-0.13445464767515658,0.05274450624580495,0.02052108397586271
1772819368638532600,0.31153271484375,-0.1111000755727291,0.036260034541995265,0.013027367219608276
1772819368648597500,0.321597412109375,-0.07412438987493515,0.02670718416569289,-0.0006894983678124844
1772819368658662700,0.33166259765625,-0.09641396309435367,0.005164470091089606,0.010581197910197078
1772819368668727600,0.3417275390625,-0.1140630170315504,-0.00204695455848705,0.0010319733962416647
1772819368678791400,0.35179150390625,-0.12318857277333736,-0.019991347313602453,0.002764185750018805
1772819368688863500,0.361863525390625,-0.0760433752387762,-0.022238920744415372,0.0027239268048666414
1772819368698928600,0.3719287109375,-0.04954115276038647,-0.012962065164744853,0.0028831724871881304
1772819368708993500,0.38199365234375,-0.0396405209928751,-0.021021873104851693,0.009704689070302993
1772819368719058400,0.392058349609375,-0.047080315604805946,-0.022455390206421726,0.032710265071969474
1772819368729123600,0.40212353515625,-0.08804185606837273,-0.004767474696715362,0.01897093192441389
1772819368739188500,0.4121884765625,-0.11315876166820525,0.01922886134139262,0.01128876165766269
1772819368749253600,0.422253662109375,-0.10941022278964518,0.031172273815772495,0.020566895878966897
1772819368759318500,0.432318603515625,-0.10732581773102283,0.044168058587028644,0.023268738716188817
1772819368769382400,0.44238232421875,-0.10927636727690695,0.025922189534152856,0.01450246300715953
1772819368779447600,0.452447509765625,-0.11015373463332652,0.01977171321355272,0.06831334724230691
1772819368789512400,0.462512451171875,-0.1029436571240425,0.015177996781701222,0.06553783638067544
1772819368799577600,0.47257763671875,-0.10172960515916347,0.02544374923428986,0.025809436174947766
1772819368809642500,0.482642578125,-0.14721242243945598,0.031429623277438805,0.006980524803418666
1772819368819707400,0.492707275390625,-0.1288069971770048,0.025860294145927762,-0.0006606923984363675
1772819368829772500,0.5027724609375,-0.07210662031173706,0.04169726172643713,0.00920375381084159
1772819368839837400,0.51283740234375,-0.07870178079307079,0.011095718737016431,0.0041183220390230415
1772819368849901300,0.5229013671875,-0.0822872380644083,-0.023297010396025143,0.007675941455364227
1772819368859966500,0.532966552734375,-0.0604319646090269,-0.01442697291842196,0.02019873842000961
1772819368870031600,0.543031494140625,-0.05834405241906643,-0.010340406857687048,0.004139638821687549
1772819368880096500,0.553096435546875,-0.09112813164591789,0.0018768723883200436,-0.023613570098485796
1772819368890161400,0.563161376953125,-0.1204769757270813,0.008495148883759974,-0.008324578089825809
1772819368900226600,0.5732265625,-0.09312135128974915,0.02415186909311451,-0.016219422992877663
1772819368910291500,0.58329150390625,-0.12771335672140122,0.023456639670836738,-0.02957618656363338
1772819368920356600,0.593356689453125,-0.1392553259551525,0.00853610194865614,-0.0015329999872483312
1772819368930420500,0.60342041015625,-0.09678104284107684,0.012984482492529786,-0.0016875512281432747
1772819368940485400,0.6134853515625,-0.09021393941044807,-0.0025151109263533726,-0.013734474309347568
1772819368950550500,0.623550537109375,-0.11385960341393947,-0.025927792724454776,-0.005669643134251236
1772819368960615400,0.633615478515625,-0.11939736379683016,-0.02010914217410609,-0.003218614986632019
1772819368970680600,0.6436806640625,-0.09381517877280711,-0.0041147829416440795,0.0016606814875267445
1772819368980745500,0.653745361328125,-0.12538929768800736,-0.010263464597379788,-0.025481263666506854
1772819368990810400,0.663810302734375,-0.12672376116216183,-0.01839843839923851,-0.0069149304876104
1772819369000875500,0.67387548828125,-0.12043489015102386,-0.018586101891868746,-0.0009551087677478789
1772819369010939600,0.683939697265625,-0.07780337064862251,-0.007948150559444912,-0.013582973542064428
1772819369021004500,0.694004638671875,-0.1252560266971588,-0.010708189857308752,-0.0004253675389103591
1772819369031069400,0.7040693359375,-0.1302145258873701,-0.015705920512787998,-0.010505484059173613
1772819369041134600,0.714134521484375,-0.07351765615344047,-0.01047790649908129,-0.0031956359698437154
1772819369051199500,0.724199462890625,-0.07472118672430515,-0.00954795500547625,0.02223075570426881
1772819369061264600,0.7342646484375,-0.09207096545398234,-0.017608429665863512,0.019556677656807003
1772819369071329500,0.74432958984375,-0.09117080174386501,0.008880910498066805,0.035305067338142544
1772819369081394400,0.75439453125,-0.09657119948267937,0.037446668776986186,0.018427216969151047
1772819369091459600,0.76445947265625,-0.11410042643249034,0.033998300155089235,0.0013556889252737164
1772819369101523500,0.7745234375,-0.10932663615942001,0.018391602233075535,0.036595454208552834
1772819369111588400,0.78458837890625,-0.10125555790662764,0.007482542341691442,0.027556882630474865
1772819369121653500,0.794653564453125,-0.06265665492117405,0.006613851482071913,0.021341478714346884
1772819369131718400,0.804718505859375,-0.063995794570446,0.014400687699695117,0.026831856291554868
1772819369141783600,0.814783447265625,-0.10842822601497172,0.010451603014045394,0.024171130916010586
1772819369151848400,0.824848388671875,-0.058446928271651266,0.029045500053302382,0.007631554324366152
1772819369161913300,0.834913330078125,-0.07446984231173992,0.041092806726996785,0.020481080759037283
1772819369171978500,0.844978515625,-0.12267653159797191,0.018545929711684582,-0.009957878380082547
1772819369182043600,0.855043701171875,-0.09099895230829715,0.018513296950561926,-0.008654705093335359
1772819369192107500,0.865107421875,-0.0950882674485445,0.037388371851644474,0.022276951199863105
1772819369202172400,0.87517236328125,-0.11982932547330856,0.026488536446332,0.0010409786866046487
1772819369212237600,0.885237548828125,-0.10925649353265762,0.020208460663002914,-0.010137454464379697
1772819369222302500,0.895302490234375,-0.09629881228208541,0.012487679985491558,-0.009078136403486132
1772819369232367600,0.90536767578125,-0.10159048894941806,0.005471741375396959,-0.019147183540463446
1772819369242432500,0.9154326171875,-0.06690379097163676,-0.012404139021039009,-0.008565821233484894
1772819369252497400,0.925497314453125,-0.0674906509488821,-0.008782610355899669,0.008335537875257431
1772819369262562600,0.9355625,-0.09587678747773169,-0.024334139457996933,-0.007312277508433908
1772819369272626400,0.94562646484375,-0.10105331333279609,-0.0036709846968995406,0.00836617047553882
1772819369282691600,0.955691650390625,-0.14755378322303295,-0.00919511384665966,-0.016000227284245192
1772819369292756500,0.965756591796875,-0.16403320885896683,0.008391062888200395,-0.05908619428956881
1772819369302821400,0.9758212890625,-0.14300035770237446,0.014129528908384963,-0.05691599237732589
1772819369312886500,0.985886474609375,-0.13769056085646153,0.008071790638845413,-0.03011970058949664
1772819369322951700,0.99595166015625,-0.10556757588684558,-0.021081138144573196,-0.006659421356581151
1772819369333016300,1.006016357421875,-0.09496142619848251,-0.031900199931254605,-0.0015574220424517987
1772819369343081500,1.01608154296875,-0.041972178810834884,-0.03153807492086198,0.008509981126710772
1772819369353146600,1.026146728515625,-0.0525590392768383,-0.032309977175388485,0.02305677646594122
1772819369363210500,1.03621044921875,-0.09486498008668422,-0.03062941281045787,0.02295437553739175
1772819369373275400,1.046275390625,-0.09049743252694606,-0.008978927512443623,0.012942648078221828
1772819369383340500,1.056340576171875,-0.08569149354994296,0.016224893752438945,-0.0032681897494010624
1772819369393405400,1.066405517578125,-0.14284721296727657,0.016526470514899118,0.024293058528937397
1772819369403470600,1.076470703125,-0.15677461603283882,0.04571860793069936,0.028190924484003333
1772819369413535500,1.086535400390625,-0.14125205273032188,0.05903193878510501,0.0205834634212777
1772819369423600400,1.096600341796875,-0.1255868660867214,0.06877297324384563,0.03426712085884064
1772819369433665500,1.10666552734375,-0.12277765388488769,0.044581411461159584,0.042711215408798305
1772819369443729400,1.1167294921875,-0.13207272097468375,0.031685730630089524,0.042436526653263716
1772819369453794600,1.126794677734375,-0.09901333193778991,0.018427586861909366,0.031215806996822356
1772819369463859500,1.136859375,-0.07357610834240913,0.0216449597395258,0.05952332533150911
1772819369473924400,1.14692431640625,-0.10111644169688225,0.0009601091698510572,0.054118470613285896
1772819369483989500,1.156989501953125,-0.08153729647994042,-0.004757994482317008,0.018822993087396024
1772819369494054700,1.1670546875,-0.0721481213659048,0.008623529070359653,0.024599439330678433
1772819369504119300,1.177119384765625,-0.05932488014996051,-0.0020337434504646805,0.011903057631105184
1772819369514184400,1.187184326171875,-0.0457446830868721,0.01352047079906333,0.015639705142471937
1772819369524249600,1.19724951171875,-0.07149111876189708,-0.005107465507113374,0.008032682471163571
1772819369534313500,1.2073134765625,-0.07506254750788212,-0.012923979910369962,0.01674258835045621
1772819369544378600,1.217378662109375,-0.08909867164492606,-0.010587536319438368,0.016550956502184272
1772819369554443500,1.227443603515625,-0.11301087763011455,-0.020478591974428854,-0.010133764669951051
1772819369564508400,1.23750830078125,-0.12436521533727646,-0.011695611725770867,-0.023537289991881698
1772819369574573600,1.247573486328125,-0.12825345494747162,0.006221317633683793,-0.011957399900536984
1772819369584638700,1.257638671875,-0.1405371824592352,0.017119189410773106,-0.03494593343585729
1772819369594703400,1.267703369140625,-0.1101852988153696,0.04460966944126412,-0.031667843346949665
1772819369604768500,1.2777685546875,-0.15314648866355418,0.03892537216057535,-0.023013540112413463
1772819369614833700,1.287833740234375,-0.1446276666432619,0.020842662346735596,-0.02727717063995078
1772819369624897500,1.2978974609375,-0.10259820468723774,0.03430961742685176,-0.018648275841306895
1772819369634962400,1.30796240234375,-0.11143325304985045,0.02103144465079531,-0.01584426953755319
1772819369645027300,1.31802734375,-0.11561726073622702,-0.01458268406994175,0.00329213688056916
1772819369655092500,1.328092529296875,-0.11186463020443915,-0.016237789766630158,0.021582557461224495
1772819369665157600,1.33815771484375,-0.09435410795509815,-0.012807824451103806,0.014138817326538263
1772819369675222300,1.34822216796875,-0.09166530726253985,0.006960947886691428,0.017688326501660048
1772819369685287400,1.358287353515625,-0.0979547627955675,0.01778907889581751,0.00586253535784781
1772819369695346000,1.368345947265625,-0.0779039084136486,0.02950482466074172,0.0019289953012019394
1772819369705411000,1.3784111328125,-0.0883650966733694,0.029085653967177494,0.011691296310257166
1772819369715475000,1.388474853515625,-0.10794716449975966,0.023788310177461244,0.017493552848231047
1772819369725539800,1.398539794921875,-0.1294739366531372,0.016825763988727704,0.029566943811252713
1772819369735605000,1.40860498046875,-0.13575871601104736,0.019521181651740334,0.011503061995469034
1772819369745670000,1.418669921875,-0.12066694534122943,0.022546593887521883,-0.0009155987412668764
1772819369755735000,1.428735107421875,-0.10467325739562511,0.01151108090514317,0.009522153843939304
1772819369765800000,1.438800048828125,-0.09763970549702644,0.0003635634822305292,0.011689396614115685
1772819369775864800,1.44886474609375,-0.08249708142280578,-0.002314537719800137,-0.007303801941033452
1772819369785930000,1.458929931640625,-0.0713730453401804,-0.011829535737168044,-0.008472699589934199
1772819369795994000,1.468994140625,-0.07880757925510407,-0.018460192223568445,0.007597231929656118
1772819369806059000,1.47905908203125,-0.11619009218811988,-0.00283603171010036,-0.01988130650129169
1772819369816124000,1.4891240234375,-0.09867197115421295,0.0011892508837627247,-0.007256346070114523
1772819369826189000,1.49918896484375,-0.13354571613669394,-0.002882282004621811,-0.031193467300850895
1772819369836254000,1.50925390625,-0.09540741640031337,0.009555549223464913,-0.011364219780359416
1772819369846318800,1.51931884765625,-0.10320143127739428,0.010048068281030281,0.00187465303177014
1772819369856384000,1.529384033203125,-0.105296357730031,0.0016845418537268415,-0.0019149119769223033
1772819369866449000,1.539448974609375,-0.1026040499061346,-0.004784334499971009,0.006102225865237415
1772819369876514000,1.54951416015625,-0.09797054488658904,-0.00047234848579391837,0.007587952644657343
1772819369886578000,1.559577880859375,-0.059516018807888024,0.002767724847397767,0.014247246137075125
1772819369896642800,1.569642822265625,-0.06744155111014842,0.0036095916321733966,0.014857724451925604
1772819369906708000,1.5797080078125,-0.07985445795953273,0.004233034459874034,0.004775141979940235
1772819369916772900,1.58977294921875,-0.054710664352774614,0.01954925696875434,0.0198992622830905
1772819369926838000,1.599838134765625,-0.06040390755832195,0.04306024804217741,0.019188556730467824
1772819369936903000,1.60990283203125,-0.10186696780323981,0.04481824329118244,0.016391802151408046
1772819369946967800,1.6199677734375,-0.11401625528037547,0.053351797089725726,0.01424498111475259
1772819369957033000,1.630032958984375,-0.13126257363557814,0.049090308286924844,0.023237192800454793
1772819369967098000,1.64009814453125,-0.1306850660085678,0.030983528044330886,0.037226409055851395
1772819369977162000,1.650161865234375,-0.10973872409164905,0.02425831144254189,0.04475349835874513
1772819369987227000,1.660226806640625,-0.09820376912057399,0.0044034682564903045,0.0370735017827712
1772819369997292000,1.6702919921875,-0.08935644579827785,0.002524933634046465,0.02990185658773407
1772819370007357000,1.68035693359375,-0.08874737398922443,0.009598082324094138,0.013348561997991054
1772819370017422000,1.690422119140625,-0.08545826931595801,0.00849140429040417,-0.008016114928852767
1772819370027487000,1.700487060546875,-0.12078326519727706,0.004268717694608494,-0.009680541009735316
1772819370037551900,1.7105517578125,-0.09999182158112525,-0.01165547607820481,0.014292162991035728
1772819370047617000,1.720616943359375,-0.1115226848989725,-0.0272976426058216,-0.012458846616651862
1772819370057682000,1.730681884765625,-0.09805413151681423,-0.051222621307615186,0.025400179520621895
1772819370067746000,1.74074609375,-0.10043781178295612,-0.05838742120333481,-0.00005059767607599497
1772819370077811000,1.75081103515625,-0.08053016526401043,-0.035785014608502384,-0.003492025100532919
1772819370087875800,1.760875732421875,-0.0944429552823305,-0.041407818359765224,0.004306337158102542
1772819370097941000,1.77094091796875,-0.10208148733675479,-0.03736818758014124,-0.010377948689367622
1772819370108006000,1.781005859375,-0.08877250843048096,-0.008464918142277747,-0.0038998569827526806
1772819370118070800,1.79107080078125,-0.10941197635531424,-0.010233918842487037,0.020653039792459457
1772819370128136000,1.801135986328125,-0.15547931552529334,-0.0056466047519585115,0.021155509421881286
1772819370138201000,1.811201171875,-0.12299275794029235,0.012772387811541556,0.0013558898546732962
1772819370148265700,1.821265625,-0.12881693404912947,0.01828507768525742,0.01572552026240155
1772819370158329900,1.831329833984375,-0.12432546784877777,0.017900517080770804,0.01353403810011223
1772819370168395000,1.84139501953125,-0.10099778375327587,0.015021582377282901,-0.0005427833735011518
1772819370178460000,1.8514599609375,-0.060626610398292535,0.022381228991667737,0.013103665592521428
1772819370188525000,1.861525146484375,-0.0718739805996418,0.00880023734413553,0.025496406436711548
1772819370198590000,1.87158984375,-0.06604629735946654,-0.014065519194887018,0.0204275056745857
1772819370208654800,1.88165478515625,-0.05287234300971031,-0.001825872853444889,0.015260533099155872
1772819370218720000,1.891719970703125,-0.07724106059074401,0.005107762334635481,0.011866086621582507
1772819370228785200,1.90178515625,-0.10624386771321297,-0.006084096553502604,0.0006078114337287843
1772819370238849800,1.911849853515625,-0.12163783619999885,0.010414737035799771,-0.010360339967440813
1772819370248914000,1.921913818359375,-0.10205576837360858,0.019844965679431333,-0.01282143285134807
1772819370258978800,1.931978759765625,-0.11363280892074107,0.008294593943515793,-0.03331374739045277
1772819370269044000,1.9420439453125,-0.11311375348269939,-0.016760498466482386,-0.03152006890671327
1772819370279109000,1.952109130859375,-0.05796762032210827,-0.04502095365589484,-0.008244827384501696
1772819370289173800,1.962173828125,-0.06278583425879478,-0.07199573468263261,0.002848831826169044
1772819370299239000,1.972239013671875,-0.07533902636170386,-0.07552818312509917,0.006089183720573783
1772819370309304000,1.982303955078125,-0.07843465428948401,-0.057091157147986814,0.0004577902374789118
1772819370319369000,1.992368896484375,-0.10621405709683894,-0.03015243381531909,0.004850983695127069
1772819370329433900,2.002433837890625,-0.13594225588440895,-0.02333201321074739,0.013606080423016101
1772819370339498000,2.012498046875,-0.17436346421539783,0.0030861842459999024,0.026245197243709117
1772819370349563000,2.02256298828125,-0.18257833485305308,0.009007053061807527,0.017177472636383025
1772819370359628000,2.0326279296875,-0.20457798521518705,0.013005000124173239,0.019909692345559594
1772819370369693000,2.04269287109375,-0.20639000307321548,0.01335788694876246,0.037839791713841255
1772819370379757800,2.0527578125,-0.1628583198606968,0.01861776197203435,0.041986536129750306
1772819370389823000,2.062822998046875,-0.14908230796456337,0.004668996458034962,0.04121125917462632
1772819370399888100,2.07288818359375,-0.12884031492471695,-0.0007395023888442665,0.014316530247312038
1772819370409952800,2.082952880859375,-0.06772913587987422,0.01666500220275484,0.015843337955791504
1772819370420018000,2.093017822265625,-0.0594300940901041,-0.005426482028141617,0.06085919531146064
1772819370430083000,2.1030830078125,-0.07209083822071552,-0.031223588444478808,0.02193593747615814
1772819370440147000,2.11314697265625,-0.05305471383929252,-0.028472604669327845,0.025515476463362573
1772819370450212000,2.123212158203125,-0.05005319393575191,-0.04843809145588893,0.012087985743954777
1772819370460276700,2.13327685546875,-0.039732875451445576,-0.04980088597538415,0.022507983476761726
1772819370470342000,2.143341796875,-0.04722001633644104,-0.02386241659328807,0.002885145248565823
1772819370480407000,2.153406982421875,-0.062008420145511625,-0.01796506108380854,-0.007002645303681492
1772819370490472000,2.163471923828125,-0.07168108837604523,-0.000035601036343723536,0.0016880444184876977
1772819370500536800,2.173536865234375,-0.08658931917250155,0.012909339463664219,0.0028726145605556665
1772819370510602000,2.18360205078125,-0.11677110694646835,0.016691839977330526,0.013608619439974426
1772819370520667000,2.1936669921875,-0.12946166169345377,0.014620728225121274,0.025254085580818354
1772819370530731000,2.20373095703125,-0.15638064827919004,0.009087785581243225,0.04918123340681195
1772819370540796200,2.213796142578125,-0.16895546769201755,0.01235025797591079,0.025691837677266446
1772819370550860800,2.22386083984375,-0.128733931940794,0.037070017484319394,0.01003236838839948
1772819370560926000,2.233926025390625,-0.10392039320170879,0.053602703110873694,0.013211436815932393
1772819370570991000,2.2439912109375,-0.10421966840922832,0.030979600787884552,0.006287318374868482
1772819370581056000,2.254055908203125,-0.05841711765527725,0.01344019037077669,0.007637253412790596
1772819370591121000,2.264120849609375,-0.024266426250338553,0.0073545046483865,0.01567609163010493
1772819370601186000,2.27418603515625,-0.07644786438643932,-0.01860528608295135,0.022206205784901976
1772819370611251000,2.2842509765625,-0.07342179456353187,-0.01909299196808133,0.02635660346262157
1772819370621315000,2.294315185546875,-0.09450374555885792,-0.01594819570290856,0.021573570437170564
1772819370631380000,2.3043798828125,-0.1030313354074955,-0.006011981165362522,0.009767872233316302
1772819370641444900,2.31444482421875,-0.10647884551286697,-0.0019210403236094862,0.0003463292196393013
1772819370651510000,2.324510009765625,-0.11216975063085555,0.00632006530042272,-0.023420020287763327
1772819370661575000,2.334574951171875,-0.07970540487766266,0.02728428536732681,-0.02098879281915724
1772819370671639800,2.344639892578125,-0.06683014121353625,0.02401651574303396,-0.005416198096144944
1772819370681705000,2.354705078125,-0.09449263964295387,0.009296304632234386,0.0037331038474105295
1772819370691773700,2.364773681640625,-0.09028408203721046,0.006650895556830801,0.004615403107274324
1772819370701838800,2.3748388671875,-0.09446867424547671,-0.00032786198118701573,0.008616638105269522
1772819370711902700,2.38490283203125,-0.0796557205170393,0.0007336571699474006,-0.001049034128896892
1772819370721967600,2.394967529296875,-0.07503156784772873,0.018611587959574533,-0.00260415461640805
1772819370732032800,2.40503271484375,-0.08537117555439472,0.014552818654640576,-0.004575655618775635
1772819370742097700,2.41509765625,-0.087629183614254,0.003201823682035319,0.00505763044944033
1772819370752162800,2.425162841796875,-0.08091127353608608,0.009845896772434934,0.0005124430341646075
1772819370762227700,2.435227783203125,-0.08181085272431374,0.0016753310673870145,0.015610588645841925
1772819370772292600,2.445292724609375,-0.08988836071789263,-0.009963180176285094,0.02137289676591754
1772819370782357800,2.455357666015625,-0.08704641529023646,-0.01653772712785285,0.007238664282951504
1772819370792422700,2.465422607421875,-0.10350947431325912,-0.017151950036059134,0.013823979223705827
1772819370802487600,2.475487548828125,-0.12400982602834701,-0.016706672220281323,0.02587386144697666
1772819370812551700,2.4855517578125,-0.13746727349460125,-0.017060107034142128,0.03623292277278378
1772819370822616600,2.495616455078125,-0.15317688380181788,-0.013204500185069627,0.026032906199898568
1772819370832681700,2.505681640625,-0.14059855725765227,-0.00564615722738672,0.01027472577691078
1772819370842746600,2.51574658203125,-0.15465163252949712,0.0000044295799452811475,0.013727003388945013
1772819370852811500,2.5258115234375,-0.15509703820943832,0.0009428338080644607,0.008760613153222949
1772819370862876700,2.535876708984375,-0.12786650145649908,0.015137335977749898,0.019274755442887544
1772819370872941800,2.54594189453125,-0.12129296828508376,0.0003630702918861061,0.016470840470679104
1772819370883006700,2.5560068359375,-0.15556699380874633,-0.013338022337667644,0.04264848890351131
1772819370893071600,2.566071533203125,-0.1296913787961006,-0.01561243354305625,0.023981234367098658
1772819370903135700,2.5761357421875,-0.08749766618907451,-0.008233091280935332,0.011361516366619617
1772819370913200600,2.58620068359375,-0.09616086511611938,-0.0018363622814184053,0.02352972773993388
1772819370923265800,2.596265869140625,-0.09688976391255855,-0.0044191864154301585,0.01287738255597651
1772819370933330700,2.60633056640625,-0.07054010164737701,0.014432480210601352,-0.003779774267040193
1772819370943395600,2.6163955078125,-0.08400222528874873,0.004451869408902712,-0.002350545181520283
1772819370953460700,2.626460693359375,-0.07337853994369506,-0.01979705771736335,0.002493332919385284
1772819370963526000,2.63652587890625,-0.0610989040851593,-0.02069250871974509,-0.00018333894396200775
1772819370973590500,2.646590576171875,-0.08502046242058277,-0.03191651174523868,0.004560951239988208
1772819370983655700,2.65665576171875,-0.07197218027710914,-0.02171886522595305,0.022718009498249737
1772819370993720800,2.666720947265625,-0.05548632490038871,0.015174827577080576,0.011065675225201993
1772819371003784700,2.67678466796875,-0.06281213774383068,0.03921800299817696,-0.022994123025890437
1772819371013849900,2.686849853515625,-0.07897825964689255,0.04545636766478419,-0.0029148827997036277
1772819371023914500,2.69691455078125,-0.09456395131349563,0.03069436780544929,0.003712572516035288
1772819371033979600,2.706979736328125,-0.05973287642896175,0.028591221513738854,-0.004377794959116727
1772819371044044800,2.717044921875,-0.07203180150985718,0.018854762765415943,0.01710709254760295
1772819371054109700,2.727109619140625,-0.09029226534366608,0.007875989505532198,0.01910102457748726
1772819371064174600,2.737174560546875,-0.06454466062486171,0.015196021062158978,0.022328809251263737
1772819371074239700,2.74723974609375,-0.06825929723381996,0.03371162413423881,0.02147679553180933
1772819371084305000,2.757304931640625,-0.10353694684207439,0.030809418153017756,0.016145864566322415
1772819371094369500,2.76736962890625,-0.13103051844537258,0.027534926526993513,0.026236356350127606
1772819371104433700,2.77743359375,-0.13025076624453066,0.04023465096112341,0.0053155142006464295
1772819371114498600,2.78749853515625,-0.13473463366031646,0.05131002102985512,-0.021561313743796197
1772819371124563700,2.797563720703125,-0.09240355840921402,0.012731571743963286,-0.030812925284355877
1772819371134628900,2.80762890625,-0.12459317887425422,-0.050382978445966724,-0.01391006833827123
1772819371144693500,2.817693603515625,-0.07582885570526122,-0.0373267595912097,-0.015375738710351288
1772819371154758700,2.827758544921875,-0.07613865230679512,-0.04730748455733992,-0.019136954407393932
1772819371164823800,2.83782373046875,-0.09469488421678543,-0.0712202978973044,-0.0076546794716268775
1772819371174888700,2.847888671875,-0.08211655767261981,-0.06228798143898602,0.02187301004147157
1772819371184953600,2.85795361328125,-0.09168868813812732,-0.05107323943218216,0.019216230188682674
1772819371195017500,2.868017578125,-0.11756781028211116,-0.05735667621637694,0.016307357004657387
1772819371205082600,2.87808251953125,-0.15797580851614473,-0.03339663990093395,0.023502730135153978
1772819371215147800,2.888147705078125,-0.14947159954309464,0.001477790068136528,0.005801854679174721
1772819371225213000,2.898212890625,-0.17613690362870693,0.016835554730379954,0.04246463850289583
1772819371235277600,2.908277587890625,-0.19920622904896734,0.021198517446545884,0.03800283678844571
1772819371245342700,2.9183427734375,-0.1450590437978506,0.0341741544789169,0.040031858398020266
1772819371255407900,2.928407958984375,-0.12187865921854972,0.0440909656296717,0.051415805792156606
1772819371265472800,2.93847265625,-0.10781038637757301,0.038162904454674566,0.04631267396686598
1772819371275537700,2.94853759765625,-0.08385258768498897,0.027042982858163304,0.04294127957131713
1772819371285602800,2.958602783203125,-0.08262626076042652,0.017188957578199916,0.04229419557312503
1772819371295666700,2.968666748046875,-0.05148351899981499,0.0063711607334204015,0.024443298920895903
1772819371305731800,2.97873193359375,-0.03443593808710575,-0.0023267761468654495,-0.0003880129368975758
1772819371315796700,2.988796630859375,-0.044480946761369704,-0.01644519000619184,0.026170323642902074
1772819371325861600,2.998861572265625,-0.0937374373614788,-0.031224401295231654,-0.007071509288810193
1772819371335926800,3.0089267578125,-0.06354045201838016,-0.01658832023735158,-0.03706153735034168
1772819371345991700,3.01899169921875,-0.0566764114677906,0.013499615240702405,-0.017952128536999224
1772819371356056600,3.029056640625,-0.09003682927787303,-0.007144592791330069,0.026429065910633653
1772819371366121700,3.039121826171875,-0.1346188983261585,0.007574778069253079,-0.033685759040620177
1772819371376186600,3.0491865234375,-0.10559154128432273,0.004885064061242155,0.006639328416623175
1772819371386251800,3.059251708984375,-0.15707915193736552,0.005730310113192536,0.007207575024943799
1772819371396316000,3.06931591796875,-0.16877251234054563,0.010935125914402306,-0.0011193959513679146
1772819371406380500,3.079380615234375,-0.16116905159950257,0.021215806508064268,-0.026350831308960914
1772819371416445700,3.08944580078125,-0.1233434710741043,0.026262810532213188,-0.016670454696007073
1772819371426510800,3.0995107421875,-0.11424012716412543,0.01004290348214563,-0.005468056147545575
1772819371436575700,3.10957568359375,-0.09224924463033675,0.0020721940310206265,0.004320530080236494
1772819371446640600,3.119640625,-0.1101940666437149,-0.026743917713197878,0.024503468142915517
1772819371456705800,3.129705810546875,-0.12306406961083412,-0.047204243378574026,0.002635444803815335
1772819371466770700,3.139770751953125,0.007269698742032051,-0.015753723443578928,-0.008887600533757358
1772819371476835800,3.1498359375,-0.12006605683863163,0.016400930739357136,0.05222564260400831
1772819371486900700,3.159900634765625,-0.06470774223208427,-0.006038837206247262,-0.06559694615676999
1772819371496964600,3.169964599609375,-0.008892916029691696,0.06077022925321944,0.013071955280005931
1772819371507029800,3.18002978515625,-0.030851065337657926,0.029022279007919132,0.043420368325151504
1772819371517094700,3.1900947265625,-0.09258534471690655,-0.0024010743589373304,0.005467435093037784
1772819371527159800,3.200159912109375,-0.10734335338771342,-0.012698043933697044,0.012827734727971255
1772819371537224700,3.210224609375,-0.0993751509875059,0.023755791580770163,0.05091965630566701
1772819371547289600,3.22028955078125,-0.14036884015500545,0.005268875747057609,0.0096105627797544
1772819371557354800,3.230354736328125,-0.1418827518492937,0.0331587531915633,-0.02817052101679146
1772819371567419600,3.240419677734375,-0.09536766891181468,0.04177082015299238,-0.01115300644878298
1772819371577484500,3.250484619140625,-0.10509937385320663,0.02355594446000177,0.025554639429971573
1772819371587549700,3.2605498046875,-0.09012450756132602,0.01046614756262861,0.011787431894801557
1772819371597613800,3.27061376953125,-0.08037468244135379,0.016145499240141362,0.015043511081300675
1772819371607678700,3.2806787109375,-0.08693360256552696,0.01196827748757787,0.010654829401988536
1772819371617743600,3.29074365234375,-0.11490355950891971,0.023851511606783605,0.020730708138551563
1772819371627808800,3.300808837890625,-0.1262754328727722,0.03139169328669086,-0.0021359525827690956
1772819371637873700,3.310873779296875,-0.11836509813964366,0.02724410405398812,-0.0066547634477727114
1772819371647938800,3.320938720703125,-0.12915887935459613,0.026030869506439194,-0.020065686624869704
1772819371658003700,3.331003662109375,-0.1420265442341566,-0.006182547392719425,-0.002265131920389831
1772819371668068600,3.341068603515625,-0.09876257204711436,-0.020468929096939974,-0.00627670564930886
1772819371678133800,3.3511337890625,-0.08556699038743973,-0.018443569882330483,-0.020266469893977044
1772819371688194600,3.361194580078125,-0.10812778176367283,-0.045817072469647974,-0.02815342375151813
1772819371698259700,3.371259765625,-0.08461188161969184,-0.023302777983108536,-0.011541969233751297
1772819371708323600,3.381323486328125,-0.10032032288312911,-0.025891844628239048,-0.014717603595182299
1772819371718388500,3.391388427734375,-0.11799684934914112,-0.023415709438826888,-0.014840426257252692
1772819371728453600,3.40145361328125,-0.1008136593580246,0.003831184793869033,0.003893701236601919
1772819371738518500,3.4115185546875,-0.07794657851159573,0.017908942415821364,0.009848901580274105
1772819371748583700,3.421583740234375,-0.06854395939409733,0.02615218976459,0.0034432540553621946
1772819371758648600,3.431648681640625,-0.07424129425287246,0.007327552709379233,0.039476124211400745
1772819371768713500,3.44171337890625,-0.08935703032016754,0.018882006965368053,0.057836303826328365
1772819371778778600,3.451778564453125,-0.07469897489249706,0.03287826944948174,0.047070250868517904
1772819371788843500,3.461843505859375,-0.06917816564440726,0.056404704687208866,0.06252793224127963
1772819371798908400,3.471908447265625,-0.09105155927836894,0.04724135595199186,0.055015912643354384
1772819371808972500,3.48197265625,-0.08599778302013873,0.03737808791964781,0.06374854181110859
1772819371819037700,3.49203759765625,-0.09680208562910556,0.02100656137128826,0.06734269384555518
1772819371829102600,3.5021025390625,-0.09712415719032287,0.003813649137178436,0.03705536333788186
1772819371839167500,3.51216748046875,-0.10462065042555331,-0.008261577589903027,0.04418510561995208
1772819371849232600,3.522232666015625,-0.10821487552523612,-0.025554721628362313,0.03141821596743539
1772819371859297500,3.532297607421875,-0.11629179899692535,-0.020255482709081844,0.01854266004236415
1772819371869362700,3.54236279296875,-0.13963760327100752,0.0031574685170780866,-0.013206815439742057
1772819371879427600,3.552427490234375,-0.11780454164743423,0.005820577645953744,-0.05220213386425748
1772819371889492500,3.562492431640625,-0.14206044650375843,-0.011241045491839758,-0.03193568223658949
1772819371899557600,3.5725576171875,-0.14626900410950183,-0.04703530741930008,-0.024433581244479863
1772819371909622800,3.582622802734375,-0.09901508550345897,-0.05215522141603287,-0.039768914879206564
1772819371919686700,3.592686767578125,-0.07736322566568851,-0.052837979515804906,-0.0330779841395095
1772819371929751600,3.60275146484375,-0.063330024138093,-0.03615954700931907,-0.01488455765992403
1772819371939816400,3.61281640625,-0.06452127974927425,-0.010077458772296086,-0.02590443924833089
1772819371949881600,3.622881591796875,-0.0914110402405262,0.001752857849583961,-0.015194646522402763
1772819371959946800,3.63294677734375,-0.08461889588236808,0.018396616334910503,-0.008033139128889888
1772819371970011400,3.643011474609375,-0.10955752230584621,0.04022397887005936,-0.02269919519992545
1772819371980076500,3.65307666015625,-0.10923486622273922,0.024933265261771156,-0.039465876812022176
1772819371990141700,3.6631416015625,-0.10445347716510295,0.03156181655605324,-0.010989705645851791
1772819372000206600,3.67320654296875,-0.1284188746422529,0.020876267788815312,-0.02200783366858959
1772819372010271500,3.683271484375,-0.11900924126207828,-0.007108831924782134,-0.022701186227612195
1772819372020335600,3.693335693359375,-0.07575988212227822,-0.02545408796521369,-0.00010546966847032308
1772819372030400500,3.703400390625,-0.07302958037555217,-0.0447656545874197,-0.0033855325187556445
1772819372040465700,3.713465576171875,-0.0991577088445425,-0.051442561368341556,-0.014613102041091768
1772819372050530600,3.723530517578125,-0.10537526818513869,-0.05149974404883105,-0.02113799203149974
1772819372060595500,3.733595458984375,-0.0961900912106037,-0.04957478560192976,-0.023585914906579998
1772819372070660600,3.74366064453125,-0.12294015097022055,-0.026759686104487625,-0.01476547959120944
1772819372080725800,3.753725830078125,-0.14029285230934618,0.0004985606392845511,-0.008172456268034875
1772819372090790400,3.763790283203125,-0.1603524745196104,0.004017934971046634,-0.016271555038914084
1772819372100855600,3.77385546875,-0.14450783965587616,0.030454549433896316,0.0005568118988536298
1772819372110920700,3.783920654296875,-0.12702011376023292,0.039959866307466285,0.013736666266433894
1772819372120985600,3.793985595703125,-0.11416472384035586,0.03435226012533531,0.02052095611169934
1772819372131049700,3.8040498046875,-0.11310907730758189,0.028389639093610457,0.05163766838191077
1772819372141114400,3.8141142578125,-0.09662439097464084,0.005396584646799601,0.06251375758545473
1772819372151179500,3.824179443359375,-0.07849193743467331,0.012288284955872222,0.05924797898884862
1772819372161244700,3.83424462890625,-0.07337853994369506,0.013329743133089504,0.05741789575116708
1772819372171309600,3.8443095703125,-0.07336158880889415,0.0024212266643997282,0.040330804811976845
1772819372181374500,3.85437451171875,-0.051070846545696255,0.005203610224812291,0.030103333976585416
1772819372191439600,3.864439697265625,-0.040004093608260155,-0.005109004443651065,0.03902030673529953
1772819372201504500,3.87450439453125,-0.04193593845367431,-0.012286462891544215,0.03803325019301847
1772819372211569700,3.884569580078125,-0.058657356151938435,-0.026056574769853614,0.045879762442316854
1772819372221634600,3.894634521484375,-0.09976210447847843,-0.046041364478506146,0.03159037593025714
1772819372231699500,3.904699462890625,-0.10617138699889182,-0.026561674747779034,0.013453940334916113
1772819372241763600,3.914763671875,-0.1268213763177395,-0.004977715347334742,0.010091332034021615
1772819372251828700,3.924828857421875,-0.15123510208427904,0.0010574000984430313,0.015797562585305423
1772819372261893600,3.9348935546875,-0.14332418282926082,0.025616023361543193,0.002689513078611344
1772819372271958500,3.94495849609375,-0.1388455761104822,0.03238017003450077,0.006088927992247045
1772819372282023700,3.955023681640625,-0.15320377180874348,0.017879401227505875,0.02563555917907506
1772819372292088600,3.965088623046875,-0.14467092126309872,0.01016439727023244,0.01920141621204093
1772819372302153500,3.975153564453125,-0.10427812059819698,0.028323117762617766,-0.00017784078493714332
1772819372312218600,3.985218505859375,-0.08903262067139148,0.023881714948802254,0.010522362128738314
1772819372322283500,3.995283447265625,-0.08829203143715858,0.013369335357961244,0.028378957869391888
1772819372332348700,4.0053486328125,-0.07347381701171397,0.009039731488702818,0.024172117296699432
1772819372342412500,4.01541259765625,-0.052364393487572665,0.003986886812234297,0.014991799160372465
1772819372352477400,4.0254775390625,-0.04187748626470566,-0.002925221530627459,0.029489585992414503
1772819372362542600,4.03554248046875,-0.04232523003220558,-0.0034172930636210365,0.011936466710362583
1772819372372607500,4.045607421875,-0.06821428904831409,-0.004004714729869738,0.00910087795825675
1772819372382672600,4.055672607421875,-0.07525368616580963,0.012757108044018969,0.002496054599434137
1772819372392737500,4.065737548828125,-0.08020926274657249,0.02183679708377458,-0.012642404756322502
1772819372402802400,4.075802490234375,-0.1008738651126623,0.020530737720197065,-0.012112079005595296
1772819372412867600,4.08586767578125,-0.13380758194327352,0.012146912856958805,-0.00339157866705209
1772819372422932700,4.0959326171875,-0.11332885753810405,0.02663015970699489,0.0006995631041005253
1772819372432997400,4.105997314453125,-0.13191314649879932,0.01960126571720466,-0.008876366753689944
1772819372443062500,4.1160625,-0.1307417646318674,0.004675471864594147,-0.018975553300604225
1772819372453126700,4.126126708984375,-0.11504442928433417,0.00882944973888807,-0.016803616089001296
1772819372463191600,4.136191650390625,-0.13300327982306479,0.0010971475869417189,-0.012722283325809984
1772819372473256700,4.146256591796875,-0.10667056869268417,-0.0035760775216389447,-0.030437643964868037
1772819372483321600,4.156321533203125,-0.08991407968103884,-0.010450319805834442,-0.031973804023582485
1772819372493386500,4.166386474609375,-0.0917114844918251,-0.017733024159912018,-0.02179983520740643
1772819372503451600,4.17645166015625,-0.09230945038497447,-0.026371727966517208,-0.01917745081456378
1772819372513516500,4.1865166015625,-0.07630114939212798,-0.00923362835929729,-0.012599223201721906
1772819372523581400,4.19658154296875,-0.07466857975423336,-0.0023035094357095657,-0.00042430809298530216
1772819372533646600,4.206646484375,-0.10146949291825294,0.01106443311618641,0.00942978111905977
1772819372543711700,4.216711669921875,-0.11107611017525196,0.006997083212574943,0.015269392259046435
1772819372553776400,4.2267763671875,-0.07864625121355057,0.02189576986255124,0.017108042395673692
1772819372563840500,4.236840576171875,-0.09123685271739959,0.023422678035730494,0.03274292523255572
1772819372573905400,4.246905517578125,-0.13119652266204357,0.016551924616564063,0.04855130147282034
1772819372583970600,4.256970458984375,-0.10082418075203894,0.01998638344411738,0.033870577555615455
1772819372594035700,4.26703564453125,-0.09410451710820197,0.026062214492773635,0.028659674506913868
1772819372604100400,4.277100341796875,-0.12838088071942327,0.029438668655930086,0.055317361541651185
1772819372614165500,4.28716552734375,-0.16175883418619633,0.02841969173857942,0.04992297341851517
1772819372624230700,4.297230712890625,-0.15517945579588413,0.0448520907618571,0.020236915005929768
1772819372634295600,4.307295654296875,-0.15576748481690883,0.048728475537477056,0.00959651598809287
1772819372644360400,4.3173603515625,-0.15919102952480316,0.035711602312419564,0.018233119169156996
1772819372654425600,4.327425537109375,-0.18700491912364958,0.0065413936006370925,-0.004931026661396026
1772819372664490500,4.337490478515625,-0.15946750837862492,-0.008214706240873783,-0.0120638376833871
1772819372674555600,4.3475556640625,-0.12012041737437247,-0.007801330533856525,-0.022801340400148182
1772819372684619800,4.357619873046875,-0.11309037260711192,-0.021354630456864834,-0.030296920319925993
1772819372694685400,4.367685546875,-0.09109656746387482,-0.028155058586178346,-0.03478542737821117
1772819372704750600,4.37775048828125,-0.0640045623987913,-0.014664503434766083,-0.03524584796419367
1772819372714815500,4.3878154296875,-0.056205286824703216,-0.02051419757734984,-0.02101577215762809
1772819372724880400,4.39788037109375,-0.05826923361718654,-0.02552858254010789,0.002260620142053813
1772819372734945500,4.407945556640625,-0.05254910240471363,-0.017590939674945547,-0.012360044150985777
1772819372745010400,4.418010498046875,-0.0523673160970211,-0.013711897151358425,-0.019182053924445063
1772819372755075300,4.428075439453125,-0.04366144707202911,-0.007425820885505527,0.0028972010125406086
1772819372765140500,4.438140380859375,-0.06114800392389297,0.009428995667770505,-0.0021144714033231138
1772819372775205400,4.448205322265625,-0.08777356052100659,0.024922104546939952,-0.01669062070120126
1772819372785270500,4.4582705078125,-0.07281155371069908,0.06391074663549662,-0.007316643156297505
1772819372795334400,4.46833447265625,-0.11322481264173984,0.06778074733610265,0.017108133727218956
1772819372805399300,4.4783994140625,-0.11474047790169715,0.06753223420144058,0.0072753430315293365
1772819372815464400,4.48846435546875,-0.10891454822719096,0.07522769320802762,0.025597857517190275
1772819372825529300,4.498529296875,-0.12149287477135658,0.06326759902690537,0.03240943722818047
1772819372835594500,4.508594482421875,-0.1034101055920124,0.05274094431553967,-0.0005408836773596703
1772819372845659400,4.518659423828125,-0.048989364096522325,0.04141969602722674,0.006083886490948498
1772819372855724300,4.528724365234375,-0.06789397105276584,0.013427919977670535,0.05373586450386792
1772819372865789400,4.53878955078125,-0.06884498816728592,-0.011513857384119182,0.04369810755429789
1772819372875854600,4.5488544921875,-0.04703589194118976,0.00596903707277961,0.022989757378026842
1772819372885919200,4.558919189453125,-0.060362406504154205,0.006385536318644881,0.028328798584733157
1772819372895984400,4.568984375,-0.08189560839831829,0.0110051315438468,0.03171707104984671
1772819372906049500,4.579049560546875,-0.10807049861848354,0.005740105421422049,0.016795633711945264
1772819372916113400,4.589113525390625,-0.13156886310577393,0.006790180729934946,0.00047612961176782845
1772819372926178600,4.599178466796875,-0.1655588109910488,-0.0003074859134387225,-0.00019793372489511964
1772819372936243500,4.609243408203125,-0.16708908929824828,-0.012319036287162452,-0.004888265231903642
1772819372946308400,4.619308349609375,-0.16951427061855792,-0.025270908851455897,-0.005801343222521245
1772819372956373500,4.62937353515625,-0.15590075580775736,-0.04559438789598644,-0.010728826219961046
1772819372966438700,4.639438720703125,-0.1367237616509199,-0.04971197928264737,0.005318235880695283
1772819372976503300,4.64950341796875,-0.13443009775578976,-0.05824921374246478,0.009023666269890963
1772819372986568400,4.659568359375,-0.1398924548149109,-0.06312734117284417,0.01516715572727844
1772819372996633600,4.669633544921875,-0.15762801799178122,-0.05376052402108907,0.016785130584239957
1772819373006698500,4.679698486328125,-0.14574994867146016,-0.03767528533451259,0.011035462750028818
1772819373016763400,4.689763427734375,-0.14391630350351334,-0.017028328222967685,0.015415942856576293
1772819373026828500,4.69982861328125,-0.14418810618221758,-0.0001971300072968006,0.02281686676284298
1772819373036893400,4.7098935546875,-0.11198971788883208,0.021596257193014026,0.03693009299039841
1772819373046958300,4.719958251953125,-0.11674363441765308,0.02910982942720875,0.03965763652445748
1772819373057023500,4.7300234375,-0.093802319291234,0.03544150753361173,0.032056678267754615
1772819373067087400,4.74008740234375,-0.06351414853334426,0.047219925004895774,0.04058998547112569
1772819373077152500,4.750152587890625,-0.07347089440226555,0.035002449396066365,0.05052415418205782
1772819373087217400,4.760217529296875,-0.08597206405699252,0.03356289071277715,0.034385961465537546
1772819373097282300,4.7702822265625,-0.08038052766025065,0.01960068119531497,0.02787157460283488
1772819373107347500,4.780347412109375,-0.07914777099490165,0.027186661078594625,0.0073777256937697525
1772819373117412400,4.790412353515625,-0.03723638246059417,0.020894155071955172,-0.0038397242933511733
1772819373127477500,4.8004775390625,-0.03259469413459301,0.010916686075413599,-0.0036833646878600117
1772819373137542400,4.81054248046875,-0.05742401496469974,-0.008370545256556942,-0.0018412804851308463
1772819373147607300,4.820607177734375,-0.05605506469905376,-0.013317125680111348,-0.008236936338990926
1772819373157672400,4.83067236328125,-0.05302665678858757,-0.009324777241470291,-0.01366224932335317
1772819373167737600,4.840737548828125,-0.08006488583981991,0.005733182490291073,0.002390657996200025
1772819373177801500,4.850801513671875,-0.10127017095386981,0.014562851424887776,-0.006780654849763959
1772819373187866400,4.860866455078125,-0.1257885261386633,0.013880604781769215,-0.02179141443893313
1772819373197931500,4.870931640625,-0.1322106681406498,0.02255560374446213,-0.009511230591125786
1772819373207996400,4.880996337890625,-0.1187426992803812,0.015978736971644685,-0.00507538530183956
1772819373218061600,4.8910615234375,-0.10587152726948261,0.02591628494975157,-0.008517543378658593
1772819373228126500,4.90112646484375,-0.1067646767169237,0.01779563193419017,-0.004872793668136
1772819373238191400,4.91119140625,-0.1157277353733778,0.01023488695686683,-0.005467690821364521
1772819373248256500,4.921256591796875,-0.10942308227121829,0.014305451730871572,0.007799385171942412
1772819373258321400,4.9313212890625,-0.10970540634393691,0.01856477140947245,-0.0017713935866951942
1772819373268386300,4.94138623046875,-0.14396014264523982,0.002546798405982554,0.0008593385093845426
1772819373278451500,4.951451416015625,-0.15472002159059048,-0.0012174038325902074,0.016318627317342908
1772819373288516600,4.9615166015625,-0.16771452772021292,-0.0012787694978527724,0.03559243291215971
1772819373298581200,4.971581298828125,-0.18309446768164633,-0.007793339023645967,0.026684611574281005
1772819373308645400,4.981645263671875,-0.15627192720770836,0.015414024894125758,0.013378957136254756
1772819373318710300,4.991710205078125,-0.145158997040987,0.024687099347822365,0.003987608331441879
1772819373328775400,5.001775390625,-0.13838731094896792,0.01872967051444575,0.00028150208881124855
1772819373338840600,5.011840576171875,-0.13326339206397533,0.020658948943438008,0.011214783105999231
1772819373348905200,5.0219052734375,-0.12321195364892482,0.023574073771736582,-0.00009320384194143116
1772819373358970400,5.031970458984375,-0.08757833020985126,0.022114198386203498,0.010678539071138948
1772819373369035500,5.042035400390625,-0.08950491435825825,0.018025157240591942,0.010533997767604887
1772819373379100700,5.0521005859375,-0.05133388139605522,0.013673926061415112,0.0036423111582640556
1772819373389165300,5.062165283203125,-0.011816694521903991,0.030117061107838523,0.011682702011847868
1772819373399230500,5.07223046875,-0.0167354462236166,0.025242481907992623,0.008431609527720138
1772819373409295600,5.082295654296875,-0.027040567138791084,0.022508339669788255,0.0142278290505521
1772819373419360500,5.092360595703125,-0.013113748595118522,0.03065319554484449,0.020146286713564766
1772819373429424600,5.102424560546875,-0.014461071550846099,0.047102367606409824,0.023904114010278133
1772819373439489300,5.1124892578125,-0.03601064005792141,0.04079201084924861,0.023552213566377756
1772819373449554400,5.122554443359375,-0.07117021624445914,0.04451554315071553,0.041421330861886964
1772819373459619600,5.13261962890625,-0.06517769783139228,0.04127697678802069,0.04708805138668976
1772819373469684500,5.1426845703125,-0.08372165478169917,0.03569035859499126,0.04131503007635474
1772819373479749400,5.152749267578125,-0.14715806190371514,0.025334667403204364,0.03264159288308583
1772819373489814500,5.162814453125,-0.13608312565982342,0.01312182687029708,0.026999212215095755
1772819373499879400,5.17287939453125,-0.17499474785625935,0.01430084862099029,0.02111849274658598
1772819373509944300,5.1829443359375,-0.17844751865863798,-0.004577212821622379,-0.00019607969452627
1772819373520009500,5.193009521484375,-0.1606482425957918,-0.018915516509325242,0.0009035338441375642
1772819373530074400,5.203074462890625,-0.1748649839967489,-0.03132145019522868,0.009004240050213412
1772819373540139500,5.213139404296875,-0.15136428142189978,-0.04064103523835074,-0.008611560071352869
1772819373550204400,5.223204345703125,-0.11722995662987232,-0.03801722607340198,-0.007865682740649207
1772819373560268300,5.233268310546875,-0.1234960312873125,-0.051874440846429205,0.0018591266690753398
1772819373570333400,5.24333349609375,-0.10492693989574908,-0.034165039590699595,-0.0012927980232052504
1772819373580398600,5.253398681640625,-0.09458850123286247,-0.021314024451840666,0.015526709754671901
1772819373590463500,5.26346337890625,-0.08500526485145092,-0.009182067135418765,0.0034331619196105744
1772819373600528400,5.2735283203125,-0.07318155606687068,-0.0009003463732078671,0.010032103526918216
1772819373610593500,5.283593505859375,-0.05866729302406311,0.003398908023559488,0.021206755551928653
1772819373620658400,5.293658447265625,-0.05836626425087452,0.009881333411997184,0.036042834427626805
1772819373630723600,5.3037236328125,-0.053576107364892954,0.027883794763591138,0.03873601903435774
1772819373640788500,5.31378857421875,-0.05027706581950187,0.03278512497304473,0.03544717008941806
1772819373650853400,5.323853271484375,-0.06403028136193752,0.04713866732907481,0.03279416222944855
1772819373660918500,5.33391845703125,-0.059978960144519804,0.046251344834221525,0.02830118905859999
1772819373670983700,5.343983642578125,-0.10396715495288371,0.048719821873563336,0.02313215239024721
1772819373681048300,5.35404833984375,-0.13269582130908966,0.042322837145719674,0.011094335064105688
1772819373691112400,5.364112548828125,-0.134192781868577,0.04984615445579402,-0.010808723055757582
1772819373701177600,5.374177490234375,-0.15154782129526137,0.03897295589565765,0.0075467986503615974
1772819373711242800,5.38424267578125,-0.1736854188233614,-0.003551988826575689,0.0021471772296819836
1772819373721307400,5.394307373046875,-0.16156652648448944,-0.0047632323464378715,-0.062128712923778216
1772819373731372500,5.40437255859375,-0.08974807546436786,-0.009529464934137649,-0.03880660918569192
1772819373741437700,5.414437744140625,-0.11863690081834792,-0.02721900157877244,-0.0634966220098082
1772819373751502600,5.424502685546875,-0.09814356336593627,-0.06085274273778777,-0.05451327861715108
1772819373761567500,5.4345673828125,-0.07481237213909625,-0.06181630424004979,-0.05637071565263904
1772819373771632600,5.444632568359375,-0.04490472513139248,-0.0675499159886036,-0.04975902416161261
1772819373781697500,5.454697509765625,-0.028012627041339874,-0.06724822962828911,-0.029369631140865386
1772819373791762700,5.4647626953125,-0.07649111900627613,-0.05919699315370526,-0.0032032712870277463
1772819373801827600,5.47482763671875,-0.09951309815347194,-0.03480973526898306,0.009293888912862166
1772819373811892500,5.484892578125,-0.10756839431524276,-0.0021486796336015685,0.01215203655664809
1772819373821956600,5.49495654296875,-0.10276420890390872,0.033276114227226934,-0.0036239809171296654
1772819373832021800,5.505021728515625,-0.10604746835827827,0.0649088497281773,0.0075926744855474675
1772819373842086700,5.515086669921875,-0.11442775869071482,0.06300661000316031,0.01975093985358253
1772819373852151600,5.525151611328125,-0.11249299123585224,0.0626150168696884,0.022975957181537523
1772819373862216700,5.535216796875,-0.09589724574387073,0.0588539199036546,0.028252975135855375
1772819373872281600,5.545281494140625,-0.09590192191898822,0.03799527910307515,0.04316723381429911
1772819373882346800,5.5553466796875,-0.09844166952967644,0.018731494862062388,0.05391141286701895
1772819373892411600,5.56541162109375,-0.07448854701220989,0.020599807201302608,0.041278396993549536
1772819373902476500,5.5754765625,-0.0880903713852167,0.01605633681907784,0.02137367308405228
1772819373912541700,5.585541748046875,-0.09675649292171001,0.024118368682311847,0.022516586908325552
1772819373922606600,5.595606689453125,-0.09780044901669024,0.030591382355010136,0.004304903252841904
1772819373932671500,5.60567138671875,-0.09900982480645179,0.021332729152310638,-0.0016418945886660366
1772819373942736600,5.615736572265625,-0.1042681837260723,0.0205629640559433,0.007554251304455101
1772819373952800500,5.625800537109375,-0.14259879116415977,0.007189231084077619,-0.0006814611918292939
1772819373962865700,5.63586572265625,-0.11689151845574378,0.01593402104708366,-0.009156060477904975
1772819373972930600,5.6459306640625,-0.08594400700628757,0.006380197989824228,-0.004031155212223529
1772819373982995500,5.655995361328125,-0.10465864434838294,-0.0037794546066317707,-0.003695219522435218
1772819373993060600,5.666060546875,-0.10106149663925171,-0.01728441274273209,-0.00426339306551963
1772819374003125800,5.676125732421875,-0.08937690406441688,-0.025305354543752035,0.0030077943807002155
1772819374013190400,5.6861904296875,-0.07545183908641338,-0.01354663272020407,-0.009388024336565286
1772819374023255600,5.696255615234375,-0.09550035538077353,-0.01645969345557969,-0.009119527859799564
1772819374033320700,5.70632080078125,-0.10957798057198524,-0.05182744163323659,-0.00960858088522218
1772819374043385600,5.716385498046875,-0.08805296198427677,-0.018519681025575847,0.01074153957106173
1772819374053450500,5.726450439453125,-0.07819909196794032,-0.01432492818289902,0.02582610418195836
1772819374063515600,5.736515625,-0.0809060128390789,-0.009890594430686905,0.04407881396757438
1772819374073580500,5.74658056640625,-0.08809913921356201,0.009007779147592373,0.016511574339866636
1772819374083645700,5.756645751953125,-0.10980009889006614,0.017829328707815145,0.03292701309518888
1772819374093709800,5.766709716796875,-0.12147533911466597,0.020019112103362567,0.05508428343813866
1772819374103774500,5.7767744140625,-0.11714695452153683,0.024938206298369913,0.05274323673732578
1772819374113839600,5.786839599609375,-0.11657120046019553,0.039337062800582495,0.03447919270694256
1772819374123904800,5.79690478515625,-0.12183949625194072,0.019400624011992475,0.04209319310830906
1772819374133969700,5.8069697265625,-0.11753799966573715,0.010488226963696069,0.06826262170206755
1772819374144034600,5.81703466796875,-0.09678513449430465,0.015011864700866863,0.038323465311247855
1772819374154099700,5.827099609375,-0.0772287856310606,-0.0032206516800913957,0.017385197102930395
1772819374164164600,5.83716455078125,-0.0932797567218542,-0.013217382499529048,0.03757973427185789
1772819374174229500,5.8472294921875,-0.09303484205007552,-0.02607238426033873,0.04483562368424609
1772819374184294700,5.857294677734375,-0.1278361063182354,-0.01788167538298294,0.020938140344154088
1772819374194359600,5.867359619140625,-0.10142799186408519,-0.01755365357159171,-0.058807139886170624
1772819374204424700,5.8774248046875,-0.10160802460610865,-0.024273198484419844,0.024498481440544128
1772819374214489600,5.887489501953125,-0.11777297746539116,-0.002063380536902696,0.044628209744952616
1772819374224554500,5.897554443359375,-0.09187748870849609,-0.008213126205140725,-0.014265585511364042
1772819374234618600,5.90761865234375,-0.09186755183637142,-0.0071427478941157455,0.005921681666560471
1772819374244683500,5.91768359375,-0.1307721597701311,-0.015415490765427238,0.015249500248488038
1772819374254748700,5.927748779296875,-0.14439561145305632,-0.006815475001395679,-0.0037354054023511704
1772819374264813600,5.9378134765625,-0.13602876512408255,-0.009437905060010961,-0.02035549988429993
1772819374274878500,5.94787841796875,-0.13648118506669998,-0.009001143910828978,-0.025473025561124085
1772819374284943600,5.957943603515625,-0.10356325032711028,-0.00612486238873098,-0.0250464707121253
1772819374295008800,5.9680087890625,-0.09862287131547927,-0.011144699844741262,-0.0248031086766161
1772819374305073400,5.978073486328125,-0.09232873960733413,-0.01946014934661798,-0.033668369514402
1772819374315138600,5.988138671875,-0.0817073923498392,-0.016660207296628503,-0.03550354905230924
1772819374325203700,5.99820361328125,-0.09592530279457569,-0.015787790109962223,-0.01837687502140179
1772819374335268600,6.0082685546875,-0.1249602586209774,-0.020793133249739183,-0.009656593878567219
1772819374345333500,6.01833349609375,-0.09684534024894237,-0.013574557340168393,-0.016754899842757732
1772819374355398700,6.028398681640625,-0.07890636345446109,-0.007553287756652571,-0.014992219285480677
1772819374365463600,6.038463623046875,-0.08085925108790397,-0.004775621470552869,0.0045207653600722545
1772819374375527700,6.048527587890625,-0.09043839581608772,0.009289285802980884,0.010688585541117936
1772819374385592600,6.058592529296875,-0.07247837623357772,0.018304435406276024,0.002897475007176399
1772819374395657500,6.068657470703125,-0.0928185689508915,0.026877111072232944,0.027174386118911206
1772819374405722600,6.07872265625,-0.11002104816436767,0.027307545228616798,0.03191739766122773
1772819374415787800,6.088787841796875,-0.10493863033354282,0.012238822074246127,0.023132015392929313
1772819374425852400,6.098852294921875,-0.10584347021877764,0.006432791260164231,0.034964839065726845
1772819374435917600,6.10891748046875,-0.09912088396549225,-0.0009137835268047638,0.028367194366361943
1772819374445982700,6.118982666015625,-0.07938450236022472,0.027474286947515792,0.02584827034799382
1772819374456047600,6.129047607421875,-0.1073749175697565,0.028093736303399782,0.011315138207934797
1772819374466112500,6.139112548828125,-0.0957025999546051,0.026784224607411304,0.015829053702112288
1772819374476177700,6.149177734375,-0.10602116487324237,0.012233835371874738,0.01581098832245916
1772819374486242600,6.15924267578125,-0.08820902932882309,0.008265703492460306,0.007135879761911928
1772819374496307700,6.1693076171875,-0.10182020605206489,0.002064572413568385,0.010381547152251005
1772819374506372600,6.17937255859375,-0.11363982318341731,-0.0173297131891828,-0.0012978029918856919
1772819374516436500,6.1894365234375,-0.11379062983095645,-0.01618036049096845,0.004747048396617174
1772819374526501600,6.199501708984375,-0.11110825887918471,-0.008517068454623222,0.004462842894066125
1772819374536566500,6.20956640625,-0.12264029124081134,-0.01718945305183297,0.013109803072363138
1772819374546631700,6.219631591796875,-0.12713234196305273,-0.018711650800565256,-0.0032229989008046686
1772819374556696600,6.229696533203125,-0.0910620806723833,-0.005458260839316062,-0.008326386454422026
1772819374566761500,6.239761474609375,-0.09492869297266006,-0.012710839483188465,-0.002410805735085159
1772819374576826600,6.24982666015625,-0.10955869134962558,-0.007052044253225903,-0.0026430253220722077
1772819374586891800,6.259891845703125,-0.1300233872294426,-0.008331213326589204,0.0026943171178922054
1772819374596956700,6.269956787109375,-0.13463818754851817,-0.011482822925038634,0.00818073090603575
1772819374607021600,6.280021484375,-0.13178104455173015,0.00045391321338247506,0.0062742396975867445
1772819374617086700,6.290086669921875,-0.14463994160294533,0.011662673003971577,0.0035726891213096676
1772819374627151600,6.300151611328125,-0.13041209428608416,0.014297286690725013,-0.0056956543583422895
1772819374637216500,6.310216552734375,-0.12544950344264508,0.021083439699513838,-0.002361103108152747
1772819374647281700,6.32028173828125,-0.12242343361973762,0.026382717434701042,0.006624350043199956
1772819374657346800,6.330346923828125,-0.08962357230186462,0.029720070280041543,-0.010342073658388108
1772819374667410700,6.34041064453125,-0.055492754641175264,0.032677127704059235,-0.01226893180143088
1772819374677475600,6.3504755859375,-0.057583004918694496,0.01561939529009396,-0.0006970240871421992
1772819374687540500,6.36054052734375,-0.05100245748460293,-0.009565139035717584,-0.01130037903022021
1772819374697608400,6.3706083984375,-0.029462825849652288,-0.011783282017713646,-0.002891447125189006
1772819374707673600,6.380673583984375,-0.05324994415044784,0.00313725342117832,0.008105985169392078
1772819374717738500,6.390738525390625,-0.0605628975123167,0.023497805081575642,0.02922600315278396
1772819374727803400,6.400803466796875,-0.05200491252541542,0.047448308666981756,0.029572843829076736
1772819374737868500,6.41086865234375,-0.06185118375718593,0.0635543252801057,0.0393755681800656
1772819374747933400,6.420933349609375,-0.0946048678457737,0.06347051945417188,0.019589283018466085
1772819374757998600,6.43099853515625,-0.0965478186070919,0.052627437471086155,0.022059709986299275
1772819374768063500,6.4410634765625,-0.11301087763011455,0.05019807316600345,0.02529591542854905
1772819374778128400,6.45112841796875,-0.12618249389231204,0.025464673291309733,0.014918222467508166
1772819374788193500,6.461193603515625,-0.09595394436717034,0.004930983278912026,0.03892292904173955
1772819374798258400,6.471258544921875,-0.09010755642652511,-0.01644107323678909,0.018374518667533993
1772819374808322300,6.481322265625,-0.10999299111366272,-0.03344597720168531,0.01416917593218386
1772819374818387500,6.491387451171875,-0.13735387624800205,-0.047773503767047074,0.01699016990335658
1772819374828452400,6.501452392578125,-0.14197159917652605,-0.04638184847924858,0.009802267693262546
1772819374838517500,6.511517578125,-0.13761983370780945,-0.04259463069126941,-0.0031861557554453608
1772819374848582400,6.52158251953125,-0.14704232656955718,-0.0359960384271224,-0.004233308454509825
1772819374858647300,6.531647216796875,-0.14824118096530436,-0.03525786719555035,-0.013580927715450525
1772819374868712400,6.54171240234375,-0.11503507693409919,-0.019245757677266374,0.002829451272264123
1772819374878777600,6.551777587890625,-0.12237900995612144,-0.02311478798020398,0.01851020081117749
1772819374888842200,6.56184228515625,-0.09500935699343681,-0.015342932419292628,0.024628080903273075
1772819374898907400,6.571907470703125,-0.0600005874544382,0.00590648409742862,0.03671345456503331
1772819374908972500,6.58197265625,-0.06464227578043938,0.007441630375990643,0.049129357089102266
1772819374919037400,6.592037353515625,-0.06942015770673751,0.009181044222111813,0.05190720603829249
1772819374929102300,6.602102294921875,-0.046807928404211996,0.011837166487774812,0.058332782106380904
1772819374939167500,6.61216748046875,-0.03586626315116882,0.011457877996738534,0.06032916182167828
1772819374949232400,6.622232421875,-0.0601052168726921,0.01398337331978837,0.04427956070406362
1772819374959296500,6.632296630859375,-0.057877603951096535,0.01870632160489913,0.03129314654935151
1772819374969361700,6.642361572265625,-0.08812018200159072,0.011143635832238942,0.030574823945853858
1772819374979426300,6.65242626953125,-0.12359598453044891,-0.009960572660667822,0.025025720185041424
1772819374989491500,6.662491455078125,-0.12345745284259318,0.004943742295785341,0.0313642938231118
1772819374999556600,6.672556640625,-0.13484218568801878,0.0006044641325948759,0.01745097408182919
1772819375009621500,6.68262158203125,-0.1498205591112375,0.0036945893347728994,0.01881736706420779
1772819375019686400,6.692686279296875,-0.18215280291736125,0.00495115841726074,0.02002745524002239
1772819375029751600,6.70275146484375,-0.1686965244948864,0.006764014242216944,-0.0013588307304307817
1772819375039816400,6.71281640625,-0.15463818852603434,0.03124127251493046,0.0008647636031731962
1772819375049881300,6.72288134765625,-0.15703472827374934,0.0169341882326873,-0.024787691911775617
1772819375059946500,6.732946533203125,-0.12681027040183543,0.00751911377570359,-0.038926125645823775
1772819375070011400,6.743011474609375,-0.1116927807688713,0.002298328653804492,-0.03520569861689582
1772819375080076500,6.75307666015625,-0.09357903192937374,-0.010195191984006669,-0.037947562937252224
1772819375090141400,6.763141357421875,-0.09072481154203414,-0.02012672349656932,-0.0494614203213714
1772819375100206300,6.773206298828125,-0.06182955644726753,-0.0209644666620763,-0.05537504654563963
1772819375110270500,6.7832705078125,-0.08889525802731514,-0.03169384087130893,-0.04020535180140286
1772819375120335400,6.79333544921875,-0.07151683772504329,-0.022948217507952357,-0.04071962146647274
1772819375130400500,6.803400390625,-0.06611176381111145,-0.013116270487412112,-0.045994566194713114
1772819375140465400,6.81346533203125,-0.06505436371266841,-0.005169153116072993,-0.05509652186520397
1772819375150530300,6.8235302734375,-0.08928513412773609,-0.007052669874310959,-0.03682942736120894
1772819375160595500,6.833595458984375,-0.09795593183934688,-0.007807957779109711,-0.030803810396138578
1772819375170660600,6.84366064453125,-0.0707236415207386,0.010412083854409865,-0.028052264931984244
1772819375180725200,6.853725341796875,-0.05097673852145672,0.03463017288441769,-0.01010161596601829
1772819375190790400,6.863790283203125,-0.08749474357962608,0.037768486893165386,-0.013475184052344411
1772819375200855600,6.87385546875,-0.08076105141043663,0.05233757397930603,-0.00895626358948648
1772819375210920400,6.88392041015625,-0.07581307361423968,0.05867239845744334,-0.0026005744198337195
1772819375220985300,6.8939853515625,-0.10363163938820362,0.03026968753641704,-0.0030273849971592425
1772819375231050500,6.904050537109375,-0.077729720890522,0.030592528565903193,0.0008677775441668927
1772819375241115400,6.914115478515625,-0.09238076205551624,0.016426318625651765,-0.018624913232028483
1772819375251180300,6.92418017578125,-0.1019464627802372,-0.012146131972246803,-0.018802260826621203
1772819375261244400,6.934244384765625,-0.09325637584626674,-0.011082409447582904,-0.025891872027702628
1772819375271309300,6.944309326171875,-0.09385434173941612,-0.024095563195459545,-0.027423337644990532
1772819375281374500,6.95437451171875,-0.08952128097116947,-0.038314514819812025,-0.035526199275534597
1772819375291439600,6.964439697265625,-0.10043781178295612,-0.03986527879261412,-0.03600276727871969
1772819375301504300,6.974504150390625,-0.10744622924029827,-0.05843714209657628,-0.007574216380249708
1772819375311569400,6.9845693359375,-0.11878420033454894,-0.06087928825141862,-0.0006855163124389947
1772819375321634600,6.994634521484375,-0.10767360825538634,-0.0469094068841543,-0.012610822307970374
1772819375331699500,7.004699462890625,-0.1544698462218046,-0.04044380476635415,0.02756820774208754
1772819375341764400,7.014764404296875,-0.17523264826536178,-0.03890096837168094,0.026974278703238812
1772819375351829500,7.02482958984375,-0.14902151768803595,-0.007880818660988007,0.020044022782333193
1772819375361894400,7.034894287109375,-0.14256430437266826,0.00021121104828780515,0.03133192592347041
1772819375371959600,7.04495947265625,-0.1432891115158796,-0.007454010366951115,0.06548645325331016
1772819375382024400,7.0550244140625,-0.15059738870263098,-0.0014412186341243795,0.08464504410377703
1772819375392089300,7.06508935546875,-0.1395084239333868,0.015694602251041214,0.08211039279331453
1772819375402154500,7.075154541015625,-0.10164952566027641,0.03812758654612116,0.0724628772703465
1772819375412218400,7.08521826171875,-0.11466975075304507,0.03760192327077966,0.081747523430828
1772819375422283500,7.095283447265625,-0.08055179257392883,0.043776442620670424,0.07043645860981196
1772819375432348400,7.105348388671875,-0.04987257667183876,0.0536596117967274,0.09344036324420012
1772819375442413300,7.115413330078125,-0.06632862143218517,0.043734156115213405,0.09135160167086868
1772819375452478500,7.125478515625,-0.047326399320364,0.03907992796804756,0.06661896441457793
1772819375462543400,7.13554345703125,-0.03730418699979782,0.046545313678961246,0.06477382973823696
1772819375472608300,7.145608154296875,-0.046881578162312504,0.030944248630001673,0.06333996101021766
1772819375482673400,7.15567333984375,-0.0557049360871315,0.02052828546820674,0.04810755802700296
1772819375492738600,7.165738525390625,-0.06721826374828815,0.0282064051809255,0.02965935306875035
1772819375502803200,7.17580322265625,-0.06332125630974769,0.017899624314915853,0.009920405047060921
1772819375512868400,7.185868408203125,-0.09129881203770637,0.019204569433641152,-0.00973369596907869
1772819375522933500,7.19593359375,-0.13483517142534254,0.00006268768938025459,-0.013601011522253974
1772819375532998700,7.20599853515625,-0.1441097802489996,-0.017650638539507053,-0.02806400103555061
1772819375543063300,7.216063232421875,-0.12510522004961966,-0.02636352411046391,-0.02218362862691283
1772819375553128400,7.22612841796875,-0.12136194186806679,-0.033609134157432705,-0.018129722726764157
1772819375563193600,7.236193603515625,-0.12494973722696304,-0.030820181575627065,-0.038521316837752236
1772819375573257500,7.246257568359375,-0.1280880352526903,-0.03049294064894784,-0.03690957079217769
1772819375583322600,7.256322509765625,-0.11865209838747978,-0.026911202854791188,-0.033087555685453116
1772819375593387300,7.26638720703125,-0.11310264756679535,-0.02597550432370044,-0.008965670738648623
1772819375603452400,7.276452392578125,-0.11757657811045646,-0.023536515957035587,-0.005784912677528336
1772819375613517600,7.286517578125,-0.12504150716364382,-0.01782115681780269,0.016455588102620093
1772819375623582500,7.29658251953125,-0.14777239440977571,0.004436719788832124,0.02394429075703956
1772819375633647400,7.3066474609375,-0.15015373658835887,0.02682299484837567,0.024048226055549456
1772819375643712500,7.31671240234375,-0.12799509627223013,0.04012072399156168,0.020790658164862544
1772819375653777400,7.32677734375,-0.11660919438302517,0.048217703870590774,0.03640228799032047
1772819375663842600,7.336842529296875,-0.11449907036125659,0.02558682009994518,0.030432483732560647
1772819375673907500,7.346907470703125,-0.06316051279008388,0.0244366705339984,0.055149320631520816
1772819375683972400,7.356972412109375,-0.06375204894244671,0.005860087672434747,0.0674466017446015
1772819375694033400,7.367033447265625,-0.048337622189521784,-0.0022194102071865928,0.041684292647009714
1772819375704098600,7.3770986328125,-0.06074702190756798,0.013895996430434751,0.04681151773394085
1772819375714163500,7.38716357421875,-0.07613982135057448,0.02202871890970273,0.04932969283363781
1772819375724228400,7.397228271484375,-0.060709027984738345,0.03556518642891897,0.03246855613742955
1772819375734292500,7.40729248046875,-0.06593173106908798,0.04572076335516758,0.005792648459412157
1772819375744357600,7.417357666015625,-0.09496084167659283,0.043260337191540744,0.008407753728097303
1772819375754422500,7.427422607421875,-0.09452771095633507,0.04319417662015185,-0.014998904754593968
1772819375764487400,7.4374873046875,-0.09500292725265025,0.03493300545562524,-0.03485463842321187
1772819375774552600,7.447552490234375,-0.0939770913362503,0.009820182375865988,-0.020003699905099346
1772819375784617500,7.457617431640625,-0.09099836778640746,0.0007855038049048744,-0.025930094279395414
1772819375794682600,7.4676826171875,-0.0707972912788391,-0.020025117152463644,-0.029572250174032522
1772819375804747500,7.47774755859375,-0.07362462365925311,-0.037841483630717265,-0.03075186101319268
1772819375814812400,7.4878125,-0.10937105982303619,-0.0348307506575482,-0.0318404143017251
1772819375824877600,7.497877685546875,-0.11773790615200996,-0.023784417170344387,-0.040790211617806924
1772819375834942500,7.5079423828125,-0.13433832781910895,-0.015771297916176263,-0.05936522129350341
1772819375845007400,7.51800732421875,-0.16171850217580794,-0.007790838822594378,-0.03736896846485324
1772819375855072500,7.528072509765625,-0.15813187586069105,0.0068787243797793045,-0.047616322177648544
1772819375865137700,7.5381376953125,-0.15559738894701003,0.0007097990870359353,-0.028663236437179145
1772819375875202300,7.548202392578125,-0.13629939875900746,0.004198874178656842,-0.015876062048459424
1772819375885267500,7.558267333984375,-0.12462941923141478,0.010110940916789695,-0.016276340811885892
1772819375895332600,7.56833251953125,-0.11759002211391925,-0.003080939532013144,-0.009607420974597334
1772819375905396500,7.578396484375,-0.102312373483181,-0.003502633259515278,0.006959381550690159
1772819375915461600,7.588461669921875,-0.09646189388930797,0.0062185525711509395,0.008392830153601243
1772819375925526300,7.5985263671875,-0.09989654451310634,-0.004478654667839873,0.01322511828141287
1772819375935591400,7.60859130859375,-0.07476561038792133,0.0004577936624118592,0.006762169345002621
1772819375945656600,7.618656494140625,-0.06625380263030528,0.02444565070818644,0.00688094601961784
1772819375955721500,7.628721435546875,-0.07180559153854847,0.018168018043693154,0.016778235052572563
1772819375965786400,7.638786376953125,-0.06851531782150268,0.018803001753782154,0.036145025293622166
1772819375975851500,7.6488515625,-0.05937222642302513,0.019343806657684034,0.03929660292603075
1772819375985916400,7.65891650390625,-0.07161971357762813,0.004288525223487522,0.031439203956536946
1772819375995981600,7.668981689453125,-0.10436755244731903,0.007516056452225893,0.020974700361723077
1772819376006046500,7.67904638671875,-0.12036182491481304,0.022981941681040917,0.023147514356160536
1772819376016111400,7.689111328125,-0.14146072704493998,0.03547554223395418,0.013655609520012511
1772819376026176500,7.699176513671875,-0.13579028019309042,0.04629051693398505,0.0010928367380052804
1772819376036241400,7.709241455078125,-0.1247375557810068,0.030880259466101415,0.020878372980933636
1772819376046306300,7.719306396484375,-0.13014613682627676,0.009657152142637642,0.02598129474367015
1772819376056371500,7.729371337890625,-0.09544657936692237,0.01033363690689439,0.011694803441595285
1772819376066435600,7.739435546875,-0.06642623658776282,0.0014810711539001203,0.007430405729077756
1772819376076500500,7.74950048828125,-0.05011573777794838,0.005248608135519316,0.006782061355561018
1772819376086565400,7.7595654296875,-0.06462590916752815,0.0033240778052364473,-0.014133574895840138
1772819376096630500,7.769630615234375,-0.06805646813809871,-0.010845237407553941,0.010741822698852047
1772819376106695400,7.7796953125,-0.06953998469412326,-0.01899164820216829,0.019405167756369336
1772819376116760600,7.789760498046875,-0.07597089452445506,-0.00760384890011046,0.020053283801022916
1772819376126825500,7.799825439453125,-0.0628109687000513,0.03353496380952419,0.009902622795198112
1772819376136890400,7.809890380859375,-0.16575579486787317,-0.0031114739508833734,-0.005519375342829152
1772819376146955500,7.81995556640625,-0.10664192712008952,0.033079911235114556,0.009575391001673414
1772819376157020700,7.830020751953125,-0.08673661868870258,0.07395129376377445,0.018229666836746036
1772819376167085300,7.840085205078125,-0.14988134938776493,0.050905317253060633,-0.016321412929473443
1772819376177150500,7.850150390625,-0.16873276485204697,0.050034872827772046,0.004985652058618143
1772819376187215600,7.860215576171875,-0.1400058520615101,0.04384177207499742,0.017504896226152776
1772819376197280500,7.870280517578125,-0.14210837729871273,0.027484726143139415,-0.005722862025676295
1772819376207345400,7.880345458984375,-0.122816232329607,0.01810363615414826,-0.0054234954866115
1772819376217410600,7.89041064453125,-0.0792804574638605,0.015453091962612233,-0.002886889681080356
1772819376227475500,7.900475341796875,-0.0767448015064001,0.002885364444274455,-0.006828722642036155
1772819376237540600,7.91054052734375,-0.05685878229737282,0.0017121148472419008,-0.0031707663900684565
1772819376247604500,7.9206044921875,-0.02305997307002544,0.006556134512042626,0.01326971547496505
1772819376257669400,7.93066943359375,-0.045377603340148925,-0.007765202057838905,0.011518834953336044
1772819376267734500,7.940734619140625,-0.04973287594020366,-0.02450208447000477,0.023748074065195395
1772819376277799400,7.95079931640625,-0.025506197178363797,-0.013837980349594726,0.03993111970359459
1772819376287864300,7.9608642578125,-0.038081601113080975,-0.011786020822427235,0.037959299040818587
1772819376297929500,7.970929443359375,-0.07937807261943816,0.0028744777240790427,0.05277970542334951
1772819376307994600,7.98099462890625,-0.08910276329815388,0.010502095658844336,0.0529598477632273
1772819376318059500,7.9910595703125,-0.10645897176861763,0.02877495774992276,0.03976693298467435
1772819376328124400,8.00112451171875,-0.1458124925136566,0.020652551168692298,0.04094131052629091
1772819376338189600,8.011189453125,-0.1745481731325388,0.0024400272629922256,0.05645759021849371
1772819376348254500,8.02125439453125,-0.1815928309470415,0.0074855928153032434,0.06283863302511163
1772819376358319600,8.031319580078126,-0.18924597604870796,0.0066084674874786285,0.05228807684835046
1772819376368384500,8.041384521484375,-0.1784907732784748,-0.00413058329897467,0.03163284509880468
1772819376378448400,8.051448486328125,-0.13421616274416445,0.015521987913781777,0.016428371302131563
1772819376388513500,8.061513427734376,-0.13482640359699724,0.00822548336321488,0.02060347416284494
1772819376398578400,8.071578369140624,-0.12944587960243226,-0.004423008640599437,0.013676286981860174
1772819376408643600,8.0816435546875,-0.10880115098059177,-0.015170530427875927,0.021715910650463775
1772819376418708500,8.09170849609375,-0.10027823730707168,-0.021796519872313364,0.017660963570699094
1772819376428773400,8.1017734375,-0.09400690195262432,-0.032623554902896285,0.008308120145369321
1772819376438838500,8.111838623046875,-0.07801262948513031,-0.024336198984342625,-0.012228042668616398
1772819376448903700,8.121903564453126,-0.05647942759096622,-0.02160507982028648,-0.010781624986277893
1772819376458968300,8.13196826171875,-0.05783493385314941,-0.012000837183464317,-0.011401811844389886
1772819376469033500,8.142033447265625,-0.04616495432555675,-0.0012551465936703607,-0.014446558968303724
1772819376479098600,8.1520986328125,-0.054987143206596374,0.015241010981355793,-0.001124400920048356
1772819376489163500,8.16216357421875,-0.0650076019614935,0.02367841092904564,-0.006386504433024675
1772819376499228400,8.172228515625,-0.08655483238101006,0.011911469266423955,-0.014925848651537671
1772819376509293600,8.18229345703125,-0.09343699311017989,0.014593196330801583,-0.007874907226720825
1772819376519358500,8.1923583984375,-0.12231412802636622,0.008873320846655406,0.004134231994207948
1772819376529423400,8.20242333984375,-0.15403613097965715,0.0036176744739292188,-0.015855274988757447
1772819376539488500,8.212488525390626,-0.14251754262149333,0.01944326671047602,-0.02402698233812116
1772819376549553400,8.222553466796874,-0.136393506783247,0.014683742424775846,-0.0168091964464169
1772819376559618600,8.23261865234375,-0.1395470023781061,0.011532785846875048,-0.022418962619593367
1772819376569682700,8.2426826171875,-0.1456903274387121,-0.003926836321223527,-0.013625223514903336
1772819376579747300,8.252747314453124,-0.11636895588636398,-0.0064374446023954075,-0.001772297768993303
1772819376589812500,8.2628125,-0.11488193219900131,-0.004144018169282935,0.0109946649487596
1772819376599877600,8.272877685546876,-0.09828735575079918,-0.001529396957787685,-0.018117557364935054
1772819376609942500,8.282942626953124,-0.08259586562216281,-0.0013301526252180336,0.0001963354228530079
1772819376620007400,8.29300732421875,-0.07827800242304801,-0.014881781180948019,0.0023687475584913045
1772819376630072600,8.303072509765625,-0.04732523027658462,-0.017235189606412314,-0.0018563958558719604
1772819376640137500,8.313137451171874,-0.039110359638929365,-0.023648399383272043,0.0081191277787555
1772819376650202600,8.32320263671875,-0.03732464526593685,-0.025615023281122556,0.020133034506347028
1772819376660267500,8.333267578125,-0.061412792339920995,-0.002245144011708908,0.0218067216059193
1772819376670332400,8.34333251953125,-0.08758300638496876,0.007311674720235168,0.0371574080734048
1772819376680397600,8.3533974609375,-0.11300210980176925,0.04322900133836083,0.03543787253811024
1772819376690462500,8.36346240234375,-0.14426935472488403,0.05435973202325403,0.02178749631564133
1772819376700528000,8.373528076171874,-0.1574415555089712,0.04975608785243239,-0.0020065631825942547
1772819376710593300,8.38359326171875,-0.1706213550776243,0.039868374931998546,0.003595430676080286
1772819376720658200,8.393658203125,-0.1549327875584364,0.013238306556548923,-0.0016935517106670885
1772819376730723000,8.40372314453125,-0.11650398044288157,0.004085620779241435,-0.01764039570670575
1772819376740788200,8.413788330078125,-0.08869476701915263,-0.009443042459432035,-0.010976225109770893
1772819376750853400,8.423853271484376,-0.08930325430631637,-0.040041914001153776,0.007551036434061825
1772819376760918000,8.43391796875,-0.07224106034636497,-0.049461009329417716,-0.0024649288088083266
1772819376770982100,8.443982177734375,-0.058905777955055236,-0.04477946391706355,-0.004713182659633457
1772819376781047300,8.45404736328125,-0.07325345225930213,-0.04617582277944311,-0.00792938649347052
1772819376791112200,8.4641123046875,-0.08626198691427707,-0.047951741844206114,0.002696737403841689
1772819376801177300,8.47417724609375,-0.10107727873027324,-0.03039624794197734,0.0006496960803866386
1772819376811242200,8.4842421875,-0.12743103264868258,-0.01637025703988038,0.010307367671187966
1772819376821307100,8.49430712890625,-0.14856032991707324,-0.006008999190409667,0.013883408660208806
1772819376831372300,8.504372314453125,-0.12988660910725594,0.02747230505298357,0.012915760071296243
1772819376841437400,8.5144375,-0.10970657538771629,0.03393163269362412,0.033469275878882036
1772819376851502000,8.524502197265624,-0.09639233578443526,0.023523526328010483,0.048404412948573006
1772819376861567200,8.534567138671875,-0.09368599943518638,0.023757567979325538,0.0606742854649201
1772819376871632400,8.54463232421875,-0.09740531221926212,0.01724322221581824,0.06353262490495108
1772819376881697300,8.554697265625,-0.12373217813074588,0.015628617492876945,0.05583339390554465
1772819376891762200,8.56476220703125,-0.14274784424602985,0.01955688771936111,0.024122250272985545
1772819376901827300,8.574827392578126,-0.11763444577753543,0.019561696325219233,-0.013676688840659335
1772819376911892200,8.584892333984374,-0.07292261286973953,0.017210735585168002,0.03724423697348684
1772819376921957400,8.594957275390625,-0.12621347355246543,-0.0064213656838517635,0.01612794531714171
1772819376932022300,8.605022216796876,-0.05977554652690887,-0.02900458352102432,-0.0078154960565269
1772819376942087200,8.615087158203124,-0.08101181130111217,-0.03179398591069039,0.03759428338701837
1772819376952152300,8.62515234375,-0.11062252118885517,-0.046735283293109386,-0.008808900141203776
1772819376962216200,8.63521630859375,-0.1261702189326286,-0.014893768446263856,0.017200415120553224
1772819376972281300,8.64528125,-0.13768880729079247,-0.02106704112056177,-0.008049871067982167
1772819376982346200,8.65534619140625,-0.11151508611440658,0.0026598211932461705,-0.019111025381693614
1772819376992411100,8.6654111328125,-0.11842121224105358,0.0063511545584304255,-0.010627238142164423
1772819377002476300,8.675476318359374,-0.11874854449927806,-0.001796907053864561,-0.007300769733730703
1772819377012541200,8.685541259765625,-0.10680910038053988,-0.002811522889928892,0.0038856092616915703
1772819377022606000,8.695606201171875,-0.09097732499837875,-0.003294319704500958,0.01479835894750431
1772819377032671200,8.705671142578124,-0.0830669902652502,-0.001947668035631068,0.025331059807166455
1772819377042736400,8.715736328125,-0.05913549505770206,-0.002358385994681157,0.016300543671380726
1772819377052801000,8.725801025390625,-0.04656768990755081,0.013698229385609738,0.022228636812418698
1772819377062866200,8.7358662109375,-0.07036240699291228,0.011396925606718285,0.016122684620134532
1772819377072931300,8.745931396484375,-0.08368015372753143,0.029785660029272548,0.0342810032537207
1772819377082996200,8.755996337890625,-0.10777882219552994,0.025539195265667513,0.028969635505229234
1772819377093061000,8.76606103515625,-0.13083119648098945,0.01950547719253227,0.025172234249953178
1772819377103126300,8.776126220703125,-0.12336042220890521,0.02209774500832427,0.01873425535801798
1772819377113191200,8.786191162109375,-0.11559212629497051,0.020920485956454647,-0.004618380515649914
1772819377123256300,8.79625634765625,-0.12039455814063549,0.02826077484982088,-0.00045117783360183234
1772819377133321200,8.8063212890625,-0.1193570317864418,0.017767392220394685,0.009193743873480707
1772819377143386000,8.81638623046875,-0.12624854486584663,-0.0046553652249043806,0.0034406602394767105
1772819377153451300,8.826451171875,-0.10276771603524684,-0.006396774665289558,-0.026846268409397453
1772819377163516200,8.83651611328125,-0.11445055504441261,-0.0021722888380521907,-0.023098588047362863
1772819377173581000,8.8465810546875,-0.11086802038252352,-0.011215317395539022,-0.005907397412881255
1772819377183645200,8.856645263671876,-0.09202654179036616,-0.009501869107736274,-0.023757892206311224
1772819377193710300,8.86671044921875,-0.10057108277380467,-0.012621877991524524,-0.02467084233276546
1772819377203775200,8.876775146484375,-0.08367021685540675,-0.012226896457723341,0.002087382466997951
1772819377213840100,8.886840087890626,-0.07964110746979713,-0.008495856703235768,-0.00413883510408923
1772819377223905300,8.8969052734375,-0.06469722083806992,0.004262087024422362,-0.029284126548189668
1772819377233970200,8.90697021484375,-0.07923135762512683,0.0069395900048315525,-0.012340864526480436
1772819377244035300,8.917035400390626,-0.08478256201148032,0.0017445284126559272,0.011165153544303029
1772819377254100200,8.927100341796875,-0.08808511068820953,-0.00009903992768377065,0.006158559162355959
1772819377264165000,8.9371650390625,-0.11009235983490943,0.013138198049785568,0.01066533252969384
1772819377274230300,8.947230224609376,-0.11938625788092612,0.0038451767866034057,0.004436557675339282
1772819377284295400,8.95729541015625,-0.11656360167562961,0.02995056370082311,0.0016105039365589618
1772819377294360000,8.967360107421875,-0.12033610595166683,0.03088653850983828,0.007528203547745943
1772819377304425200,8.97742529296875,-0.15329145009219647,0.023299672710569572,0.011212627681531011
1772819377314490400,8.987490478515625,-0.14165420379042626,0.01823663543364964,0.008402904023043811
1772819377324555300,8.99755517578125,-0.1315133335262537,0.024142882069060578,-0.005596504832804203
1772819377334620200,9.0076201171875,-0.12046879242062568,-0.00011648425282910465,0.008979333937820046
1772819377344685300,9.017685302734375,-0.11032207693755626,0.004891617099614814,0.011011369488388299
1772819377354750200,9.027750244140625,-0.09433774134218692,-0.006703306164080276,-0.0012677914461120961
1772819377364815400,9.0378154296875,-0.08972527911067009,-0.008475348204746842,-0.00423361898176372
1772819377374880300,9.04788037109375,-0.07523030529022216,0.0038247459199279546,-0.011921579668484627
1772819377384945200,9.057945068359375,-0.08467734807133674,-0.002210086398059502,-0.017886022764537483
1772819377395009300,9.06800927734375,-0.07541910586059093,-0.012440717304917052,-0.02251865100124851
1772819377405074200,9.07807421875,-0.052847208568453784,-0.006586438318761065,-0.006640935851819813
1772819377415139000,9.08813916015625,-0.043587212792038914,-0.011538142442004755,-0.01742918237512931
1772819377425204200,9.098204345703126,-0.060659343624114986,-0.026818339222855866,-0.014599932032264768
1772819377435269000,9.10826904296875,-0.07459434547424316,-0.03427598915188573,-0.013297197136934846
1772819377445334300,9.118334228515625,-0.05891629934906959,-0.023882824627077207,-0.014625029940903186
1772819377455399200,9.128399169921876,-0.04115384816527366,-0.002683594794478267,-0.01387691498734057
1772819377465464300,9.13846435546875,-0.07083353163599967,-0.007507453020662069,-0.0028654541674070057
1772819377475529200,9.148529296875,-0.05726736309826374,-0.008265376982185988,-0.012629819269385188
1772819377485594400,9.158594482421876,-0.05027297416627407,-0.010948569917865096,-0.00011736103566363454
1772819377495659300,9.1686591796875,-0.07573883933424949,-0.0048643911659717555,0.017234372189082203
1772819377505724200,9.17872412109375,-0.10509411315619945,0.004058134550694376,0.02192128789629787
1772819377515789300,9.188789306640626,-0.13595569988787173,0.037048312542587516,0.018126169929653404
1772819377525854500,9.1988544921875,-0.17640753726363181,0.04895182683141902,0.013030929149873555
1772819377535919000,9.208919189453125,-0.18199673557281493,0.060767534972634166,0.01806435673981905
1772819377545984300,9.218984375,-0.18952946916520594,0.06114358347710221,0.0101560313006863
1772819377556049400,9.22904931640625,-0.18074468968510626,0.0412801505592186,0.009013875528238713
1772819377566114300,9.2391142578125,-0.12167992177605629,0.01958207695954479,-0.0008506620125845074
1772819377576179200,9.24917919921875,-0.11766542543768882,-0.01521738807717338,0.01892099183546379
1772819377586244400,9.259244384765625,-0.13685294098854064,-0.043793695149570704,-0.013285598030686378
1772819377596309200,9.269309326171875,-0.06551788957118988,-0.035199159278254954,-0.04608366925027221
1772819377606374100,9.2793740234375,-0.06764964090287685,-0.04689797217468731,-0.015318693027179687
1772819377616439300,9.289439208984374,-0.10418284353017807,-0.05966056011142209,-0.012247158361040055
1772819377626504200,9.299504150390625,-0.09460545236766338,-0.05153915817718953,-0.01309975660238415
1772819377636568300,9.309568359375,-0.08201660442948341,-0.04023847775286995,-0.005404398060496896
1772819377646633200,9.31963330078125,-0.09636661682128905,-0.02325355941336602,-0.0066716415173374115
1772819377656698000,9.329697998046875,-0.1270382339388132,-0.03361956193661317,-0.01123193517019972
1772819377666763300,9.33976318359375,-0.1304974344819784,-0.006929132542898878,-0.0246751531817019
1772819377676828200,9.349828125,-0.09836801977157592,0.004057084237923845,-0.004716872454062104
1772819377686893300,9.359893310546875,-0.09185469235479832,-0.006232738643418998,0.014401760845351963
1772819377696957400,9.36995751953125,-0.07443360195457935,-0.019011346133193,0.0491444450603798
1772819377707022300,9.380022216796876,-0.13627367979586125,0.011899066442577167,0.02208533761790022
1772819377717087200,9.390087158203125,-0.05037351193130016,-0.024295771075831724,0.08820159494103863
1772819377727152400,9.40015234375,-0.06993570601344108,-0.03340821160771884,0.021931169969495384
1772819377737217500,9.410217529296874,-0.08740355816483497,0.014070190803427248,0.014588716518506406
1772819377747282200,9.4202822265625,-0.15531214226484297,0.017946593845356254,0.014299889639765024
1772819377757347300,9.430347412109375,-0.16877952660322187,0.017550434134621172,0.0208349356980063
1772819377767412500,9.44041259765625,-0.16400982798337935,0.012728174210479483,-0.00030225261589512226
1772819377777477400,9.450477294921875,-0.14951836129426954,0.004843330111633986,0.008354260842036455
1772819377787542300,9.460542236328125,-0.12648819884061813,-0.00556135132103227,0.0178122086096555
1772819377797607400,9.470607421875,-0.11587094323635101,-0.0030687673203181475,0.025750910920742897
1772819377807672300,9.48067236328125,-0.09282441416978836,-0.009439763656957074,0.01683390162941068
1772819377817737200,9.4907373046875,-0.06602759265899658,0.007695212411414832,0.03937995209423825
1772819377827802400,9.50080224609375,-0.05538637165725231,0.0005088993702083826,0.0330789887865074
1772819377837867300,9.5108671875,-0.03652852645218372,-0.009299907661695033,0.03616440584752709
1772819377847932400,9.520932373046875,-0.05016016144156456,-0.00016455204510129988,0.017253497014660387
1772819377857997300,9.530997314453124,-0.06516308478415012,0.0004874821228440851,0.025450777196697888
1772819377868061200,9.541061279296875,-0.0623754998922348,0.003067826605401933,0.021756306592933834
1772819377878126300,9.551126220703125,-0.05434358460605144,-0.0016790117286611347,0.023018325885385275
1772819377888191200,9.561191162109376,-0.05869359650909901,-0.007995958056813105,0.0385759239686653
1772819377898256400,9.57125634765625,-0.08425415422320365,-0.007037670951290056,0.03580934533216059
1772819377908321300,9.5813212890625,-0.09244681302905082,0.004322740303631872,0.01591885087741539
1772819377918386200,9.59138623046875,-0.1245809039145708,0.008411406989907845,0.019889288878347722
1772819377928451300,9.601451416015625,-0.1902507691770792,0.007283928196784108,0.02296537185544148
1772819377938516500,9.6115166015625,-0.17857786704003809,0.018424851482128725,0.006448591617494821
1772819377948581000,9.6215810546875,-0.16302841573059557,0.03354428647700697,-0.02072657995270565
1772819377958646300,9.631646240234375,-0.17335516395568848,0.024725915254559368,-0.026408004856295884
1772819377968711400,9.64171142578125,-0.1622784741461277,0.012180385868297889,-0.04201325973989442
1772819377978776300,9.6517763671875,-0.1154179387718439,0.019564641767553983,-0.022426077346969393
1772819377988841200,9.66184130859375,-0.11911854685544968,-0.0004275229633785784,-0.025058800470735876
1772819377998906400,9.67190625,-0.10606091236174106,-0.015241015547933057,-0.025583244469948113
1772819378008971300,9.68197119140625,-0.06412965008318423,-0.02577316841832362,-0.02908769066063687
1772819378019036400,9.692036376953125,-0.057059857827425,-0.01655055464338511,-0.02823909274097532
1772819378029101300,9.702101318359375,-0.09113514590859413,-0.005398196648573502,-0.0331927696255967
1772819378039166200,9.712166259765626,-0.06505611727833747,0.00880558480611071,-0.031362302795425054
1772819378049231400,9.7222314453125,-0.05424246231913566,0.032850258064549415,-0.028240133920591323
1772819378059296300,9.732296142578125,-0.0784486828148365,0.03753359357519075,-0.01617702688956633
1772819378069361200,9.742361083984376,-0.08096855668127537,0.06351747300159186,-0.00523585482686758
1772819378079426300,9.75242626953125,-0.06629647272825241,0.08526825403603724,-0.008525032565370202
1772819378089491500,9.762491455078125,-0.07274316464960574,0.07940087810629047,0.0030831703050062057
1772819378099556000,9.77255615234375,-0.09222001853585243,0.079778305717092,0.01813126622987911
1772819378109621200,9.782621337890625,-0.0771457835227251,0.07141887550959364,0.008072393427044152
1772819378119685400,9.792685302734375,-0.07509528073370456,0.07915206357752903,0.0229256608995609
1772819378129750300,9.802750244140626,-0.08051496769487858,0.07962413806868716,0.02552517587346956
1772819378139815400,9.8128154296875,-0.07949146986603736,0.07477282557999715,0.02824117510020733
1772819378149880300,9.82288037109375,-0.08055588422715663,0.06966426866091788,0.0023202779074199494
1772819378159945200,9.8329453125,-0.091053312844038,0.058450060943653806,0.018187855255324393
1772819378170010400,9.84301025390625,-0.12909224385917187,0.045826598349818955,0.02387665974777192
1772819378180075500,9.853075439453125,-0.14229834691286086,0.020608871857170013,-0.002856631540134549
1772819378190140200,9.86314013671875,-0.13635843546986579,0.01558841334665194,-0.009960033804550766
1772819378200205300,9.873205322265624,-0.13774667495787143,-0.0015940094594843685,-0.012656013156566769
1772819378210270500,9.8832705078125,-0.13508417775034903,-0.031852186937909574,-0.021986133293434976
1772819378220335400,9.89333544921875,-0.1289677406966686,-0.041089386360626666,-0.025956808756384998
1772819378230400300,9.903400146484374,-0.10937690504193305,-0.03729372040471062,-0.033178649768698956
1772819378240465400,9.91346533203125,-0.13498247094154356,-0.046058114683907476,-0.03581190261542797
1772819378250530300,9.9235302734375,-0.15893851606845855,-0.0411527521867305,-0.025395375481341034
1772819378260595200,9.93359521484375,-0.13365502173006533,-0.03191367133418098,-0.0068203292730264365
1772819378270660400,9.943660400390625,-0.12931553122103215,-0.011739647230319679,0.004358724932465702
1772819378280725200,9.953725341796876,-0.1341010119318962,-0.004563033599220216,-0.007495835648104548
1772819378290790400,9.963790283203124,-0.1267640931725502,0.012175554429553448,-0.001105276094470173
1772819378300855300,9.973855224609375,-0.10011749378740786,0.019447372063435612,0.008500628776475786
1772819378310920200,9.983920166015626,-0.06912497415244578,0.013982329856883734,0.031049346122425048
1772819378320985300,9.9939853515625,-0.06206687233448028,0.012217183347884564,0.03928995398953557
1772819378331050500,10.004050537109375,-0.06443477050960064,0.01351723309578374,0.044538010710850354
1772819378341115100,10.014115234375,-0.06830722802877426,0.016314626995660365,0.0461625431727618
1772819378351180300,10.02418017578125,-0.059172904458642005,0.017901549127232283,0.031050515166204423
1772819378361245400,10.034245361328125,-0.07712181812524795,0.029313334376364946,0.04373451230823994
1772819378371310300,10.044310302734376,-0.08235328903794288,0.026252741229347884,0.04414409775612876
1772819378381374500,10.05437451171875,-0.09747311675846576,0.024009620211366562,0.03127709046369418
1772819378391439400,10.064439453125,-0.1004822354465723,0.021019608082529156,0.017583112561516463
1772819378401504300,10.074504150390625,-0.1283370415776968,0.0073000390813685945,0.02655828178087249
1772819378411569400,10.0845693359375,-0.13300561791062354,-0.0035586057970300317,0.012517170941457151
1772819378421634600,10.094634521484375,-0.13318331256508825,-0.005832615143619478,0.010509813174419104
1772819378431699200,10.10469921875,-0.1457820973753929,-0.005600176360923796,0.018086751234717667
1772819378441764400,10.114764404296874,-0.15298691418766974,-0.019555070221610366,0.005655815538298338
1772819378451829500,10.12482958984375,-0.12397767732441424,-0.005128467195946723,-0.004762556493002921
1772819378461894400,10.134894287109375,-0.12727554982602596,-0.008392327830102294,-0.012970321536436676
1772819378471959300,10.144959228515624,-0.1194879646897316,-0.024104513686895368,-0.010768847703095524
1772819378482024400,10.1550244140625,-0.11334113249778748,-0.031136001492571085,-0.012762615336198359
1772819378492089300,10.16508935546875,-0.09881167188584804,-0.034994540084246545,-0.012506065025553107
1772819378502154200,10.175154296875,-0.09116846365630626,-0.02723192499242723,-0.006507975388225167
1772819378512219400,10.185219482421875,-0.09534078090488911,-0.022348847392294556,0.01313493751361966
1772819378522284300,10.1952841796875,-0.10370470462441443,-0.015888839331641792,-0.006168368170317262
1772819378532349400,10.205349365234374,-0.10383154587447643,0.0014482443132437764,-0.007262611414119601
1772819378542414300,10.215414306640625,-0.09408230527639388,0.001702255606930703,0.0052150860334746535
1772819378552479200,10.225479248046875,-0.09182546626031399,0.00394771471247077,-0.0021822759425267576
1772819378562544400,10.23554443359375,-0.07401216167211531,0.003577018236555159,0.010410754980426281
1772819378572609500,10.245609619140625,-0.08149579542577266,0.004492616977822036,0.0287618197071366
1772819378582674200,10.255674072265625,-0.042592356535792346,0.0023069983007386326,0.011775686658080667
1772819378592739300,10.2657392578125,-0.060683893543481825,0.012880999285168945,0.030756865981873122
1772819378602804500,10.275804443359375,-0.0874327842593193,0.025168946314323693,0.04227371904067695
1772819378612869400,10.285869384765626,-0.09186872088015079,0.03501940053086728,0.03439421783722937
1772819378622934300,10.295934326171874,-0.1259405018299818,0.02577239210018888,0.021551687398925424
1772819378632999400,10.30599951171875,-0.129653384873271,0.03979775738120079,0.007388301886711269
1772819378643064300,10.316064208984375,-0.13115443708598612,0.04390108278049156,-0.006649539283383637
1772819378653129200,10.326129150390624,-0.12863514774143694,0.02278168585160747,-0.02025726367421448
1772819378663193300,10.336193359375,-0.10411796160042286,0.00021705855047330258,-0.01728084167931229
1772819378673258200,10.34625830078125,-0.08422551265060901,-0.019800185822788623,0.0024131803552620112
1772819378683323400,10.356323486328124,-0.06850304286181927,-0.041997769909817725,0.0010606515014544128
1772819378693389000,10.36638916015625,-0.04317687842547893,-0.04908126189736649,-0.009033146484289318
1772819378703454000,10.376453857421875,-0.04582183997631073,-0.04231688232896849,-0.01064229871397838
1772819378713518800,10.386518798828124,-0.08766016327440738,-0.0414585302002728,-0.009538483924232424
1772819378723584000,10.396583984375,-0.1239712475836277,-0.03556899723764509,-0.004512782983016222
1772819378733649000,10.40664892578125,-0.16180501141548156,-0.018907767027709632,-0.014699629547074437
1772819378743713800,10.4167138671875,-0.20548983936309814,-0.01220467092618346,-0.012029570087604224
1772819378753779000,10.426779052734375,-0.2098217310875654,0.018426175789535044,-0.006862542713247239
1772819378763844000,10.436843994140625,-0.18721417796015738,0.032960970163717865,0.007714154573902487
1772819378773908700,10.44690869140625,-0.17970482524335382,0.02363282278822735,0.006259663182962685
1772819378783974000,10.456973876953125,-0.14972878917455673,0.03192060339846648,0.009894275091961025
1772819378794039000,10.4670390625,-0.11912789920568466,0.009739769516838715,0.02461549541633576
1772819378804104000,10.47710400390625,-0.1166506954371929,-0.008592270848993212,0.021087229958642272
1772819378814168800,10.4871689453125,-0.08335340599119663,-0.019041823469847438,0.009809062760230153
1772819378824234000,10.49723388671875,-0.021031682112812995,-0.020607364886673165,0.004116952065844089
1772819378834299000,10.507298828125,0.0026671733826398847,-0.017521098442282525,0.013644512737262993
1772819378844364000,10.517364013671875,-0.01120762271285057,-0.023037057985318823,0.0021062880968675014
1772819378854429000,10.527428955078125,-0.0068336454123258585,-0.03643309412053786,-0.010453004953265189
1772819378864493800,10.537493896484374,-0.011603928554058075,-0.024783335397066546,0.015472002159059048
1772819378874559000,10.54755908203125,-0.052441550377011294,-0.011768097006669268,0.026106464626453815
1772819378884624100,10.5576240234375,-0.08834171579778194,0.006133607384189963,0.01275452336128801
1772819378894688800,10.567688720703124,-0.12648586075305937,0.02423785774298012,0.008045213159173727
1772819378904754000,10.57775390625,-0.16223697309195995,0.03736768982321955,0.02244734846386127
1772819378914819000,10.587819091796876,-0.16478139687776563,0.04529019905133173,0.012137797968741506
1772819378924884000,10.597884033203124,-0.15446750813424587,0.04609998106425628,0.00520878415685147
1772819378934948900,10.607948974609375,-0.1802121902436018,0.04553703168556094,0.00850733251189813
1772819378945014000,10.618013916015625,-0.14490005384385585,0.02993106441590935,0.023625589329842475
1772819378955079000,10.628078857421874,-0.10179682517647742,0.019388143556332213,0.017007084505539387
1772819378965143000,10.63814306640625,-0.06406827528476715,0.01917124026948586,0.0054806964334100485
1772819378975208000,10.6482080078125,-0.03201426389813423,0.010115973284933716,-0.01067923319088295
1772819378985272800,10.65827294921875,-0.03093114483654499,-0.016319485833868382,-0.008987352847494185
1772819378995338000,10.668337890625,-0.03254208716452121,-0.02778765004589222,-0.002705660495813936
1772819379005403100,10.678403076171875,-0.016956980019807815,-0.026497171843936667,-0.012293225992470978
1772819379015467800,10.6884677734375,-0.028021394869685173,-0.030838808644283563,-0.0033822537162806836
1772819379025533000,10.698532958984375,-0.06932604968249798,-0.02136059440677054,-0.006926885786885395
1772819379035598000,10.70859814453125,-0.08984744418561458,-0.01717901613949798,-0.0164239143227227
1772819379045663000,10.7186630859375,-0.09017243835628032,0.0028331684661563484,-0.0251883908003103
1772819379055727900,10.728727783203125,-0.12864742270112037,0.010024988799542188,-0.007125367501052096
1772819379065793000,10.73879296875,-0.14002631032764912,0.008203061468852683,-0.016608513642009347
1772819379075858000,10.74885791015625,-0.12820493963062762,0.014036124137043951,0.00015515402909368274
1772819379085923000,10.758923095703125,-0.16515899801850317,0.0023255203381180763,0.021576721375482156
1772819379095988000,10.768988037109375,-0.1617161640882492,0.015530627877963705,0.005509858595812693
1772819379106052900,10.779052978515624,-0.12190730079114437,0.011141946198651567,0.010798302126443013
1772819379116118000,10.789117919921875,-0.12669219698011874,0.008956117459014057,0.020175193147640675
1772819379126183000,10.799182861328125,-0.10573358010351658,0.00003616729192435741,0.028710966302733867
1772819379136247800,10.809247802734374,-0.07863689886331558,-0.002823185928259045,0.032102599768713116
1772819379146313000,10.81931298828125,-0.07907938193380833,-0.005561159524787217,0.01689991607032716
1772819379156378000,10.829378173828125,-0.06995499523580073,-0.010632462306553497,0.029042381081031635
1772819379166442800,10.83944287109375,-0.07985036630630493,-0.0069638750627171245,0.013739999867836012
1772819379176508000,10.8495078125,-0.07418108849823475,-0.0026557843389455227,0.002702463891729712
1772819379186573000,10.859572998046875,-0.08406301556527614,-0.0071541095383465285,0.02265522819403559
1772819379196638000,10.869637939453124,-0.12431670002043246,-0.022462573432456702,0.025261373838130385
1772819379206702800,10.879702880859375,-0.11024550457000731,-0.012675850368198007,0.00376685998653993
1772819379216768000,10.88976806640625,-0.10245324325859546,-0.008023713713418692,0.0013120507129468022
1772819379226833000,10.8998330078125,-0.1302718090325594,-0.01956430384083651,0.006458099231356754
1772819379236898000,10.90989794921875,-0.12786533241271972,-0.015422509594680741,0.002965745337260887
1772819379246963000,10.919962890625,-0.11888590714335441,0.003515131981484592,0.024162299155583603
1772819379257027800,10.93002783203125,-0.12158230662047863,-0.0005515968676190823,0.016752653086744246
1772819379267093000,10.940093017578125,-0.08971475771665573,0.011904975593555718,0.014687263255845755
1772819379277156900,10.950156982421875,-0.088822777312994,0.02485712215248495,0.016736213408596812
1772819379287222000,10.960221923828126,-0.08493979839980602,0.015922010948881505,0.0025365875392220913
1772819379297287000,10.970286865234375,-0.0810585730522871,0.012902051206352188,0.027480547724943606
1772819379307351800,10.980351806640625,-0.09468786995410919,0.018810800326103345,0.031233908909093586
1772819379317417000,10.9904169921875,-0.0755552994608879,0.015677397671202197,0.032496147397253664
1772819379327482000,11.000482177734375,-0.0621229864358902,0.024296072469931096,0.02314251852063462
1772819379337546800,11.010546630859375,-0.0778735132753849,0.006322234424622729,0.010690996693912894
1772819379347612000,11.02061181640625,-0.08030103268325328,-0.000909041136316955,0.018599395198281854
1772819379357677000,11.030677001953125,-0.0740390496790409,0.004175714782066643,0.014435717913880944
1772819379367742000,11.040741943359375,-0.09110650433599948,-0.0009745532537344842,-0.00405188747299835
1772819379377806800,11.050806884765626,-0.08917465949058533,-0.005960607171151787,-0.005098930574208497
1772819379387872000,11.0608720703125,-0.09548632685542106,-0.013262975206924602,-0.00580198254333809
1772819379397937200,11.070937255859375,-0.12889058380722998,-0.0074405161311384286,-0.00014790230439975857
1772819379408001800,11.081001708984376,-0.15960136389136315,-0.01838897645114921,-0.009293660583999008
1772819379418067000,11.09106689453125,-0.14676467867195606,-0.01619651704132557,-0.007372501529380679
1772819379428132000,11.101132080078125,-0.1572626918107271,0.002775218600686639,-0.0006720540426671505
1772819379438197000,11.111197021484376,-0.1471025323241949,0.012517454069247468,-0.02867426928784698
1772819379448262000,11.121261962890625,-0.1113525890290737,0.035262095846096055,-0.02542944214772433
1772819379458327000,11.1313271484375,-0.10104220741689204,0.030122915459889918,-0.01831104324357584
1772819379468392000,11.141391845703126,-0.09043547320663929,-0.006019835678255185,-0.024688451054692268
1772819379478457000,11.15145703125,-0.0511082559466362,-0.025362468725582583,-0.006374028543941676
1772819379488522000,11.16152197265625,-0.04156885870695114,-0.024635369160585105,0.00421633905339986
1772819379498587000,11.1715869140625,-0.027248656931519507,-0.007272922745579853,0.0017553557673469185
1772819379508652000,11.181652099609375,-0.02983049011826515,-0.012360984865901991,0.0008388619769364595
1772819379518717000,11.191717041015625,-0.04749883327782154,-0.000492733686696738,0.019794358870200812
1772819379528781800,11.20178173828125,-0.082513448035717,0.02260341580840759,-0.005270999205484986
1772819379538847000,11.211846923828125,-0.08266834633648396,0.0329204006913118,-0.02371297535235062
1772819379548912000,11.221912109375,-0.11170680929422377,0.03075980685763061,-0.01106510896962136
1772819379558976800,11.231976806640626,-0.1441997966200113,0.023647426702314987,-0.0017277919069863855
1772819379569042000,11.2420419921875,-0.14438742814660072,0.01824430728345178,-0.0048910965098068115
1772819379579107000,11.252107177734375,-0.15341186160147188,0.016111359508521855,0.002410093349032104
1772819379589172000,11.262171875,-0.14762158776223658,0.002655300281755626,-0.006159636874590068
1772819379599236900,11.27223681640625,-0.1385316878557205,-0.014746701825503259,-0.0006543905218131839
1772819379609302000,11.282302001953125,-0.1140104100614786,-0.026216153812315315,0.0021069274176843465
1772819379619367000,11.292366943359376,-0.11849895365238189,-0.036771651025675235,0.0066496671475470065
1772819379629431000,11.30243115234375,-0.12088380296230315,-0.03819161909250542,-0.006219641699828207
1772819379639496000,11.312495849609375,-0.1352338153541088,-0.019554029041994363,-0.01527280805883929
1772819379649560800,11.322560791015626,-0.12071370709240437,-0.009394910735078156,-0.01563095558043569
1772819379659626000,11.3326259765625,-0.10858721596896648,-0.004909088824223726,-0.015111662680376321
1772819379669691000,11.34269091796875,-0.12188216634988784,-0.02768783380007371,0.0505651803121902
1772819379679756000,11.352756103515626,-0.09616203415989875,0.050998731157556175,0.01444271391024813
1772819379689821000,11.362821044921875,0.00033317747712135315,-0.04477779254978522,-0.04052325864415616
1772819379699885800,11.3728857421875,-0.06521160010099411,-0.07160738381901756,0.055529926580097526
1772819379709951000,11.382950927734376,-0.11370178250372409,-0.012320333195105195,0.08246738040428608
1772819379720016000,11.393015869140624,-0.1309334878116846,0.0268860706968233,-0.006734642017260193
1772819379730080800,11.403080810546875,-0.1144903025329113,0.059110744208935646,-0.0014636793443933128
1772819379740146000,11.41314599609375,-0.11898936751782893,0.05287241607494652,0.01903603304987773
1772819379750210800,11.4232109375,-0.08248831359446049,0.021835783303622156,0.010178297931421547
1772819379760276000,11.43327587890625,-0.06199789875149726,0.006886106251925229,-0.008542075031716376
1772819379770340900,11.4433408203125,-0.09131634769439696,-0.025176362435799092,0.01806733414819464
1772819379780405800,11.45340576171875,-0.12706570646762846,-0.023727387470193206,0.01652171214139089
1772819379790471000,11.463470947265625,-0.12287936069369315,-0.0071721931843087075,0.00013131649577990173
1772819379800535800,11.473535888671876,-0.12573884177803993,-0.004042352459672838,-0.025249555536173283
1772819379810600700,11.4836005859375,-0.13846563688218594,0.006370649276766925,-0.022941260327491907
1772819379820665900,11.493665771484375,-0.13367723356187342,-0.002152684521861374,-0.019342998373508453
1772819379830731000,11.50373095703125,-0.13337211313545702,-0.002523563660867512,-0.02185032328562811
1772819379840795600,11.513795654296874,-0.1284288115143776,-0.0004871076635085046,-0.025847649293486027
1772819379850860800,11.52386083984375,-0.12184651051461697,0.017174714423716066,-0.014773114908393472
1772819379860926000,11.533926025390626,-0.1263543433278799,0.008005209942348301,-0.02360189792700112
1772819379870990800,11.543990966796875,-0.10303484253883362,0.014830836445000021,-0.016034805407281964
1772819379881055700,11.5540556640625,-0.08044774767756462,0.003730966689251363,-0.005437021688465028
1772819379891121000,11.564120849609376,-0.07863865242898464,0.004705382945667952,0.012180449800379573
1772819379901185800,11.574185791015625,-0.05916238306462764,0.013017128953384235,-0.003781381702236831
1772819379911251000,11.5842509765625,-0.07245733344554901,0.003790231728972867,-0.007541720616444945
1772819379921315800,11.59431591796875,-0.0876946500658989,-0.003856794159160927,-0.003951824632007628
1772819379931380700,11.604380615234374,-0.09022796793580054,-0.00551304606674239,0.0022608210714533923
1772819379941446000,11.61444580078125,-0.09652268416583537,0.003565428263461217,-0.009326174614112824
1772819379951510800,11.6245107421875,-0.09489595974683761,0.016169126710901035,-0.010586623003985732
1772819379961575700,11.63457568359375,-0.08818097227811812,0.034857497100578616,0.0021161153711378574
1772819379971640800,11.644640869140625,-0.09074526980817317,0.03631973340655677,0.002110434549022466
1772819379981706000,11.6547060546875,-0.09614859015643597,0.04152900162059814,0.012731927936989813
1772819379991770600,11.6647705078125,-0.11831190664768218,0.03346590574486181,0.01678520364947617
1772819380001834800,11.674834716796875,-0.08212064932584762,0.04871757968412712,0.0035567426335066554
1772819380011900000,11.68489990234375,-0.11236907259523868,0.03925146687636152,0.022526816041395066
1772819380021964800,11.69496484375,-0.11599369283318518,0.032943270110245795,0.008088650442101062
1772819380032030000,11.705030029296875,-0.09089432289004325,0.042695579448249185,-0.0015498780568130313
1772819380042094800,11.7150947265625,-0.09377017058730125,0.039130342981033024,0.0041484249163419
1772819380052159700,11.72515966796875,-0.09619067573249339,0.029283925618790087,0.0050577948462218044
1772819380062225000,11.735224853515625,-0.09441723631918429,0.026148367539420722,-0.0029205818881280717
1772819380072290000,11.7452900390625,-0.08620528829097747,0.014475666331779212,0.012909111134801058
1772819380082354700,11.755354736328124,-0.1011924295425415,0.008128050870727746,-0.00009403495900332928
1772819380092419800,11.765419921875,-0.10451543648540973,-0.003682926296442747,-0.018327537720650433
1772819380102485000,11.775485107421876,-0.1045557684957981,0.009798157773725688,-0.009435279278084635
1772819380112550000,11.7855498046875,-0.12134031455814838,0.0017494009505957364,-0.002970668107550591
1772819380122614800,11.79561474609375,-0.10683891099691391,-0.015834186534956097,-0.01818506051003933
1772819380132680000,11.805679931640626,-0.09515957911908626,-0.018138262226246295,-0.028216168523114173
1772819380142744800,11.815744873046874,-0.11848317156136035,-0.03430657608639449,-0.027637089993525293
1772819380152810000,11.82581005859375,-0.12564181114435194,-0.026621446677576748,-0.03809100826224312
1772819380162875000,11.835875,-0.11994272271990776,-0.006488229508139193,-0.029476616912987082
1772819380172939800,11.845939697265624,-0.11978957798480987,-0.0018965360700152814,-0.021162468885630368
1772819380183005000,11.8560048828125,-0.13655892647802828,-0.000772747071320191,-0.018433829373028128
1772819380193069800,11.86606982421875,-0.11038403625786304,-0.0015027966452296822,-0.0038239970012567937
1772819380203134700,11.876134765625,-0.1217664310157299,-0.0030696441031526772,0.02796087858779356
1772819380213200000,11.886199951171875,-0.1003945571631193,-0.001432526154303923,0.030362551168352365
1772819380223265000,11.89626513671875,-0.06824760679602622,0.0032998087303712964,0.061552858397737144
1772819380233329700,11.90632958984375,-0.08082885594964027,0.031142230303958057,0.0687406327436678
1772819380243394800,11.916394775390625,-0.09684417120516299,0.02431544389068149,0.050949704384058714
1772819380253460000,11.9264599609375,-0.03534486962556839,0.04130068189059384,0.013974091751500963
1772819380263524900,11.93652490234375,-0.07604512880444526,0.0541728494153358,0.10649422574508935
1772819380273589800,11.94658984375,-0.10568564930856228,0.022835397933376952,0.04550046253483742
1772819380283655000,11.956655029296876,-0.07638239793479443,0.02239012925075367,0.03599116817247122
1772819380293719800,11.9667197265625,-0.06666822865009307,0.01211609759358689,0.06514847173690795
1772819380303785000,11.976784912109375,-0.0897246945887804,0.001587397055607289,0.05664239960033446
1772819380313849900,11.986849853515626,-0.09033668900728226,0.00624099501511082,0.010004329604003577
1772819380323914800,11.996914794921874,-0.09828735575079918,0.017300843287725,-0.002013623111043125
1772819380333980000,12.00697998046875,-0.11777180842161178,0.017092954424396158,-0.016991795604862272
1772819380344044800,12.017044921875,-0.10599719947576522,0.004399458801653236,-0.017405454439669846
1772819380354109700,12.027109619140624,-0.09348609294891357,-0.019366507113259285,-0.0032183957909233864
1772819380364174800,12.0371748046875,-0.07319500007033347,-0.03893489347416907,-0.027441439557261763
1772819380374240000,12.047239990234376,-0.06395429351627827,-0.019163294425047932,0.011759283512551337
1772819380384304600,12.0573046875,-0.08894669595360756,-0.030217005217820406,0.026541604640707372
1772819380394369800,12.067369873046875,-0.10719079317450522,-0.005388853431493043,0.0019008834515698253
1772819380404435000,12.07743505859375,-0.1215612638324499,0.044028307623043654,-0.04359835524056106
1772819380414498800,12.087498779296874,-0.12847031256854533,0.051311486901156604,-0.03007007102780044
1772819380424564000,12.09756396484375,-0.17370763065516948,0.027269151730276643,-0.013377952489256857
