time,seconds_elapsed,z,y,x
1772819368399491600,0.07249169921875,-0.0034296188969165087,0.01641732268035412,0.03719237446784973
1772819368409556700,0.082556640625,0.0005009406013414264,-0.008310394361615181,0.037932999432086945
1772819368419621400,0.092621337890625,-0.0030924626626074314,-0.016457004472613335,0.044675059616565704
1772819368429686500,0.1026865234375,-0.010372745804488659,0.0018703379901126027,0.04541967809200287
1772819368439751700,0.112751708984375,-0.013230318203568459,0.017199493944644928,0.03852102532982826
1772819368449816600,0.122816650390625,-0.011267301626503468,0.023307720199227333,0.028794895857572556
1772819368459881500,0.132881591796875,-0.013769075274467468,0.028601018711924553,0.02480042167007923
1772819368469945600,0.142945556640625,-0.012509133666753769,0.023608656600117683,0.02485714666545391
1772819368480010500,0.153010498046875,-0.012836968526244164,0.015441007912158966,0.026514165103435516
1772819368490075600,0.16307568359375,-0.0154340835288167,0.008853678591549397,0.024444090202450752
1772819368500140500,0.173140625,-0.017645839601755142,0.008269115351140499,0.02636103332042694
1772819368510205400,0.183205322265625,-0.014966699294745922,0.01678057760000229,0.02828064002096653
1772819368520270600,0.1932705078125,-0.017436247318983078,0.017375795170664787,0.028439896181225777
1772819368530335700,0.203335693359375,-0.018322814255952835,0.01625726744532585,0.020791564136743546
1772819368540400400,0.213400390625,-0.01673663593828678,0.010070211254060268,0.01116184052079916
1772819368550465500,0.223465576171875,-0.022852851077914238,0.008480037562549114,0.0017100156983360648
1772819368560529400,0.233529296875,-0.02997148036956787,-0.0014602112350985408,-0.002406432293355465
1772819368570594600,0.243594482421875,-0.03202637657523155,-0.0024652881547808647,-0.008225172758102417
1772819368580659700,0.25365966796875,-0.02840634062886238,0.01720774918794632,-0.0034887411165982485
1772819368590724400,0.263724365234375,-0.03291001170873642,0.024325313046574593,-0.002124403603374958
1772819368600789500,0.27378955078125,-0.02660417929291725,0.043434027582407,-0.004594751633703709
1772819368610854700,0.283854736328125,-0.02503451332449913,0.041902974247932434,0.0014658038271591067
1772819368620919600,0.29391943359375,-0.0209452286362648,0.02996295876801014,0.011754659935832024
1772819368630984400,0.303984375,-0.017041301354765892,0.013939783908426762,0.0207526832818985
1772819368641048600,0.314048583984375,-0.01678350754082203,0.015592541545629501,0.032894033938646317
1772819368651113500,0.324113525390625,-0.0160607248544693,0.01583116129040718,0.03554308041930199
1772819368661178600,0.3341787109375,-0.01483247522264719,0.016939835622906685,0.023002786561846733
1772819368671243800,0.344243896484375,-0.01830337382853031,0.012955479323863983,0.009080314077436924
1772819368681308400,0.354308349609375,-0.02045147866010666,0.011354120448231697,0.000996554852463305
1772819368691380500,0.36438037109375,-0.019123360514640808,0.006518086884170771,-0.0012921657180413604
1772819368701445600,0.374445556640625,-0.016049806028604507,0.0011411645682528615,0.0005475459038279951
1772819368711510500,0.384510498046875,-0.017535584047436714,-0.0070403325371444225,0.007821704261004925
1772819368721574700,0.39457470703125,-0.016768859699368477,-0.004917793441563845,0.004800347611308098
1772819368731639300,0.404639404296875,-0.014965101145207882,0.0008660599705763161,0.0033249566331505775
1772819368741704400,0.414704345703125,-0.00959909800440073,0.00657694274559617,0.003695135936141014
1772819368751769600,0.42476953125,-0.003040530951693654,0.01537602674216032,0.00526720006018877
1772819368761834500,0.43483447265625,-0.0009105347562581301,0.017535051330924034,0.004656004719436169
1772819368771899400,0.4448994140625,-0.004680505488067865,0.007545001804828644,0.004253867082297802
1772819368781964500,0.454964599609375,-0.0027563716284930706,-0.0003403519804123789,0.008252337574958801
1772819368792029400,0.465029541015625,-0.0049526807852089405,0.0006841660942882299,0.008865662850439548
1772819368802093600,0.475093505859375,-0.002251702593639493,0.007500526960939169,0.0009592706337571144
1772819368812158500,0.485158447265625,0.0018823222490027547,0.008703743107616901,0.0021201425697654486
1772819368822223400,0.495223388671875,0.007251787465065718,0.018085526302456856,0.008815329521894455
1772819368832288500,0.50528857421875,0.008362858556210995,0.020617660135030746,0.007580954115837812
1772819368842353700,0.515353759765625,0.0012658004416152835,0.00914476253092289,0.004013916477560997
1772819368852418300,0.525418212890625,-0.004034689161926508,0.007041664328426123,0.001130245509557426
1772819368862483500,0.5354833984375,-0.010454238392412663,0.010911770164966583,-0.0025100293569266796
1772819368872548600,0.545548583984375,-0.009766876697540283,0.017437046393752098,-0.009121859446167946
1772819368882612500,0.555612548828125,-0.00893623661249876,0.015843678265810013,-0.0073231603018939495
1772819368892677600,0.565677734375,-0.009067264385521412,0.02076200395822525,-0.005994775798171759
1772819368902742300,0.5757421875,-0.0018405106384307146,0.02317456156015396,-0.001933721243403852
1772819368912807400,0.585807373046875,0.0017560884589329362,0.020180901512503624,-0.0032109732273966074
1772819368922872600,0.59587255859375,-0.0023009711876511574,0.023543940857052803,-0.000675111310556531
1772819368932937500,0.6059375,-0.002409095410257578,0.02004268392920494,0.00014034859486855567
1772819368943002400,0.61600244140625,-0.0044256411492824554,0.016158197075128555,0.0010295780375599861
1772819368953067500,0.626067626953125,-0.007845406420528889,0.01064971461892128,0.0026194851379841566
1772819368963132400,0.63613232421875,-0.012009791098535061,0.017680460587143898,0.00475347600877285
1772819368973196500,0.646196533203125,-0.008717591874301434,0.011862784624099731,0.0036661075428128242
1772819368983261700,0.65626171875,-0.007451524492353201,0.008835835382342339,0.00293267285451293
1772819368993326300,0.666326416015625,-0.0075849490240216255,0.008290153928101063,0.007248857989907265
1772819369003391500,0.6763916015625,-0.007819573394954205,0.01889006793498993,0.011009241454303265
1772819369013456600,0.68645654296875,-0.010427873581647873,0.021140705794095993,0.006451507564634085
1772819369023521500,0.696521484375,-0.008048072457313538,0.01998169720172882,0.0020839234348386526
1772819369033586400,0.70658642578125,-0.009122658520936966,0.02424142323434353,0.011714446358382702
1772819369043651600,0.716651611328125,-0.008504272438585758,0.016508935019373894,0.009438775479793549
1772819369053715500,0.726715576171875,-0.00563977612182498,0.011930163018405437,0.011235344223678112
1772819369063780600,0.736780517578125,-0.0075700352899730206,0.010994328185915947,0.017367271706461906
1772819369073845500,0.746845458984375,-0.00890774093568325,0.019418971613049507,0.01956331543624401
1772819369083910400,0.756910400390625,-0.0018343853298574686,0.02630777098238468,0.01828952506184578
1772819369093975600,0.7669755859375,-0.003366768127307296,0.02485501579940319,0.017174726352095604
1772819369104040400,0.77704052734375,-0.0032202943693846464,0.019207516685128212,0.015078818425536156
1772819369114105300,0.787105224609375,-0.003471164032816887,0.017712950706481934,0.009064335376024246
1772819369124170500,0.79717041015625,-0.007754592224955559,0.013032178394496441,0.007314638234674931
1772819369134235400,0.8072353515625,-0.003549194661900401,0.00669278996065259,-0.0012945625931024551
1772819369144299500,0.817299560546875,-0.007597732357680798,0.008709069341421127,-0.00589597225189209
1772819369154364700,0.82736474609375,-0.006591057404875755,0.015141668729484081,-0.007010771427303553
1772819369164429300,0.83742919921875,-0.004077832214534283,0.017437312752008438,-0.01230220589786768
1772819369174494500,0.847494384765625,-0.0037031255196779966,0.028969332575798035,-0.00800173357129097
1772819369184559600,0.8575595703125,-0.0059660132974386215,0.031128358095884323,-0.0025984463281929493
1772819369194624500,0.86762451171875,-0.005035505164414644,0.034321755170822144,0.0006266417913138866
1772819369204689400,0.877689453125,-0.003703924361616373,0.03447728231549263,0.008326373063027859
1772819369214754600,0.887754638671875,-0.008165251463651657,0.03952157497406006,0.005114600993692875
1772819369224818400,0.897818359375,-0.005636047571897507,0.038121286779642105,0.0018540926976129413
1772819369234883600,0.907883544921875,-0.00313560594804585,0.024143420159816742,-0.004601143300533295
1772819369244948500,0.917948486328125,-0.003561178920790553,0.009064601734280586,-0.010598848573863506
1772819369255013400,0.928013427734375,-0.005479720421135426,-0.008919458836317062,-0.012908075004816055
1772819369265078500,0.93807861328125,-0.00926460511982441,-0.01859685406088829,-0.00740225613117218
1772819369275143400,0.948143310546875,-0.011155715212225914,-0.011808988638222218,-0.003355849301442504
1772819369285208600,0.95820849609375,-0.00689039658755064,0.012521384283900261,0.004445614758878946
1772819369295273500,0.9682734375,-0.005856291390955448,0.03857455775141716,0.005891178734600544
1772819369305338400,0.97833837890625,-0.004083158448338509,0.04821493476629257,0.003394465195015073
1772819369315402500,0.988402587890625,-0.004757470916956663,0.03687918931245804,-0.004789961501955986
1772819369325467600,0.998467529296875,-0.002261023735627532,0.02070261538028717,-0.005088767968118191
1772819369335532500,1.008532470703125,-0.004239486064761877,0.008989499881863594,-0.00857378076761961
1772819369345597400,1.018597412109375,-0.006143113598227501,-0.0016442356863990426,-0.009273393079638481
1772819369355662600,1.02866259765625,-0.010686200112104416,-0.009556487202644348,-0.010530139319598675
1772819369365727500,1.0387275390625,-0.01335921511054039,-0.003562244353815913,-0.006189718842506409
1772819369375792400,1.04879248046875,-0.012405803427100182,0.0038959383964538574,-0.0057617491111159325
1772819369385857500,1.058857421875,-0.011532818898558617,0.007930360734462738,-0.003180613275617361
1772819369395922400,1.06892236328125,-0.007531952112913132,0.013320598751306534,-0.004832572303712368
1772819369405986600,1.078986572265625,-0.0041284323669970036,0.0246073417365551,0.0022093583829700947
1772819369416051500,1.089051513671875,-0.0028695559594780207,0.034443993121385574,0.009501892141997814
1772819369426116400,1.099116455078125,-0.0024498419370502234,0.029275329783558846,0.015019696205854416
1772819369436181500,1.109181396484375,0.0008580705034546554,0.023933561518788338,0.013462278991937637
1772819369446246400,1.119246337890625,0.004944158717989922,0.019828032702207565,0.016140354797244072
1772819369456311600,1.1293115234375,0.002005626680329442,0.018205102533102036,0.012869459576904774
1772819369466376400,1.13937646484375,-0.0014831144362688065,0.015594139695167542,0.00857564527541399
1772819369476441300,1.14944140625,0.0027446537278592587,0.02040886878967285,0.005431250669062138
1772819369486505500,1.15950537109375,-0.0020362529903650284,0.02582520619034767,0.001210939371958375
1772819369496570600,1.169570556640625,0.0024170849937945604,0.030113426968455315,0.00007376955909421667
1772819369506635500,1.179635498046875,0.004172907210886478,0.027909928932785988,-0.0054815844632685184
1772819369516700400,1.189700439453125,0.008013984188437462,0.01739576831459999,-0.010126936249434948
1772819369526765600,1.199765625,0.009074987843632698,0.0035028557758778334,-0.013163472525775433
1772819369536830500,1.20983056640625,0.00806165486574173,-0.0075601814314723015,-0.015329421497881413
1772819369546895600,1.2198955078125,0.005696235224604607,-0.006331665441393852,-0.016927318647503853
1772819369556960500,1.22996044921875,0.0036336169578135014,0.0002468750171829015,-0.015483085997402668
1772819369567025400,1.240025390625,-0.0008170577930286527,0.007476824801415205,-0.012294483371078968
1772819369577089500,1.250089599609375,0.0018104169284924865,0.01432061567902565,-0.0036762275267392397
1772819369587154400,1.260154541015625,0.0015733955660834908,0.02736983820796013,0.00640783179551363
1772819369597219600,1.270219482421875,0.004299940075725317,0.020240822806954384,0.010581005364656448
1772819369607284500,1.280284423828125,0.008467786945402622,0.01756194978952408,0.016323579475283623
1772819369617349400,1.290349365234375,0.0062760054133832455,0.022362830117344856,0.017581390216946602
1772819369627414500,1.30041455078125,0.0041611893102526665,0.01937023550271988,0.014406902715563774
1772819369637479400,1.3104794921875,-0.00033635724685154855,0.013229252770543098,0.0032506543211638927
1772819369647544300,1.32054443359375,-0.0037081853952258825,0.010453972034156322,0.001996571896597743
1772819369657608400,1.3306083984375,-0.010437993332743645,0.011304586194455624,-0.002287389012053609
1772819369667673600,1.340673583984375,-0.013306750915944576,0.0102566322311759,-0.005904227960854769
1772819369677738500,1.350738525390625,-0.011261176317930222,0.014109160751104355,-0.006714628078043461
1772819369687796700,1.360796630859375,-0.008344748988747597,0.010365023277699947,-0.005243497900664806
1772819369697862000,1.37086181640625,-0.008667523972690105,0.010462760925292969,-0.00464641721919179
1772819369707927000,1.380927001953125,-0.006676544900983572,0.005967877805233002,-0.0023425165563821793
1772819369717992000,1.390991943359375,-0.0057439059019088745,0.00230816169641912,0.004126035608351231
1772819369728056800,1.401056884765625,-0.002885801251977682,0.010483533143997192,0.011632953770458698
1772819369738122000,1.4111220703125,-0.0041617220267653465,0.0220339298248291,0.01413712464272976
1772819369748187000,1.421186767578125,-0.004516987595707178,0.025800172239542007,0.013678793795406818
1772819369758251000,1.4312509765625,-0.0046725161373615265,0.014886537566781044,0.008144479244947433
1772819369768316000,1.44131591796875,-0.007171626668423414,0.004733768757432699,0.0004814995336346328
1772819369778380800,1.451380859375,-0.006115416996181011,-0.0070405988954007626,0.0022034994326531887
1772819369788446000,1.461446044921875,-0.00765898497775197,-0.007920507341623306,-0.0009941579774022102
1772819369798511000,1.471510986328125,-0.008129033260047436,-0.00660463934764266,0.0023696806747466326
1772819369808575700,1.48157568359375,-0.013746971264481544,0.009089102037250996,-0.0010455570882186294
1772819369818641000,1.491640869140625,-0.01269768550992012,0.013799968175590038,0.00009054747351910919
1772819369828706000,1.5017060546875,-0.015868978574872017,0.022123944014310837,0.0015576828736811876
1772819369838770000,1.51177001953125,-0.013281983323395252,0.01871429942548275,0.0015456987312063575
1772819369848835000,1.5218349609375,-0.014756575226783752,0.011118963360786438,0.0036453348584473133
1772819369858899700,1.531899658203125,-0.013251623138785362,0.013727529905736446,0.0014397049089893699
1772819369868964900,1.54196484375,-0.017437046393752098,0.012488095089793205,-0.0018040252616629004
1772819369879030000,1.552030029296875,-0.018618158996105194,0.011236675083637238,-0.0025185514241456985
1772819369889095000,1.562094970703125,-0.02052338421344757,0.011019627563655376,-0.013902765698730946
1772819369899159800,1.572159912109375,-0.0190727598965168,0.0025952504947781563,-0.021461348980665207
1772819369909225000,1.582224853515625,-0.022668294608592987,0.004986769054085016,-0.023599868640303612
1772819369919289900,1.592289794921875,-0.022822491824626923,0.00920601561665535,-0.02010340429842472
1772819369929354000,1.60235400390625,-0.018203770741820335,0.01275547593832016,-0.013743508607149124
1772819369939419100,1.612419189453125,-0.01320821326225996,0.021032314747571945,-0.005862682592123747
1772819369949483800,1.62248388671875,-0.012455870397388935,0.026505110785365105,-0.001865544356405735
1772819369959549000,1.632548828125,-0.010163155384361744,0.024213727563619614,-0.0031108383554965258
1772819369969614000,1.642614013671875,-0.008107461035251617,0.009945042431354523,-0.008190285414457321
1772819369979679000,1.652678955078125,-0.010367685928940773,0.00637827068567276,-0.012327772565186024
1772819369989743900,1.662743896484375,-0.009215869009494781,0.0012117383303120732,-0.009979130700230598
1772819369999809000,1.67280908203125,-0.008353270590305328,0.004128698725253344,-0.0023254721891134977
1772819370009874000,1.6828740234375,-0.005679191090166569,0.01444205641746521,0.0012543488992378116
1772819370019938000,1.69293798828125,-0.002004827605560422,0.01847274973988533,0.0026221484877169132
1772819370030003000,1.7030029296875,0.0005123922019265592,0.01769457384943962,0.0020090886391699314
1772819370040067800,1.71306787109375,0.00033928672201000154,0.013592241331934929,-0.00002103897168126423
1772819370050133000,1.723133056640625,-0.0075633772648870945,0.008464058861136436,-0.0070824106223881245
1772819370060198000,1.733197998046875,-0.013075588271021843,0.007723966147750616,-0.009888849221169949
1772819370070262800,1.7432626953125,-0.011440673843026161,0.003156911116093397,-0.009469135664403439
1772819370080328000,1.753327880859375,-0.012693957425653934,0.0036581179592758417,-0.016765929758548737
1772819370090392800,1.763392822265625,-0.011462777853012085,0.009148756973445415,-0.01486203633248806
1772819370100458000,1.7734580078125,-0.011142399162054062,0.012340822257101536,-0.012340822257101536
1772819370110522000,1.783522216796875,-0.01210033893585205,0.0071157002821564674,-0.010171410627663136
1772819370120586800,1.793586669921875,-0.010173807851970196,-0.0009265137487091124,-0.009983657859265804
1772819370130652000,1.80365185546875,-0.008737831376492977,0.001998968655243516,-0.004637362435460091
1772819370140717000,1.813717041015625,-0.007839813828468323,0.0067718857899308205,0.0023824640084058046
1772819370150782000,1.823781982421875,-0.008186557330191135,0.012011389248073101,0.0083085298538208
1772819370160846800,1.833846923828125,-0.006205431651324034,0.017498832195997238,0.007477889768779278
1772819370170912000,1.843912109375,-0.007847536355257034,0.02544410713016987,0.0037883466575294733
1772819370180977000,1.853976806640625,-0.008378304541110992,0.021077055484056473,-0.006925283931195736
1772819370191042000,1.8640419921875,-0.004963066894561052,0.012653211131691933,-0.013769607990980148
1772819370201106000,1.87410595703125,-0.007439806591719389,0.003060770919546485,-0.02093111351132393
1772819370211170800,1.8841708984375,-0.006880809087306261,-0.0025867284275591373,-0.023256320506334305
1772819370221236000,1.894236083984375,-0.005450691562145948,-0.005885053426027298,-0.01876995898783207
1772819370231300900,1.90430078125,-0.006449110805988312,-0.004626443609595299,-0.008245679549872875
1772819370241366000,1.914365966796875,-0.0010396981379017234,0.01697365753352642,-0.00031798143754713237
1772819370251431000,1.924430908203125,-0.0017960357945412397,0.0332929752767086,-0.001588841900229454
1772819370261495800,1.934495849609375,0.0009366337326355278,0.04207181930541992,-0.004526308737695217
1772819370271561000,1.94456103515625,-0.003952397499233484,0.03960493206977844,-0.01019697729498148
1772819370281626000,1.954626220703125,-0.005382781382650137,0.024830514565110207,-0.013184244744479656
1772819370291690000,1.96468994140625,-0.006316218990832567,0.002115615177899599,-0.014424479566514492
1772819370301755000,1.9747548828125,-0.009107477962970734,-0.01233443059027195,-0.011802330613136292
1772819370311820000,1.984820068359375,-0.0036450685001909733,-0.014240987598896027,-0.009769806638360023
1772819370321885000,1.994885009765625,-0.002382730133831501,-0.014000237919390202,-0.003963049966841936
1772819370331949800,2.00494970703125,-0.003774764481931925,-0.008612662553787231,-0.0013345100451260805
1772819370342015000,2.015014892578125,-0.0008711199625395238,0.0037622477393597364,0.001871136948466301
1772819370352080000,2.025079833984375,-0.0019297265680506825,0.01443965919315815,0.005145759787410498
1772819370362145000,2.03514501953125,-0.003674097126349807,0.02166801132261753,0.007637679576873779
1772819370372210000,2.0452099609375,-0.0018895127577707171,0.024923458695411682,0.010293650440871716
1772819370382273800,2.055273681640625,0.002404301892966032,0.016917996108531952,0.021209947764873505
1772819370392339000,2.0653388671875,0.010241186246275902,0.007595867849886417,0.03050651028752327
1772819370402403800,2.07540380859375,0.015614645555615425,0.0009523464250378311,0.035290081053972244
1772819370412469000,2.085468994140625,0.017489777877926826,-0.007612912449985743,0.03567890077829361
1772819370422534000,2.095533935546875,0.016155000776052475,-0.005071191117167473,0.03181545436382294
1772819370432598800,2.105598876953125,0.009274724870920181,0.0022533005103468895,0.027300862595438957
1772819370442664000,2.115663818359375,0.005864014383405447,0.01005076989531517,0.014525413513183594
1772819370452729000,2.12572900390625,0.00015579492901451886,0.01495524775236845,0.0049247173592448235
1772819370462793700,2.135793701171875,0.0002466087171342224,0.012445484288036823,-0.0036690370179712772
1772819370472859000,2.14585888671875,0.0026194851379841566,0.001163002452813089,-0.0049372343346476555
1772819370482923000,2.155923095703125,0.007095459848642349,-0.008290953002870083,0.00032730249222368
1772819370492988000,2.16598779296875,0.00815087091177702,-0.012809005565941334,0.007852064445614815
1772819370503053000,2.176052978515625,0.012898221611976624,-0.009335178881883621,0.009709086269140244
1772819370513118000,2.186117919921875,0.008019310422241688,-0.0015627428656443954,0.009532252326607704
1772819370523182800,2.196182861328125,0.0036155073903501034,0.004478638060390949,0.005883721634745598
1772819370533248000,2.206248046875,-0.0003296993381809443,0.008310394361615181,0.0023177489638328552
1772819370543313200,2.216313232421875,0.0020762004423886538,0.025603629648685455,0.005487177055329084
1772819370553377800,2.226377685546875,0.00410526292398572,0.029441777616739273,0.006597449071705341
1772819370563443000,2.23644287109375,0.01037594210356474,0.01751294732093811,0.013128318823873997
1772819370573506800,2.2465068359375,0.01269741915166378,0.012779178097844124,0.0169126708060503
1772819370583572000,2.256572021484375,0.011229485273361206,0.00404640706256032,0.020908476784825325
1772819370593636900,2.266636962890625,0.006012618541717529,-0.002305232221260667,0.01438240148127079
1772819370603701800,2.27670166015625,0.002436259761452675,-0.0028847360517829657,0.00412390474230051
1772819370613767000,2.286766845703125,-0.0026224146131426096,-0.000859934720210731,-0.0022237394005060196
1772819370623832000,2.29683203125,-0.002263420494273305,0.009302155114710331,-0.0032554480712860823
1772819370633896700,2.306896728515625,-0.00694818701595068,0.010011089034378529,-0.008986837230622768
1772819370643961900,2.3169619140625,0.00023995080846361816,0.013472399674355984,-0.00424268189817667
1772819370654027000,2.327027099609375,0.0010341054294258356,0.018435997888445854,0.00401524780318141
1772819370664091000,2.3370908203125,0.0023457121569663286,0.013139237649738789,0.006551109720021486
1772819370674156000,2.347156005859375,0.0016460998449474573,0.003608583239838481,0.0009257147903554142
1772819370684221000,2.357220947265625,-0.003695135936141014,0.0011853729374706745,-0.0008452873444184661
1772819370694289700,2.36728955078125,-0.0031678301747888327,0.0054877097718417645,-0.005637912079691887
1772819370704354800,2.377354736328125,-0.007266701199114323,0.011779161170125008,-0.0049510826356709
1772819370714419700,2.387419677734375,-0.005514075048267841,0.014090518467128277,-0.014705975539982319
1772819370724484600,2.397484619140625,-0.00814847368746996,0.014393053948879242,-0.015216503292322159
1772819370734549800,2.4075498046875,-0.006682137493044138,0.01164254080504179,-0.01648789644241333
1772819370744614700,2.41761474609375,-0.005030444823205471,0.011567173525691032,-0.010660899803042412
1772819370754678800,2.4276787109375,-0.005367867648601532,0.014082529582083225,-0.008787632919847965
1772819370764743700,2.43774365234375,-0.010751447640359402,0.006597715429961681,-0.0020764668006449938
1772819370774808600,2.44780859375,-0.010906177572906017,0.011407383717596531,-0.0007864314829930663
1772819370784873700,2.457873779296875,-0.010685933753848076,0.011807656846940517,-0.009637180715799332
1772819370794939000,2.46793896484375,-0.011663846671581268,0.006777478381991386,-0.012624182738363743
1772819370805003500,2.47800341796875,-0.013221262954175472,0.002907373011112213,-0.01684369519352913
1772819370815068700,2.488068603515625,-0.009254484437406063,0.0030333404429256916,-0.018338527530431747
1772819370825133800,2.4981337890625,-0.010432134382426739,0.0029465213883668184,-0.010582603514194489
1772819370835198700,2.50819873046875,-0.008529040031135082,0.00875301193445921,-0.00023675501870457083
1772819370845263600,2.518263671875,-0.004944158717989922,0.011684086173772812,0.013279852457344532
1772819370855327500,2.528327392578125,-0.005337507463991642,0.019302591681480408,0.02051033452153206
1772819370865392600,2.538392578125,-0.005043494515120983,0.02094176784157753,0.016875652596354485
1772819370875457800,2.548457763671875,-0.007590008899569511,0.01611798256635666,0.010674215853214264
1772819370885522700,2.558522705078125,-0.0070078419521451,0.01890365034341812,0.008108526468276978
1772819370895587600,2.568587646484375,-0.005890646018087864,0.01852388307452202,0.008085090667009354
1772819370905652700,2.57865283203125,-0.005874400492757559,0.01122256089001894,0.0109855392947793
1772819370915717600,2.588717529296875,-0.0020514330826699734,0.0035574506036937237,0.01870923861861229
1772819370925782800,2.59878271484375,0.0029055087361484766,0.01323937252163887,0.026442792266607285
1772819370935847700,2.60884765625,0.0034043188206851482,0.019217636436223984,0.027044134214520454
1772819370945912600,2.61891259765625,0.0027241474017500877,0.01679868809878826,0.02400094084441662
1772819370955976700,2.628976806640625,-0.0008780442294664681,0.013942713849246502,0.01315068919211626
1772819370966041900,2.639041748046875,-0.008741294033825397,0.00010572749306447804,0.0013017531018704176
1772819370976106800,2.649106689453125,-0.009189769625663757,-0.0028005801141262054,-0.006829410325735807
1772819370986171600,2.659171630859375,-0.0100827282294631,-0.0018932411912828684,-0.0032682311721146107
1772819370996236800,2.66923681640625,-0.004971588961780071,0.003728159237653017,-0.00390259618870914
1772819371006301700,2.6793017578125,-0.0036770266015082598,0.012461729347705841,0.0023521038237959146
1772819371016366800,2.689366943359375,-0.0028871328104287386,0.01992630399763584,0.0024077638518065214
1772819371026431700,2.699431640625,-0.003123621689155698,0.030039392411708832,0.0021696772892028093
1772819371036496600,2.70949658203125,-0.007953530177474022,0.02833443507552147,-0.0005845638806931674
1772819371046560800,2.719560791015625,-0.008358065038919449,0.014811703003942966,-0.0073356772772967815
1772819371056625700,2.729625732421875,-0.009016398340463638,0.0052413675002753735,-0.010839864611625671
1772819371066690600,2.739690673828125,-0.005233377683907747,-0.004732703324407339,-0.01489612553268671
1772819371076755700,2.749755615234375,-0.0017363809747621417,-0.009104282595217228,-0.018861571326851845
1772819371086820600,2.759820556640625,-0.0008098672842606902,-0.011456119827926159,-0.018575549125671387
1772819371096885800,2.7698857421875,0.003269562730565667,-0.010092315264046192,-0.0220325980335474
1772819371106950700,2.77995068359375,0.009048888459801674,-0.003079679561778903,-0.023854998871684074
1772819371117015600,2.790015625,0.00501180300489068,0.013319533318281174,-0.018074074760079384
1772819371127080700,2.800080810546875,0.0006639260682277381,0.019872507080435753,-0.006708236411213875
1772819371137145900,2.810145751953125,-0.00558198569342494,0.022471753880381584,0.005203284323215485
1772819371147209700,2.820209716796875,-0.0055090151727199554,0.02076493389904499,0.0028128307312726974
1772819371157274600,2.830274658203125,-0.0022234732750803232,0.010449178516864777,-0.009527458809316158
1772819371167339800,2.84033984375,-0.006716758478432894,0.00299286050722003,-0.01751880533993244
1772819371177404700,2.85040478515625,-0.009706955403089523,-0.00045540055725723505,-0.01792786829173565
1772819371187469800,2.8604697265625,-0.0170250553637743,0.0005581985460594296,-0.013965616934001446
1772819371197534700,2.87053466796875,-0.018199510872364044,0.008018777705729008,-0.006000634748488665
1772819371207599600,2.880599609375,-0.016199743375182152,0.020914070308208466,0.00013848437811248004
1772819371217664800,2.890664794921875,-0.015597335062921047,0.02875468321144581,-0.00162426196038723
1772819371227730000,2.90072998046875,-0.010217217728495598,0.025850504636764526,0.0003486077766865492
1772819371237794600,2.910794677734375,-0.005166798830032349,0.026632409542798996,0.004594219382852316
1772819371247858700,2.920858642578125,0.00077631144085899,0.0273237656801939,0.015444469638168812
1772819371257923600,2.930923583984375,0.00415453128516674,0.024347683414816856,0.024048877879977226
1772819371267988700,2.94098876953125,0.006672017276287079,0.016087623313069344,0.026611903682351112
1772819371278054000,2.951053955078125,0.009492038749158382,0.00893597025424242,0.029446305707097054
1772819371288118500,2.961118408203125,0.011620969511568546,0.011776232160627842,0.028198348358273506
1772819371298183700,2.97118359375,0.008582568727433681,0.02015799842774868,0.024570057168602943
1772819371308248800,2.981248779296875,-0.0022029669489711523,0.025526132434606552,0.015862319618463516
1772819371318313500,2.9913134765625,-0.002701510675251484,0.023264842107892036,0.005331648513674736
1772819371328378600,3.001378662109375,-0.0041670482605695724,0.026940537616610527,-0.005216333549469709
1772819371338443800,3.01144384765625,-0.001312405802309513,0.016499880701303482,-0.012432434596121311
1772819371348507600,3.021507568359375,-0.0018583538476377726,0.007926632650196552,-0.012598349712789059
1772819371358572800,3.03157275390625,0.0013401026371866465,-0.0007126618875190616,-0.010572482831776142
1772819371368637700,3.0416376953125,-0.0041071269661188126,0.01215653121471405,-0.003379285102710128
1772819371378702600,3.05170263671875,-0.006906642112880945,0.019124425947666168,0.007692806888371706
1772819371388767700,3.061767822265625,-0.004748416133224964,0.02315591834485531,0.013433783315122128
1772819371398833000,3.0718330078125,-0.0029049760196357965,0.032231707125902176,0.018822157755494118
1772819371408897500,3.0818974609375,0.0007664577569812536,0.03513801470398903,0.023068301379680634
1772819371418962700,3.091962646484375,0.001202150946483016,0.03305782005190849,0.024220118299126625
1772819371429027800,3.10202783203125,-0.0017875137273222208,0.02377803437411785,0.02334526926279068
1772819371439092700,3.1120927734375,-0.008493886329233646,0.01005343347787857,0.017665546387434006
1772819371449156900,3.122156982421875,-0.0065593658946454525,0.011842810548841953,0.018030133098363876
1772819371459221500,3.132221435546875,-0.01549640204757452,0.02267841435968876,0.022222215309739113
1772819371469286700,3.14228662109375,-0.013877466320991516,0.007132478058338165,0.01119353249669075
1772819371479351800,3.152351806640625,-0.004162786994129419,0.017732657492160797,0.006154565140604973
1772819371489416700,3.162416748046875,-0.00444002216681838,0.018396317958831787,0.010782340541481972
1772819371499481600,3.172481689453125,-0.005406483076512814,0.002329200739040971,0.015912653878331184
1772819371509546800,3.182546630859375,0.0005944175645709038,-0.0159483402967453,0.0054365769028663635
1772819371519611600,3.192611572265625,-0.004634432960301638,-0.014868161641061306,-0.0009347695158794522
1772819371529676800,3.2026767578125,-0.009304285980761051,-0.011716310866177082,-0.0029052423778921366
1772819371539741700,3.21274169921875,-0.010277937166392803,0.0036250948905944824,-0.013030314818024635
1772819371549805600,3.2228056640625,-0.006990531459450722,0.01625540293753147,-0.01350728701800108
1772819371559870700,3.23287060546875,-0.0030091057997196913,0.02117452770471573,-0.00948111992329359
1772819371569936000,3.242935791015625,-0.005727660376578569,0.015334481373429298,-0.00446931691840291
1772819371580000500,3.25300048828125,-0.0038549257442355156,0.009032909758388996,0.00009214537567459047
1772819371590065700,3.263065673828125,-0.009067530743777752,0.0034471957478672266,0.007129015866667032
1772819371600130800,3.273130859375,-0.011729094199836254,0.002906840294599533,0.008696552366018295
1772819371610195700,3.28319580078125,-0.010762100107967854,0.005600095260888338,0.00526693370193243
1772819371620260600,3.293260498046875,-0.0065441858023405075,0.010182596743106842,0.0012993563432246447
1772819371630325800,3.30332568359375,-0.002665557898581028,0.02238733135163784,-0.0015568839153274894
1772819371640390700,3.313390625,-0.0018991001415997744,0.022911706939339638,-0.0006460828590206802
1772819371650454800,3.323454833984375,-0.001276186783798039,0.01595473103225231,0.003251453395932913
1772819371660519700,3.333519775390625,-0.0046456181444227695,0.0062187472358345985,0.010407366789877415
1772819371670584600,3.34358447265625,-0.0068030450493097305,0.003373426152393222,0.014284131117165089
1772819371680649700,3.353649658203125,-0.009179916232824326,-0.0018852517241612077,0.014140852726995945
1772819371690710500,3.36371044921875,-0.01607137732207775,-0.00270710326731205,0.004219512455165386
1772819371700775700,3.373775634765625,-0.0160633884370327,0.0054277884773910046,-0.004990763962268829
1772819371710840600,3.383840576171875,-0.01991858147084713,0.015533685684204102,-0.018084727227687836
1772819371720905500,3.393905517578125,-0.021741515025496483,0.018336929380893707,-0.020611535757780075
1772819371730970600,3.403970703125,-0.022099176421761513,0.023376695811748505,-0.014573615975677967
1772819371741035500,3.414035400390625,-0.018254105001688004,0.02021152898669243,-0.013952567242085934
1772819371751099600,3.424099609375,-0.015244998969137669,0.018744658678770065,-0.009524528868496418
1772819371761164500,3.43416455078125,-0.01571637950837612,0.012051602825522423,-0.0032794165890663862
1772819371771229400,3.4442294921875,-0.01546684093773365,0.01565033197402954,0.0011880361707881093
1772819371781294600,3.454294677734375,-0.015431154519319534,0.01992257498204708,-0.0012431635987013578
1772819371791359700,3.46435986328125,-0.004859736189246178,0.020733507350087166,-0.0057622818276286125
1772819371801424400,3.47442431640625,-0.0016309198690578341,0.024807078763842583,-0.004840295296162367
1772819371811489500,3.484489501953125,-0.00028336033574305475,0.023816382512450218,-0.014727280475199223
1772819371821554700,3.4945546875,0.00264798104763031,0.017667677253484726,-0.021214473992586136
1772819371831619600,3.50461962890625,0.001989913871511817,0.010261425748467445,-0.02953924983739853
1772819371841684500,3.5146845703125,0.00018668759730644524,0.008204933255910873,-0.024688035249710083
1772819371851748400,3.524748291015625,0.0011145329335704446,0.003489539958536625,-0.016590161249041557
1772819371861813500,3.5348134765625,0.0062336609698832035,0.006933007389307022,-0.004572114907205105
1772819371871878700,3.544878662109375,0.010860104113817215,0.020435767248272896,0.005327653605490923
1772819371881943600,3.554943603515625,0.009333314374089241,0.020446952432394028,0.008011321537196636
1772819371892008400,3.565008544921875,0.005110872443765402,0.019578760489821434,0.0016474314033985138
1772819371902073600,3.575073486328125,0.001246892032213509,0.022167352959513664,0.0014908375451341271
1772819371912138500,3.585138427734375,-0.009071791544556618,0.029981866478919983,-0.002837331732735038
1772819371922203600,3.59520361328125,-0.013893711380660534,0.02514583244919777,-0.007531419396400452
1772819371932268500,3.6052685546875,-0.012142150662839413,0.010696852579712868,-0.017368337139487267
1772819371942333400,3.61533349609375,-0.0054693338461220264,-0.008083758875727654,-0.019231751561164856
1772819371952398600,3.625398681640625,-0.003591272747144103,-0.022427277639508247,-0.017588049173355103
1772819371962462700,3.635462646484375,0.0021947110071778297,-0.01612251065671444,-0.008332498371601105
1772819371972527600,3.645527587890625,0.005464806687086821,0.0023675502743571997,0.0013116068439558148
1772819371982592500,3.655592529296875,0.0032985913567245007,0.018515894189476967,0.012446283362805843
1772819371992657700,3.66565771484375,0.005585181526839733,0.02652694843709469,0.00820946041494608
1772819372002722600,3.67572265625,0.006603574380278587,0.024454742670059204,0.006732737645506859
1772819372012787500,3.685787353515625,0.0067724185064435005,0.014869227074086666,0.0017161410069093108
1772819372022852600,3.6958525390625,0.0024676851462572813,0.0024748756550252438,-0.0008516788948327303
1772819372032917500,3.70591748046875,-0.0018383801216259599,-0.01666419766843319,-0.007004379760473967
1772819372042982700,3.715982666015625,-0.007721303030848503,-0.024469923228025436,-0.00824807584285736
1772819372053047600,3.726047607421875,-0.01155811920762062,-0.019626697525382042,-0.007179083302617073
1772819372063112400,3.736112548828125,-0.016925986856222153,-0.006486129015684128,-0.00762889115139842
1772819372073176600,3.746176513671875,-0.021854165941476822,0.00493217445909977,-0.0038365498185157776
1772819372083241500,3.756241455078125,-0.022001972422003746,0.014303038828074932,-0.0019797938875854015
1772819372093306600,3.766306640625,-0.02208985574543476,0.021321000531315804,0.0031308121979236603
1772819372103371500,3.77637158203125,-0.019329223781824112,0.022657109424471855,0.004844556096941233
1772819372113436400,3.7864365234375,-0.017377391457557678,0.023266706615686417,0.0049316417425870895
1772819372123501600,3.79650146484375,-0.015120362862944603,0.010192450135946274,0.005690376274287701
1772819372133566700,3.806566650390625,-0.014391189441084862,0.002103098202496767,0.003942543640732765
1772819372143631400,3.81663134765625,-0.011095261201262474,0.003418433479964733,0.007327687460929155
1772819372153696500,3.826696533203125,-0.006965497974306345,0.004485828336328268,0.012460132129490376
1772819372163761700,3.83676171875,-0.006130330264568329,0.008556470274925232,0.012769857421517372
1772819372173826600,3.84682666015625,-0.000985103310085833,0.016499880701303482,0.010483266785740852
1772819372183890700,3.856890625,0.003692472819238901,0.016896158456802368,0.002493251347914338
1772819372193955600,3.86695556640625,0.0028072381392121315,0.006435262504965067,-0.004741225857287645
1772819372204020500,3.8770205078125,0.005052549298852682,-0.009221727959811687,-0.014069213531911373
1772819372214085600,3.887085693359375,0.004806206561625004,-0.022218219935894012,-0.019888220354914665
1772819372224150800,3.89715087890625,0.0021113541442900896,-0.010339722968637943,-0.012544553726911545
1772819372234215400,3.90721533203125,-0.0004996090428903699,0.004269579891115427,-0.012415923178195953
1772819372244280600,3.917280517578125,-0.0013933659065514803,0.014462029561400414,-0.007128483150154352
1772819372254345700,3.927345703125,0.004365986213088036,0.021256286650896072,-0.006479204632341862
1772819372264410400,3.937410400390625,0.0057769292034208775,0.020446686074137688,-0.0007046724203974009
1772819372274475500,3.9474755859375,0.006941263098269701,0.007928763516247272,-0.0021640846971422434
1772819372284540700,3.957540771484375,0.003254649229347706,0.008641424588859081,0.0044165863655507565
1772819372294604500,3.9676044921875,0.007120760157704353,0.020718861371278763,0.015621836297214031
1772819372304669700,3.977669677734375,0.004287423100322485,0.030101442709565163,0.015969112515449524
1772819372314734300,3.987734375,0.008443019352853298,0.02443769946694374,0.0210669357329607
1772819372324799500,3.997799560546875,0.005479986313730478,0.014535799622535706,0.010491256602108479
1772819372334864600,4.00786474609375,0.0011262508342042565,0.008827313780784607,0.007910387590527534
1772819372344929500,4.017929443359375,0.0006578007596544921,0.004640558268874884,-0.004283428192138672
1772819372354994400,4.027994384765625,0.0006870955694466829,0.005240302067250013,-0.00891120359301567
1772819372365058600,4.03805859375,-0.002341451123356819,0.0022884542122483253,-0.018123609945178032
1772819372375123500,4.04812353515625,-0.004767058417201042,0.007565774489194155,-0.01818033494055271
1772819372385188600,4.058188720703125,-0.0009068063227459788,0.01495524775236845,-0.018067684024572372
1772819372395253800,4.068253662109375,-0.0017182715237140656,0.012618323788046837,-0.023910392075777054
1772819372405318400,4.078318359375,0.0010724549647420645,0.007062170654535294,-0.022125542163848877
1772819372415383600,4.088383544921875,0.0009004147723317146,0.011971973814070225,-0.01727752387523651
1772819372425448700,4.09844873046875,-0.003931624814867973,0.018873555585741997,-0.01641812175512314
1772819372435513600,4.108513671875,0.0019113506423309445,0.0166183914989233,-0.01823972351849079
1772819372445578500,4.11857861328125,-0.003793140407651663,0.014002634212374687,-0.018376344814896584
1772819372455643600,4.1286435546875,-0.002954510971903801,0.009791377931833267,-0.008510131388902664
1772819372465708500,4.13870849609375,-0.0019571571610867977,0.008227569982409477,-0.008559399284422398
1772819372475772700,4.148772705078125,-0.005890912376344204,0.009326123632490635,-0.008258994668722153
1772819372485837600,4.158837646484375,-0.0076240976341068745,0.007155647501349449,-0.0080350236967206
1772819372495902500,4.16890234375,-0.010733338072896004,0.008377771824598312,-0.008356200531125069
1772819372505967600,4.178967529296875,-0.011202853173017502,0.008876049891114235,-0.0037529265973716974
1772819372516032500,4.189032470703125,-0.014255634509027004,0.011379420757293701,-0.009052351117134094
1772819372526097700,4.19909765625,-0.017423996701836586,0.015235944651067257,-0.013154684565961361
1772819372536162600,4.20916259765625,-0.012319516390562057,0.01392700057476759,-0.01636113040149212
1772819372546227500,4.2192275390625,-0.014490791596472263,0.02202700451016426,-0.019352925941348076
1772819372556292600,4.229292724609375,-0.010910704731941223,0.01576245203614235,-0.020965736359357834
1772819372566357500,4.239357421875,-0.008219846524298191,0.004042412154376507,-0.020745491608977318
1772819372576422400,4.24942236328125,-0.008560731075704098,0.005980394314974546,-0.016518255695700645
1772819372586486500,4.259486572265625,-0.009350624866783619,0.013064669445157051,-0.011326157487928867
1772819372596551700,4.2695517578125,-0.008760201744735241,0.01053226925432682,-0.012370649725198746
1772819372606616600,4.279616455078125,-0.009309345856308937,0.005882656667381525,-0.012526976875960827
1772819372616681500,4.289681396484375,-0.0033686324022710323,0.005757487844675779,-0.016584303230047226
1772819372626746600,4.29974658203125,0.004284493625164032,0.004459995776414871,-0.010774617083370686
1772819372636811500,4.3098115234375,0.01034584827721119,0.0013757890556007624,-0.0022423816844820976
1772819372646876700,4.319876708984375,0.012280900962650776,-0.0012777847005054355,0.0007933556917123497
1772819372656941600,4.329941650390625,0.010492854751646519,0.014296647161245346,0.013403423130512238
1772819372667006500,4.34000634765625,0.008643022738397121,0.029448702931404114,0.024058464914560318
1772819372677071600,4.350071533203125,0.009831591509282589,0.033130522817373276,0.029507026076316833
1772819372687136800,4.36013671875,0.007404386531561613,0.026490196585655212,0.027344539761543274
1772819372697202400,4.370202392578125,0.007382282521575689,0.02202301099896431,0.025351695716381073
1772819372707266300,4.380266357421875,0.00720571493729949,0.010836934670805931,0.017797639593482018
1772819372717331500,4.39033154296875,0.0018879148410633206,0.002091646660119295,0.012319516390562057
1772819372727396600,4.400396728515625,0.003403519745916128,-0.00006338323146337643,0.006204632576555014
1772819372737461200,4.410461181640625,-0.0060115535743534565,-0.005014199763536453,0.0025896579027175903
1772819372747526400,4.4205263671875,-0.00968378596007824,-0.0060115535743534565,-0.0005757753970101476
1772819372757591600,4.430591552734375,-0.011382617056369781,-0.002207760466262698,-0.005298891570419073
1772819372767656400,4.440656494140625,-0.011863050982356071,-0.00038509309524670243,-0.007148723118007183
1772819372777721300,4.450721435546875,-0.013460947200655937,0.00905394833534956,-0.006777212489396334
1772819372787786500,4.460786376953125,-0.01185266487300396,0.01666499674320221,-0.003297259798273444
1772819372797851600,4.4708515625,-0.010134393349289894,0.01780589483678341,-0.002290318487212062
1772819372807916300,4.480916259765625,-0.011921906843781471,0.016645023599267006,-0.0024469124618917704
1772819372817981400,4.4909814453125,-0.01330169104039669,0.012492355890572071,-0.005906624719500542
1772819372828045300,4.50104541015625,-0.008783637546002865,0.020727116614580154,-0.0017230651574209332
1772819372838110500,4.5111103515625,-0.012913135811686516,0.03380643203854561,-0.000028762138754245825
1772819372848175600,4.521175537109375,-0.018085792660713196,0.03308232128620148,-0.010308030992746353
1772819372858240300,4.531240234375,-0.019931096583604813,0.02635064721107483,-0.017782459035515785
1772819372868305400,4.541305419921875,-0.015688948333263397,0.02171781286597252,-0.028749888762831688
1772819372878370600,4.55137060546875,-0.0090555464848876,0.004473045468330383,-0.03039066307246685
1772819372888435500,4.561435546875,-0.0024056334514170885,-0.014633270911872387,-0.02875601500272751
1772819372898500400,4.571500244140625,-0.0006862966110929847,-0.01811322383582592,-0.02641296572983265
1772819372908565500,4.5815654296875,0.0030748858116567135,-0.0016437029698863626,-0.022466426715254784
1772819372918630400,4.59163037109375,0.0027838023379445076,0.007664577569812536,-0.01840377412736416
1772819372928695600,4.601695556640625,0.0035894084721803665,0.021073859184980392,-0.009008408524096012
1772819372938759400,4.611759521484375,0.004467452876269817,0.030009830370545387,-0.0013662016717717052
1772819372948824300,4.62182421875,0.003950799349695444,0.02076040580868721,0.004020041786134243
1772819372958889500,4.631889404296875,0.005255482159554958,0.011893144808709621,0.013366405852138996
1772819372968954600,4.64195458984375,0.005616340320557356,-0.0036858150269836187,0.013289973139762878
1772819372979019500,4.65201953125,0.0036908749025315046,-0.01575792394578457,0.014103035442531109
1772819372989084400,4.66208447265625,0.004177168011665344,-0.01679336093366146,0.016807476058602333
1772819372999149600,4.672149658203125,0.0034320156555622816,-0.00890667550265789,0.024952488020062447
1772819373009214500,4.68221435546875,0.0008740494376979768,0.005100485868752003,0.02400360256433487
1772819373019279400,4.692279296875,0.0011030812747776508,0.012546151876449585,0.02701563760638237
1772819373029344500,4.702344482421875,0.0014711301773786545,0.014179201796650887,0.027275562286376953
1772819373039409400,4.712409423828125,0.0036189695820212364,0.00814847368746996,0.026766899973154068
1772819373049474600,4.722474609375,0.009473130106925964,0.004538558889180422,0.025380989536643028
1772819373059539500,4.73253955078125,0.013743774965405464,-0.005334844347089529,0.02678793855011463
1772819373069603300,4.742603271484375,0.01865570992231369,-0.01056502666324377,0.028129639104008675
1772819373079668500,4.75266845703125,0.017960092052817345,-0.010950918309390545,0.025672074407339096
1772819373089733400,4.7627333984375,0.01878540590405464,-0.0075964005663990974,0.02647421695291996
1772819373099798500,4.772798583984375,0.01732412911951542,-0.0006463492172770202,0.026921097189188004
1772819373109863400,4.782863525390625,0.013144031167030334,0.01110538188368082,0.02486087568104267
1772819373119928300,4.79292822265625,0.0073255570605397224,0.01537815760821104,0.014972824603319168
1772819373129993500,4.802993408203125,0.003139067906886339,0.006054962985217571,0.0027925907634198666
1772819373140058600,4.81305859375,0.002929743379354477,-0.0036069853231310844,-0.005061604082584381
1772819373150123300,4.823123291015625,0.0021260015200823545,-0.012517922557890415,-0.009839048609137535
1772819373160188400,4.8331884765625,-0.00021198761533014476,-0.02328774519264698,-0.008047806099057198
1772819373170253600,4.843253662109375,-0.001678057829849422,-0.021268537268042564,-0.0022599585354328156
1772819373180317400,4.8533173828125,-0.0018631474813446403,-0.006683735176920891,-0.0022445120848715305
1772819373190382600,4.863382568359375,-0.0030658310279250145,0.003582217963412404,-0.005101284943521023
1772819373200447500,4.873447509765625,-0.008776713162660599,0.00606455048546195,-0.009857957251369953
1772819373210512400,4.883512451171875,-0.009940515272319317,0.005328452680259943,-0.0075969332829117775
1772819373220577500,4.89357763671875,-0.012203136458992958,0.0038602519780397415,-0.008756207302212715
1772819373230642400,4.903642333984375,-0.009166600182652473,-0.0065353973768651485,-0.013098757714033127
1772819373240707300,4.913707275390625,-0.008314388804137707,-0.004562793765217066,-0.0024282701779156923
1772819373250772500,4.9237724609375,-0.010399644263088703,0.0043806335888803005,0.004637628793716431
1772819373260837600,4.933837646484375,-0.010061955079436302,0.00993012823164463,0.01182123925536871
1772819373270902300,4.94390234375,-0.013964551500976086,0.009885387495160103,0.012446283362805843
1772819373280967400,4.953967529296875,-0.013324327766895294,0.006193181034177542,0.011954131536185741
1772819373291032600,4.964032470703125,-0.016703346744179726,-0.0009299758239649236,0.01118980348110199
1772819373301097500,4.974097412109375,-0.014858574606478214,-0.0024293356109410524,0.022775620222091675
1772819373311161600,4.98416162109375,-0.014071877114474773,0.004698348697274923,0.02875681407749653
1772819373321226200,4.994226318359375,-0.010908840224146843,0.00518810423091054,0.03867575526237488
1772819373331291400,5.00429150390625,-0.01212856825441122,0.007383081596344709,0.041314683854579926
1772819373341356500,5.0143564453125,-0.011886753141880035,0.014011689461767673,0.03786642104387283
1772819373351421400,5.02442138671875,-0.011836951598525047,0.01404764223843813,0.037280526012182236
1772819373361486300,5.034486328125,-0.010232130996882915,0.015992814674973488,0.03254169598221779
1772819373371551500,5.044551513671875,-0.013367470353841782,0.014108095318078995,0.03106044791638851
1772819373381616400,5.054616455078125,-0.012349343858659267,0.015894809737801552,0.027424167841672897
1772819373391681500,5.064681640625,-0.012124840170145035,0.008341819047927856,0.01992896758019924
1772819373401746400,5.074746337890625,-0.009333048015832901,0.0014205301413312554,0.010871555656194687
1772819373411811300,5.084811279296875,-0.009765013121068478,0.006131662055850029,0.005358013790100813
1772819373421876500,5.09487646484375,-0.013379987329244614,0.009516539983451366,0.003329484025016427
1772819373431940600,5.104940673828125,-0.012812734581530094,0.011637480929493904,-0.005501558072865009
1772819373442005500,5.115005615234375,-0.009565009735524654,0.002817624481394887,-0.017230918630957603
1772819373452070400,5.1250703125,-0.007924235425889492,0.0024546354543417692,-0.013577860780060291
1772819373462135600,5.135135498046875,-0.005908222869038582,0.0006311691831797361,-0.013577860780060291
1772819373472200400,5.145200439453125,-0.0030890004709362984,0.0015273229219019413,-0.012079299427568913
1772819373482265600,5.155265625,-0.000568318588193506,0.00339153571985662,-0.0095109473913908
1772819373492330500,5.16533056640625,0.0018612833227962255,0.01068167295306921,-0.007092796731740236
1772819373502395400,5.1753955078125,0.003999269101768732,0.020361198112368584,0.0007534082396887243
1772819373512460500,5.18546044921875,0.002671949565410614,0.02112872153520584,0.008452607318758965
1772819373522525400,5.195525390625,0.0034943337086588144,0.020964937284588814,0.0145272770896554
1772819373532590300,5.20559033203125,0.005036037415266037,0.01121883187443018,0.02003203146159649
1772819373542655500,5.215655517578125,-0.002171275205910206,0.012344816699624062,0.028328044340014458
1772819373552720600,5.225720703125,-0.0035955337807536125,0.010486196726560593,0.0254619512706995
1772819373562784500,5.235784423828125,-0.00791518110781908,0.00941986683756113,0.025772741064429283
1772819373572849400,5.245849365234375,-0.00737189594656229,0.010154100134968758,0.028176510706543922
1772819373582914300,5.255914306640625,-0.0062246061861515045,0.01593662239611149,0.02321956865489483
1772819373592979500,5.2659794921875,-0.004536961205303669,0.019327891990542412,0.019590744748711586
1772819373603044600,5.276044677734375,-0.007010238710790873,0.01372460089623928,0.015169365331530571
1772819373613109200,5.286109130859375,-0.00694951880723238,0.012802081182599068,0.006857373286038637
1772819373623174400,5.29617431640625,-0.0068326061591506,0.013285445049405098,0.001981125446036458
1772819373633239600,5.306239501953125,-0.002645584288984537,0.006243781186640263,-0.007871238514780998
1772819373643304400,5.316304443359375,-0.00043809000635519624,0.0036067189648747444,-0.007511712145060301
1772819373653369300,5.326369384765625,0.00324825756251812,0.0021411816123872995,-0.003751328680664301
1772819373663434500,5.3364345703125,0.006847253534942865,0.00640809815376997,0.003990480676293373
1772819373673499400,5.34649951171875,0.008717059157788754,0.012309662997722626,0.0019491675775498152
1772819373683564500,5.356564453125,0.01284682285040617,0.013522733002901077,0.002638926263898611
1772819373693628700,5.366628662109375,0.017421867698431015,0.009895507246255875,0.0002860235108528286
1772819373703693600,5.376693603515625,0.015667909756302834,0.007179616019129753,-0.0009736517095007002
1772819373713758700,5.3867587890625,0.020157465711236,0.01131097786128521,0.00640809815376997
1772819373723823600,5.39682373046875,0.014683605171740055,0.02159956842660904,0.019215505570173264
1772819373733888500,5.406888427734375,0.01221591979265213,0.022273080423474312,0.02219611592590809
1772819373743953700,5.41695361328125,0.006995591334998608,0.023085344582796097,0.02279958873987198
1772819373754018600,5.4270185546875,0.004306331276893616,0.020410733297467232,0.018376078456640244
1772819373764083700,5.437083740234375,-0.004579572007060051,0.026693396270275116,0.011967713013291359
1772819373774148600,5.447148681640625,-0.013745106756687164,0.025719478726387024,-0.000544350128620863
1772819373784213500,5.457213623046875,-0.018016817048192024,0.0131496237590909,-0.011083011515438557
1772819373794278700,5.467278564453125,-0.022236064076423645,-0.005390238016843796,-0.014889467507600784
1772819373804343800,5.47734375,-0.018501512706279755,-0.008113852702081203,-0.012545086443424225
1772819373814408400,5.487408447265625,-0.016038887202739716,-0.0023704797495156527,-0.005850166082382202
1772819373824472600,5.49747265625,-0.011837750673294067,0.00881160143762827,0.005672000348567963
1772819373834537500,5.507537353515625,-0.00809094961732626,0.016024772077798843,0.016992565244436264
1772819373844602600,5.5176025390625,-0.002615224104374647,0.02671097218990326,0.020903151482343674
1772819373854667800,5.527667724609375,-0.001062334980815649,0.02581295557320118,0.012046542949974537
1772819373864732400,5.537732421875,-0.004811533261090517,0.018576081842184067,0.00415346585214138
1772819373874797600,5.547797607421875,-0.006902647204697132,0.008317052386701107,-0.004387291613966227
1772819373884862700,5.55786279296875,-0.008952748961746693,0.002585396869108081,-0.005169461946934462
1772819373894927600,5.567927734375,-0.005883721634745598,-0.0002921487612184137,-0.01332645770162344
1772819373904992500,5.577992431640625,-0.005025651305913925,-0.0013214604696258903,-0.010397513397037983
1772819373915057700,5.5880576171875,-0.00030839405371807516,0.004190750420093536,-0.003404052462428808
1772819373925122600,5.59812255859375,-0.00261841993778944,0.018978217616677284,0.0019148128340020776
1772819373935187500,5.6081875,-0.002415753435343504,0.023967916145920753,0.0019595539197325706
1772819373945252600,5.618252685546875,-0.005090099759399891,0.02570243366062641,0.0004950816510245204
1772819373955316500,5.62831640625,-0.006257096771150827,0.028807412832975388,-0.001961418194696307
1772819373965381600,5.638381591796875,-0.007893077097833157,0.02833709865808487,-0.005937783978879452
1772819373975446800,5.64844677734375,-0.003978496417403221,0.020494623109698296,-0.00720491586253047
1772819373985511400,5.658511474609375,-0.00560941593721509,0.00939137116074562,-0.006006759591400623
1772819373995576600,5.66857666015625,-0.004751611966639757,0.001592037733644247,0.00586641114205122
1772819374005641700,5.678641845703125,-0.006045641843229532,0.00839534867554903,0.009583651088178158
1772819374015706600,5.68870654296875,-0.0073199644684791565,0.011505655013024807,0.010478206910192966
1772819374025771500,5.698771484375,-0.010557835921645164,0.017902567982673645,0.004823251161724329
1772819374035836700,5.708836669921875,-0.0156487338244915,0.02647075615823269,-0.003210174385458231
1772819374045901600,5.718901611328125,-0.01673370599746704,0.024520257487893105,-0.010911503806710243
1772819374055966700,5.728966796875,-0.0168524831533432,0.01805729791522026,-0.01386681292206049
1772819374066031600,5.739031494140625,-0.013218067586421967,0.015750734135508537,-0.014345383271574974
1772819374076096500,5.749096435546875,-0.010350375436246395,0.013711817562580109,-0.010382333770394325
1772819374086161700,5.75916162109375,-0.010113353841006756,0.009517072699964046,-0.005416336935013533
1772819374096225500,5.7692255859375,-0.004291950259357691,0.017613081261515617,0.0051713259890675545
1772819374106290700,5.779290771484375,0.00003382214708835818,0.025547171011567116,0.0031308121979236603
1772819374116355600,5.78935546875,0.0021632856223732233,0.029941920191049576,-0.000945954816415906
1772819374126420500,5.79942041015625,-0.0014183996245265007,0.032940108329057693,-0.0075969332829117775
1772819374136485600,5.809485595703125,-0.003756921272724867,0.03785204142332077,-0.008350075222551823
1772819374146550500,5.819550537109375,-0.0009922938188537955,0.03765549883246422,-0.005181978922337294
1772819374156615400,5.829615478515625,-0.0015765913994982839,0.031678833067417145,-0.0015036207623779774
1772819374166680600,5.8396806640625,-0.007015032693743706,0.03875112533569336,0.00009214537567459047
1772819374176745700,5.849745849609375,-0.011298727244138718,0.054485611617565155,-0.004311923868954182
1772819374186810400,5.859810302734375,-0.007238205522298813,0.05897969752550125,-0.009924801997840405
1772819374196875500,5.86987548828125,-0.008678442798554897,0.03419205918908119,-0.006650179624557495
1772819374206940700,5.879940673828125,-0.008050736039876938,0.01176185067743063,-0.00035739620216190815
1772819374217005800,5.890005859375,-0.00036751621519215405,0.010190319269895554,0.006602508947253227
1772819374227070500,5.900070556640625,-0.0017307883827015758,0.014166951179504395,0.013192234560847282
1772819374237134600,5.910134521484375,-0.004177434369921684,0.012662265449762344,0.015429822728037834
1772819374247199500,5.920199462890625,-0.004504736978560686,0.015589878894388676,0.006385727785527706
1772819374257264600,5.9302646484375,-0.00042743736412376165,0.017186444252729416,-0.0017917747609317303
1772819374267329800,5.940329833984375,0.0017385114915668964,0.012497149407863617,-0.006896788254380226
1772819374277394400,5.95039453125,-0.00005512743518920615,0.01471769344061613,0.0016319850692525506
1772819374287459600,5.96045947265625,-0.0035454663448035717,0.009987653233110905,0.010452108457684517
1772819374297524700,5.970524658203125,-0.0037854171823710203,0.01360289379954338,0.022052837535738945
1772819374307589600,5.980589599609375,-0.009304818697273731,0.015163240022957325,0.023915985599160194
1772819374317654500,5.990654541015625,-0.009501093067228794,0.01489506009966135,0.015150190331041813
1772819374327719700,6.0007197265625,-0.013405021280050278,0.01082734763622284,0.0013544837711378932
1772819374337784600,6.01078466796875,-0.015188540332019329,0.017416806891560555,-0.002357163932174444
1772819374347849700,6.020849609375,-0.01641812175512314,0.024831313639879227,-0.0004439489566721022
1772819374357914600,6.03091455078125,-0.02009221911430359,0.020595822483301163,0.005373193882405758
1772819374367979500,6.0409794921875,-0.016026103869080544,0.017978200688958168,0.011622567661106586
1772819374378043600,6.051043701171875,-0.011422830633819103,0.013306484557688236,0.015511315315961838
1772819374388108500,6.061108642578125,-0.01407560519874096,0.010280867107212543,0.015482553280889988
1772819374398173700,6.071173583984375,-0.011096060276031494,0.009002815932035446,0.005093561951071024
1772819374408238600,6.081238525390625,-0.011485947296023369,0.015675099566578865,0.002921487670391798
1772819374418303700,6.0913037109375,-0.014845258556306362,0.012822587974369526,-0.004850149154663086
1772819374428368600,6.10136865234375,-0.017294302582740784,0.01756647601723671,-0.0000476705827168189
1772819374438433500,6.11143359375,-0.017651431262493134,0.022906647995114326,0.0035478631034493446
1772819374448498700,6.121498779296875,-0.01179034635424614,0.020175043493509293,0.0033755565527826548
1772819374458563600,6.1315634765625,-0.009401490911841393,0.015062039718031883,-0.000045806369598722085
1772819374468628700,6.141628662109375,-0.006709568202495575,0.00797110702842474,-0.001734250457957387
1772819374478693600,6.151693603515625,-0.0038301581516861916,0.007771104108542204,0.00875008199363947
1772819374488758500,6.161758544921875,-0.009040100499987602,0.012178901582956314,0.009560215286910534
1772819374498823700,6.17182373046875,-0.009376989677548409,0.012431369163095951,0.016451943665742874
1772819374508888800,6.181888916015625,-0.01044465135782957,0.01745169423520565,0.009633186273276806
1772819374518952700,6.19195263671875,-0.014278538525104523,0.018032530322670937,0.005261341109871864
1772819374529017600,6.202017578125,-0.015536615625023842,0.01780269853770733,-0.005585714243352413
1772819374539082500,6.21208251953125,-0.01381088700145483,0.013825533911585808,-0.008771386928856373
1772819374549147600,6.222147705078125,-0.009182845242321491,0.009158877655863762,-0.004664526786655188
1772819374559212800,6.232212890625,-0.009522398933768272,0.0020935109350830317,0.005860552191734314
1772819374569277400,6.24227734375,-0.005918875336647034,-0.0041033984161913395,0.011377290822565556
1772819374579342600,6.252342529296875,-0.008392153307795525,-0.006264820229262114,0.01824185438454151
1772819374589407700,6.26240771484375,-0.00899509247392416,-0.0017710020765662193,0.01979021541774273
1772819374599472600,6.27247265625,-0.010320547968149185,0.007355650886893272,0.019098592922091484
1772819374609537500,6.28253759765625,-0.009045426733791828,0.010367153212428093,0.0175012294203043
1772819374619602700,6.292602783203125,-0.008182561956346035,0.008768990635871887,0.01671852543950081
1772819374629667600,6.30266748046875,-0.0054637412540614605,0.004317782819271088,0.018490061163902283
1772819374639732500,6.312732421875,-0.002915096003562212,-0.003463707398623228,0.023611852899193764
1772819374649797600,6.322797607421875,-0.0011739213950932026,-0.0013651363551616669,0.02990623377263546
1772819374659862500,6.332862548828125,-0.001404284848831594,0.006623281631618738,0.03678251430392265
1772819374669926700,6.3429267578125,-0.006235259119421244,0.008076302707195282,0.03194861114025116
1772819374679991800,6.35299169921875,-0.013798103667795658,0.014300908893346786,0.019513513892889023
1772819374690056400,6.363056396484375,-0.021277058869600296,0.014364824630320072,0.003376089269295335
1772819374700124400,6.37312451171875,-0.02376791276037693,0.01353524997830391,-0.009104016236960888
1772819374710189300,6.383189208984375,-0.022350845858454704,0.0016168050933629274,-0.023539414629340172
1772819374720254500,6.39325439453125,-0.019454391673207283,-0.006582002621144056,-0.02371145412325859
1772819374730319600,6.403319580078125,-0.01836222968995571,-0.007524495478719473,-0.021082915365695953
1772819374740384300,6.41338427734375,-0.012271047569811344,-0.00016538229829166085,-0.0160005372017622
1772819374750449400,6.423449462890625,-0.008952748961746693,0.007352455053478479,-0.010146643966436386
1772819374760514600,6.4335146484375,-0.005337773822247982,0.012233763001859188,-0.008280833251774311
1772819374770579500,6.443579345703125,-0.003871171036735177,0.011238539591431618,-0.01224494818598032
1772819374780644400,6.453644287109375,-0.001184307737275958,0.011144263669848442,-0.007399593014270067
1772819374790709500,6.46370947265625,0.0009755159262567759,0.006675479467958212,-0.009074455127120018
1772819374800774400,6.4737744140625,-0.00013502225920092314,-0.0010349043877795339,-0.006138320080935955
1772819374810838500,6.483838623046875,0.0004362257895991206,-0.0021579593885689974,-0.0054453653283417225
1772819374820903400,6.4939033203125,-0.003537476761266589,-0.0022652847692370415,-0.003974767867475748
1772819374830968300,6.50396826171875,-0.003192863892763853,0.0032868734560906887,-0.0017182715237140656
1772819374841033500,6.514033447265625,-0.006164418999105692,0.005348959006369114,-0.002110288944095373
1772819374851098600,6.5240986328125,-0.006633135490119457,0.013911820948123932,0.004429901950061321
1772819374861163300,6.534163330078125,-0.008110657334327698,0.019455723464488983,0.012885970994830132
1772819374871228400,6.544228515625,-0.009033176116645336,0.021249894052743912,0.016812535002827644
1772819374881293600,6.55429345703125,-0.012313125655055046,0.021879466250538826,0.018800053745508194
1772819374891358500,6.5643583984375,-0.011553059332072735,0.02220144309103489,0.015360580757260323
1772819374901423400,6.57442333984375,-0.00987313687801361,0.012678244151175022,-0.000025300030756625347
1772819374911488500,6.584488525390625,-0.006702910177409649,0.00484162662178278,-0.005680788774043322
1772819374921553400,6.594553466796875,-0.0020604876335710287,0.0017395768081769347,-0.005415804218500853
1772819374931618600,6.60461865234375,-0.0012855078093707561,0.0010671286145225167,-0.003950266633182764
1772819374941683500,6.614683349609375,0.0003115898580290377,0.006896255537867546,0.0008183894096873701
1772819374951748400,6.624748291015625,0.005613410845398903,0.02191248908638954,0.003668237943202257
1772819374961812500,6.6348125,0.005608883686363697,0.02382304146885872,-0.00449754623696208
1772819374971877400,6.64487744140625,0.007891478948295116,0.01625087484717369,-0.012825250625610352
1772819374981942500,6.654942626953125,0.008373511023819447,0.014171479269862175,-0.01721813529729843
1772819374992007400,6.66500732421875,0.008764729835093021,0.018277274444699287,-0.015905994921922684
1772819375002072300,6.675072265625,0.006773217581212521,0.014610101468861103,-0.010120810940861702
1772819375012137500,6.685137451171875,0.005832855589687824,0.016400277614593506,-0.001335575245320797
1772819375022202400,6.695202392578125,0.012028966099023819,0.01829751394689083,0.007896272465586662
1772819375032267300,6.705267333984375,0.011306717060506344,0.019148660823702812,0.010604707524180412
1772819375042332400,6.71533251953125,0.017952103167772293,0.0165395624935627,0.015170963481068611
1772819375052397600,6.7253974609375,0.0190165676176548,0.01471689436584711,0.018184330314397812
1772819375062462200,6.735462158203125,0.01582743227481842,0.01528494618833065,0.015840481966733932
1772819375072527400,6.74552734375,0.015845010057091713,0.008525311015546322,0.017556089907884598
1772819375082592500,6.755592529296875,0.01423379685729742,0.007225688546895981,0.016577377915382385
1772819375092657400,6.765657470703125,0.012241220101714134,0.006081061903387308,0.01817847043275833
1772819375102722300,6.775722412109375,0.009547698311507702,0.001228516222909093,0.013008209876716137
1772819375112786400,6.785786376953125,0.005209941882640123,-0.0011968245962634683,0.009839847683906555
1772819375122851300,6.795851318359375,0.00155288923997432,0.0031965922098606825,0.006845655385404825
1772819375132916500,6.80591650390625,-0.004591023549437523,0.0040852888487279415,-0.0028394623659551144
1772819375142981600,6.815981689453125,-0.010291785933077335,0.006456035189330578,-0.009440906345844269
1772819375153046300,6.82604638671875,-0.015223161317408085,0.005680522415786982,-0.01991352066397667
1772819375163111400,6.836111328125,-0.01925625279545784,0.010749316774308681,-0.014014085754752159
1772819375173176600,6.846176513671875,-0.021580658853054047,0.018398182466626167,-0.011054248549044132
1772819375183241500,6.856241455078125,-0.01894412934780121,0.011197260580956936,-0.014881211332976818
1772819375193306400,6.866306396484375,-0.017551563680171967,0.011938151903450489,-0.012649215757846832
1772819375203371500,6.87637158203125,-0.014480938203632832,0.004083691164851189,-0.016535567119717598
1772819375213436400,6.8864365234375,-0.013756291940808296,0.001440237509086728,-0.015968313440680504
1772819375223501600,6.89650146484375,-0.01324256882071495,0.0008913599886000156,-0.010186324827373028
1772819375233566500,6.90656640625,-0.013746704906225204,0.004333229269832373,-0.01050324086099863
1772819375243631400,6.91663134765625,-0.013774401508271694,0.0008183894096873701,-0.018396584317088127
1772819375253696500,6.926696533203125,-0.016394419595599174,-0.0009182579233311117,-0.022305838763713837
1772819375263760400,6.936760498046875,-0.018263692036271095,0.008451808243989944,-0.024520257487893105
1772819375273825300,6.9468251953125,-0.014994928613305092,0.009912551380693913,-0.020003534853458405
1772819375283890400,6.956890380859375,-0.017254354432225227,0.007130879908800125,-0.018623219802975655
1772819375293955300,6.966955322265625,-0.021992649883031845,-0.006160424090921879,-0.012515258975327015
1772819375304020500,6.9770205078125,-0.021806228905916214,-0.011831891722977161,-0.004240018781274557
1772819375314085400,6.98708544921875,-0.024223048239946365,-0.011036938056349754,0.0034732946660369635
1772819375324150500,6.997150634765625,-0.026761572808027267,-0.011627361178398132,0.004930043593049049
1772819375334215400,7.00721533203125,-0.024652082473039627,-0.013332583010196686,0.006301305256783962
1772819375344280600,7.017280517578125,-0.026729349046945572,-0.0038195056840777397,0.010087521746754646
1772819375354345500,7.027345458984375,-0.021150292828679085,-0.0005022721597924829,0.01338691171258688
1772819375364410400,7.037410400390625,-0.023515446111559868,0.0006458165589720011,0.014966965653002262
1772819375374475500,7.0474755859375,-0.021801436319947243,-0.00370099488645792,0.013112872838973999
1772819375384540700,7.057540771484375,-0.02310638502240181,0.0017363809747621417,0.013519536703824997
1772819375394605300,7.067605224609375,-0.021649368107318878,0.013687049970030785,0.008526110090315342
1772819375404670500,7.07767041015625,-0.01569693721830845,0.012509400025010109,0.010625213384628296
1772819375414734300,7.087734375,-0.009501892141997814,0.01612677238881588,0.009350358508527279
1772819375424799500,7.097799560546875,-0.00827018078416586,0.013802630826830864,0.014480139128863811
1772819375434864600,7.10786474609375,-0.0018812569323927164,0.009672600775957108,0.016558736562728882
1772819375444929300,7.11792919921875,0.005356948357075453,0.014259097166359425,0.01278610248118639
1772819375454994400,7.127994384765625,0.004260258749127388,0.013728861697018147,0.008723184466362
1772819375465059600,7.1380595703125,0.008165784180164337,0.013937386684119701,-0.004957207944244146
1772819375475124500,7.14812451171875,0.0068240840919315815,0.005372927524149418,-0.012658271007239819
1772819375485189400,7.158189453125,0.012308597564697266,0.0014282532501965761,-0.013786385767161846
1772819375495254500,7.168254638671875,0.016086557880043983,0.004003263544291258,-0.01636113040149212
1772819375505319400,7.1783193359375,0.01708950474858284,0.003916178364306688,-0.01197011023759842
1772819375515384300,7.18838427734375,0.019466375932097435,0.0023238742724061012,-0.0070975907146930695
1772819375525449500,7.198449462890625,0.014364558272063732,0.006045908201485872,-0.007203051820397377
1772819375535514400,7.208514404296875,0.014826882630586624,0.008230232633650303,0.0005262406193651259
1772819375545579500,7.21857958984375,0.010905644856393337,0.008478439413011074,0.0022711437195539474
1772819375555644400,7.22864453125,0.008166316896677017,0.007800398860126734,0.0011323761427775025
1772819375565709300,7.238709228515625,0.008350607939064503,0.007844340987503529,-0.003751062322407961
1772819375575773400,7.2487734375,0.006336725316941738,0.004022172186523676,-0.004101268015801907
1772819375585838600,7.258838623046875,0.00640836451202631,0.0017832526937127113,-0.000431432097684592
1772819375595903500,7.268903564453125,0.005846171174198389,-0.0017949705943465233,0.0014588796766474843
1772819375605968400,7.278968505859375,0.0008649947121739388,0.0009664611425250769,0.0015552861150354147
1772819375616033500,7.289033447265625,0.0011486213188618422,0.0026399914640933275,0.003216566052287817
1772819375626098400,7.299098388671875,0.008383897133171558,0.0036514601670205593,0.006809703074395657
1772819375636163600,7.30916357421875,0.01840244233608246,0.007900533266365528,0.016771523281931877
1772819375646228500,7.319228515625,0.018760371953248978,0.008345015347003937,0.024631310254335403
1772819375656293400,7.32929345703125,0.023926105350255966,0.006142048165202141,0.025547970086336136
1772819375666358500,7.339358642578125,0.02166401594877243,0.008174573071300983,0.027401797473430634
1772819375676423400,7.34942333984375,0.016824785619974136,0.0079708406701684,0.024834243580698967
1772819375686488300,7.35948828125,0.014942198060452938,0.012506471015512943,0.015196263790130615
1772819375696549400,7.36954931640625,0.010966364294290543,0.007559915538877249,0.0018189389957115054
1772819375706614500,7.379614501953125,0.013112872838973999,-0.006051767151802778,-0.005571332760155201
1772819375716679700,7.3896796875,0.01062068622559309,-0.007074953522533178,-0.010183661244809628
1772819375726744300,7.399744384765625,0.01455950178205967,-0.0029142971616238356,-0.004356665071099997
1772819375736808400,7.409808349609375,0.013048690743744373,0.005290902219712734,0.0020935109350830317
1772819375746873300,7.419873291015625,0.013556554913520813,0.019460516050457954,0.004108192399144173
1772819375756938500,7.4299384765625,0.01564314216375351,0.03038054332137108,0.005329784471541643
1772819375767003600,7.440003662109375,0.012951751239597797,0.029533924534916878,-0.000045273736759554595
1772819375777068300,7.450068359375,0.012086490169167519,0.02274685725569725,-0.0013608753215521574
1772819375787133400,7.460133544921875,0.015526494942605495,0.01338824350386858,-0.007209709845483303
1772819375797198600,7.470198486328125,0.011286210268735886,-0.0014037522487342358,-0.009769540280103683
1772819375807263500,7.480263427734375,0.0041524008847773075,-0.006315952632576227,-0.007456318475306034
1772819375817328400,7.490328369140625,0.0034386736806482077,0.00042504051816649735,-0.007483482826501131
1772819375827393500,7.5003935546875,0.0005150553770363331,0.004282363224774599,-0.0005134574603289366
1772819375837458400,7.51045849609375,-0.001475391210988164,0.005077050067484379,0.0017057546647265553
1772819375847523300,7.5205234375,-0.0014748586108908057,0.0172631423920393,0.003945206757634878
1772819375857588500,7.53058837890625,-0.0011179950088262558,0.021683990955352783,0.004181695636361837
1772819375867653400,7.5406533203125,0.00036139096482656896,0.02003149874508381,0.006161223165690899
1772819375877718500,7.550718505859375,-0.0016964336391538382,0.01673104241490364,0.007815578952431679
1772819375887783400,7.560783447265625,-0.002579271560534835,0.01221725158393383,0.006167348474264145
1772819375897848300,7.570848388671875,-0.0029915287159383297,0.005535380449146032,0.009123191237449646
1772819375907912400,7.580912353515625,-0.006432333029806614,-0.0008607336785644293,0.010845989920198917
1772819375917977600,7.5909775390625,-0.006133792456239462,0.006095176562666893,0.011752796359360218
1772819375928042500,7.60104248046875,-0.011233746074140072,0.017770741134881973,0.01224601361900568
1772819375938107400,7.611107421875,-0.012916064821183681,0.024887505918741226,0.011807923205196857
1772819375948172500,7.621172607421875,-0.009334113448858261,0.027526166290044785,0.005535646807402372
1772819375958237400,7.631237548828125,-0.005409678909927607,0.01635580323636532,-0.002659965306520462
1772819375968302600,7.641302490234375,-0.007637945935130119,0.004630970768630505,-0.006973487325012684
1772819375978367500,7.651367431640625,-0.00350445369258523,-0.004327103961259127,-0.008168181404471397
1772819375988432400,7.661432373046875,-0.006244047544896603,-0.007841144688427448,-0.0029888655990362167
1772819375998497500,7.67149755859375,-0.005960687063634396,-0.0037795582320541143,0.003649862250313163
1772819376008562700,7.681562744140625,-0.0006972155533730984,0.010403372347354889,0.005881857592612505
1772819376018627300,7.69162744140625,0.00264798104763031,0.02094442956149578,0.0018181400373578072
1772819376028692500,7.7016923828125,-0.00040799626731313765,0.028181836009025574,0.0034943337086588144
1772819376038757600,7.711757568359375,-0.0019981698133051395,0.025415610522031784,-0.0006143912323750556
1772819376048822500,7.721822509765625,-0.0011118697002530098,0.026487266644835472,0.0041124531999230385
1772819376058887400,7.731887451171875,-0.003516437951475382,0.018609104678034782,0.007138603366911411
1772819376068951300,7.741951416015625,-0.002320412313565612,0.017119597643613815,0.007185208611190319
1772819376079016400,7.752016357421875,-0.0016607472207397223,0.007284810766577721,-0.006996390409767628
1772819376089081600,7.76208154296875,-0.005517803598195314,0.001930791768245399,-0.01570572517812252
1772819376099146500,7.772146484375,-0.009246229194104671,0.0001411475386703387,-0.026403112336993217
1772819376109211400,7.78221142578125,-0.012555738911032677,0.0004037352045997977,-0.021503161638975143
1772819376119276500,7.792276611328125,-0.01528707705438137,0.01848127320408821,-0.023486150428652763
1772819376129341700,7.802341796875,-0.012230833992362022,0.004819522611796856,-0.02527579478919506
1772819376139406300,7.81240625,-0.009266202338039875,0.0006639260682277381,-0.008766327053308487
1772819376149471500,7.822471435546875,-0.00765925133600831,0.010950918309390545,-0.00025273399660363793
1772819376159536600,7.83253662109375,-0.007702128030359745,0.009435845538973808,0.000150202278746292
1772819376169601500,7.8426015625,-0.003885285696014762,0.007982026785612106,0.00016538229829166085
1772819376179666400,7.85266650390625,-0.0068240840919315815,0.015807459130883217,0.0008322378271259367
1772819376189731600,7.862731689453125,-0.00669465446844697,0.01690521463751793,0.003049585735425353
1772819376199796500,7.87279638671875,-0.008609200827777386,0.021095165982842445,0.0017219999572262168
1772819376209861600,7.882861572265625,-0.012194881215691566,0.019702864810824394,0.004598480183631182
1772819376219926500,7.892926513671875,-0.007846205495297909,0.020356670022010803,0.004777444526553154
1772819376229991400,7.902991455078125,-0.008354336023330688,0.021380921825766563,0.0006823018775321543
1772819376240056600,7.913056640625,-0.009444368071854115,0.02400546707212925,-0.007652859669178724
1772819376250120400,7.923120361328125,-0.010404970496892929,0.025465412065386772,-0.019708190113306046
1772819376260185600,7.933185546875,-0.013101953081786633,0.019594473764300346,-0.025127723813056946
1772819376270250500,7.94325048828125,-0.010782606899738312,0.015046860091388226,-0.02821539342403412
1772819376280315400,7.9533154296875,-0.00999297946691513,0.01022813655436039,-0.02875335142016411
1772819376290380500,7.963380615234375,-0.0081487400457263,0.0037289580795913935,-0.027410851791501045
1772819376300445400,7.973445556640625,-0.005534048657864332,0.004540956113487482,-0.020427776500582695
1772819376310510300,7.98351025390625,-0.001490571303293109,0.007189735770225525,-0.012209794484078884
1772819376320575500,7.993575439453125,0.0011795139871537685,0.008930910378694534,-0.012946158647537231
1772819376330640600,8.003640625,0.00015765913121867925,0.005486644338816404,-0.018979549407958984
1772819376340705300,8.013705322265626,0.0026040389202535152,0.014847389422357082,-0.016050871461629868
1772819376350770400,8.0237705078125,0.0013337110867723823,0.018436264246702194,-0.01865996979176998
1772819376360835600,8.033835693359375,0.002926813904196024,0.021982796490192413,-0.009907225146889687
1772819376370900500,8.043900390625,0.0037982002831995487,0.0273879487067461,0.004965730011463165
1772819376380965400,8.05396533203125,0.006883738562464714,0.026879284530878067,0.015263907611370087
1772819376391030500,8.064030517578125,0.007840879261493683,0.022052837535738945,0.02015799842774868
1772819376401095400,8.074095458984376,0.007683219853788614,0.01961497962474823,0.015836220234632492
1772819376411160600,8.08416064453125,0.004987301770597696,0.017904432490468025,0.013831127434968948
1772819376421225500,8.0942255859375,0.0020764668006449938,0.02117532677948475,0.005146825220435858
1772819376431289300,8.104289306640625,-0.002939064521342516,0.02370879054069519,-0.0014716627774760127
1772819376441354500,8.1143544921875,0.0007605988066643476,0.020903417840600014,-0.007761782966554165
1772819376451419600,8.124419677734375,-0.0000399474156438373,0.013489443808794022,-0.006955377757549286
1772819376461484500,8.134484619140625,-0.0009129316313192248,0.011512046679854393,-0.003968376200646162
1772819376471549400,8.144549560546874,0.0021379857789725065,0.006930610164999962,-0.0009773800848051906
1772819376481614600,8.154614501953125,0.0034972631838172674,0.006074137985706329,-0.005317533854395151
1772819376491679500,8.164679443359375,0.001535046030767262,0.007637945935130119,-0.0057529606856405735
1772819376501744400,8.174744384765624,0.0004743089957628399,0.008792959153652191,-0.01083027757704258
1772819376511809500,8.1848095703125,-0.0007507451227866113,0.0041305627673864365,-0.012535499408841133
1772819376521874400,8.19487451171875,-0.0023225427139550447,0.003029079409316182,-0.017779529094696045
1772819376531939600,8.204939697265624,-0.0006668555433861911,0.008712797425687313,-0.013440174981951714
1772819376542004500,8.21500439453125,-0.0027225494850426912,0.016924655064940453,-0.005032841581851244
1772819376552069400,8.2250693359375,-0.005209675524383783,0.020075706765055656,-0.003568103304132819
1772819376562134500,8.235134521484374,-0.0043649207800626755,0.018310030922293663,0.0019209380261600018
1772819376572199700,8.24519970703125,-0.008713330142199993,0.019415242597460747,0.004200603812932968
1772819376582264300,8.255264404296875,-0.010156763717532158,0.01949300803244114,0.008418251760303974
1772819376592329500,8.26532958984375,-0.009662747383117676,0.023602796718478203,0.005622465629130602
1772819376602394600,8.27539453125,-0.008813997730612755,0.028550151735544205,0.008926116861402988
1772819376612458500,8.28545849609375,-0.010437726974487305,0.027048395946621895,0.0029084382113069296
1772819376622523600,8.295523681640624,-0.015232481993734837,0.02882605604827404,-0.000835966260638088
1772819376632588300,8.30558837890625,-0.019163042306900024,0.02081899531185627,-0.011294999159872532
1772819376642653400,8.3156533203125,-0.017916150391101837,0.01461968943476677,-0.015426892787218094
1772819376652718600,8.325718505859374,-0.017782991752028465,0.002275138394907117,-0.0226826760917902
1772819376662783500,8.335783447265625,-0.016708405688405037,-0.008143680170178413,-0.029803436249494553
1772819376672848400,8.345848388671875,-0.012594887986779213,-0.011030546389520168,-0.026705380529165268
1772819376682913500,8.35591357421875,-0.01161590963602066,-0.00487225316464901,-0.017418138682842255
1772819376692979500,8.3659794921875,-0.004854409955441952,0.00762862479314208,-0.008474444970488548
1772819376703044000,8.376044189453125,-0.004391818773001432,0.01865996979176998,-0.003859186777845025
1772819376713109200,8.386109130859374,-0.00589623861014843,0.027218570932745934,0.0028698223177343607
1772819376723174400,8.39617431640625,-0.006677609868347645,0.034808848053216934,0.006452572997659445
1772819376733239300,8.4062392578125,-0.007692274637520313,0.031751006841659546,0.004130030050873756
1772819376743304200,8.41630419921875,-0.01019751001149416,0.0236416794359684,0.0016165387351065874
1772819376753369300,8.426369384765625,-0.009578857570886612,0.006485063582658768,-0.0028964539524167776
1772819376763434200,8.436434326171875,-0.007793474476784468,-0.001130245509557426,-0.003715908620506525
1772819376773499100,8.4464990234375,-0.012028433382511139,-0.004625111818313599,-0.005138303153216839
1772819376783564300,8.456564208984375,-0.011954396963119507,-0.003365170443430543,-0.00515827676281333
1772819376793629200,8.466629150390625,-0.015906527638435364,0.006944991648197174,-0.006330600008368492
1772819376803694300,8.4766943359375,-0.01960938796401024,0.016862336546182632,-0.008403604850172997
1772819376813758200,8.48675830078125,-0.016830379143357277,0.025587385520339012,-0.011319499462842941
1772819376823823000,8.496822998046875,-0.013381585478782654,0.02973179705440998,-0.009455286897718906
1772819376833888300,8.50688818359375,-0.008846755139529705,0.02785986103117466,-0.005000617355108261
1772819376843953200,8.516953125,-0.0032290827948600054,0.017076721414923668,-0.00021278657368384302
1772819376854018300,8.527018310546875,-0.005615274887531996,0.0076062544248998165,0.004737763665616512
1772819376864083200,8.537083251953124,-0.006446181330829859,0.0008436894277110696,0.0051894355565309525
1772819376874148000,8.547148193359375,-0.004851214122027159,0.0046362970024347305,0.007962052710354328
1772819376884213200,8.557213134765625,-0.004914064891636372,0.014537397772073746,-0.0002258360618725419
1772819376894278400,8.5672783203125,0.0016085492679849267,0.027234017848968506,-0.0015246596885845065
1772819376904343000,8.577343017578125,-0.0011017497163265944,0.035344939678907394,0.006873885169625282
1772819376914408200,8.587408203125,0.005291168577969074,0.02418363280594349,-0.000609863898716867
1772819376924473300,8.597473388671874,-0.002609631512314081,0.02233166992664337,0.008218781091272831
1772819376934538200,8.607538330078125,-0.0059774648398160934,0.0046546729281544685,0.007784419693052769
1772819376944603100,8.61760302734375,-0.006870156619697809,-0.0019148128340020776,0.00205249828286469
1772819376954668300,8.627668212890624,-0.008281365968286991,-0.003596332622691989,-0.005018460564315319
1772819376964733200,8.637733154296875,-0.005293032620102167,0.003081809962168336,-0.007390538230538368
1772819376974798000,8.647798095703125,-0.004139351192861795,0.017063405364751816,-0.0008029430755414069
1772819376984863200,8.65786328125,-0.004227501805871725,0.030825024470686913,0.009002283215522766
1772819376994928000,8.66792822265625,-0.0044133905321359634,0.032525718212127686,0.00990323070436716
1772819377004993300,8.6779931640625,-0.003961452282965183,0.038838740438222885,0.007650995627045631
1772819377015058200,8.68805810546875,-0.0070856064558029175,0.03299123793840408,0.0036365464329719543
1772819377025123000,8.698123046875,-0.007787615526467562,0.02183791995048523,-0.006158826407045126
1772819377035188200,8.708188232421875,-0.0033635725267231464,0.019207250326871872,-0.005256547126919031
1772819377045253400,8.71825341796875,-0.0038155107758939266,0.01642637699842453,-0.000672181835398078
1772819377055318000,8.728318115234375,-0.0025539714843034744,0.010982610285282135,-0.0026589001063257456
1772819377065382100,8.738382080078125,0.00014807176194153726,0.010521350428462029,-0.0026429209392517805
1772819377075447300,8.748447265625,0.003020290983840823,0.012864399701356888,-0.006932208314538002
1772819377085512200,8.75851220703125,0.001353684812784195,0.012415124103426933,-0.010542122647166252
1772819377095577300,8.768577392578125,0.0024897893890738487,0.013008476234972477,-0.01101696491241455
1772819377105642200,8.778642333984376,0.0035569178871810436,0.015927301719784737,-0.0062858592718839645
1772819377115707100,8.78870703125,0.002689260058104992,0.020839767530560493,0.0010311759542673826
1772819377125772300,8.798772216796875,0.003919374197721481,0.01942616142332554,0.005300755612552166
1772819377135837400,8.80883740234375,-0.0003251719754189253,0.021326061338186264,0.008218781091272831
1772819377145902000,8.818902099609375,0.000358461489668116,0.02143098972737789,0.010635334067046642
1772819377155967200,8.82896728515625,-0.002722017001360655,0.021318072453141212,0.004960403777658939
1772819377166032400,8.839032470703126,-0.0024016385432332754,0.01920378766953945,0.007083741948008537
1772819377176097300,8.84909716796875,-0.0026559706311672926,0.01985013671219349,0.0032738239970058203
1772819377186162200,8.859162109375,-0.009217998944222927,0.021016867831349373,-0.004111121874302626
1772819377196227300,8.869227294921876,-0.008415589109063148,0.015932360664010048,-0.001329982653260231
1772819377206292200,8.879292236328125,-0.012219647876918316,0.015109976753592491,-0.0036546560004353523
1772819377216357000,8.889357177734375,-0.01381141971796751,0.02069302834570408,-0.004510862287133932
1772819377226422300,8.89942236328125,-0.01501010823994875,0.02243899554014206,-0.00890667550265789
1772819377236487200,8.909487060546875,-0.011505655013024807,0.015791213139891624,-0.012708870694041252
1772819377246552300,8.91955224609375,-0.014327273704111576,0.01423273142427206,-0.013051353394985199
1772819377256617200,8.9296171875,-0.014977085404098034,0.008470715954899788,-0.01528947427868843
1772819377266682000,8.93968212890625,-0.012489426881074905,0.011788482777774334,-0.017165137454867363
1772819377276746200,8.949746337890625,-0.013036440126597881,0.018129736185073853,-0.011288341134786606
1772819377286811400,8.959811279296876,-0.011479289270937443,0.02887505665421486,-0.006887733470648527
1772819377296876300,8.969876220703124,-0.012370383366942406,0.027769578620791435,-0.0030775489285588264
1772819377306941200,8.979941162109375,-0.010033725760877132,0.030435403808951378,-0.0017915084026753902
1772819377317006300,8.99000634765625,-0.008296545594930649,0.03067961521446705,-0.0014887070283293724
1772819377327071200,9.0000712890625,-0.009492305107414722,0.029466545209288597,-0.002487392397597432
1772819377337136400,9.010136474609375,-0.00999377854168415,0.02311091125011444,-0.0020732709672302008
1772819377347201300,9.020201171875,-0.012027101591229439,0.025917883962392807,-0.002404301892966032
1772819377357266200,9.03026611328125,-0.014712100848555565,0.022786272689700127,-0.004876248072832823
1772819377367331300,9.040331298828125,-0.015590145252645016,0.02129463665187359,0.000016245283404714428
1772819377377396200,9.050396240234376,-0.012458533979952335,0.01846982166171074,-0.0021523667965084314
1772819377387461000,9.060461181640624,-0.013982661068439484,0.020603278651833534,-0.0012181298807263374
1772819377397526300,9.0705263671875,-0.014872157014906406,0.01966957561671734,-0.005822735372930765
1772819377407591400,9.08059130859375,-0.01677791401743889,0.01871296763420105,-0.009543970227241516
1772819377417656000,9.090656005859374,-0.01624980941414833,0.013042831793427467,-0.013487579300999641
1772819377427721200,9.10072119140625,-0.017904166132211685,0.012251073494553566,-0.0161797683686018
1772819377437786400,9.110786376953126,-0.018188856542110443,0.02155136503279209,-0.016530239954590797
1772819377447851300,9.120851318359374,-0.018936939537525177,0.025439845398068428,-0.01726740412414074
1772819377457916200,9.130916259765625,-0.02148451842367649,0.026496589183807373,-0.025071531534194946
1772819377467981300,9.140981201171876,-0.020667195320129395,0.027246268466114998,-0.029803702607750893
1772819377478046200,9.151046142578124,-0.025481658056378365,0.018576880916953087,-0.03562084585428238
1772819377488111400,9.161111328125,-0.02845587581396103,0.004898618441075087,-0.03704829886555672
1772819377498176300,9.17117626953125,-0.03110438957810402,0.0008655273704789579,-0.04322310537099838
1772819377508240100,9.181240234375,-0.029935527592897415,0.006770288106054068,-0.04006858915090561
1772819377518305300,9.19130517578125,-0.02762044221162796,0.014829279854893684,-0.03671833500266075
1772819377528370200,9.2013701171875,-0.020679179579019547,0.02341344766318798,-0.03025777079164982
1772819377538435300,9.211435302734374,-0.012449478730559349,0.02563079446554184,-0.024027304723858833
1772819377548500200,9.221500244140625,-0.005861883983016014,0.02906946837902069,-0.013169331476092339
1772819377558565000,9.231565185546875,-0.00788455456495285,0.029692914336919785,-0.00316063966602087
1772819377568630300,9.24163037109375,-0.01386707928031683,0.026757577434182167,0.001085504423826933
1772819377578695400,9.2516953125,-0.01918701082468033,0.026269953697919846,-0.0002735066518653184
1772819377588760000,9.261760009765625,-0.02147786132991314,0.03182876855134964,-0.002540922025218606
1772819377598825200,9.2718251953125,-0.025435052812099457,0.02797171287238598,-0.007861651480197906
1772819377608890400,9.281890380859375,-0.02593918889760971,0.011886220425367355,-0.018136925995349884
1772819377618955000,9.291955078125,-0.025411350652575493,-0.0030575753189623356,-0.022125009447336197
1772819377629020200,9.302020263671874,-0.02437671273946762,-0.007327953819185495,-0.017538513988256454
1772819377639085300,9.312085205078125,-0.02491200715303421,0.00013981595111545175,-0.008596683852374554
1772819377649150200,9.322150146484375,-0.02569630928337574,0.009807356633245945,0.0034437335561960936
1772819377659215000,9.332215087890624,-0.019156916067004204,0.024309067055583,0.004480768460780382
1772819377669280300,9.3422802734375,-0.016078835353255272,0.03755323588848114,0.006583068054169416
1772819377679345200,9.35234521484375,-0.011834821663796902,0.03987311199307442,-0.0035108451265841722
1772819377689410300,9.362410400390624,0.0007930893916636705,0.04610810801386833,-0.02346324734389782
1772819377699474400,9.372474365234375,-0.0026969832833856344,0.010549047030508518,-0.038070421665906906
1772819377709539300,9.382539306640625,-0.005269596818834543,-0.0013760552974417806,-0.020600616931915283
1772819377719604200,9.392604248046876,-0.0037641117814928293,-0.013063337653875351,-0.0017132115317508578
1772819377729669400,9.40266943359375,-0.0003709783486556262,0.0015515576815232635,0.011906460858881474
1772819377739733200,9.412733154296875,0.0020927118603140116,0.003326554549857974,0.010578341782093048
1772819377749798400,9.42279833984375,0.004406998865306377,0.013218600302934647,0.009269132278859615
1772819377759863300,9.43286328125,0.005824067164212465,0.02153938077390194,0.0049010151997208595
1772819377769928200,9.44292822265625,0.004432565066963434,0.025117870420217514,0.0031180288642644882
1772819377779993300,9.452993408203126,0.001621332485228777,0.02257028967142105,0.007965248078107834
1772819377790058500,9.46305859375,-0.0012149340473115444,0.017766745761036873,0.007588943932205439
1772819377800123100,9.473123046875,0.0025041704066097736,0.021558821201324463,0.01215759664773941
1772819377810188300,9.483188232421876,0.0035065840929746628,0.012459865771234035,0.009523198008537292
1772819377820253400,9.49325341796875,0.0038754320703446865,0.009603092446923256,0.00815166998654604
1772819377830318300,9.503318359375,0.001249821507371962,0.01497948169708252,0.010546917095780373
1772819377840383200,9.51338330078125,0.00042770366417244077,0.019395535811781883,0.0023398532066494226
1772819377850448400,9.523448486328125,0.0003400856803636998,0.025562085211277008,-0.004023769870400429
1772819377860513300,9.53351318359375,0.0010524812387302518,0.02515275776386261,-0.015778163447976112
1772819377870578200,9.543578125,0.004710865672677755,0.02526407688856125,-0.026247316971421242
1772819377880643300,9.553643310546875,0.008387093432247639,0.005154814571142197,-0.021227523684501648
1772819377890708200,9.563708251953125,0.012431901879608631,-0.007768174633383751,-0.016505474224686623
1772819377900773400,9.5737734375,0.015980031341314316,-0.0137200728058815,-0.009033176116645336
1772819377910838300,9.58383837890625,0.015808524563908577,-0.012502475641667843,-0.009139436297118664
1772819377920903200,9.593903076171875,0.017704695463180542,-0.010753578506410122,-0.011092065833508968
1772819377930968300,9.60396826171875,0.01677897945046425,0.0026370619889348745,-0.010428406298160553
1772819377941033500,9.614033447265625,0.021459486335515976,0.012148275971412659,-0.0007195860962383449
1772819377951098000,9.62409814453125,0.02239372208714485,0.01979580894112587,0.005681587848812342
1772819377961163300,9.634163330078126,0.02468191087245941,0.023690415546298027,0.015303854830563068
1772819377971228400,9.644228515625,0.025949308648705482,0.019532421603798866,0.024884844198822975
1772819377981293300,9.654293212890625,0.025969814509153366,0.012203935533761978,0.02648300677537918
1772819377991357400,9.664357421875,0.019828831776976585,0.005218996666371822,0.021856030449271202
1772819378001422300,9.67442236328125,0.013908624649047852,0.004729773849248886,0.017347564920783043
1772819378011487200,9.6844873046875,0.00968644954264164,0.0018152105621993542,0.01264175958931446
1772819378021552400,9.694552490234376,0.006097041070461273,-0.007478156127035618,0.005918342620134354
1772819378031617300,9.7046171875,0.005358013790100813,-0.011085141450166702,0.0008165251929312944
1772819378041682200,9.71468212890625,0.002478870330378413,-0.007213704288005829,0.001442900625988841
1772819378051747300,9.724747314453126,0.002841060282662511,-0.002953445538878441,0.004231763072311878
1772819378061812500,9.7348125,0.001038366463035345,0.00036991306114941835,0.008553008548915386
1772819378071877000,9.744877197265625,0.0024045680183917284,0.013043629936873913,0.011384746991097927
1772819378081942300,9.7549423828125,-0.0012420982820913196,0.015479356981813908,0.002252501668408513
1772819378092007400,9.76500732421875,-0.0035920715890824795,0.016286294907331467,-0.008943960070610046
1772819378102072300,9.775072265625,-0.007452323567122221,0.014533668756484985,-0.02052977681159973
1772819378112137200,9.78513720703125,-0.009250223636627197,0.010493920184671879,-0.03337686508893967
1772819378122202400,9.795202392578124,-0.0035292210523039103,0.008172175846993923,-0.03232678025960922
1772819378132267300,9.805267333984375,-0.001434112200513482,0.004037085920572281,-0.02948652021586895
1772819378142332400,9.81533251953125,-0.000862864195369184,0.00395799009129405,-0.020426444709300995
1772819378152397300,9.825397216796874,0.000031691615731688216,0.011298194527626038,-0.013943511992692947
1772819378162462200,9.835462158203125,-0.003269562730565667,0.011487012729048729,-0.015794409438967705
1772819378172527400,9.84552734375,-0.0008868326549418271,0.018499648198485374,-0.017377657815814018
1772819378182592500,9.855592529296874,-0.0036764938849955797,0.016816796734929085,-0.02267495170235634
1772819378192657200,9.8656572265625,-0.0038490667939186096,0.013294233940541744,-0.0232898760586977
1772819378202722300,9.875722412109376,-0.005623797420412302,0.007900799624621868,-0.023208649829030037
1772819378212787500,9.885787353515624,-0.007276288699358702,0.006578540429472923,-0.013768009841442108
1772819378222852400,9.895852294921875,-0.012313657440245152,0.011265171691775322,-0.008479238487780094
1772819378232917200,9.905917236328126,-0.016108661890029907,0.012341354973614216,-0.006877081003040075
1772819378242982400,9.915982421875,-0.019242137670516968,0.009529856033623219,-0.007967645302414894
1772819378253046300,9.92604638671875,-0.021677331998944283,0.01344843115657568,-0.003584881080314517
1772819378263111400,9.936111328125,-0.020135361701250076,0.015548333525657654,0.0019459717441350222
1772819378273176300,9.94617626953125,-0.020235763862729073,0.01926131173968315,0.0070557789877057076
1772819378283241200,9.9562412109375,-0.017471667379140854,0.015510249882936478,0.00947712454944849
1772819378293306400,9.966306396484375,-0.01320821326225996,0.01489133108407259,0.007764978799968958
1772819378303371500,9.97637158203125,-0.011722436174750328,0.011329886503517628,0.013323795050382614
1772819378313436200,9.986436279296875,-0.01369424071162939,0.005086637567728758,0.005064799915999174
1772819378323501300,9.996501220703125,-0.012316853739321232,0.0011888351291418076,0.0013480921043083072
1772819378333566500,10.00656640625,-0.010092315264046192,-0.006412625312805176,-0.005340436939150095
1772819378343631400,10.01663134765625,-0.008741559460759163,0.0017947042360901833,-0.003992344718426466
1772819378353696300,10.0266962890625,-0.006076801102608442,0.0029739518649876118,-0.0044264402240514755
1772819378363761400,10.036761474609374,-0.002749713836237788,0.0026069683954119682,-0.006253102328628302
1772819378373826300,10.046826416015625,0.0025031049735844135,0.007363373879343271,-0.008017712272703648
1772819378383891500,10.056891357421875,0.00026285400963388383,0.013892113231122494,-0.005941778887063265
1772819378393956400,10.066956298828124,-0.0032927324064075947,0.01564260944724083,-0.007437143474817276
1772819378404021200,10.077021240234375,0.0002300971100339666,0.01623915694653988,-0.009782856330275536
1772819378414086400,10.08708642578125,-0.0003123887872789055,0.01883360929787159,-0.008188953623175621
1772819378424151300,10.0971513671875,-0.00044474788592197,0.018851185217499733,-0.010307231917977333
1772819378434216200,10.10721630859375,0.0008633967954665422,0.018500180914998055,-0.005861084908246994
1772819378444281300,10.11728125,0.0032264196779578924,0.017794176936149597,-0.000934236915782094
1772819378454346500,10.127346435546874,0.0009187905816361308,0.019343070685863495,0.004281297791749239
1772819378464411100,10.1374111328125,0.0041585261933505535,0.014210094697773457,0.007689611054956913
1772819378474476300,10.147476318359375,0.0006434197421185672,0.010327738709747791,0.007278152741491795
1772819378484541400,10.15754150390625,-0.0016495619202032685,0.012142682448029518,0.007706655655056238
1772819378494606300,10.1676064453125,-0.0034264230635017157,0.013501959852874279,0.0073133064433932304
1772819378504671200,10.177671142578125,-0.005842442624270916,0.009785518981516361,0.006615292280912399
1772819378514735000,10.187735107421876,-0.0016442356863990426,0.009062204509973526,0.008681106381118298
1772819378524800300,10.19780029296875,0.0038309572264552116,0.008505870588123798,0.005920739844441414
1772819378534865400,10.207865478515625,0.0031230889726430178,0.010629741474986076,0.013228720054030418
1772819378544930300,10.217930419921874,0.004793956410139799,0.015221030451357365,0.011719772592186928
1772819378554995200,10.2279951171875,0.004849616438150406,0.016512664034962654,0.0101964445784688
1772819378565060400,10.238060302734375,0.002110288944095373,0.021351361647248268,0.009615609422326088
1772819378575125200,10.248125244140626,0.0014708638191223145,0.021463746204972267,0.004625111818313599
1772819378585190400,10.2581904296875,0.005077316425740719,0.003858387703076005,-0.0008918926469050348
1772819378595255300,10.26825537109375,0.007801730185747147,-0.013467605225741863,-0.010575945489108562
1772819378605320200,10.2783203125,0.013566941022872925,-0.02786705084145069,-0.014761635102331638
1772819378615385300,10.28838525390625,0.012854546308517456,-0.027126159518957138,-0.012593023478984833
1772819378625450500,10.298450439453125,0.014060691930353642,-0.010067814029753208,-0.0025683525018393993
1772819378635515100,10.30851513671875,0.014790663495659828,0.012760535813868046,0.0030711572617292404
1772819378645580300,10.318580322265625,0.01531450729817152,0.028813539072871208,0.009467004798352718
1772819378655645400,10.3286455078125,0.01870737411081791,0.030888672918081284,0.006159359123557806
1772819378665710300,10.33871044921875,0.015620504505932331,0.023074958473443985,0.004808071069419384
1772819378675775200,10.348775146484375,0.015413577668368816,0.007903196848928928,-0.0019443739438429475
1772819378685840400,10.35884033203125,0.014199974946677685,-0.007249390706419945,0.001216798322275281
1772819378695906000,10.368906005859374,0.011576761491596699,-0.014100639149546623,-0.0014572817599400878
1772819378705971000,10.378970947265625,0.01010722853243351,-0.025977538898587227,-0.00210709311068058
1772819378716035800,10.389035888671875,0.005360943265259266,-0.024289360269904137,-0.0029582392890006304
1772819378726101000,10.39910107421875,0.0031667647417634726,-0.00957060232758522,0.0008117315010167658
1772819378736166000,10.409165771484375,0.004570517223328352,0.002290052128955722,-0.0002468750171829015
1772819378746230800,10.419230712890625,0.00315984059125185,0.01179221086204052,0.006859237793833017
1772819378756296000,10.4292958984375,0.005404885392636061,0.014511831104755402,0.010878480039536953
1772819378766361000,10.439361083984375,0.008190019056200981,0.0179987084120512,0.021868813782930374
1772819378776425700,10.44942578125,0.013679060153663158,0.013113670982420444,0.028083033859729767
1772819378786491000,10.459490966796874,0.010355701670050621,0.00321816373616457,0.03424825146794319
1772819378796556000,10.46955615234375,0.01053173653781414,-0.0030213561840355396,0.04047951474785805
1772819378806620000,10.479619873046875,0.01287665031850338,0.0010098706698045135,0.043121904134750366
1772819378816685000,10.48968505859375,0.008357532322406769,0.004379302263259888,0.04262629151344299
1772819378826750000,10.49975,0.008438492193818092,0.0037651772145181894,0.03707572817802429
1772819378836814800,10.50981494140625,0.005279184319078922,0.0009113337146118283,0.02009781077504158
1772819378846880000,10.5198798828125,0.00245143985375762,-0.0023545008152723312,0.009465406648814678
1772819378856945200,10.529945068359375,0.0014692660188302398,-0.0067873322404921055,-0.006903978530317545
1772819378867009800,10.540009765625,-0.004225904121994972,-0.010403638705611229,-0.017046095803380013
1772819378877075000,10.550074951171876,-0.003299922915175557,-0.01278849970549345,-0.02173006348311901
1772819378887140000,10.56014013671875,-0.0004700479330495,-0.013040967285633087,-0.016321714967489243
1772819378897205000,10.570205078125,-0.001678057829849422,-0.0035659726709127426,-0.006594519596546888
1772819378907270000,10.580269775390626,-0.0010213222121819854,0.010154632851481438,0.0041587925516068935
1772819378917335000,10.5903349609375,-0.003692472819238901,0.02586275525391102,0.01142948865890503
1772819378927400000,10.60039990234375,-0.006397712044417858,0.029272934421896935,0.015410647727549076
1772819378937464800,10.61046484375,-0.008040882647037506,0.027091804891824722,0.016293752938508987
1772819378947530000,10.620530029296875,-0.004757204558700323,0.023901337757706642,0.014340856112539768
1772819378957595000,10.630594970703125,-0.0025209481827914715,0.015126488171517849,0.019648004323244095
1772819378967660000,10.640659912109374,-0.0036487970501184464,0.010374077595770359,0.021139374002814293
1772819378977725000,10.650724853515625,-0.0034999263007193804,0.005784385837614536,0.017174459993839264
1772819378987789800,10.660789794921875,-0.005776396486908197,-0.0051625375635921955,0.008194812573492527
1772819378997855000,10.67085498046875,-0.007280017249286175,-0.0035542547702789307,0.003334543900564313
1772819379007920000,10.680920166015625,-0.008854477666318417,-0.006866694428026676,-0.007207578979432583
1772819379017984800,10.69098486328125,-0.013615410774946213,-0.002698314841836691,-0.015981629490852356
1772819379028050000,10.7010498046875,-0.015263374894857407,0.005028314422816038,-0.020427776500582695
1772819379038115000,10.711114990234375,-0.017733190208673477,0.009659551084041595,-0.023028619587421417
1772819379048180000,10.721179931640625,-0.015034609474241734,0.009256881661713123,-0.01678537204861641
1772819379058244900,10.731244873046874,-0.012572516687214375,0.0100238723680377,-0.00944862887263298
1772819379068310000,10.74131005859375,-0.012400477193295956,0.008583900518715382,-0.004537760280072689
1772819379078375000,10.751375,-0.01756248250603676,0.00908803753554821,-0.00034434671397320926
1772819379088440000,10.761440185546874,-0.01601305417716503,0.013191968202590942,0.006377205718308687
1772819379098505000,10.7715048828125,-0.013369601219892502,0.018930813297629356,0.010908041149377823
1772819379108568800,10.78156884765625,-0.013740579597651958,0.016289757564663887,0.005452289711683989
1772819379118634000,10.791634033203126,-0.013598899357020855,0.010249707847833633,0.004036553204059601
1772819379128699000,10.801698974609375,-0.011197260580956936,0.008199340663850307,0.006613427773118019
1772819379138764000,10.811763916015625,-0.00890667550265789,0.00821052584797144,0.0027326694689691067
1772819379148829000,10.821828857421876,-0.013169331476092339,0.010231331922113895,-0.002287655370309949
1772819379158894000,10.83189404296875,-0.010261692106723785,0.01942616142332554,-0.0026008430868387222
1772819379168959000,10.841958984375,-0.006386526394635439,0.020312462002038956,-0.004808071069419384
1772819379179024000,10.85202392578125,-0.0056861150078475475,0.013457219116389751,-0.0046935551799833775
1772819379189089000,10.862089111328125,-0.00808935146778822,0.007844074629247189,-0.004573712591081858
1772819379199154000,10.87215380859375,-0.00929310079663992,0.011707788333296776,0.003859186777845025
1772819379209219000,10.882218994140626,-0.006219812668859959,0.017002418637275696,0.012321647256612778
1772819379219284000,10.892283935546875,-0.01101616583764553,0.011514709331095219,0.015512647107243538
1772819379229348900,10.902348876953125,-0.011532552540302277,0.013251623138785362,0.009273659437894821
1772819379239414000,10.9124140625,-0.018030133098363876,0.014937404543161392,0.011111240833997726
1772819379249479200,10.922479248046875,-0.014830878004431725,0.018988871946930885,0.006253102328628302
1772819379259543800,10.932543701171875,-0.016212258487939835,0.019583288580179214,0.004019509069621563
1772819379269609000,10.94260888671875,-0.014108095318078995,0.021030982956290245,0.0060054282657802105
1772819379279674000,10.952674072265625,-0.012492888607084751,0.02014867775142193,0.004452805500477552
1772819379289739000,10.962739013671875,-0.0124247120693326,0.020708473399281502,0.0036581179592758417
1772819379299804000,10.972803955078126,-0.010863034054636955,0.01641678996384144,-0.00047643951256759465
1772819379309869000,10.982869140625,-0.012232963927090168,0.01835290901362896,-0.0049313753843307495
1772819379319934000,10.992933837890625,-0.008610798977315426,0.02689020335674286,-0.008249673992395401
1772819379329998800,11.002998779296876,-0.004533765371888876,0.026128539815545082,-0.00929176900535822
1772819379340064000,11.01306396484375,-0.004454669542610645,0.024867799133062363,-0.01540665328502655
1772819379350129000,11.02312890625,-0.00304718897677958,0.015669774264097214,-0.0155517952516675
1772819379360194000,11.033194091796876,-0.0028304075822234154,0.009363141842186451,-0.01050403993576765
1772819379370259000,11.043259033203125,-0.0017153420485556126,0.011780492961406708,-0.0062943813391029835
1772819379380323800,11.05332373046875,-0.004465854726731777,0.020020579919219017,-0.00370072852820158
1772819379390389000,11.063388916015626,-0.005262406077235937,0.025511484593153,-0.004999019671231508
1772819379400454100,11.0734541015625,-0.01128141675144434,0.023977505043148994,-0.010295780375599861
1772819379410518800,11.083518798828125,-0.014555240049958229,0.022969497367739677,-0.01344443578273058
1772819379420584000,11.093583984375,-0.014462295919656754,0.018739333376288414,-0.010725081898272038
1772819379430649000,11.103649169921875,-0.007090932689607143,0.018127605319023132,-0.003582217963412404
1772819379440714000,11.1137138671875,-0.0010269149206578732,0.02557513490319252,0.007938084192574024
1772819379450778000,11.123778076171876,-0.0038165762089192867,0.03213023766875267,0.012704077176749706
1772819379460842800,11.1338427734375,-0.005877329967916012,0.03377021476626396,0.014249775558710098
1772819379470908000,11.143907958984375,-0.007672300562262535,0.029076125472784042,0.006159891374409199
1772819379480973000,11.15397314453125,-0.013806359842419624,0.030401049181818962,-0.0036634444259107113
1772819379491038000,11.164037841796874,-0.016571253538131714,0.02538498491048813,-0.016573118045926094
1772819379501102800,11.174102783203125,-0.014873754233121872,0.014181599020957947,-0.0250981617718935
1772819379511168000,11.18416796875,-0.011154649779200554,-0.0036330842413008213,-0.03169907256960869
1772819379521233000,11.19423291015625,-0.008830775506794453,-0.01443832740187645,-0.02869449555873871
1772819379531298000,11.204298095703125,-0.0022157500497996807,-0.012691027484834194,-0.028118187561631203
1772819379541363000,11.214363037109376,-0.0009571401169523597,0.000529436394572258,-0.01805543340742588
1772819379551427800,11.224427734375,-0.004717523697763681,0.009225988760590553,-0.015120097436010838
1772819379561493000,11.234492919921875,-0.008895490318536758,0.023251526057720184,-0.009652361273765564
1772819379571558000,11.244557861328126,-0.006597449071705341,0.028539232909679413,-0.011329353787004948
1772819379581622800,11.254622802734374,-0.006734601687639952,0.026039589196443558,-0.013104883022606373
1772819379591688000,11.26468798828125,-0.005254683084785938,0.0176362507045269,-0.01492435485124588
1772819379601753000,11.274753173828126,-0.0060027651488780975,0.011564510874450207,-0.016036489978432655
1772819379611817700,11.284817626953124,-0.010551444254815578,0.002013882389292121,-0.01083027757704258
1772819379621883000,11.2948828125,-0.011488877236843109,0.0021228056866675615,0.001163002452813089
1772819379631948000,11.304947998046876,-0.013232448138296604,0.0070427292957901955,0.005812349263578653
1772819379642013000,11.315012939453124,-0.012417787685990334,0.01636965200304985,0.010087255388498306
1772819379652077800,11.325077880859375,-0.009282181970775127,0.017548900097608566,0.011795406229794025
1772819379662143000,11.33514306640625,0.005914348177611828,-0.017404289916157722,-0.013525662012398243
1772819379672208000,11.345207763671874,0.0022687469609081745,-0.010264355689287186,-0.030245253816246986
1772819379682273000,11.35527294921875,-0.004194744862616062,0.01386761199682951,-0.016092950478196144
1772819379692337700,11.365337646484376,-0.023915186524391174,0.016465526074171066,0.0013946974650025368
1772819379702402800,11.37540283203125,-0.031980570405721664,0.020298613235354424,0.006561496295034885
1772819379712468000,11.385468017578125,-0.01901150867342949,0.02605317160487175,0.002432531211525202
1772819379722532900,11.395532958984376,-0.0070832096971571445,0.023514380678534508,-0.0009374326909892261
1772819379732597800,11.40559765625,0.0034285534638911486,0.015780827030539513,-0.001166198286227882
1772819379742663000,11.415662841796875,0.007077616639435291,0.023994548246264458,0.010569820180535316
1772819379752727800,11.425727783203126,0.0009004147723317146,0.03205833584070206,0.013782924041152
1772819379762792700,11.435792724609374,-0.004375573713332415,0.017185911536216736,0.01324150338768959
1772819379772857900,11.44585791015625,-0.005758286919444799,0.005820871330797672,0.005248025059700012
1772819379782922800,11.4559228515625,-0.004259193316102028,0.004977447912096977,-0.005449892953038216
1772819379792988000,11.46598779296875,0.0013763216556981206,0.005797169171273708,-0.012762933038175106
1772819379803052800,11.476052734375,-0.0027446537278592587,0.012828713282942772,-0.0041161817498505116
1772819379813116700,11.48611669921875,-0.004853078629821539,0.016283098608255386,0.004985969979315996
1772819379823181800,11.496181884765624,-0.0049497513100504875,0.015401327051222324,0.010576744563877583
1772819379833247000,11.5062470703125,-0.006695719435811043,0.02039475366473198,0.012092881835997105
1772819379843311900,11.516311767578125,-0.009868876077234745,0.023202523589134216,0.012967197224497795
1772819379853376800,11.526376708984374,-0.004537493921816349,0.030011428520083427,0.01013812143355608
1772819379863442000,11.53644189453125,-0.005577724426984787,0.03359577804803848,0.01327159721404314
1772819379873506800,11.5465068359375,-0.00555242458358407,0.0300764087587595,0.0120675815269351
1772819379883572000,11.556572021484374,-0.007303453050553799,0.020257068797945976,0.014591725543141365
1772819379893636900,11.566636962890625,-0.004175570327788591,0.013311810791492462,0.01732759177684784
1772819379903701800,11.57670166015625,-0.008652077987790108,0.008565524592995644,0.008765794336795807
1772819379913767000,11.586766845703124,-0.010112821124494076,0.002728142309933901,0.006485063582658768
1772819379923832000,11.59683203125,-0.015018364414572716,0.009738381020724773,0.006641657557338476
1772819379933896700,11.606896728515625,-0.018257301300764084,0.016138756647706032,0.004160390235483646
1772819379943961900,11.6169619140625,-0.017283381894230843,0.021394504234194756,-0.00018189390539191663
1772819379954027000,11.627027099609375,-0.021687185391783714,0.019100191071629524,-0.0034466630313545465
1772819379964092000,11.637091796875,-0.017489777877926826,0.018573950976133347,-0.007270962465554476
1772819379974156800,11.64715673828125,-0.020560402423143387,0.01067954208701849,-0.012416722252964973
1772819379984222000,11.657221923828125,-0.01798832230269909,0.010876350104808807,-0.009547432884573936
1772819379994286800,11.667286865234376,-0.02040966786444187,0.018081799149513245,0.00041438787593506277
1772819380004351700,11.677351806640624,-0.021868281066417694,0.024280572310090065,0.0020295949652791023
1772819380014417000,11.6874169921875,-0.018813101574778557,0.027095001190900803,0.0011627360945567489
1772819380024481800,11.697481689453125,-0.021136710420250893,0.03273584321141243,-0.002499376656487584
1772819380034547000,11.707546875,-0.014905978925526142,0.026756513863801956,-0.0027614317368716
1772819380044611800,11.71761181640625,-0.016591493040323257,0.02449522353708744,-0.003522563260048628
1772819380054676700,11.7276767578125,-0.01672331988811493,0.018667427822947502,-0.004448277875781059
1772819380064742000,11.737741943359374,-0.018197912722826004,0.020234165713191032,-0.000606934423558414
1772819380074807000,11.74780712890625,-0.017891382798552513,0.021325528621673584,0.0011092065833508968
1772819380084871700,11.75787158203125,-0.012430038303136826,0.026510436087846756,-0.0011142665753141046
1772819380094936800,11.767936767578124,-0.015184013172984123,0.025065938010811806,-0.006758836563676596
1772819380105002000,11.778001953125,-0.015320366248488426,0.02136654034256935,-0.007399859372526407
1772819380115067000,11.78806689453125,-0.013541375286877155,0.014720356091856956,-0.00749200489372015
1772819380125131800,11.7981318359375,-0.011752263642847538,0.011967979371547699,0.0010223875287920237
1772819380135197000,11.808197021484375,-0.014031130820512772,0.005096225067973137,0.0033454629592597485
1772819380145261800,11.81826171875,-0.0174450371414423,0.005538842175155878,0.011949337087571621
1772819380155326700,11.82832666015625,-0.019646139815449715,0.015958726406097412,0.012435897253453732
1772819380165392000,11.838391845703125,-0.01950366050004959,0.022698387503623962,0.016288692131638527
1772819380175456800,11.848456787109376,-0.02020993083715439,0.02739007957279682,0.013978665694594383
1772819380185522000,11.85852197265625,-0.018875420093536377,0.027466511353850365,0.010409764014184475
1772819380195586000,11.8685859375,-0.02105415239930153,0.024631310254335403,0.008159658871591091
1772819380205650700,11.878650634765625,-0.018692461773753166,0.026986343786120415,0.006898918654769659
1772819380215715800,11.8887158203125,-0.01954547129571438,0.029834860935807228,0.0001613875647308305
1772819380225781000,11.898781005859375,-0.01637178286910057,0.02220224030315876,0.001767273643054068
1772819380235846000,11.908845947265625,-0.010890464298427105,0.02165176533162594,0.006426207721233368
1772819380245910800,11.918910888671874,-0.008767392486333847,0.027877969667315483,0.016222912818193436
1772819380255976000,11.928975830078125,-0.007495466619729996,0.0156500656157732,0.010485397651791573
1772819380266040800,11.939040771484375,-0.00046685212873853743,0.010884871706366539,-0.007257380057126284
1772819380276106000,11.94910595703125,0.0007661914569325745,0.008829444646835327,-0.0187824759632349
1772819380286171000,11.9591708984375,-0.001984587637707591,0.006965231616050005,-0.017164872959256172
