time,seconds_elapsed,z,y,x
1772797045183937300,0.090937255859375,-0.10549801778197287,0.07555714435810222,-0.2902501164775342
1772797045193962200,0.100962158203125,-0.002828501424193382,0.02939693927289918,-0.2921701978199184
1772797045203988200,0.11098828125,0.10515548795461654,-0.029414109603408723,-0.27872297948673364
1772797045214014200,0.12101416015625,0.14348375730514526,-0.02779266414772719,-0.24196108267009256
1772797045224039400,0.131039306640625,0.17934768236875534,-0.05582392282430082,-0.14418240709379315
1772797045234065400,0.1410654296875,0.1837187370598316,-0.103105332225468,-0.08880662989579141
1772797045244090400,0.15109033203125,0.07678980969190598,-0.06177419126452878,-0.104686043811962
1772797045254116400,0.161116455078125,-0.03920797479450702,0.037504130018688735,0.018474325780197975
1772797045264141300,0.171141357421875,-0.0800824214965105,0.009503394344542174,0.09819039818234741
1772797045274167300,0.181167236328125,-0.056202948737144466,-0.01844667058829218,0.09835537948571145
1772797045284193300,0.191193359375,0.001782207241654396,0.060401733867544674,0.10710844865329563
1772797045294218200,0.20121826171875,0.02402560323178768,0.07359046566132456,0.16956249367445705
1772797045304244200,0.211244140625,0.04712064761519432,0.03961107570268214,0.17502594671212135
1772797045314269200,0.221269287109375,0.1023076973080635,0.027102818720042703,0.1716785359803587
1772797045324295200,0.231295166015625,0.07705693619549274,0.0206064059054479,0.20114369991756975
1772797045334320400,0.2413203125,0.03758768011629581,0.06155486769173294,0.20786519019231198
1772797045344346400,0.251346435546875,-0.0721960521608591,0.0974328578133136,0.15705241006091236
1772797045354372400,0.261372314453125,-0.11173486634492874,0.08788648284357041,0.18497326716557144
1772797045364397300,0.271397216796875,0.04766191488504409,0.07404752524644136,0.11371383826769887
1772797045374423300,0.28142333984375,0.2523959674447775,0.006984963516518473,0.08972301408834756
1772797045384448300,0.2914482421875,0.34687983925938604,-0.10166987432856112,0.07442410347387195
1772797045394474200,0.30147412109375,0.30890345208644865,-0.09857366187889129,-0.005958689208701253
1772797045404499200,0.311499267578125,0.2751578343510628,-0.021367818732000887,-0.06957184113711118
1772797045414525200,0.321525146484375,0.2433189270198345,0.0072439432462677355,-0.08071502031162381
1772797045424550400,0.33155029296875,0.05366612373590469,-0.07381598151288926,-0.1032264926534146
1772797045434576400,0.341576416015625,-0.13801204789578914,-0.056169850185140965,-0.1393673349622637
1772797045444602400,0.351602294921875,-0.210553552493453,0.10224350949805229,-0.17901041323840616
1772797045454627300,0.36162744140625,-0.1629629492789507,0.07190123393274843,-0.17998671092465518
1772797045464653300,0.3716533203125,-0.1282540394693613,0.019861761550605296,-0.19259419049806892
1772797045474678300,0.38167822265625,-0.1546399420917034,0.04983250038977712,-0.15360460769459605
1772797045484704300,0.391704345703125,-0.15624445467889309,0.05625413093511015,-0.0740795278199017
1772797045494729200,0.401729248046875,-0.14416063365340231,0.0505209575779736,-0.02726772695817053
1772797045504755200,0.411755126953125,-0.04854220485091209,0.052184324212931094,-0.004232596068456769
1772797045514781200,0.42178125,0.022580665120482443,0.016035700456425547,0.03614208441786468
1772797045524806100,0.43180615234375,0.11843816337585449,-0.054498884765617546,0.07542801981940865
1772797045534832000,0.44183203125,0.1845949353724718,-0.04740695374328643,0.03827697755470872
1772797045544857300,0.451857421875,0.20681319692134856,-0.023041158771701157,0.0862871944207698
1772797045554883300,0.46188330078125,0.2496370241254568,-0.06860032922383398,0.1362403620481491
1772797045564908300,0.471908203125,0.28477906465530395,-0.08411902006883173,0.0968637526884675
1772797045574934300,0.481934326171875,0.19698913752138614,-0.021203239287436008,0.0690622841797769
1772797045584959200,0.491959228515625,0.13374971427619456,0.012817140268720686,0.06807217716388404
1772797045594985200,0.501985107421875,0.1386415779709816,0.003766987850703299,0.03586582475975156
1772797045605011200,0.51201123046875,0.12614976066648959,-0.003822298234514892,-0.01611417252011597
1772797045615036200,0.5220361328125,0.13547989906966684,0.008914068415574728,-0.05547163878791034
1772797045625062100,0.532062255859375,0.1343763217419386,0.014073314342275262,-0.10555983097180724
1772797045635087400,0.54208740234375,0.03755436236858368,0.04909899848345667,-0.1671275946777314
1772797045645113300,0.55211328125,-0.10988427004218101,0.09764913091249763,-0.1725310611564666
1772797045655139300,0.562139404296875,-0.12291793913841247,0.07821772360317408,-0.13199644086807966
1772797045665164300,0.572164306640625,0.021423896300792694,-0.00790339353568852,-0.08277239123284816
1772797045675190300,0.582190185546875,0.11210954487621784,-0.10715228779502213,-0.04234130438417196
1772797045685215200,0.59221533203125,0.058277416923642154,-0.10162592558898031,0.005162278134003281
1772797045695241200,0.6022412109375,0.013867781832814216,-0.04905972591899335,0.0302743614282459
1772797045705266200,0.61226611328125,0.038010289442539216,-0.004691774545423686,0.022368995131179688
1772797045715292200,0.622292236328125,0.09296294585764407,-0.004018880252540111,0.02908040240332484
1772797045725318100,0.632318115234375,0.1345405723929405,-0.0002654825357720256,0.055152562901377676
1772797045735343000,0.642343017578125,0.16751812836527824,0.0054222807770594956,0.06565276799723506
1772797045745369000,0.652369140625,0.06233867501318455,-0.022262283353693783,0.054935705280303955
1772797045755394300,0.662394287109375,-0.08687631942033767,0.032144393083825704,0.002442059389874339
1772797045765420300,0.672420166015625,-0.046347325155138966,0.0738040353467688,-0.017182824664935467
1772797045775445200,0.6824453125,0.10698621051311492,0.022608758703805507,-0.0519494560111314
1772797045785471200,0.69247119140625,0.2702069339454174,-0.055124396252818404,-0.06240363000817597
1772797045795497200,0.702497314453125,0.2680202375560999,-0.10186981734745204,-0.05796140977703035
1772797045805522200,0.712522216796875,0.10912497610747814,-0.07803469518646597,-0.048779520738124846
1772797045815548200,0.722548095703125,-0.01726560757756233,-0.025062179737910625,-0.019248963414505122
1772797045825573000,0.732572998046875,-0.07078326275348663,-0.03805650320444256,-0.06128061732761562
1772797045835599000,0.74259912109375,-0.13428513632714748,-0.05228234122730791,-0.06819916454441845
1772797045845624300,0.752624267578125,-0.20820260545313357,-0.02491509941741824,-0.06063413611762225
1772797045855650300,0.762650390625,-0.2767991718173027,0.030589272596314547,-0.08102130978181958
1772797045865676300,0.77267626953125,-0.30500878273546694,0.0871539673179388,-0.0798765236608684
1772797045875701200,0.782701171875,-0.27920681748092174,0.07434709271490574,-0.018075535720959306
1772797045885727200,0.792727294921875,-0.12959843981564045,0.06386716322209686,0.03707695411518216
1772797045895752200,0.802752197265625,0.05702186390459537,0.00034855770934373137,0.0561984186924994
1772797045905778200,0.812778076171875,0.147477210855484,-0.02817099594082683,0.06690320644974708
1772797045915804200,0.82280419921875,0.21893092021644114,0.004774520925432443,0.09586268588714301
1772797045925829000,0.8328291015625,0.33056115714311596,-0.02305347026400268,0.1312419692389667
1772797045935855000,0.842855224609375,0.4117021477818489,-0.05808383058030158,0.11551526166647672
1772797045945880000,0.852880126953125,0.46457039913833137,-0.03432367335166782,0.09218129396066069
1772797045955906000,0.862906005859375,0.43583764112889767,-0.013050254904851316,0.06867562294974923
1772797045965931300,0.87293115234375,0.2815419824302196,-0.027510705401189623,0.05767002561502158
1772797045975957200,0.882957275390625,0.13113690142929554,-0.01028437038809061,0.059228141777217386
1772797045985983200,0.892983154296875,0.034005145454406735,-0.0062539092956110836,0.05526895582266152
1772797045996008200,0.90300830078125,-0.004077624702453613,-0.014548932497389614,0.02053060072287917
1772797046006034200,0.9130341796875,-0.06166413675248623,-0.020748700452968477,-0.022739070552587507
1772797046016059100,0.92305908203125,-0.105736502712965,0.018289799526147545,-0.056626946302875875
1772797046026085000,0.933085205078125,-0.16632278110086918,0.033641134447604415,-0.0816789699729532
1772797046036111000,0.943111083984375,-0.2604337279498577,0.024052820032276212,-0.07671879028230905
1772797046046136000,0.953135986328125,-0.2435457215130329,0.03265563054159283,-0.04032419240809977
1772797046056162000,0.963162109375,-0.10928864223659038,-0.02010941616874188,-0.007956146636232734
1772797046066187500,0.9731875,0.009883680632710456,-0.06276756794974207,0.01310293494015932
1772797046076213500,0.983213623046875,0.046137481796741486,-0.05679799202084541,0.035430429017171264
1772797046086238700,0.99323876953125,0.08617547767460346,-0.033181882905401285,0.07120331479646265
1772797046096264700,1.0032646484375,0.1537643283009529,-0.036079942434467376,0.06451316950805484
1772797046106290700,1.013290771484375,0.15071663116812706,-0.010674356086365877,0.030753230986371633
1772797046116315600,1.023315673828125,0.052312955561280246,0.034326669026352466,0.020182298741862177
1772797046126341600,1.033341552734375,0.00912672478556633,0.08084014452863485,0.014864756980910896
1772797046136366600,1.04336669921875,0.07448913153409957,0.051155017697811125,0.006917451238259673
1772797046146392600,1.053392578125,0.15420155067443847,0.05748078665323555,-0.015019801412150263
1772797046156418600,1.06341845703125,0.20995324851274488,0.05588953540641814,-0.012590601503849028
1772797046166443500,1.073443603515625,0.26748013933002945,0.0019148206453770398,0.03324292891025543
1772797046176469500,1.083469482421875,0.2718114465326071,-0.042534488868713374,0.041819399401918055
1772797046186494500,1.093494384765625,0.21355799500644207,-0.03286580269355327,0.03774842363595962
1772797046196520400,1.1035205078125,0.11863573177456856,-0.031479682097397745,0.04269976243302226
1772797046206545700,1.113545654296875,0.008091536518931389,-0.022933168352581558,0.021169483148306606
1772797046216571600,1.123571533203125,-0.0948831002652645,-0.007268200904689729,0.009034808718413114
1772797046226597600,1.13359765625,-0.12268062325119972,0.024694442404061556,-0.030831337723881004
1772797046236622600,1.14362255859375,-0.08804594772160053,0.042216399362869556,-0.0759244980994612
1772797046246648600,1.153648681640625,-0.03837093944847583,0.034053295445069666,-0.10656235907785594
1772797046256673500,1.163673583984375,-0.007982230925559997,0.06497304210476577,-0.12395480790548026
1772797046266699500,1.173699462890625,-0.004720598781108856,0.08058120133150369,-0.11134506330974399
1772797046276725500,1.1837255859375,0.009557517418265342,0.04439129571653902,-0.06640402475595474
1772797046286750500,1.19375048828125,0.04215747224986553,0.009660539401322603,-0.04192527092918753
1772797046296776400,1.2037763671875,0.04654080190062523,0.022516294647380707,-0.029575200182944534
1772797046306801700,1.2138017578125,0.029086393752694128,0.06460157844386995,-0.024158070505037904
1772797046316827600,1.22382763671875,0.014852116695046423,0.04323774176724255,0.006987155473604798
1772797046326853600,1.233853515625,0.009731704941391944,0.010123663401044905,0.06306501652635634
1772797046336878600,1.243878662109375,0.02919569934606552,0.0067081193365156645,0.1236249183639884
1772797046346904600,1.253904541015625,0.167598792386055,0.0018211510125547645,0.12513700342737138
1772797046356929500,1.263929443359375,0.33742812030315394,-0.03901310980953276,0.07984510560929775
1772797046366955500,1.27395556640625,0.38017946679294107,-0.0754188501322642,0.027882424790412186
1772797046376981500,1.2839814453125,0.297526318025589,-0.027260456967167553,-0.012358838574588298
1772797046387006500,1.29400634765625,0.15517711770832537,0.022515856255963442,-0.06770816615708172
1772797046397032400,1.304032470703125,0.05000175600945949,-0.01489522518441081,-0.07673150363340973
1772797046407057400,1.314057373046875,0.02423603111207485,-0.05341112606152892,-0.04683518173731863
1772797046417083400,1.32408349609375,-0.00514262358546257,-0.07636164740771055,-0.051580476568266746
1772797046427109400,1.334109375,-0.0979506711423397,-0.03790467364359647,-0.0780997232466936
1772797046437134600,1.344134521484375,-0.21318740812838077,0.018544139613397417,-0.10193155747205018
1772797046447160600,1.35416064453125,-0.3631014907419681,0.0613952932158485,-0.10139511250779032
1772797046457185500,1.364185546875,-0.4385346251279115,0.10685231846775858,-0.04836282969601452
1772797046467211500,1.37421142578125,-0.29533494546115396,0.08774882793854921,-0.003540010694414377
1772797046477236500,1.384236572265625,-0.05375964723825454,0.037717407443188126,0.009981514983996749
1772797046487262500,1.394262451171875,0.1263549278497696,-0.006997421139292419,0.042762817731872196
1772797046497288400,1.404288330078125,0.21266601460278034,-0.003178958829678595,0.07057999526634812
1772797046507313400,1.4143134765625,0.18440964193344114,0.00043565147090703245,0.06697934042587876
1772797046517339400,1.42433935546875,0.1715671114951372,0.017812866196781397,0.0658232291933149
1772797046527364600,1.434364501953125,0.22648294303119182,0.003284684226475656,0.09391169794984161
1772797046537390600,1.444390625,0.31230770757198334,-0.039829540758952495,0.09209164291583001
1772797046547416600,1.45441650390625,0.2920259670436382,-0.047293739159777755,0.04114690696783364
1772797046557441500,1.464441650390625,0.19099603458642958,-0.002702646554820239,0.010129472087323664
1772797046567467500,1.474467529296875,0.13939210407733915,0.009268106017634272,-0.015495163838937879
1772797046577492500,1.484492431640625,0.11514555157124995,-0.018361951446905733,-0.059949953245744106
1772797046587518500,1.4945185546875,0.04839139820337295,-0.03674180387668311,-0.08803272291384637
1772797046597544700,1.504544677734375,0.02309796699285507,-0.01250292322039604,-0.089585578379035
1772797046607569400,1.5145693359375,-0.03383797219395637,-0.019219225863367318,-0.09718319390118121
1772797046617595600,1.524595703125,-0.17008067232966423,0.013575265159644186,-0.1097646622505039
1772797046627620400,1.534620361328125,-0.25447861893773077,0.05773815894778817,-0.07553878671750426
1772797046637646600,1.544646484375,-0.1693494354456663,0.04636745462771505,-0.046110374594107266
1772797046647672600,1.554672607421875,-0.06399754813611506,0.04270918784849345,-0.050654228568822145
1772797046657697800,1.56469775390625,0.02863572737574577,-0.11939425852429121,-0.0176144210152328
1772797046667723800,1.574723876953125,0.03279635418653488,-0.016881978554837404,-0.01962517631575465
1772797046677748700,1.584748779296875,0.05900222406685352,0.006571743073128164,0.07149645252414047
1772797046687774700,1.594774658203125,0.03491699960231781,-0.01998250185344368,0.062058396767079825
1772797046697800700,1.60480078125,0.03170797442793846,0.0327107582623139,0.06516352317556738
1772797046707825700,1.61482568359375,0.0624146628588438,0.032421164198592305,0.10015139605700969
1772797046717851600,1.6248515625,0.0759913527905941,-0.015162790079414843,0.09252828076742589
1772797046727876600,1.634876708984375,0.08480009766817093,0.013243622052483259,0.10863558515533804
1772797046737902600,1.644902587890625,0.12659633539021015,-0.010823299570381641,0.12628726944103835
1772797046747928600,1.654928466796875,0.1533417189747095,-0.05140004196744412,0.0907879399061203
1772797046757953500,1.66495361328125,0.15372282724678515,-0.010209478520974516,0.037899887870624656
1772797046767979500,1.6749794921875,0.15907470966875553,0.028448789968900382,0.00557319702245295
1772797046778004700,1.685004638671875,0.18402093487679957,0.014267339077033103,-0.01869395988024771
1772797046788030700,1.69503076171875,0.19352116914987563,-0.010306911013461649,-0.003905775266885757
1772797046798056700,1.705056640625,0.10573474914729594,-0.01896229196023196,0.015235416924208402
1772797046808081700,1.71508154296875,0.002097264540195465,-0.0036251682272180914,0.013182649112865328
1772797046818107600,1.725107666015625,-0.07908347358703613,0.008192366544902324,-0.006560454494133591
1772797046828132600,1.735132568359375,-0.14320610940754414,0.007021276938915252,-0.021607874565571544
1772797046838158600,1.74515869140625,-0.15852350552678107,0.010462430368736385,-0.0067144029468297955
1772797046848184600,1.7551845703125,-0.10786591595709323,0.013293964000232517,-0.01350588971786201
1772797046858209500,1.76520947265625,-0.035841713231801985,0.027192396699637172,-0.04297178430743515
1772797046868235500,1.775235595703125,0.04001812213361263,0.05846965156011283,-0.07178177227154374
1772797046878260700,1.7852607421875,0.09902151524424552,0.08239446129854767,-0.0917985782533884
1772797046888286500,1.795286376953125,0.10229425330460071,0.06221161456741392,-0.05881313123553991
1772797046898312400,1.8053125,0.04066226525604725,0.015131591223552822,-0.0022569120813161134
1772797046908337700,1.815337646484375,0.0021615619480609893,-0.01984890206903219,0.057169455681741234
1772797046918363600,1.82536376953125,0.023808745610713958,-0.011833170732669531,0.08378471008054912
1772797046928388600,1.835388671875,0.06917465851306914,0.03165094701107591,0.09473112457394599
1772797046938414600,1.84541455078125,0.02084931128323078,0.03300937588270753,0.09271496244594454
1772797046948440600,1.855440673828125,-0.05277648141980171,0.03456131803244352,0.1267059332445264
1772797046958465500,1.865465576171875,-0.01579085884988308,0.050467729553394014,0.1555040115751326
1772797046968491500,1.875491455078125,0.16472294468879697,-0.009308218832314015,0.1193307283014059
1772797046978516500,1.8855166015625,0.3154015819340944,-0.0735219304697588,0.05964059503562748
1772797046988542500,1.89554248046875,0.37950492853224277,-0.08571531281694769,0.014469108726829289
1772797046998568400,1.905568359375,0.35440848119854923,-0.08968063625134527,-0.020700842723250387
1772797047008593700,1.91559375,0.253165198251605,-0.09911934959553181,-0.05185169472508132
1772797047018619600,1.92561962890625,0.11067571268081665,-0.06395812944117933,-0.09400639049597084
1772797047028644600,1.93564453125,-0.0020364742636680604,-0.023662158480565992,-0.1276094579555094
1772797047038670600,1.945670654296875,-0.11644085207879543,0.002511288701184094,-0.15028525401353834
1772797047048696600,1.955696533203125,-0.20655308468043804,0.023546861537825314,-0.14549736214987932
1772797047058721500,1.965721435546875,-0.3053320233404636,0.0633128355412744,-0.14535707689635455
1772797047068747500,1.97574755859375,-0.36860651789903637,0.09752552279913797,-0.12798632844388486
1772797047078772500,1.9857724609375,-0.3957125514894724,0.10809904885953292,-0.10739954055435955
1772797047088798500,1.995798583984375,-0.3887625862210989,0.09350129051804543,-0.030480259263888
1772797047098824400,2.005824462890625,-0.24896774656176565,0.07270330756325274,0.033058512254059313
1772797047108849400,2.015849365234375,0.019123218142986297,0.023708427041396498,0.07735635753348469
1772797047118875400,2.02587548828125,0.2299602637529373,-0.014000212573446332,0.1047298829536885
1772797047128900600,2.035900634765625,0.32050036637783047,-0.0029809885721653697,0.13326280754208564
1772797047138926600,2.045926513671875,0.342163332131505,0.016630926403217016,0.16820216510668395
1772797047148952600,2.05595263671875,0.3687292674958706,0.012513225418701767,0.16271204325780272
1772797047158977500,2.0659775390625,0.40362697787582874,0.001753894462622702,0.13659100211672484
1772797047169003500,2.07600341796875,0.4071230032980442,-0.001407674840837717,0.10389401665143667
1772797047179028500,2.086028564453125,0.32862872777581215,0.004245236354321241,0.027956147613748906
1772797047189054500,2.096054443359375,0.18452187013626098,0.035114166142232714,-0.005211085711792111
1772797047199080400,2.10608056640625,0.06894669497609138,0.02349160595294088,-0.015703765088319777
1772797047209105400,2.11610546875,-0.005277648141980171,-0.012895904593355953,-0.04741626956090331
1772797047219131400,2.12613134765625,-0.06704466074705123,0.008137494552507996,-0.06761237763240933
1772797047229156600,2.136156494140625,-0.0804746356844902,0.023385588295198975,-0.08628909411691128
1772797047239182600,2.1461826171875,-0.12027882280647754,0.00680178896933794,-0.10056107283644378
1772797047249208600,2.15620849609375,-0.1765162583351135,-0.001473031694628298,-0.079119129422307
1772797047259233500,2.166233642578125,-0.24238895269334315,-0.0009263575972989201,-0.06004815292321145
1772797047269259500,2.176259521484375,-0.2835819638252258,0.0001201192483305931,-0.07650923918485641
1772797047279284500,2.186284423828125,-0.3109802583605051,-0.00476538777090609,-0.06040376142784953
1772797047289310500,2.196310546875,-0.26733751598894595,0.015374496601335703,-0.03605623276531696
1772797047299336400,2.20633642578125,-0.0799298612833023,0.05267974304705858,-0.03091879681162536
1772797047309361400,2.216361328125,0.16005612192153928,0.04178845627438277,-0.052003597351163625
1772797047319387400,2.226387451171875,0.3335398806929588,0.05528619921840727,-0.05957615149728954
1772797047329412400,2.236412353515625,0.39361294886171816,0.04984634625203907,-0.03596643559001386
1772797047339438300,2.246438232421875,0.27300445570945736,0.077858644499816,-0.02894705834724009
1772797047349464300,2.25646435546875,0.12824644068479538,0.10095500405747443,0.021622122286632656
1772797047359489500,2.266489501953125,0.15088146634101868,0.04206504472605884,0.09170118229351937
1772797047369515500,2.276515625,0.2510059743911028,-0.0294095612924546,0.11081007965020835
1772797047379540500,2.28654052734375,0.2721908012390137,-0.050264498598873615,0.12278364523425697
1772797047389566500,2.29656640625,0.14553484461605548,-0.010300554337911307,0.10189955489858984
1772797047399592400,2.306592529296875,-0.02631692903935909,0.054418987929821014,0.090118954603374
1772797047409617400,2.316617431640625,-0.05524316379427909,0.043783721744827926,0.08156133494265377
1772797047419643400,2.326643310546875,-0.00833762023448944,-0.005695435162633657,0.0438139342200011
1772797047429668400,2.33666845703125,0.013318915778398513,-0.021733692902326584,0.029406857878714797
1772797047439694300,2.3466943359375,-0.02197743853032589,-0.037164595866017044,0.010630772672966122
1772797047449719600,2.356719482421875,-0.09536533082425594,0.0035963439915329214,-0.02360825460255146
1772797047459745300,2.366745361328125,-0.14243337146937846,0.038407179805636404,-0.033917028779536486
1772797047469771300,2.376771240234375,-0.1233265199393034,0.014115399918332695,-0.05156761708669364
1772797047479796500,2.38679638671875,-0.022167992666363715,0.0025720789777114988,-0.05590842276997864
1772797047489822500,2.396822509765625,0.02121229937672615,-0.011807049910724163,-0.06680047672763466
1772797047499848400,2.406848388671875,0.07003565925657748,0.023012078807689247,-0.05814787225984037
1772797047509873400,2.416873291015625,0.14954758738875387,0.03442161730080843,-0.06859926977790892
1772797047519899400,2.4268994140625,0.22126491612195967,0.02210968660786748,-0.08754187065698206
1772797047529924400,2.43692431640625,0.23447160369753836,0.025998181946389375,-0.07578845062963664
1772797047539950300,2.446950439453125,0.21081308021247386,0.011939663314446807,-0.03003025047406554
1772797047549975300,2.456975341796875,0.1262806935697794,-0.01720152936540544,0.005807590300217271
1772797047560001300,2.467001220703125,0.004805354455113411,-0.03169938926268369,0.08626856278553605
1772797047570027500,2.477027587890625,-0.11410451808571814,-0.05388371200934052,0.13925233028046785
1772797047580052500,2.487052490234375,-0.20711364117264747,-0.029499577663466333,0.10851926529929042
1772797047590078700,2.49707861328125,-0.19122049099206923,0.03619052666947246,0.03529021682888269
1772797047600103400,2.507103515625,-0.1358867263048887,0.07010152756702155,-0.022757629122585058
1772797047610129700,2.517129638671875,-0.04481412423849106,0.0475944026067853,-0.030133783913776278
1772797047620155600,2.52715576171875,0.07167816576659679,0.018852621040679512,0.002333046057447791
1772797047630180600,2.5371806640625,0.1541436830073595,0.00009903992768377065,0.014699629547074437
1772797047640206600,2.54720654296875,0.18578560646176337,-0.020125563585944473,-0.0016384879220277071
1772797047650231600,2.5572314453125,0.24001053312420845,-0.026147015832550823,-0.03403831707164645
1772797047660257500,2.567257568359375,0.28392566269636155,-0.06398191217556595,-0.038600948812067506
1772797047670283500,2.577283447265625,0.28235154524743555,-0.10808394262194633,-0.03535853282473981
1772797047680308500,2.58730859375,0.2441203065305948,-0.11505522467298432,-0.05683971227072179
1772797047690334500,2.59733447265625,0.1382704065710306,-0.08839434103416278,-0.08470562431775033
1772797047700359700,2.607359619140625,-0.012310615518689155,-0.025159667029324918,-0.10700739943161607
1772797047710385700,2.6173857421875,-0.15557517711520194,0.0408081217338331,-0.11335114243514835
1772797047720411600,2.62741162109375,-0.24281974532604217,0.06364168390315025,-0.1093164800915867
1772797047730436600,2.6374365234375,-0.2828951506048441,0.035162297866586596,-0.08599895206391811
1772797047740462600,2.647462646484375,-0.3007324205905199,0.013148107522446661,-0.020764336413517593
1772797047750487600,2.657487548828125,-0.26306758358478544,-0.011142302391678094,0.04127915504537522
1772797047760513500,2.667513427734375,-0.17135960622429847,-0.018319299615267664,0.07123560963086784
1772797047770539500,2.67753955078125,-0.08510989426970482,0.0038451493871398267,0.09649411565847694
1772797047780564500,2.687564453125,0.06311024390757083,0.032823589253332466,0.09526545064635575
1772797047790590500,2.697590576171875,0.22347031721174715,0.02865866985991597,0.07951638511158525
1772797047800615400,2.707615478515625,0.31048516831994055,0.01659285941515118,0.08581848093047738
1772797047810641400,2.717641357421875,0.32189562012851236,-0.006460282055288553,0.10605338664241135
1772797047820667400,2.72766748046875,0.2625713245004415,-0.030775223622471093,0.09688669517263769
1772797047830692600,2.737692626953125,0.1679378150820732,-0.02283474947940558,0.09666633042022585
1772797047840718600,2.747718505859375,0.15682430039346218,-0.02191695878105238,0.0864147663231939
1772797047850743600,2.75774365234375,0.15212065274715422,-0.030776246535778044,0.05345233485475182
1772797047860769500,2.76776953125,0.06843056214749813,-0.017926628769561647,-0.009839476164802909
1772797047870795500,2.77779541015625,-0.035090018081665036,0.01180041924053803,-0.04256064622327685
1772797047880820500,2.787820556640625,-0.05739361982643604,0.03144619995290413,-0.08138846259377897
1772797047890846500,2.797846435546875,-0.06547814208269119,-0.0016072890661656856,-0.12006620296910404
1772797047900871400,2.807871337890625,-0.10176116934120655,0.0022433767463080584,-0.14367672259397804
1772797047910897400,2.8178974609375,-0.08303951773643493,0.02762863269243389,-0.1426362005650997
1772797047920923400,2.82792333984375,-0.048529345369338985,0.013572269484959543,-0.14080357831045984
1772797047930948600,2.837948486328125,-0.07476970204114913,0.01527974925627932,-0.10656761977486312
1772797047940974600,2.847974609375,-0.12087620417773723,0.0571806711954996,-0.06242021581679582
1772797047950999600,2.85799951171875,-0.11065291632711886,0.06747457659691572,-0.009964490783959626
1772797047961025500,2.868025634765625,-0.05622106891572475,0.004012669707462191,0.032220892386138435
1772797047971051500,2.878051513671875,0.03863280525505543,-0.011794555755332111,0.06225523451343178
1772797047981076500,2.888076416015625,0.0911404066056013,0.0011067556655034421,0.05593370334170759
1772797047991102500,2.8981025390625,0.10893968266844749,-0.0010186024580150842,0.054935193823650474
1772797048001127400,2.90812744140625,0.13676876983642577,0.024104002230241894,0.04528393370732665
1772797048011153400,2.9181533203125,0.2069201644271612,0.029124899132177234,0.03811426127366722
1772797048021179400,2.928179443359375,0.2469844637900591,0.03603752806484699,0.020993395929038525
1772797048031204400,2.938204345703125,0.26014322057068345,0.028403233794122934,0.03836977040469646
1772797048041230300,2.948230224609375,0.25099486847519875,0.01201638181246817,0.05500416740663349
1772797048051255600,2.958255615234375,0.13938041363954543,0.004555873206071555,0.04715615731999278
1772797048061281500,2.968281494140625,0.01872574325799942,0.00397931542713195,0.053836365736275905
1772797048071307800,2.978307861328125,-0.06209434486329555,0.004421323573589325,0.027051380793750284
1772797048081332700,2.988332763671875,-0.08281506133079529,0.00025024843402206894,-0.016746990530937908
1772797048091358700,2.998358642578125,-0.06457973193824292,-0.009708981652930378,-0.03512655069977045
1772797048101383700,3.0083837890625,-0.06337678588926791,-0.041218437834084035,-0.03442307860553264
1772797048111409700,3.01840966796875,-0.04303425508439541,-0.029992621877416966,-0.028984029356762767
1772797048121435600,3.028435546875,0.027938977283239363,-0.016202691053785384,-0.050275458384305236
1772797048131460600,3.038460693359375,0.06070142920017242,0.0002341740820556879,-0.06731836312189698
1772797048141486600,3.048486572265625,0.02822831561863422,0.0015871595935896038,-0.06578085135631263
1772797048151511600,3.058511474609375,-0.012774141377210616,0.02352664073370397,-0.05426708530373871
1772797048161537500,3.06853759765625,-0.06850421190559863,0.035852198093198236,-0.050476387783884996
1772797048171563500,3.0785634765625,-0.12752514067292212,0.0477071787988767,-0.037089740531519054
1772797048181588700,3.088588623046875,-0.06681786625385285,0.05410491701196879,-0.001768105651065707
1772797048191614700,3.09861474609375,0.10527999111711979,0.021786007611453533,-0.023645371742546557
1772797048201639700,3.1086396484375,0.19710896450877188,0.009389905766397715,-0.04466105256862938
1772797048211665700,3.118665771484375,0.1742763704538345,0.021391564933769404,-0.026239114562794565
1772797048221691600,3.128691650390625,0.11657879924476146,0.03900171163268387,0.006115925597026944
1772797048231716600,3.138716552734375,0.07432838801443577,-0.004402582340501248,0.04268083853684365
1772797048241742600,3.14874267578125,0.07634323496818542,-0.03895345204416662,0.0751191730659455
1772797048251767600,3.158767578125,0.05166939696073532,-0.038849334082566196,0.09094371498972177
1772797048261793500,3.16879345703125,0.0037391865283250805,-0.007193930092081427,0.062364540106803174
1772797048271818800,3.17881884765625,-0.05121931510567665,0.028781419456750154,0.03437127535305917
1772797048281844700,3.1888447265625,-0.09325871393382548,0.0670802069844678,0.022214389091357586
1772797048291870700,3.19887060546875,-0.1244715983211994,0.09128113025054335,0.03454275946244597
1772797048301895700,3.208895751953125,-0.07652852840721606,0.05504932172261178,0.061631111265718935
1772797048311921700,3.218921630859375,0.060334933975338935,0.009161211577057838,0.017203063735365866
1772797048321946600,3.228946533203125,0.1949041479408741,-0.009837613001279532,-0.025244185241311785
1772797048331972600,3.23897265625,0.23053251068294048,-0.03241962982863188,-0.03441716032139957
1772797048341998600,3.24899853515625,0.23432898035645483,-0.05659158272854983,-0.020827537842839954
1772797048352023600,3.2590234375,0.22986732477247715,-0.08558043439090252,-0.019934607591107486
1772797048362049500,3.269049560546875,0.18144377786517144,-0.05460018971562385,-0.05768040087856352
1772797048372074500,3.279074462890625,0.10549451065063475,0.001297967388667166,-0.11903072244152427
1772797048382100500,3.2891005859375,0.014859715479612349,0.04300126613024622,-0.14422281216941774
1772797048392126500,3.29912646484375,-0.048799394482374185,0.04991148391012102,-0.1654845036458224
1772797048402151700,3.309151611328125,-0.16221943743526934,0.08246098719611764,-0.1549828372452408
1772797048412177700,3.319177734375,-0.2645686357975006,0.11370203823205083,-0.07827223026938736
1772797048422202600,3.32920263671875,-0.27353344801962376,0.09764880211893469,-0.0069696198169142
1772797048432228600,3.339228515625,-0.21261399215459822,0.05130144043117761,0.056051119176298375
1772797048442254600,3.349254638671875,-0.12428279775083065,0.013218743339553475,0.12404204779751599
1772797048452279600,3.359279541015625,0.038887656798958774,-0.017652268807590007,0.18159597275219858
1772797048462305500,3.369305419921875,0.17490005531013011,-0.038190541380271316,0.1610324196077883
1772797048472330500,3.37933056640625,0.22814473876357078,-0.03853354613166302,0.12877689429968595
1772797048482356500,3.3893564453125,0.21337913130819797,0.0010676292315125464,0.12407222374007106
1772797048492382500,3.399382568359375,0.22804186291098594,0.015755787536501885,0.09253346839919686
1772797048502407400,3.409407470703125,0.2609440155595541,0.0009034516457468271,0.052013680353760715
1772797048512433400,3.419433349609375,0.2520774030148983,0.0028999226925894616,0.00901661547459662
1772797048522458600,3.429458740234375,0.16441548617482185,0.007513225174322724,-0.023526348472759126
1772797048532484600,3.439484619140625,0.03834054431021213,0.02284055816568434,-0.05528692987076938
1772797048542509600,3.449509521484375,0.002681201907992363,0.02154781494140625,-0.08264014315530657
1772797048552535600,3.45953564453125,-0.01637245813012123,-0.000624159780330956,-0.11953370352759957
1772797048562561500,3.4695615234375,-0.054796004548668856,0.01505859905257821,-0.1422379219625145
1772797048572586500,3.47958642578125,-0.08143558967113494,0.03617383126299828,-0.14061368176154793
1772797048582612500,3.489612548828125,-0.10409984142184257,0.021580584699846802,-0.12145371180474758
1772797048592637400,3.499637451171875,-0.09987141007184981,0.012293847046978772,-0.08936134116910398
1772797048602663400,3.509663330078125,-0.06349252122342586,-0.017248144986107945,-0.04209638971239328
1772797048612689400,3.519689453125,-0.003376782956719398,-0.034602599890902634,0.0033433190785348414
1772797048622714600,3.529714599609375,0.04875438629686832,-0.043860476775467394,0.03064166037067771
1772797048632740600,3.53974072265625,-0.003828618377447128,-0.02684139130488038,0.03232756763100624
1772797048642765600,3.549765625,-0.08877776912748814,0.002967508036084473,0.05143463835678994
1772797048652791600,3.55979150390625,-0.056501639422774315,0.029853615265525876,0.05386449585221707
1772797048662817500,3.569817626953125,0.010489245310425757,0.03219491769466549,0.028109657675027846
1772797048672842500,3.579842529296875,0.10997487093508243,0.042981027059815824,0.02019939600713551
1772797048682868500,3.589868408203125,0.1993956141412258,0.04648702588677406,-0.004500087898224592
1772797048692893400,3.5998935546875,0.24781390035152434,0.03598506722524762,-0.027634952835366128
1772797048702919400,3.60991943359375,0.24234569807350634,0.028149660891853272,-0.023034473302587864
1772797048712945400,3.6199453125,0.21772446703612802,0.007438479437679052,-0.0017236819874495268
1772797048722970400,3.629970458984375,0.1377571963518858,-0.01766936607286334,0.014683335999399423
1772797048732996400,3.639996337890625,0.018632219755649566,-0.029149631714634597,0.04867489131987095
1772797048743021600,3.650021484375,-0.05574585261940956,-0.016577186921983955,0.05322393292635679
1772797048753047600,3.660047607421875,-0.08043255010843277,-0.028362098066136238,0.04590820308551192
1772797048763073800,3.67007373046875,-0.08859364473223685,-0.03906582637745887,0.021954934437572956
1772797048773098500,3.680098388671875,-0.05993629004657268,-0.018554368746466935,-0.009558101940155028
1772797048783124700,3.690124755859375,0.0067120648592710495,0.007711451160162687,-0.044335254680365324
1772797048793149400,3.7001494140625,0.09944996978938579,0.006059994158707558,-0.06779818252809346
1772797048803175400,3.710175537109375,0.1166951191008091,-0.0004210018910467624,-0.08062843800671399
1772797048813201700,3.72020166015625,0.08272796756923198,0.013945925102941691,-0.0660972968943417
1772797048823226400,3.730226318359375,0.02723112127482891,0.02098082870841026,-0.030534108342975375
1772797048833252600,3.740252685546875,-0.03619710254073143,-0.0119510980239138,-0.008682415084168314
1772797048843277600,3.750277587890625,-0.11687164471149444,-0.007154146070964634,-0.00647686786390841
1772797048853303600,3.760303466796875,-0.11302549067735672,0.020960991496779022,-0.0011043079800903796
1772797048863329500,3.77032958984375,0.0024596681118011473,0.01737213669195771,-0.02975771714299917
1772797048873354800,3.780354736328125,0.137215929082036,-0.0011570610806345939,-0.05148870663158595
1772797048883380700,3.790380615234375,0.2208843923717737,0.006295008490979671,-0.06639218818768859
1772797048893405700,3.80040576171875,0.22897885150015354,0.04032488652784377,-0.03217325385212898
1772797048903431700,3.810431640625,0.18123334998488425,0.049817266288027164,0.0074416943080723285
1772797048913456600,3.82045654296875,0.08014613438248634,0.00023472207132726908,0.034031375874206425
1772797048923482600,3.830482666015625,-0.08182897290289401,-0.0017520678317174314,0.05629756821803748
1772797048933508600,3.840508544921875,-0.16656711125075815,0.04378094526585191,0.06395078638494014
1772797048943533600,3.850533447265625,-0.13213994099199772,0.06188778944052756,0.016459186565503478
1772797048953559600,3.8605595703125,-0.07694704608023166,-0.004699994384497403,0.01802007920667529
1772797048963584800,3.870584716796875,0.031301147192716594,-0.02898114327993244,0.0702969405412674
1772797048973610800,3.88061083984375,0.1437912158191204,-0.04049308270160108,0.09488763030990957
1772797048983636700,3.89063671875,0.19928630854785442,-0.026252668164111672,0.0575243335340172
1772797048993661700,3.90066162109375,0.2653349439948797,-0.007658734592236578,-0.016889760002493856
1772797049003687700,3.910687744140625,0.3126438076585531,-0.03410239528380334,-0.052762964351102705
1772797049013712600,3.920712646484375,0.2537158178716898,-0.08958809912968427,-0.044013256184384224
1772797049023738600,3.930738525390625,0.15908932271599768,-0.08784563937652856,-0.035387320527806874
1772797049033764600,3.9407646484375,0.07544833195507526,-0.060288354887254536,-0.05044854992888868
1772797049043789600,3.95078955078125,-0.06051613576114177,-0.023140746688656507,-0.07498465996608138
1772797049053815600,3.960815673828125,-0.1627308940887451,0.032304113690182566,-0.09947466583922505
1772797049063840800,3.9708408203125,-0.1994651722460985,0.08558280901107937,-0.11651618233732879
1772797049073866800,3.98086669921875,-0.1605044502109289,0.07625712758731097,-0.12759805977866054
1772797049083892000,3.99089208984375,-0.1741810933858156,0.028971206407807766,-0.10075886043086647
1772797049093918000,4.00091796875,-0.1993780784845352,0.01983801534883678,-0.006685688308998942
1772797049103944000,4.01094384765625,-0.17988427346348762,0.020515695414692163,0.07233882163241505
1772797049113969000,4.020968994140625,-0.09748714528381824,-0.03128763012401759,0.15426562888659537
1772797049123995000,4.030994873046875,0.02909106992781162,-0.05977941898442805,0.20676636210493743
1772797049134019800,4.041019775390625,0.13551964655816554,-0.05408248598445207,0.21042415396012365
1772797049144045800,4.0510458984375,0.23618483735620974,-0.035918797056004405,0.17837898346707223
1772797049154072000,4.061072021484375,0.2968406738489866,-0.02427654578555375,0.1292133860208094
1772797049164096800,4.0710966796875,0.30424247453808784,-0.006812383428588509,0.09815298878140746
1772797049174123000,4.081123046875,0.23323826251029967,0.012050722473487258,0.0580219077926129
1772797049184147700,4.091147705078125,0.1366717392027378,0.01429999923761934,0.024194456992670893
1772797049194174000,4.101174072265625,0.05299801521599293,0.009542064120806753,-0.02310417753793299
1772797049204200000,4.111199951171875,0.04865852470695972,0.0229294054929167,-0.0538808624651283
1772797049214225200,4.12122509765625,0.07795242373049259,0.008991115707159042,-0.07607881187833845
1772797049224251100,4.131251220703125,0.11284662697911262,-0.01338127695750445,-0.10215915568284689
1772797049234276000,4.141276123046875,0.08124269744753837,-0.03978102544210851,-0.09569770458377898
1772797049244302000,4.151302001953125,-0.011880407407879828,-0.056376113346964116,-0.0850862211331725
1772797049254328000,4.161328125,-0.15390402903258799,-0.0376389353794977,-0.06527180585563182
1772797049264353000,4.17135302734375,-0.19265899936258793,-0.035933738896809515,-0.04735971706807613
1772797049274379000,4.18137890625,-0.15923603771030903,-0.04324811703078448,-0.017394640784710643
1772797049284404000,4.191404052734375,-0.0565980855345726,-0.06017568829301744,0.006221066471934318
1772797049294430000,4.201429931640625,0.03880640825629234,-0.06221585235111415,0.016728066634759307
1772797049304455200,4.211455078125,0.06749766521155834,-0.03876256911456585,0.02569638598822057
1772797049314481000,4.22148095703125,0.12146949389576911,-0.014810286847315729,0.008104761326685547
1772797049324507000,4.2315068359375,0.1187380231052637,-0.01854348202627152,-0.021051263596117496
1772797049334532000,4.241531982421875,0.10902911451756954,0.0014761004345491527,-0.01614975529015064
1772797049344558000,4.25155810546875,0.109169984292984,0.02831749173942953,-0.04314268389493227
1772797049354583000,4.2615830078125,0.10125088173151016,0.03300605141445994,-0.05322429825253784
1772797049364609000,4.271609130859375,0.11031856980621814,0.014778649600036442,-0.030026378016546368
1772797049374635000,4.281635009765625,0.14496493577361105,-0.01937949445899576,-0.024422128268703817
1772797049384660000,4.291659912109375,0.10599544591009616,-0.04014043333902955,-0.015313596726953982
1772797049394686000,4.30168603515625,-0.004106266275048256,-0.057844980323128396,0.0024608371555805207
1772797049404711000,4.3117109375,-0.012525719574093819,-0.0359228521766141,0.019957915401458737
1772797049414737000,4.32173681640625,0.06468436135649681,-0.05116689079869538,-0.006062003452703356
1772797049424763000,4.331762939453125,0.057961190581321716,-0.034100678250752386,-0.04960471951588988
1772797049434788000,4.3417880859375,-0.021601590955257415,0.0037241716222837567,-0.07239793140850961
1772797049444814000,4.35181396484375,-0.11255027438104152,0.000099514851719141,-0.06867978766821324
1772797049454839000,4.361839111328125,-0.18829612797796724,-0.02142448082268238,-0.053626522377878426
1772797049464865000,4.371864990234375,-0.16957681446075437,-0.03862429315503686,-0.037612083905190226
1772797049474890000,4.381889892578125,-0.03187222507894039,-0.028732502281107006,-0.0744764181829989
1772797049484916000,4.391916015625,0.10953589499592781,0.009320786052942275,-0.13227196987383066
1772797049494942000,4.40194189453125,0.20002514421641826,0.05257098544295877,-0.15342048329934477
1772797049504967000,4.411966796875,0.22229425916969775,0.055787572869285935,-0.11106113180182874
1772797049514993000,4.421992919921875,0.15724047997891902,0.028861572020873427,-0.03408807449750602
1772797049525017900,4.432017822265625,0.10403612853586673,-0.007310396078601479,0.03002776625603437
1772797049535043800,4.4420439453125,0.03988075948953628,-0.027964111724495887,0.06814297737777232
1772797049545069800,4.45206982421875,-0.023882395368814466,-0.006598229221254586,0.07642243768423795
1772797049555095000,4.462094970703125,-0.04443009335696697,0.015949666140787303,0.04750650512762367
1772797049565121000,4.47212109375,-0.07707856350541115,0.028370062176883218,0.024424320225790143
1772797049575146000,4.48214599609375,-0.04592646939456463,0.034203371440246697,0.04396634830273687
1772797049585172000,4.492171875,0.033923312389850614,0.025808212332241235,0.057612596339359876
1772797049595198000,4.502197998046875,0.14462182142436503,0.011883987604454159,0.04132525920942425
1772797049605223000,4.512222900390625,0.2319996606260538,-0.005392981617338955,0.01448328338265419
1772797049615249000,4.522248779296875,0.2702034268140793,-0.041471572344936425,-0.010792392975464462
1772797049625273900,4.53227392578125,0.19135551554858685,-0.06450060228742659,-0.02037277981266379
1772797049635299800,4.5422998046875,0.06630640960037708,-0.08149053472876548,-0.0007026683766394853
1772797049645325000,4.552324951171875,-0.018406594306230543,-0.08265334969675169,0.004664630810171365
1772797049655351000,4.56235107421875,-0.04220014234781265,-0.061545478808879846,-0.023271569994091985
1772797049665377000,4.572376953125,-0.03523614855408668,-0.027711287740897386,-0.06679448537826538
1772797049675402000,4.582402099609375,-0.058448681837320327,0.02147639367301017,-0.11253281178958713
1772797049685428000,4.592427978515625,-0.07564823844134808,0.057591845812276,-0.12390439289249479
1772797049695453000,4.602452880859375,-0.14045476487278938,0.053868112581409514,-0.09195369574986398
1772797049705479000,4.61247900390625,-0.22983283798098564,0.0347741753318347,-0.016725290155783296
1772797049715505000,4.6225048828125,-0.23087796311974523,0.002754194078966975,0.06693301706612109
1772797049725529900,4.63252978515625,-0.1462134745299816,-0.0012807239929214119,0.11664696911014616
1772797049735555800,4.642555908203125,0.027062778970599173,-0.002428213527612388,0.1424530990831554
1772797049745580800,4.652580810546875,0.20724632764160633,0.010801745325699448,0.11322890429496764
1772797049755606800,4.662606689453125,0.308179229465127,0.012409984239935874,0.11822196334190666
1772797049765632800,4.6726328125,0.31281741065979,0.023798589542880652,0.10559928619936108
1772797049775658000,4.682657958984375,0.2783224358618259,0.037152832362987095,0.0902567556388676
1772797049785684000,4.69268408203125,0.23924597849249837,0.028949725228361783,0.08244082119092344
1772797049795709000,4.702708984375,0.2024012256979942,-0.002220160267502069,0.07382182673178612
1772797049805735000,4.71273486328125,0.15991992832124233,-0.031026714165508746,0.06781710642427205
1772797049815760000,4.722759765625,0.10898644441962241,-0.040780338677763935,0.050333252986148
1772797049825785900,4.732785888671875,0.023305472263693807,-0.052452601493988185,0.00862790841795504
1772797049835811800,4.742811767578125,-0.04980769474208355,-0.05826243855021894,0.0024373101495206353
1772797049845836800,4.7528369140625,-0.09373393023014068,-0.04794233926162123,-0.01196048690676689
1772797049855862800,4.76286279296875,-0.11840075397491455,-0.04561212448207661,-0.04227101562693715
1772797049865888000,4.772887939453125,-0.12519406737685204,-0.010746179213561117,-0.08496244862303137
1772797049875914000,4.7829140625,-0.07324819156229495,0.03657654857868328,-0.08586626559495926
1772797049885939700,4.792939697265625,0.014881342789530754,-0.0018962803416885435,-0.07622852254733443
1772797049895965000,4.80296484375,0.017899813827872275,-0.0033436661384068428,-0.07460099441073835
1772797049905991000,4.812990966796875,-0.05997136135995388,0.025702139875572173,-0.042152430748566984
1772797049916015900,4.823015869140625,-0.13247428751289844,0.04801664660684764,-0.0001853665042668581
1772797049926041900,4.833041748046875,-0.08366495615839958,0.05921522749671712,0.005757175287231802
1772797049936066800,4.84306689453125,0.01965630210638046,0.0507160417586565,-0.009394362745806574
1772797049946092800,4.8530927734375,0.2060316911548376,0.06808410506369546,-0.011715206908807159
1772797049956119000,4.863119140625,0.3162123137950897,0.06332193216318265,0.006516103895753622
1772797049966143700,4.873143798828125,0.2180091291964054,0.05366625160006806,0.06273980315998197
1772797049976169700,4.883169677734375,0.06801438256204127,0.013793547552824019,0.14146065397970378
1772797049986195000,4.89319482421875,0.03502572067379951,-0.008513488258048891,0.12689217653162777
1772797049996221000,4.903220947265625,0.04350128807425499,-0.0018131503691896796,0.09834529648311435
1772797050006247200,4.9132470703125,0.012826163825392723,-0.027970322269573807,0.05508278560079634
1772797050016272000,4.92327197265625,-0.05598316850662231,-0.0341824382500723,0.017818857546150684
1772797050026298000,4.933298095703125,-0.08677110548019408,-0.015209405700117348,0.009625833414122462
1772797050036322800,4.94332275390625,-0.05570318252146244,-0.0019854016635566948,-0.028621041263267397
1772797050046349000,4.95334912109375,0.04028700220286846,0.006271773745864629,-0.07620981784686445
1772797050056373800,4.963373779296875,0.1813537614941597,0.005921115410979837,-0.12601860856749117
1772797050066399500,4.9733994140625,0.25572540412843225,0.003869589708652347,-0.16364947023838758
1772797050076425500,4.983425537109375,0.20711597926020622,0.00595293532134965,-0.18533771656379103
1772797050086450700,4.99345068359375,-0.0000672200173139572,0.016607435929775236,-0.16069098575897514
1772797050096476700,5.0034765625,-0.2185457202911377,0.04297320907954126,-0.10312895056307315
1772797050106501600,5.013501708984375,-0.2729810748338699,0.05659468800108879,-0.030134733761847016
1772797050116527600,5.023527587890625,-0.1535112303227186,0.03241546511016786,0.00481682569719851
1772797050126553600,5.0335537109375,0.015528408521413802,0.016096929124370215,0.01686418716982007
1772797050136578600,5.04357861328125,0.1270341422855854,0.04964651283100247,0.000915069018304348
1772797050146604500,5.0536044921875,0.12864917626678943,0.08532070574248209,0.003291808087006211
1772797050156629500,5.06362939453125,0.0886135184764862,0.07723238409394398,0.051309550672397015
1772797050166655500,5.073655517578125,0.11289572681784629,0.03523311634678394,0.13170863690264523
1772797050176680400,5.083680419921875,0.19902385821938515,0.012584226561989634,0.14295461886450647
1772797050186706400,5.09370654296875,0.25414719502627847,0.004954718064237386,0.10223602031134069
1772797050196732400,5.103732421875,0.23711890333592892,0.006840951935946941,0.04974032859429717
1772797050206757600,5.113757568359375,0.1629787313699722,-0.020406188891921192,0.02827690400071442
1772797050216783600,5.12378369140625,0.09674772509336471,-0.04510022943718359,0.03774192082993686
1772797050226808600,5.13380859375,0.05859831944108009,-0.09565846855193376,0.010148176787793636
1772797050236834600,5.14383447265625,-0.01932955437004566,-0.12001671953788026,-0.026020284180343148
1772797050246860500,5.153860595703125,-0.07245616440176963,-0.06306775647271425,-0.06476845944337546
1772797050256885500,5.163885498046875,-0.12328443436324596,0.0019834654347971083,-0.10847038465626538
1772797050266911500,5.173911376953125,-0.14052490749955177,0.05399656126666814,-0.14546185244508086
1772797050276936400,5.1839365234375,-0.14136603449881077,0.08854379597483203,-0.14550174606405197
1772797050286962400,5.19396240234375,-0.15872925723195075,0.0858321441296488,-0.10369381790421903
1772797050296987600,5.203987548828125,-0.1554331382960081,0.05601475095497444,-0.024659882547333836
1772797050307013600,5.214013671875,-0.12348258728384971,0.026421668055467307,0.07381320503391325
1772797050317039600,5.22403955078125,-0.03977729911506176,-0.027355058181751518,0.13915792999528348
1772797050327064600,5.234064697265625,0.025525486400723454,-0.03965407459419221,0.16388839356079696
1772797050337090600,5.244090576171875,0.10230009852349757,-0.021945691685192285,0.1652799940496683
1772797050347115500,5.254115478515625,0.18274609263539313,-0.024144918762519955,0.1362523447468877
1772797050357141500,5.2641416015625,0.22689503096342087,0.008658614083472639,0.09968721261136233
1772797050367167700,5.274167724609375,0.30397885516583917,0.036091724203806366,0.07252893737703561
1772797050377192400,5.2841923828125,0.38602293212413785,0.003152253485843539,0.05174859967678785
1772797050387218700,5.29421875,0.29940029520392414,-0.04710576057331636,0.03579159047976136
1772797050397243400,5.304243408203125,0.0672732088059187,-0.019078648348897696,0.014115107657387852
1772797050407269600,5.31426953125,-0.0470125110656023,0.03903517551086843,-0.017587606073543427
1772797050417294600,5.324294677734375,-0.029662147814035415,0.003743442578334361,-0.07750475302822887
1772797050427320800,5.33432080078125,-0.025559973192214966,-0.006379197909403592,-0.11750650854893029
1772797050437346800,5.344346923828125,-0.03336801659464836,0.019225235479045658,-0.09985687008984387
1772797050447371800,5.354371826171875,-0.020768647262454032,-0.0190263519060798,-0.0579050764799118
1772797050457397800,5.364397705078125,-0.06101824006438255,-0.06992799763102084,-0.03531776242293417
1772797050467422700,5.374422607421875,-0.18177929342985152,-0.06173435244448482,-0.014736965882778168
1772797050477448700,5.38444873046875,-0.23349662118554113,0.023538824361842126,-0.012935980875417589
1772797050487473700,5.3944736328125,-0.15197686036229133,0.0679882252074778,-0.03814429108574986
1772797050497499600,5.404499755859375,-0.019003391155600548,0.04292747024167329,-0.043027240821719166
1772797050507525600,5.414525634765625,0.11601122848987579,0.028850648768059907,-0.029241365118697283
1772797050517550600,5.424550537109375,0.19504034154117106,0.022435283566731957,0.011104381534084677
1772797050527576600,5.43457666015625,0.20947452508509157,0.0035235527499578893,0.06414104826003313
1772797050537601800,5.444601806640625,0.1888601916015148,-0.010477591405250132,0.0923575273104012
1772797050547627800,5.454627685546875,0.19453414558470247,0.0013699001137167214,0.09077128103226423
1772797050557653800,5.46465380859375,0.22701368890702722,-0.004645049326866865,0.07714826774075627
1772797050567678700,5.4746787109375,0.2203752738058567,-0.014966007131990044,0.04948576931133866
1772797050577704700,5.48470458984375,0.15326456208527087,-0.007985537127498537,0.015533303892239928
1772797050587729700,5.494729736328125,0.010310966134071349,-0.004812496581953018,0.021542261983454228
1772797050597755600,5.504755615234375,-0.07828910833895206,-0.02591044886400923,0.026029417334869503
1772797050607780600,5.514780517578125,-0.09910802448391914,-0.021001086045149713,-0.009309826267510653
1772797050617806600,5.524806640625,-0.07879530429542064,-0.015191669114027171,-0.03210376881249249
1772797050627832600,5.53483251953125,-0.05056523511111736,-0.017689513811748474,-0.03980542923100292
1772797050637857800,5.54485791015625,0.019154197803139685,-0.02722849092632532,-0.07203370120599865
1772797050647883800,5.5548837890625,0.0434615405857563,-0.011343304856494069,-0.102613548386842
1772797050657908700,5.56490869140625,0.00936287162899971,0.016866050333343444,-0.1327461632568389
1772797050667934700,5.574934814453125,-0.049472179177403444,0.044472982650622724,-0.1459115689739585
1772797050677960700,5.584960693359375,-0.08204524600207805,0.04697340289792046,-0.11072130538821219
1772797050687985700,5.594985595703125,-0.07628127564787865,0.03091556367492303,-0.050748482723534105
1772797050698011600,5.60501171875,-0.054609542065858836,-0.0014092092107981442,-0.006703735422343015
1772797050708036600,5.61503662109375,0.020925299128890035,0.006613116263132542,0.03765387722030282
1772797050718062600,5.6250625,0.11690905411243438,0.0014050810249522329,0.03703289577774703
1772797050728087600,5.635087646484375,0.11286766976714134,0.014943557838164269,0.0040767479196190835
1772797050738113500,5.645113525390625,0.00047112464308738706,0.045044005737919356,0.02688764159940183
1772797050748139500,5.655139404296875,-0.03507949668765068,0.04911025052983314,0.09653605510406195
1772797050758164700,5.665164794921875,0.12937632149755954,-0.01119222421431914,0.12527458526715635
1772797050768190700,5.675190673828125,0.30889877591133114,-0.041564767053723334,0.09187222801148891
1772797050778215700,5.685215576171875,0.3800046947479248,-0.04037066189832985,0.041285292525216934
1772797050788241700,5.69524169921875,0.34564942068159576,-0.047108390921819954,-0.004667626484856009
1772797050798266600,5.7052666015625,0.19830489629507064,-0.08011844265796243,-0.033894013230130075
1772797050808292600,5.715292724609375,0.01855798547565937,-0.07244750617127865,-0.03799947578758001
1772797050818318600,5.725318603515625,-0.07142448326647281,-0.05497488651322201,-0.07927541596256196
1772797050828343600,5.735343505859375,-0.10481880334615706,-0.04388840596200898,-0.1302132107131183
1772797050838369500,5.74536962890625,-0.14438158292770384,-0.02506440822761506,-0.1711344191662967
1772797050848394800,5.755394775390625,-0.20451602589488027,0.02927157759387046,-0.16815679159499705
1772797050858420700,5.765420654296875,-0.2174731226235628,0.07146024869959801,-0.12595489568151533
1772797050868446500,5.775446533203125,-0.20671032106876372,0.03714959922628477,-0.057911067829281085
1772797050878471700,5.7854716796875,-0.15332593688368795,0.016760544132255018,0.00037606677077710624
1772797050888497700,5.79549755859375,-0.07101239533424376,0.016987521288543937,0.06783076962344348
1772797050898522600,5.805522705078125,0.023305472263693807,-0.011381718904431909,0.115013522689417
1772797050908548600,5.815548583984375,0.09639701195955276,-0.03942678691064939,0.15100136639364062
1772797050918573600,5.825573486328125,0.1409901869237423,-0.03066880410593003,0.16640307979546487
1772797050928599600,5.835599609375,0.17894494678676126,-0.03223941442351788,0.17201843545921147
1772797050938625500,5.84562548828125,0.2234118650227785,-0.01500431158207357,0.15960355584844946
1772797050948650500,5.855650390625,0.27617431791722774,-0.009193999601807445,0.12834076790474355
1772797050958676500,5.865676513671875,0.3440694580137729,-0.020209497276041655,0.08255677572079002
1772797050968701700,5.87570166015625,0.32752456592619417,-0.034699009470082816,0.016228738810494543
1772797050978727700,5.885727783203125,0.21377660619318484,-0.028494455741532147,-0.05368723958916962
1772797050988753700,5.895753662109375,0.04938391637206077,-0.0006313932387158274,-0.1005490901377052
1772797050998778600,5.905778564453125,-0.10829612406790255,-0.010299805419240146,-0.1272292264662683
1772797051008804600,5.9158046875,-0.18927286405563354,0.005115406784974038,-0.13428148306533694
1772797051018829600,5.92582958984375,-0.21591128013432023,0.0063338974629528816,-0.11693879166357218
1772797051028855600,5.93585546875,-0.1813701281070709,-0.031218638274725524,-0.09513327563405036
1772797051038880500,5.945880615234375,-0.1300011753976345,-0.023899876226577906,-0.09698723293766379
1772797051048906500,5.955906494140625,-0.14856032991707324,-0.01927451798086986,-0.09479140339381992
1772797051058932500,5.965932373046875,-0.18609423401951788,0.0036370047954842446,-0.06761128165386616
1772797051068957400,5.97595751953125,-0.11734861457347869,0.01715787288676947,-0.039565994451940055
1772797051078983400,5.9859833984375,0.009577975684404372,0.006640588791947811,-0.020312427927553653
1772797051089008600,5.996008544921875,0.15534838262200354,0.022535803065448997,-0.004856646250933409
1772797051099034600,6.00603466796875,0.2655371885687113,0.025610826596617696,0.011438070467859506
1772797051109059600,6.0160595703125,0.28090719165802003,0.029218276504054664,0.04802117665149271
1772797051119085600,6.02608544921875,0.26072715793848034,0.02746902168393135,0.08198898577019571
1772797051129111600,6.036111572265625,0.1959533647328615,0.005027180512249469,0.11073862184919417
1772797051139136500,6.046136474609375,0.19258710317015645,-0.023895729774422943,0.12306392348036169
1772797051149162500,6.05616259765625,0.19426175838410853,-0.04390126544358208,0.10149228927195071
1772797051159187500,6.0661875,0.15089140321314334,-0.049678003947809336,0.07625986753366887
1772797051169213400,6.07621337890625,0.07188099486231804,-0.03588882204284891,0.052234702693298454
1772797051179238700,6.08623876953125,0.02666121243238449,-0.014273586154729127,0.02343713581934571
1772797051189264600,6.0962646484375,-0.014090484672784804,-0.008508300626277924,-0.01569865052178502
1772797051199290600,6.10629052734375,-0.035250177079439164,-0.007571385102346539,-0.049056657179072496
1772797051209315600,6.116315673828125,-0.08422434360682964,0.015288023894280195,-0.0585983925063163
1772797051219341600,6.126341552734375,-0.10273439828753471,0.01399944538846612,-0.061100146194174886
1772797051229366500,6.136366455078125,-0.0667979925096035,0.01641925641391426,-0.0975672978479415
1772797051239392500,6.146392578125,-0.02254676285088062,0.04152606074484065,-0.1383028475359082
1772797051249418500,6.15641845703125,0.019568623822927473,0.05967873508892953,-0.14307598022185264
1772797051259443500,6.166443359375,0.017711597779393195,0.038614027489349244,-0.09899857276007533
1772797051269469400,6.176469482421875,0.021286533656716344,0.00800588579578325,-0.01106390339322388
1772797051279494400,6.186494384765625,0.0855979700475931,-0.03206517210146412,0.0582426378712058
1772797051289520400,6.196520263671875,0.1319914724320173,-0.050147101030591876,0.0731499188195914
1772797051299545600,6.206545654296875,0.09254735079407692,-0.048169718276709315,0.06824833744838833
1772797051309571600,6.216571533203125,-0.07348083127439022,0.0000038176585920155045,0.06057385729774832
1772797051319597600,6.22659765625,-0.2411234628021717,0.0792936274726875,0.06149455233924091
1772797051329622500,6.23662255859375,-0.2410410452157259,0.07528121349355206,0.08401734979264437
1772797051339648500,6.2466484375,-0.011929507246613501,0.024130415313132106,0.08108319603689014
1772797051349673500,6.256673583984375,0.23864099833667277,-0.023639069865923373,0.049513753296807406
1772797051359699500,6.266699462890625,0.4015355585545301,-0.0726634687432088,-0.006803907861188054
1772797051369724400,6.276724365234375,0.39155134015679355,-0.07198759704194962,-0.029793738304451107
1772797051379750400,6.28675048828125,0.2803144864618778,-0.05482146778348833,-0.02899403929412365
1772797051389776400,6.2967763671875,0.20894845538437365,-0.0673563205121085,-0.05961721416004002
1772797051399801600,6.306801513671875,0.14402794718444348,-0.06753153094854206,-0.10237433280348777
1772797051409827600,6.31682763671875,0.037330490484833716,-0.030629805536102502,-0.14014146113991738
1772797051419852500,6.3268525390625,-0.11491115829348564,0.01593527228925377,-0.15257168445028363
1772797051429878500,6.33687841796875,-0.2221481286972761,0.04305959045505151,-0.16026925321556626
1772797051439903500,6.346903564453125,-0.2716144626557827,0.02518668290041387,-0.11732464917600154
1772797051449929500,6.356929443359375,-0.25123686053752897,0.016652791175153104,-0.03931465003937483
1772797051459955500,6.36695556640625,-0.1954044986784458,-0.004400536513887346,0.030915947267413136
1772797051469980400,6.37698046875,-0.09592647183835507,-0.017550781194493173,0.0698683398656547
1772797051480006400,6.38700634765625,0.029684359645843504,0.008451346274651586,0.0756375709168613
1772797051490031400,6.39703125,0.1048176343023777,0.02677106601502746,0.06654394468329847
1772797051500057300,6.407057373046875,0.13315291742682456,0.02911132726455107,0.09097001847475766
1772797051510082600,6.41708251953125,0.16019757621884345,0.0030369565431028604,0.12119067695438861
1772797051520108500,6.427108642578125,0.2025724906116724,-0.021003935589361936,0.1636761390496045
1772797051530134800,6.437134765625,0.23982757777273653,-0.0412449057159014,0.15336992215588688
1772797051540159500,6.447159423828125,0.19778467181324957,-0.048703423294611276,0.13074008413143456
1772797051550185700,6.457185791015625,0.13219605509340762,-0.038070111604686825,0.12218334125354885
1772797051560210400,6.46721044921875,0.10915946289896965,-0.033033103818167,0.06930946387387811
1772797051570236700,6.477236572265625,0.12355156086683272,-0.020507384244073182,-0.007040200835093855
1772797051580261400,6.487261474609375,0.1268470952808857,0.007578070571459829,-0.0783433958094567
1772797051590287600,6.49728759765625,0.1230126316845417,0.0035818405421450734,-0.11318309239186346
1772797051600313600,6.507313720703125,0.058030748686194414,-0.021450912171881643,-0.09767484987564384
1772797051610338600,6.517338623046875,-0.07981763308048248,-0.0066771396763622756,-0.06310710210241377
1772797051620364500,6.527364501953125,-0.20565584357976913,0.002283197300042957,-0.03577215512692928
1772797051630389500,6.537389404296875,-0.2272773082792759,0.007895666886959224,-0.02603453190140426
1772797051640415700,6.547415771484375,-0.130876789188385,-0.0017346783054992556,-0.049278556301444766
1772797051650441700,6.557441650390625,-0.020478724405169485,-0.006681523590534925,-0.03631444531008601
1772797051660466700,6.567466796875,0.013877134183049202,-0.016961966722179204,-0.0037643209695816036
1772797051670492700,6.57749267578125,0.000803133076429367,0.013927987587451934,0.017087620662152764
1772797051680517600,6.587517578125,0.011519172880053519,0.042062030785065145,0.02287709078378975
1772797051690543600,6.597543701171875,0.009667992055416106,0.05396110636079684,0.02994315671250224
1772797051700568600,6.607568603515625,0.052145197778940194,0.04695126413134858,0.04445084388405084
1772797051710594600,6.617594482421875,0.12361994992792606,0.038429738697316494,0.04304258452132344
1772797051720620500,6.62762060546875,0.20164134724140165,0.014171203492488712,0.04709675528295338
1772797051730645800,6.637645751953125,0.1714794332116842,-0.0031551395626738666,0.04345635295398533
1772797051740671700,6.647671630859375,0.07926409085094928,-0.005204181046970189,0.06299881942234933
1772797051750696700,6.65769677734375,0.015721885266900062,-0.036726314046606416,0.06953362801857292
1772797051760722700,6.66772265625,0.06680383772850036,-0.045937337848450985,0.03302665581107139
1772797051770747600,6.67774755859375,0.11322481264173984,-0.04545527168624103,-0.013671236347407101
1772797051780773600,6.687773681640625,0.10173018968105316,-0.006158595694974065,-0.04030921403467655
1772797051790799600,6.697799560546875,0.03322773134112358,0.10200144437048583,-0.0985872885454446
1772797051800824600,6.707824462890625,0.08464812197685241,-0.02587897601351142,0.005924640808627009
1772797051810850600,6.7178505859375,0.09954407781362533,-0.07086264813262969,-0.05471460987553
1772797051820875500,6.72787548828125,0.0623451047539711,0.03395794531181454,-0.1353580262556672
1772797051830901500,6.737901611328125,0.03104921825826168,0.07756652968544513,-0.04802826397940516
1772797051840926700,6.7479267578125,-0.003644493982195854,0.0460822810107842,-0.06740932934097946
1772797051850952700,6.75795263671875,0.006750643303990364,0.027976057890616357,-0.04776369475908577
1772797051860978700,6.767978759765625,0.04046469685733318,0.011061145180556923,0.009459610001742839
1772797051871003600,6.778003662109375,0.015329671078920363,-0.02674277150230482,0.029649799789115784
1772797051881029600,6.788029541015625,-0.03711889356076717,-0.027699451172631232,0.05847513145282864
1772797051891054600,6.7980546875,-0.1311035836815834,-0.015230923412181437,0.09723689684979617
1772797051901080600,6.80808056640625,-0.11282850680053233,-0.01286333576431498,0.15092581693939863
1772797051911105500,6.81810546875,0.034953824481368065,-0.041905926907900716,0.14833433914147318
1772797051921131500,6.828131591796875,0.22434710004627703,-0.05904989913348108,0.09316241395249962
1772797051931157500,6.838157470703125,0.37282384333312507,-0.04582861677696928,0.013195070203021167
1772797051941182700,6.8481826171875,0.3606190262764692,-0.018512337969336656,-0.05421520898602902
1772797051951208700,6.858208740234375,0.24675533120930193,0.04717186634577811,-0.11842486550286412
1772797051961233700,6.868233642578125,0.012553192102909087,0.058927880189009005,-0.10667319904118776
1772797051971259600,6.878259765625,-0.030662849289178847,-0.06725116137089207,0.042377325545623894
1772797051981284600,6.88828466796875,-0.014607786545157432,-0.10091101878527552,-0.010513868295028804
1772797051991310600,6.898310546875,0.0018003274202346802,-0.015105214673280715,-0.06543189178816974
1772797052001336600,6.908336669921875,-0.057635611888766286,0.011251626251358539,-0.07742569644264877
1772797052011361500,6.918361572265625,-0.1456605168223381,0.055037887013144784,-0.12130005561299621
1772797052021387500,6.928387451171875,-0.2515186000883579,0.0823182542571798,-0.11824848602265119
1772797052031412500,6.93841259765625,-0.3420779919356107,0.083691442306526,-0.048172713951393956
1772797052041438500,6.9484384765625,-0.30549276686012744,0.04653287432249635,0.0119409784886986
1772797052051463700,6.958463623046875,-0.11646540199816226,0.025277776983659715,0.02477561788149178
1772797052061489700,6.96848974609375,0.10290858581066131,-0.0018117255970835685,0.034334596604481335
1772797052071515000,6.978514892578125,0.2741799292296171,-0.016029800438601523,0.022652561312913894
1772797052081539800,6.988539794921875,0.3554460075527429,-0.02799803226040676,0.03206562875919044
1772797052091565800,6.99856591796875,0.33828210678398607,-0.03804782670764252,0.0334202582385391
1772797052101590800,7.0085908203125,0.23574819950461387,-0.044880686668679115,0.03128587655834853
1772797052111616800,7.01861669921875,0.1116191310107708,-0.05170479706767946,0.0309737418692559
1772797052121642000,7.02864208984375,0.05479366646111011,-0.045966691807098684,0.019042334926500915
1772797052131668000,7.03866796875,0.06830722802877426,-0.03638405821388587,-0.019499796370416878
1772797052141694000,7.04869384765625,0.09466682716608046,-0.036325332030281425,-0.07100304298400878
1772797052151719000,7.058718994140625,0.11777180842161178,-0.033235183995217084,-0.06629552288018167
1772797052161745000,7.068744873046875,0.046802667707204815,0.049980055634304875,-0.10566548330336809
1772797052171769900,7.078769775390625,0.03969312796294689,-0.04751636893451214,0.027204087137430905
1772797052181795800,7.0887958984375,0.07486731719672679,-0.14172966191312297,0.045518326985090965
1772797052191820800,7.09882080078125,0.036270752298831935,-0.04887176559884101,-0.03476173597536981
1772797052201846800,7.1088466796875,-0.052910921454429626,0.041095487307850266,-0.05004764097779989
1772797052211872800,7.118872802734375,-0.07946458185911179,0.0856823238627985,-0.09664930622018873
1772797052221897700,7.128897705078125,-0.06452186427116394,0.0916966522488743,-0.12035152271650731
1772797052231923700,7.138923828125,-0.0512777672946453,0.07801418212139978,-0.06557122719362378
1772797052241949000,7.148948974609375,-0.044110944405198096,0.05516063660997897,0.00462948643155396
1772797052251975000,7.158974853515625,-0.03523030333518982,0.025140450872201472,0.0440272847097367
1772797052262001000,7.1690009765625,-0.03731529291570186,0.01339598133629188,0.05576930656023323
1772797052272025900,7.17902587890625,-0.029179332733154296,0.020455654056835918,0.06014467210024595
1772797052282051800,7.1890517578125,0.02126315278112888,0.015314089917298405,0.04990341020151973
1772797052292076800,7.199076904296875,0.0679787267267704,-0.006542370848171413,0.05455737348720431
1772797052302102800,7.209102783203125,0.1075099421262741,-0.04219672654801979,0.06126110890954733
1772797052312127700,7.219127685546875,0.13906477181911467,-0.053383069010823965,0.053541182181984184
1772797052322153700,7.22915380859375,0.13321136961579322,-0.029965551207400857,0.03901157543957233
1772797052332179000,7.239178955078125,0.14172843807041643,-0.013682323997002093,0.015876783567667006
1772797052342205000,7.249204833984375,0.1167553248554468,-0.034214915747568006,-0.016051409482210875
1772797052352231000,7.25923095703125,0.043397243177890774,-0.028556159333512184,-0.01190101180449128
1772797052362256000,7.269255859375,0.007205985856056213,-0.010322090316284447,-0.020772300524264573
1772797052372281900,7.27928173828125,-0.0006178396373987198,-0.015781597831193355,-0.07189436580054462
1772797052382306800,7.289306884765625,-0.03855857097506523,0.016552363007981328,-0.11482830231562256
1772797052392332800,7.299332763671875,-0.06434475413858891,0.05523888947796076,-0.09916998380422591
1772797052402357800,7.309357666015625,-0.02553893040418625,0.033768541953247036,-0.04762260578796267
1772797052412383700,7.3193837890625,0.014763269367814063,-0.03326240079570562,0.01405636320747435
1772797052422409700,7.32940966796875,0.057145198023319244,-0.07745315070515497,0.07421309107169509
1772797052432434700,7.3394345703125,0.07029167984426021,-0.0568461968104355,0.08347783608846365
1772797052442460700,7.349460693359375,0.051914896154403686,-0.019269586077425627,0.053665904540196055
1772797052452486000,7.35948583984375,-0.038462124863266944,0.018761216430179774,0.03664075465500354
1772797052462511900,7.369511962890625,-0.13333470373451708,0.06949309507878497,0.07897321814559399
1772797052472536800,7.379536865234375,-0.12866905001103876,0.06850359085109084,0.12108275960050523
1772797052482562800,7.389562744140625,0.04214811989963054,0.052810347156785425,0.09303864144235849
1772797052492588800,7.3995888671875,0.25032792899906636,0.03152173114083707,0.043228389417007566
1772797052502613800,7.40961376953125,0.35423429367542264,0.013852913057245314,-0.0070144818719476455
1772797052512639700,7.4196396484375,0.31862346659004687,-0.02686610562102869,-0.028845716864615678
1772797052522664700,7.429664794921875,0.17694237479269503,-0.0350796793507412,-0.02785517145730555
1772797052532690700,7.439690673828125,0.08226385718882083,-0.039486371610779315,-0.017752148985490202
1772797052542716000,7.4497158203125,0.048264556953310965,-0.050567408801894635,-0.04690473984219134
1772797052552742000,7.459741943359375,0.03034720746874809,-0.036086152979545295,-0.08990414280891418
1772797052562768000,7.469767822265625,-0.027418168279528615,-0.014769096320401876,-0.12036423606760799
1772797052572792800,7.479792724609375,-0.10362228703796864,0.017545940622594205,-0.13769560235776007
1772797052582818800,7.48981884765625,-0.19944646754562853,0.04530884895287454,-0.11809227254763245
1772797052592843800,7.49984375,-0.2907411879301071,0.053883931205049154,-0.09448635603263973
1772797052602869800,7.509869873046875,-0.29220424621999264,0.05473705916935578,-0.049993061246350404
1772797052612894700,7.519894775390625,-0.1732277381837368,0.057878078875131904,0.006595452742278575
1772797052622920700,7.529920654296875,0.0016880992174148558,0.020092154506687075,0.049223611243814226
1772797052632946700,7.53994677734375,0.16609598660767078,-0.00432792793540284,0.06055588324964046
1772797052642971600,7.5499716796875,0.25906770029366016,0.0007163133095018565,0.08052139743566512
1772797052652997600,7.55999755859375,0.22489128992557525,-0.001953855747822672,0.1021963458880782
1772797052663022800,7.57002294921875,0.17840718664824962,-0.001842796588782221,0.11896394081562757
1772797052673048800,7.580048828125,0.11331307544708251,-0.027224271408934145,0.17095292511954902
1772797052683073800,7.59007373046875,0.13133622339367865,-0.003918159824423491,0.10584003615267575
1772797052693099800,7.600099853515625,0.13551146325170993,-0.02955472365049645,0.06601064152419567
1772797052703125800,7.610125732421875,0.13489245457053184,-0.031456958808936175,0.039119273597747084
1772797052713150700,7.620150634765625,0.07312661100924014,0.004921108055580407,-0.048930619646608824
1772797052723176700,7.6301767578125,0.016164368337392807,0.055306401756219564,-0.07181750117205082
1772797052733201700,7.64020166015625,-0.003483165940642357,0.023499570063687858,-0.08321297460719942
1772797052743227600,7.6502275390625,0.023892916762828825,-0.005890702006407082,-0.10548018986433744
1772797052753252900,7.6602529296875,0.04527998818457126,-0.01985869281068444,-0.1000576533589512
1772797052763278800,7.67027880859375,0.004990063372254372,-0.03491619588471949,-0.09198715962804853
1772797052773304600,7.6803046875,-0.10039572620689868,-0.0229702306936495,-0.08611395674571394
1772797052783329800,7.690329833984375,-0.1853659197449684,0.035622462724242354,-0.06683627869337797
1772797052793355800,7.700355712890625,-0.1958458127051592,0.03120260045537725,-0.02894640076011419
1772797052803380700,7.710380615234375,-0.11815057860612868,0.02358030714970082,-0.032008637874946
1772797052813406700,7.72040673828125,0.012122399470210075,0.05469731168085709,-0.029720892263948917
1772797052823431700,7.730431640625,0.07730009730160235,0.03904597089951858,-0.023944281623885035
1772797052833457700,7.740457763671875,0.1036018287718296,0.026278259263094513,0.01361599902883172
1772797052843484000,7.75048388671875,0.1932002666324377,0.03463922384055331,0.05407974603809416
1772797052853508600,7.760508544921875,0.278001533344388,0.016538535412028432,0.0837170516718179
1772797052863534800,7.770534912109375,0.3215069130718708,-0.028462928092107175,0.1011384343329817
1772797052873559800,7.780559814453125,0.29802433067560197,-0.023023202989902347,0.10579261681437492
1772797052883586000,7.7905859375,0.18635609982609747,0.004788859978038817,0.09491590655632316
1772797052893610800,7.80061083984375,0.07521686128675938,0.01478774622194469,0.070510291031003
1772797052903637000,7.810636962890625,0.009731120419502257,0.004039612513314932,0.05585391610376537
1772797052913663000,7.8206630859375,-0.04336509447395801,-0.031131307051144537,0.06171732824444771
1772797052923688000,7.83068798828125,-0.055931146058440205,-0.014673399127274752,0.023877573063224553
1772797052933714000,7.8407138671875,-0.020044424641132354,0.024872009194362908,-0.055349619843438266
1772797052943738600,7.850738525390625,-0.020425532913208005,0.06698734106924384,-0.13186382746435701
1772797052953764900,7.860764892578125,-0.026873978400230408,0.06396883349828422,-0.14580058288015424
1772797052963789800,7.870789794921875,-0.05129530295133591,0.038153935696929694,-0.1045341411858797
1772797052973815800,7.88081591796875,-0.08017711404263973,-0.012761354960873722,-0.027529738895222543
1772797052983840800,7.8908408203125,-0.08599135327935219,-0.05238850501552224,0.022537264370173213
1772797052993867000,7.900866943359375,-0.03631108430922031,-0.03758740612166002,0.059421107066050166
1772797053003893000,7.91089306640625,0.019022680377960205,-0.0236777213758789,0.03720328390859067
1772797053013918000,7.92091796875,0.029008652341365813,0.007603077148552984,0.006891220818459987
1772797053023944000,7.93094384765625,-0.010411503899097441,0.05134544396968558,0.03312631679326296
1772797053033969000,7.940968994140625,-0.02510579968392849,0.0612416918230243,0.03158960874527693
1772797053043995000,7.950994873046875,-0.04617021502256393,0.030722233059909194,0.0189700003426522
1772797053054019800,7.961019775390625,0.012926701590418815,0.05203128907568753,-0.015609657064080237
1772797053064045800,7.9710458984375,0.1467792917191982,0.06822756865499541,-0.05403291122168302
1772797053074072000,7.981072021484375,0.2663233705103397,0.006829919085279107,-0.06892258344814181
1772797053084097000,7.991096923828125,0.29529110631942745,-0.03819781137127429,-0.04632007182203233
1772797053094123000,8.001123046875,0.22083821514248847,-0.05198427159618586,-0.024379165909811852
1772797053104148200,8.011148193359375,0.07343699213266372,-0.05623685100674629,-0.0021573241643607615
1772797053114174200,8.02117431640625,-0.08790449342429638,-0.012502978019323199,-0.020756591498479245
1772797053124199200,8.03119921875,-0.1074316161930561,0.033279278865270316,-0.038269451835379005
1772797053134225200,8.04122509765625,-0.07381868492662906,-0.0015565817922353743,-0.03428089365586638
1772797053144251400,8.05125146484375,-0.09556289922297,-0.0208933330880478,-0.024344021531194446
1772797053154276000,8.061276123046875,-0.1291781685769558,0.01399060449488461,-0.013538915204629302
1772797053164302300,8.07130224609375,-0.07830781303942203,0.041316911506187166,-0.006426160589978099
1772797053174327000,8.0813271484375,0.00965045639872551,0.04697086388096213,-0.027525793372467158
1772797053184353300,8.091353271484374,-0.015718378135561942,0.06204005739279091,0.01101399983689189
1772797053194378200,8.101378173828126,-0.03597264613509178,0.06503375931605697,0.07382818340733648
1772797053204404200,8.111404296875,0.0523322447836399,0.02968151010163128,0.10930917356796561
1772797053214430200,8.12143017578125,0.15962825189828872,-0.03290945917218924,0.12893763781934975
1772797053224455200,8.131455078125,0.22573709309995174,-0.03739420337080955,0.13030468838885426
1772797053234481400,8.1414814453125,0.26271453236341474,-0.00024480507392436263,0.10993899590410292
1772797053244506000,8.151506103515626,0.2705243293315172,-0.013667911879159509,0.06943455155827105
1772797053254532400,8.161532470703126,0.2399339607566595,-0.02503350163269788,0.034680560497939585
1772797053264557000,8.17155712890625,0.20843466064333915,-0.0001537657896056771,0.01183079611249268
1772797053274583300,8.181583251953125,0.1303629944473505,-0.008483823772147297,-0.012162658415362237
1772797053284609300,8.191609375,0.004286299017071724,-0.009066610362473875,-0.03351034767478704
1772797053294634200,8.20163427734375,-0.07872165453732013,0.010504004488140343,-0.0707918844513595
1772797053304660200,8.21166015625,-0.10294833329915999,0.02539800582984462,-0.09916150823682546
1772797053314685400,8.221685546875,-0.0872626883894205,0.009198730575852096,-0.10242102148942649
1772797053324711400,8.23171142578125,-0.07333294723629952,-0.008177242041006684,-0.0977259224757552
1772797053334736400,8.241736328125,-0.09713818571567535,-0.014909345041308551,-0.07815021132491529
1772797053344762400,8.251762451171874,-0.14210662373304367,-0.013816088178195058,-0.02443031157515943
1772797053354787300,8.261787353515626,-0.13588146560788153,-0.013987060830928384,-0.0024997078612446783
1772797053364813300,8.271813232421875,-0.07638590506613255,0.00828077548071742,-0.001646378967538476
1772797053374839300,8.28183935546875,0.0010544774889945983,0.024905016414821145,-0.007333996149897575
1772797053384864300,8.2918642578125,0.09573825578987598,0.01990640440993011,0.0083562518697232
1772797053394890200,8.30189013671875,0.20390286243259906,-0.0019251593763008712,0.02115180136114359
1772797053404915500,8.31191552734375,0.23825930554270744,0.001052687390707433,0.02736957989744842
1772797053414941200,8.321941162109376,0.18898995546102523,0.023946656244061885,0.053981692491099235
1772797053424966400,8.33196630859375,0.12768062349557877,0.05418035686835646,0.06303798238895833
1772797053434992400,8.341992431640625,0.08507833008766173,0.03755827135872095,0.05449300301410258
1772797053445018400,8.352018310546875,0.02443126142323017,0.02098707578610629,0.04303301297537982
1772797053455043300,8.362043212890624,-0.004049567651748657,0.0023927403554320336,0.039304713167250156
1772797053465069300,8.3720693359375,0.0019014497071504592,-0.023241905508190393,0.022699030803143977
1772797053475094300,8.38209423828125,0.05349018264710903,-0.023238836768269537,-0.009164718708395957
1772797053485120300,8.392120361328125,0.13119360005259514,0.002960676436498761,-0.06477795792408288
1772797053495145200,8.402145263671875,0.15917057125866413,0.022990816823951897,-0.11854418103359639
1772797053505171200,8.412171142578124,0.14376374329030514,0.03880279152709991,-0.1133311956256628
1772797053515197200,8.422197265625,0.09879822788238525,0.02110591639280319,-0.05707476313561201
1772797053525222400,8.432222412109375,0.046866380593180657,-0.041193193794973194,0.019599603483080864
1772797053535248400,8.442248291015625,0.0028711715221405028,-0.07589249552600086,0.031382030409201976
1772797053545273300,8.4522734375,-0.04207213205397129,-0.042992461769282814,0.013502747912704944
1772797053555299300,8.46229931640625,-0.05366670825779438,0.01658862163145095,-0.03794898770935833
1772797053565324300,8.47232421875,-0.0737123019427061,0.030665406572446225,-0.07431801275089382
1772797053575350300,8.482350341796876,-0.14205518580675125,0.036116694248281414,-0.020368688159435985
1772797053585376300,8.492376220703125,-0.14389935236871243,0.019750775456801057,0.05953450431264937
1772797053595401200,8.502401123046875,-0.03166881146132946,-0.022948804313130674,0.0898071121752262
1772797053605427200,8.51242724609375,0.12422609912753105,-0.057589288529008624,0.08330715569667517
1772797053615452400,8.522452392578124,0.23791911380290984,-0.09934303881619125,0.059696197680383915
1772797053625478100,8.53247802734375,0.26425299397706986,-0.11982731617931276,0.032170623503625394
1772797053635503400,8.54250341796875,0.230343125590682,-0.0944550475789234,0.018740429370477794
1772797053645529300,8.552529296875,0.19440029007196424,-0.07973620187472552,-0.017478154349699616
1772797053655555300,8.562555419921875,0.15757015032470226,-0.055600525864586234,-0.06089256785809993
1772797053665580300,8.572580322265624,0.10032675262391566,-0.02304901328459382,-0.08621770938113331
1772797053675606300,8.582606201171876,0.004104512709379196,0.016802045186422764,-0.1223321751397103
1772797053685631200,8.59263134765625,-0.16355331638753412,0.041848406300693745,-0.11926482345834374
1772797053695657200,8.6026572265625,-0.29142157140970226,0.03849361598007381,-0.08563822899274527
1772797053705682200,8.61268212890625,-0.3087602442234754,0.025436931334435937,-0.037776407621428365
1772797053715708200,8.622708251953124,-0.21346271793842314,0.006294716230034828,-0.017139350849390028
1772797053725733400,8.6327333984375,-0.09451075982153415,0.012389854767359793,0.024829759221524
1772797053735759400,8.64275927734375,0.08803659537136554,0.01472443519476801,0.0712968382988125
1772797053745785300,8.652785400390625,0.2174959189772606,-0.028608181781694293,0.08535429748483002
1772797053755810300,8.662810302734375,0.23408757281601428,-0.04808160160183906,0.10101005871295929
1772797053765836300,8.672836181640625,0.20869068123102186,-0.018047478670254347,0.12172580674439668
1772797053775861200,8.682861328125,0.18985621690154075,-0.006821443517878651,0.11253807248659431
1772797053785887200,8.69288720703125,0.1692974129974842,-0.03341547246556729,0.1026486197002232
1772797053795912200,8.702912109375,0.1865033993422985,-0.01672945487424731,0.06183898186273872
1772797053805938200,8.712938232421875,0.1356090784072876,-0.047515674814768136,0.042595279145240784
1772797053815964200,8.722964111328125,0.0670721332758665,-0.048715259862877426,0.03438340418227017
1772797053825989000,8.732989013671874,0.029216742134094236,-0.06395235728751868,0.024419644050672647
1772797053836015000,8.74301513671875,0.0008680150061845779,-0.061012760171666736,0.01447261585816741
1772797053846040300,8.753040283203125,0.012870002967119216,-0.06069602237269282,-0.020025866071134806
1772797053856066300,8.76306640625,-0.01637947239279747,-0.054175534562766546,-0.051615694012120364
1772797053866091300,8.77309130859375,-0.0870277105897665,-0.03708236094266176,-0.061854763953760265
1772797053876117200,8.7831171875,-0.16363514945209026,-0.0395143007973209,-0.05780285821445286
1772797053886143200,8.793143310546874,-0.20772388202548026,-0.04155062893051654,-0.03464534305408597
1772797053896168200,8.803168212890625,-0.16050211212337015,-0.01992678961083293,-0.03130743080303073
1772797053906194200,8.813194091796875,-0.0157943659812212,-0.008159487188607454,-0.044220907585695385
1772797053916219100,8.82321923828125,0.13708850331008435,-0.034937823194637896,-0.035169001602008934
1772797053926245000,8.8332451171875,0.21696458857953546,-0.05499934510104358,-0.030314839569106695
1772797053936270300,8.843270263671876,0.19959435158371924,-0.01601169852633029,-0.035910686814785
1772797053946296300,8.85329638671875,0.1459352421104908,0.02817260337602347,-0.03495287463329732
1772797053956321300,8.8633212890625,0.08576163617670536,0.06720339497271925,-0.04704297926910221
1772797053966347300,8.87334716796875,0.06137889007031917,0.06916863063108175,-0.019540566772222517
1772797053976373200,8.883373291015625,0.0669715955108404,0.013702325605414806,0.04569507179148495
1772797053986398200,8.893398193359374,0.09650573303103446,-0.0483538792045787,0.08848477753028273
1772797053996424200,8.903424072265626,0.12556757686436176,-0.055784759857691824,0.0861615952797234
1772797054006449200,8.91344921875,0.08340893557071685,-0.0607424918629229,0.06212963537238538
1772797054016475100,8.92347509765625,-0.027194296395778656,-0.04532514250054955,0.015455270219966769
1772797054026500400,8.933500244140625,-0.04968436062335968,0.02186740228459239,-0.016667714749649166
1772797054036526000,8.943526123046874,-0.030028058516979216,0.020722543098405002,-0.06548932106383144
1772797054046552000,8.953552001953126,0.0036672903358936308,-0.0005635156342759728,-0.0875340526767075
1772797054056577300,8.963577392578125,0.08875146564245223,-0.0052296077491715545,-0.038620238034427164
1772797054066603300,8.973603271484375,0.13412614637315273,-0.04001161932758987,0.004650456154346466
1772797054076628700,8.983628662109375,0.07669979332089423,-0.06170541861094534,0.020018851808458565
1772797054086654700,8.99365478515625,-0.02218085214793682,-0.017999840136244893,0.029147184029221535
1772797054096679700,9.0036796875,-0.07407704360187053,0.03458265308141708,0.015202683698385953
1772797054106705700,9.01370556640625,-0.08709843773841858,0.03794369047973305,-0.02055617355555296
1772797054116730600,9.023730712890625,-0.09963993940353393,0.036295631011761725,-0.018241686068102718
1772797054126756600,9.033756591796875,-0.10837795713245868,0.043496867627464235,0.0319620953194797
1772797054136782600,9.043782470703125,0.004265256229043007,0.035878501578234134,0.05789287458546459
1772797054146807600,9.0538076171875,0.14182546870410442,0.0017125760715454815,0.041681086909770966
1772797054156833500,9.06383349609375,0.23183190284371374,-0.016104966300353407,0.029612901844829318
1772797054166858800,9.073858642578125,0.30743045692443843,-0.03052029901333153,0.034562706271931525
1772797054176884700,9.083884765625,0.31654782935976983,-0.08063994578141719,0.01093421259894967
1772797054186909700,9.09390966796875,0.25537995169162747,-0.09886084478981792,-0.0035498014360666272
1772797054196935700,9.103935791015624,0.18573533757925031,-0.07650145773719996,-0.01969334618113935
1772797054206961700,9.113961669921874,0.08077215732634067,-0.036859110113419594,-0.06687777974754572
1772797054216986600,9.123986572265625,-0.0649199236780405,0.010478650851175188,-0.10528086789995432
1772797054227012600,9.1340126953125,-0.2122714623272419,0.05688512231502681,-0.10796491935215889
1772797054237037600,9.14403759765625,-0.2814180637896061,0.07494388956427574,-0.06904467545785009
1772797054247063600,9.1540634765625,-0.2622936766028404,0.04716521740928292,-0.045665699566528196
1772797054257088800,9.1640888671875,-0.1946504654407501,0.007797302812710404,0.005265738508477807
1772797054267114800,9.17411474609375,-0.15980945368409155,0.002173435048945248,0.037030923016369344
1772797054277140700,9.184140625,-0.11641688668131828,0.024341719976253805,0.0630377631932497
1772797054287165700,9.194165771484375,-0.032220600125193594,0.018257139365561306,0.06434986870512366
1772797054297191700,9.204191650390625,0.09497136307060718,0.0036514717122539874,0.07913776105754076
1772797054307216600,9.214216552734374,0.24132570737600326,-0.007197656419128179,0.08497150871232151
1772797054317242600,9.22424267578125,0.34925767430663107,-0.01796451309453696,0.0751454765509814
1772797054327267600,9.234267578125,0.36836043418347836,-0.010106383472681045,0.06369155092686414
1772797054337293600,9.24429345703125,0.3606792320311069,0.003555281328782439,0.016612696626782417
1772797054347318500,9.254318603515625,0.2079962692260742,-0.001535246743261814,-0.022110490325465797
1772797054357344500,9.264344482421874,0.05291501310765743,0.028794132807850835,-0.021522315173968673
1772797054367370500,9.27437060546875,0.014818798947334288,0.02860971615165472,-0.028879399938508868
1772797054377395700,9.284395751953125,0.021875731721520422,-0.02739529886059463,-0.054608957543969154
1772797054387421700,9.294421630859375,0.042913259053230284,-0.029343802579864856,-0.05274506336823105
1772797054397446700,9.30444677734375,0.040380525705218315,-0.011917634145729243,-0.045689080442115663
1772797054407472600,9.31447265625,0.005353635987639427,-0.007997684223018586,-0.051949821337312456
1772797054417497600,9.32449755859375,-0.04601122506856918,0.0010520663361996412,-0.06347973480708896
1772797054427523600,9.334523681640626,-0.13911328713595866,0.028283699067682026,-0.07190138006322086
1772797054437549600,9.344549560546875,-0.22434651552438734,0.056851768034696576,-0.05538681004866957
1772797054447574500,9.354574462890625,-0.18449556665122507,0.057878955657966434,-0.02173098948858678
1772797054457600500,9.3646005859375,-0.05762158336341381,0.027067309015244245,-0.00538768438771367
1772797054467625700,9.374625732421874,0.09323708662390709,0.007008819316141307,0.026907223082706332
1772797054477651700,9.384651611328126,0.16938801389038563,-0.007138400512561201,0.05071764919385314
1772797054487676700,9.3946767578125,0.16313655228018759,-0.013084084109216928,0.07594568701796234
1772797054497702700,9.40470263671875,0.13559738796949386,-0.00961063584499061,0.07033931837826966
1772797054507727600,9.4147275390625,0.11790507941246033,-0.022152064444869755,0.07881378980018199
1772797054517753600,9.424753662109374,0.13701836068332193,-0.015663981067202983,0.07409545604139565
1772797054527779600,9.434779541015626,0.202785841101408,-0.04029734093379229,0.05178323259875178
1772797054537804500,9.444804443359375,0.1481307063281536,-0.07300718588065355,0.03951265682950616
1772797054547830500,9.45483056640625,0.07396423087716102,-0.038058512498438356,0.015150807380676269
1772797054557855500,9.46485546875,0.0500578701108694,-0.002214278515987098,-0.015855375453457235
1772797054567881500,9.474881591796875,0.0636690468341112,0.008182173944450914,-0.0772213329769671
1772797054577906700,9.48490673828125,0.04340893361568451,0.013834537150338291,-0.12084193658195436
1772797054587932700,9.4949326171875,-0.030775077491998672,0.024536767624318598,-0.14144509108439088
1772797054597959000,9.504958984375,-0.09568798690736294,0.01678418073616922,-0.11581665576584636
1772797054607983600,9.514983642578125,-0.1397732123494148,-0.03093249654341489,-0.0395230320930481
1772797054618009900,9.525009765625,-0.12972294297814368,-0.07483440130781382,0.01983180480375886
1772797054628034600,9.53503466796875,-0.06897709011435509,-0.07695373154934496,0.03855652514845133
1772797054638060800,9.545060791015626,-0.013712299010157584,-0.058071446022763845,0.03780548758544028
1772797054648085500,9.55508544921875,0.022457331001758573,0.01058222082350403,-0.010743512332439422
1772797054658111700,9.56511181640625,-0.004088146096467972,0.029842472817003727,-0.002106763020902872
1772797054668137700,9.5751376953125,-0.09003098405897617,0.02980133708901703,0.06551343259178101
1772797054678162700,9.58516259765625,-0.029614217019081113,0.012100735627673566,0.13302812200337646
1772797054688188700,9.595188720703124,0.10710311489105225,-0.03594418722558766,0.13234328154437244
1772797054698213600,9.605213623046875,0.27122224846780296,-0.04482471869774163,0.07101268759518861
1772797054708240000,9.615239990234375,0.38618542920947074,-0.03625321664214134,0.0018760230049490927
1772797054718264600,9.6252646484375,0.3396457963526249,-0.02718366540390998,-0.02173807681649923
1772797054728290800,9.635290771484375,0.2421861235976219,-0.015087204092554747,-0.022486630161479115
1772797054738315500,9.6453154296875,0.1234562837988138,-0.018330058471299707,-0.05124247678555548
1772797054748341800,9.655341796875,-0.014307342293858527,-0.028339667038619516,-0.053510275587067
1772797054758367700,9.66536767578125,-0.1449894856929779,0.0038757819874212143,-0.06575074847899377
1772797054768392700,9.675392822265625,-0.2767600088506937,0.043975043065845966,-0.06816146288253366
1772797054778418700,9.685418701171875,-0.3383054876595735,0.02076207139119506,-0.04197977759540081
1772797054788444000,9.69544384765625,-0.22783318859636784,0.032248766773752865,-0.03973652871325612
1772797054798470000,9.705469970703126,-0.09225625889301299,0.017261333261244,-0.0558007976770401
1772797054808494800,9.715494873046875,0.016268997755646705,0.007264072718843818,0.003127922762185335
1772797054818520800,9.725520751953125,0.07359130591154098,-0.005683635126985609,0.011152896850928663
1772797054828545800,9.7355458984375,0.071459554579854,0.0021245909385383126,0.03654986150115728
1772797054838571800,9.74557177734375,0.08351298046708107,0.0021620368720963595,0.06187946000359952
1772797054848597800,9.75559765625,0.1534726518779993,0.0037945699773728847,0.04829173722118139
1772797054858622700,9.765622802734375,0.19263678753077984,-0.012930062591284514,0.06667765406556427
1772797054868648700,9.775648681640625,0.2302308973878622,-0.024459720332734285,0.0836206055600196
1772797054878673700,9.785673583984375,0.23839433009922503,-0.021352000108361243,0.0639295244012028
1772797054888699600,9.79569970703125,0.22870938690900802,-0.014282353983074425,0.05003076290823519
1772797054898724900,9.805724853515626,0.14797931515872478,-0.039235776116885245,0.01921425742730498
1772797054908750800,9.815750732421876,0.0372089099317789,-0.0245300456225872,-0.021778481892123818
1772797054918776800,9.82577685546875,-0.024310265392065048,-0.003047076078318059,-0.06265716637782752
1772797054928801800,9.8358017578125,-0.03342646878361702,-0.008108524186350404,-0.08640724060386419
1772797054938827800,9.845827880859375,0.01633972490429878,-0.01690780711583793,-0.06629734951108694
1772797054948852700,9.855852783203124,0.04643909509181976,-0.04986132462546229,-0.06015073651485145
1772797054958878700,9.865878662109376,0.02681669525504112,-0.061246605460159476,-0.04276588647179305
1772797054968903700,9.875903564453125,-0.011560089412331581,-0.014042882671393453,-0.07211173487827181
1772797054978929700,9.8859296875,-0.107301267811656,0.030140980839543044,-0.08594875624664128
1772797054988955000,9.895954833984375,-0.22077508677840232,0.03054466626960784,-0.06725048551745712
1772797054998980900,9.90598095703125,-0.204898887732625,0.031701069763116534,-0.05725377296432852
1772797055009006800,9.9160068359375,-0.07114274371564387,0.012917276174947619,-0.010696531385555862
1772797055019031800,9.92603173828125,0.03325637291371822,-0.03953070394285023,-0.016371289086341858
1772797055029057800,9.936057861328125,0.11387947715818882,0.0137042983667925,0.0034274171654134987
1772797055039082800,9.946082763671875,0.21799977684617042,0.0633659357016906,0.02704115166068077
1772797055049108700,9.956108642578124,0.2983165916204452,0.012642843147739767,0.025370149708539246
1772797055059133700,9.9661337890625,0.25667174506783486,0.010693243449926376,0.05046477041132748
1772797055069159700,9.97615966796875,0.18054127606749534,0.01198525602184236,0.07827690644450486
1772797055079185700,9.986185546875,0.10181026917994022,-0.011781148284487425,0.08430047758296132
1772797055089210600,9.996210693359375,0.0345382294178009,-0.028584508645161984,0.08409465281255543
1772797055099236600,10.006236572265625,0.07224515199959278,-0.017743052363581955,0.0763788908034563
1772797055109261800,10.01626171875,0.1639636507540941,-0.016528488942049443,0.03944178355038166
1772797055119287800,10.026287841796876,0.2301782904177904,-0.033325784888118506,-0.047933644498512146
1772797055129312800,10.036312744140625,0.2272106727838516,0.005203998383879661,-0.1046408164307475
1772797055139338800,10.0463388671875,0.1700076070934534,0.044426001703739164,-0.10529080477207899
1772797055149363700,10.05636376953125,0.05831073467135429,0.0036535175388678906,-0.07991122964806854
1772797055159389700,10.0663896484375,-0.11107903278470038,-0.03670497899763286,-0.05274681693390011
1772797055169415700,10.076415771484376,-0.24486732550561427,-0.023813677514158187,0.0005845218896865845
1772797055179440600,10.086440673828125,-0.24688860220015046,0.003161203977279365,-0.0031120676059275864
1772797055189466600,10.096466552734375,-0.2198258232295513,0.01119465363342315,-0.03606317396275699
1772797055199491800,10.106491943359375,-0.196437348857522,0.04665186105966568,-0.06719115654565394
1772797055209517800,10.116517822265624,-0.20217676929235456,0.08010967482961714,-0.03907908771783113
1772797055219542800,10.126542724609376,-0.13672609973847866,0.049193727562204,0.021738661338388917
1772797055229568800,10.13656884765625,0.043857846426963804,0.02764021353237331,0.056603053970634934
1772797055239593700,10.14659375,0.2898217349976301,-0.00144610715508461,0.05189765275865793
1772797055249619700,10.15661962890625,0.43991585035324093,-0.04649100794214755,0.03302176044024527
1772797055259645700,10.166645751953125,0.40479426808953284,-0.09208996241539716,0.04334522072970867
1772797055269670700,10.176670654296874,0.264765619674325,-0.07422383166141808,0.0608349924519658
1772797055279696600,10.186696533203126,0.17880407701134682,-0.0523416701991111,0.03981383173316717
1772797055289721600,10.1967216796875,0.1482090322613716,-0.061518590801954265,-0.015621639762818813
1772797055299747600,10.20674755859375,0.09328618646264075,-0.05788713896442205,-0.035760099362954496
1772797055309772800,10.216772705078125,0.021627309918403625,-0.024646182815544305,-0.0888133518975228
1772797055319798800,10.226798828125,-0.1134136132121086,0.02099984393613413,-0.1000792076036334
1772797055329824800,10.23682470703125,-0.25631051054000853,0.05390842632548883,-0.051593555245548484
1772797055339849700,10.246849609375,-0.38845921936035155,0.06135430361833423,-0.01241926352493465
1772797055349875700,10.256875732421875,-0.4244079000979662,0.07919226772375404,0.03070471566952765
1772797055359900700,10.266900634765625,-0.32821663984358307,0.08621175456438213,0.0680894205596298
1772797055369926700,10.2769267578125,-0.13932488406002522,0.0299955444868654,0.0951125981722027
1772797055379951600,10.28695166015625,0.07541267611980437,-0.0036851182535290717,0.07678045734167098
1772797055389977600,10.2969775390625,0.23878069906830787,-0.015132760267332195,0.07061104799173772
1772797055400002800,10.3070029296875,0.3204682176738977,-0.0245563491076231,0.07662928536795079
1772797055410028800,10.31702880859375,0.35774084049165245,-0.021987704196013508,0.05676365135982632
1772797055420054800,10.3270546875,0.36795477599203585,-0.012447101379930972,0.040578824756294485
1772797055430079700,10.337079833984374,0.3042582566291094,-0.03051003334764391,0.035170755167677994
1772797055440105700,10.347105712890626,0.21204116070270537,-0.027726868902519342,0.03279474675133824
1772797055450130700,10.357130615234375,0.17144143928885458,-0.042632761611416936,0.011382248627394438
1772797055460156700,10.36715673828125,0.07569090853929519,-0.08005911368615924,-0.03682327161505818
1772797055470181600,10.377181640625,-0.025455343773961067,-0.07064348895661532,-0.060190776264294976
1772797055480207600,10.38720751953125,-0.08910802399516105,-0.007526669177785515,-0.10716485501565039
1772797055490233600,10.397233642578126,-0.11925415593385695,0.01506879165302962,-0.14915939178876578
1772797055500258600,10.407258544921875,-0.10748831481635569,0.0384682440767996,-0.16574746543094515
1772797055510284500,10.417284423828125,-0.06983166111707687,0.05782591029647737,-0.17348719283752143
1772797055520309800,10.427309814453125,-0.06984510512053967,0.019341409204620866,-0.0972836586009711
1772797055530335700,10.437335693359374,-0.1424322024255991,-0.043538880138285455,-0.045180546398088335
1772797055540360700,10.447360595703126,-0.22346154938340185,0.0008591741126030683,0.01788600449822843
1772797055550386700,10.45738671875,-0.19231822310090063,0.02494304687026888,0.0648429859843105
1772797055560411600,10.46741162109375,-0.051591655549407,-0.003523388353176415,0.0766900756444782
1772797055570437600,10.477437744140625,0.0998065281420946,-0.007983765295520424,0.08547010588422417
1772797055580463600,10.487463623046875,0.17742460535168647,0.03719221452530473,0.10631605616658925
1772797055590488600,10.497488525390626,0.24536183102428913,0.06557024081293493,0.10301504185982048
1772797055600514600,10.5075146484375,0.2776958283960819,0.0362819678125903,0.1125352960076183
1772797055610539800,10.517539794921875,0.25749475188851356,0.005163227982074022,0.09128945968747139
1772797055620565800,10.527565673828125,0.19340777190327643,0.02423723668847233,0.05639664467833936
1772797055630590700,10.5375908203125,0.10661270102560519,0.03276153860148042,0.004651186806708574
1772797055640616700,10.54761669921875,0.05879705688357353,0.011749693700298667,-0.006639511079713702
1772797055650641700,10.5576416015625,0.061140405139327045,-0.0295641673322767,-0.025448840967938303
1772797055660667600,10.567667724609375,0.0799386291116476,-0.048358007390424604,-0.012522650834172963
1772797055670693600,10.577693603515625,0.06983341468274593,-0.05650865368545055,-0.04280519556887447
1772797055680718600,10.587718505859375,0.027274375894665717,0.003403926691971719,-0.07405980020612478
1772797055690744600,10.59774462890625,-0.02096913827061653,0.051381264201737935,-0.12839936622418463
1772797055700769500,10.60776953125,-0.057141106370091434,0.07087028344981372,-0.164674429371953
1772797055710795500,10.61779541015625,-0.06735445734858513,0.06958418916203081,-0.14718524217158555
1772797055720820700,10.62782080078125,-0.11076105287671088,0.03405994438156485,-0.07955415983870626
1772797055730846700,10.6378466796875,-0.12740180655419825,-0.011365626286156475,-0.009788330499455333
1772797055740872700,10.647872802734375,-0.08728782283067703,0.001369863581098616,0.0026077713456004858
1772797055750897700,10.657897705078126,-0.07612579282522201,0.023630758695304392,0.009293167393654584
1772797055760923600,10.667923583984376,-0.055390463310480115,0.029575346313416954,0.010093158664926886
1772797055770948600,10.677948486328125,-0.03547346444129944,0.03421962845530361,0.04345701054111123
1772797055780974600,10.687974609375,0.043641573327779765,0.03086531305871904,0.11527933401875197
1772797055790999600,10.69799951171875,0.15110942987799644,-0.006331029652431607,0.16460209478810428
1772797055801025500,10.708025634765624,0.25639994238913055,-0.031039244853518902,0.1868875032890588
1772797055811050800,10.71805078125,0.2823486226379871,-0.0374330010112375,0.16648834692612288
1772797055821076700,10.72807666015625,0.2457031918078661,-0.018193061153404414,0.12061755324155092
1772797055831102700,10.738102783203125,0.2143009223282337,0.03276164819933474,0.033027751789614555
1772797055841127700,10.748127685546875,0.16463351283967495,0.003490107138082385,-0.018827157805860043
1772797055851153700,10.758153564453124,0.12115502111911773,0.0018799319950863719,-0.04282864950969815
1772797055861178600,10.7681787109375,0.15219254893958567,0.042168833894096314,-0.07804441286288201
1772797055871204600,10.77820458984375,0.17432839290201663,0.03343110842611641,-0.16156842618063091
1772797055881229600,10.7882294921875,0.1276958210647106,0.03969572177883238,-0.14771540352553128
1772797055891255600,10.798255615234375,0.035713702937960626,0.013694818152394145,-0.08513480951525271
1772797055901280800,10.80828076171875,-0.171815533298254,-0.02432811157600954,-0.027219942293688654
1772797055911306500,10.818306396484376,-0.34166765756905076,-0.001486019040364772,0.03329349005371332
1772797055921332500,10.82833251953125,-0.36168577872514723,-0.00964201736394316,0.07863054218776523
1772797055931357700,10.838357666015625,-0.2710363705068827,-0.010109379147365689,0.10314787445925176
1772797055941383700,10.8483837890625,-0.13247662560045717,-0.0014280600417405367,0.09158420485034584
1772797055951408600,10.85840869140625,0.01695581097602844,0.0076699866386130446,0.05989880758039653
1772797055961434600,10.8684345703125,0.130015203922987,0.008312485793232917,0.017105375514551997
1772797055971459600,10.87845947265625,0.2156435691088438,0.0673873732374981,-0.002932546320557594
1772797055981485600,10.888485595703125,0.27392215507626533,0.03420033923294395,0.06783135414533317
1772797055991510500,10.898510498046875,0.28761867199540136,-0.04980152072962373,0.11255246633812785
1772797056001536500,10.90853662109375,0.28852877257764337,-0.045005226363800464,0.09244849352948367
1772797056011562500,10.9185625,0.245984931358695,-0.02415569588486105,0.06677351565547288
1772797056021587700,10.928587646484376,0.16006781235933304,-0.004133556140772998,0.026939517917111515
1772797056031613700,10.93861376953125,0.05753215151429176,0.007231668286584317,-0.00942410029694438
1772797056041638700,10.948638671875,-0.027481296643614768,0.02485001655826345,-0.06327690571136772
1772797056051664600,10.95866455078125,-0.10004384402930735,0.048640002669580275,-0.0888416281439364
1772797056061689600,10.968689697265624,-0.09752689277231692,0.065624674413912,-0.13325491649657487
1772797056071716400,10.97871630859375,-0.16059329753816126,0.050733851409982884,-0.16200046092234552
1772797056081742300,10.988742431640626,-0.11401216362714767,0.08788715869700535,-0.1384965434771031
1772797056091767300,10.998767333984375,0.1279839903563261,0.0736228152946569,-0.15956563499085605
1772797056101793300,11.008793212890625,-0.047314708882570264,-0.05281542519070208,-0.0522303187791258
1772797056111818000,11.01881787109375,-0.20457564712762832,-0.10890892220400274,0.18493826891742646
1772797056121844200,11.02884423828125,-0.10214344665706157,-0.09120154394200071,0.17707265010885892
1772797056131869200,11.038869140625,0.023023732712864873,-0.07475883358726278,0.03854096225313842
1772797056141895200,11.048895263671875,-0.030654665982723234,0.0024063304893672463,0.0052680765960365535
1772797056151920000,11.058920166015625,-0.04492284530997276,0.04479952945755794,0.005600377290323377
1772797056161946400,11.0689462890625,0.14782324781417847,0.0696925266410224,-0.09271927329488099
1772797056171972400,11.078972412109374,0.33220191008746625,0.016634543132409453,-0.039147038387507195
1772797056181997300,11.088997314453126,0.34331133312284945,-0.022296952808275816,-0.0025458850905299185
1772797056192023300,11.099023193359375,0.29379239219427106,-0.016617007475718856,-0.0028061434619128705
1772797056202048300,11.10904833984375,0.23346564152538776,-0.024764110106788573,0.040686961305886504
1772797056212074200,11.11907421875,0.19294541508853436,-0.06974253979520872,0.0636014614906162
1772797056222099200,11.12909912109375,0.24720775115191934,-0.08899261745456606,-0.005518398095294833
1772797056232125200,11.139125244140626,0.10602408748269081,-0.07837956310138106,-0.013775208178535102
1772797056242150400,11.149150390625,-0.13822422934174536,-0.01732128328755498,0.05693710823059082
1772797056252176400,11.15917626953125,-0.24325287604629992,0.045798148573469366,0.0226391173094511
1772797056262202400,11.169202392578125,-0.20861703147292135,0.02610650115907192,-0.003100961690023541
1772797056272227300,11.179227294921875,-0.12281681685149669,0.04596071872403845,-0.07940437610447407
1772797056282253300,11.18925341796875,-0.0463806429028511,0.06580158361708745,-0.159481756099686
1772797056292278300,11.1992783203125,0.0072772975265979764,0.05649499048627913,-0.1332739865232259
1772797056302304300,11.20930419921875,0.025925883895158767,0.025084866493754087,-0.10768515256270765
1772797056312329200,11.2193291015625,-0.048663200882077214,-0.010443506472557783,-0.08860372773483395
1772797056322355200,11.229355224609375,-0.09771335525512695,-0.008181461558397858,0.022619389695674178
1772797056332381200,11.239381103515624,-0.00894201586842537,0.006200462075322866,-0.05604563928358256
1772797056342406400,11.249406494140626,-0.027601708152890203,0.17453799879839643,-0.05965235853865743
1772797056352432000,11.25943212890625,-0.016417466315627096,0.03623421968072653,0.020110110288485885
1772797056362457300,11.269457275390625,0.05369885696172714,-0.06528272910844535,0.10904043962918221
1772797056372483300,11.2794833984375,0.23125264165103435,-0.07877278193635866,0.15976904860846697
1772797056382508300,11.28950830078125,0.3669330317288637,-0.06487318019317463,0.054042921159043904
1772797056392534300,11.2995341796875,0.3766325879663229,-0.0842908695043996,0.1615223950818181
1772797056402559200,11.309559326171875,0.4752946222484111,-0.1367950185225345,0.16069346997700631
1772797056412585200,11.319585205078125,0.45863341030478477,-0.13555197792518883,0.0121698188085109
1772797056422611200,11.329611083984375,0.31053193007111546,-0.07587161713475361,0.09737447868958116
1772797056432636200,11.33963623046875,0.25223639296889305,-0.022328918849118053,0.03146430186517536
1772797056442662100,11.349662109375,0.04593114556968212,-0.03759118724763393,-0.06026099195629358
1772797056452687400,11.359687255859376,-0.17895371461510656,0.047667175582051274,-0.016942147776857017
1772797056462713300,11.36971337890625,-0.2661947756946087,0.1368764862609096,-0.17519618871249257
1772797056472738300,11.37973828125,-0.4397562758773565,0.13976782378824426,-0.11045578631982207
1772797056482764300,11.389764404296875,-0.4202992957353592,0.08706623423555865,-0.07472995455265044
1772797056492789200,11.399789306640624,-0.17634440889954567,0.05068893455602228,-0.12312690571397543
1772797056502815200,11.409815185546876,-0.11936813770234585,-0.027410953087452797,-0.04289301998279989
1772797056512841200,11.41984130859375,-0.09355155940055847,-0.04742719281371682,0.07080211358442902
1772797056522866200,11.4298662109375,-0.06180676009356975,-0.07403716824920847,0.09582856442183256
1772797056532892200,11.43989208984375,-0.09845745162069797,-0.004915555097628385,0.05737316156029701
1772797056542917400,11.44991748046875,-0.09277239172160624,0.0423682471900247,0.06993979766666888
1772797056552943000,11.459943115234376,-0.022464345264434814,-0.018982604095898567,0.0732417618215084
1772797056562968300,11.46996826171875,0.15094751731455325,-0.015174206522572785,0.08418854164108633
1772797056572994300,11.479994384765625,0.21509119592308998,-0.06907158173108473,0.09908698169589042
1772797056583019300,11.490019287109375,0.24387130020558834,-0.12281402210621163,0.09642258479222655
1772797056593045200,11.500045166015624,0.25175766954123974,0.022135460369940844,0.07294840489812195
1772797056603071200,11.5100712890625,0.22808862466216087,0.02640906430222094,0.06604834318608045
1772797056613096200,11.52009619140625,0.1413940915495157,0.04404847362823784,-0.06411109151318668
1772797056623122200,11.5301220703125,-0.034925182908773424,0.06236958160810172,-0.09090360217504202
1772797056633147100,11.540147216796875,-0.25208792440891264,0.09096305901100858,-0.084961279579252
1772797056643173000,11.550173095703125,-0.28928806651234623,0.15829440947864204,-0.129746616114676
1772797056653198300,11.5601982421875,-0.21833178527951239,0.21031283907275647,-0.34055487402155993
1772797056663224300,11.570224365234376,0.005673369461297989,0.005174406963214278,-0.1232921792782843
1772797056673250300,11.580250244140625,0.19803718526959418,-0.11257718065427616,-0.18337489205822347
1772797056683275300,11.590275146484375,0.006759995654225349,-0.0782397710382007,-0.12990363330729304
1772797056693301200,11.60030126953125,-0.08483458445966244,-0.1061587284467183,-0.05754333049543202
1772797056703326200,11.610326171875,-0.14019406810998916,-0.094265333693102,0.16316789726652203
1772797056713352200,11.620352294921876,-0.051825464305281635,-0.0898536181980744,0.15965492070950565
1772797056723377200,11.630377197265625,0.21937515685260295,-0.12080007020160555,0.16715769755505025
1772797056733403100,11.640403076171875,0.5800555579274892,-0.05223291259501129,0.02732778658233583
