time,seconds_elapsed,z,y,x
1772797045173911300,0.080911376953125,0.0041129859164357185,-0.026972228661179543,0.032462600618600845
1772797045183937300,0.090937255859375,-0.006856308318674564,-0.03280135616660118,0.04893265664577484
1772797045193962200,0.100962158203125,-0.020860275253653526,-0.032574187964200974,0.044558677822351456
1772797045203988200,0.11098828125,-0.03861423581838608,-0.016393087804317474,0.03509433940052986
1772797045214014200,0.12101416015625,-0.05073028802871704,-0.01091789547353983,0.0241940189152956
1772797045224039400,0.131039306640625,-0.056058742105960846,0.00005885586142539978,0.009019860066473484
1772797045234065400,0.1410654296875,-0.06197468936443329,0.010204700753092766,-0.0017038905061781406
1772797045244090400,0.15109033203125,-0.07387954741716385,0.015334215015172958,0.00663340138271451
1772797045254116400,0.161116455078125,-0.0684909075498581,0.005474660079926252,0.020807543769478798
1772797045264141300,0.171141357421875,-0.05667366459965706,-0.003765976056456566,0.0297861248254776
1772797045274167300,0.181167236328125,-0.05633997172117233,0.0013539510546252131,0.0364147312939167
1772797045284193300,0.191193359375,-0.04965463653206825,-0.0014021543320268393,0.03830850496888161
1772797045294218200,0.20121826171875,-0.03905579075217247,-0.006913566030561924,0.036199018359184265
1772797045304244200,0.211244140625,-0.03401043266057968,0.002013616031035781,0.03382028266787529
1772797045314269200,0.221269287109375,-0.0209492240101099,0.0012945625931024551,0.025613751262426376
1772797045324295200,0.231295166015625,-0.010206830687820911,0.0032088428270071745,0.021709555760025978
1772797045334320400,0.2413203125,-0.004985969979315996,0.012182896956801414,0.03462029621005058
1772797045344346400,0.251346435546875,-0.0003834952076431364,-0.018023476004600525,0.0545165054500103
1772797045354372400,0.261372314453125,-0.005327120888978243,-0.044731784611940384,0.0730568990111351
1772797045364397300,0.271397216796875,-0.0029353362042456865,-0.03907389938831329,0.05871924012899399
1772797045374423300,0.28142333984375,0.011235610581934452,-0.01979900524020195,0.03626053407788277
1772797045384448300,0.2914482421875,0.02328135445713997,-0.004780107643455267,0.008266451768577099
1772797045394474200,0.30147412109375,0.01852787844836712,0.0008833705214783549,-0.012080631218850613
1772797045404499200,0.311499267578125,0.0036434705834835768,0.023663517087697983,-0.028253475204110146
1772797045414525200,0.321525146484375,0.0070619042962789536,0.039502400904893875,-0.036617666482925415
1772797045424550400,0.33155029296875,0.02315991371870041,0.025831330567598343,-0.04189445450901985
1772797045434576400,0.341576416015625,0.00646668765693903,-0.0036674391012638807,-0.03039279393851757
1772797045444602400,0.351602294921875,-0.01139912847429514,-0.0020184097811579704,-0.011641742661595345
1772797045454627300,0.36162744140625,-0.023800937458872795,0.00941906776279211,0.004449609667062759
1772797045464653300,0.3716533203125,-0.03508315235376358,0.015077220275998116,0.021637119352817535
1772797045474678300,0.38167822265625,-0.04020920395851135,0.008723184466362,0.03906377777457237
1772797045484704300,0.391704345703125,-0.04445188492536545,-0.005373193882405758,0.056531187146902084
1772797045494729200,0.401729248046875,-0.043415915220975876,-0.005133509170264006,0.06650765240192413
1772797045504755200,0.411755126953125,-0.0480109341442585,0.0016682040877640247,0.07556693255901337
1772797045514781200,0.42178125,-0.035534292459487915,-0.003727093804627657,0.06801526993513107
1772797045524806100,0.43180615234375,-0.034261032938957214,0.008422779850661755,0.05566912144422531
1772797045534832000,0.44183203125,-0.033902306109666824,0.00917352456599474,0.04411393031477928
1772797045544857300,0.451857421875,-0.022787870839238167,0.0057585532777011395,0.0308694988489151
1772797045554883300,0.46188330078125,-0.013141901232302189,0.0062911855056881905,0.009678193368017673
1772797045564908300,0.471908203125,-0.00392842898145318,0.013225523754954338,-0.002913498319685459
1772797045574934300,0.481934326171875,0.003882089862599969,-0.00033156355493701994,-0.007192931603640318
1772797045584959200,0.491959228515625,0.009089368395507336,-0.011452125385403633,-0.013436713255941868
1772797045594985200,0.501985107421875,0.009218798018991947,-0.010235860012471676,-0.020609404891729355
1772797045605011200,0.51201123046875,0.009975402615964413,-0.008143413811922073,-0.027269970625638962
1772797045615036200,0.5220361328125,0.008922921493649483,0.0007211840129457414,-0.03449033200740814
1772797045625062100,0.532062255859375,0.002603772561997175,0.011031611822545528,-0.03767893463373184
1772797045635087400,0.54208740234375,-0.009622001089155674,0.0075604477897286415,-0.028542162850499153
1772797045645113300,0.55211328125,-0.018013887107372284,-0.012264123186469078,-0.008730906993150711
1772797045655139300,0.562139404296875,-0.028201011940836906,-0.022483205422759056,-0.0019829897210001945
1772797045665164300,0.572164306640625,-0.023932496085762978,-0.005858155433088541,-0.010995659045875072
1772797045675190300,0.582190185546875,-0.01986105553805828,-0.0006625944515690207,-0.020122844725847244
1772797045685215200,0.59221533203125,-0.020919131115078926,-0.004326571244746447,-0.01564127765595913
1772797045695241200,0.6022412109375,-0.019662117585539818,-0.004859469830989838,-0.008838498964905739
1772797045705266200,0.61226611328125,-0.02093857154250145,-0.003448527306318283,-0.010700315237045288
1772797045715292200,0.622292236328125,-0.018818961456418037,0.006525010801851749,-0.020232301205396652
1772797045725318100,0.632318115234375,-0.014869493432343006,0.014786136336624622,-0.0320599302649498
1772797045735343000,0.642343017578125,-0.0051777176558971405,0.015380820259451866,-0.03551618382334709
1772797045745369000,0.652369140625,-0.0031150993891060352,-0.010617224499583244,-0.02684013545513153
1772797045755394300,0.662394287109375,-0.000931307440623641,-0.03686587139964104,-0.004341751337051392
1772797045765420300,0.672420166015625,-0.007564442697912455,-0.04908605292439461,0.0028940571937710047
1772797045775445200,0.6824453125,-0.013251356780529022,-0.03182104602456093,-0.008674981072545052
1772797045785471200,0.69247119140625,-0.009228918701410294,-0.017310013994574547,-0.03443999961018562
1772797045795497200,0.702497314453125,-0.011124024167656898,-0.015175756998360157,-0.05410611256957054
1772797045805522200,0.712522216796875,-0.01272964384406805,-0.026331206783652306,-0.061654843389987946
1772797045815548200,0.722548095703125,-0.01617870293557644,-0.019955864176154137,-0.053876280784606934
1772797045825573000,0.732572998046875,-0.017199227586388588,-0.009741044603288174,-0.04351072385907173
1772797045835599000,0.74259912109375,-0.018371284008026123,-0.0024311996530741453,-0.01907196082174778
1772797045845624300,0.752624267578125,-0.019041068851947784,-0.0023398532066494226,0.0034847462084144354
1772797045855650300,0.762650390625,-0.0301365964114666,-0.008137288503348827,0.03178349509835243
1772797045865676300,0.77267626953125,-0.03175073862075806,-0.018369952216744423,0.06362798064947128
1772797045875701200,0.782701171875,-0.037991855293512344,-0.018337462097406387,0.081702321767807
1772797045885727200,0.792727294921875,-0.0378379262983799,-0.010430802591145039,0.08888060599565506
1772797045895752200,0.802752197265625,-0.03358113020658493,-0.0046173888258636,0.08300700038671494
1772797045905778200,0.812778076171875,-0.029440445825457573,-0.013236709870398045,0.07281375676393509
1772797045915804200,0.82280419921875,-0.021277325227856636,-0.019236279651522636,0.0533822663128376
1772797045925829000,0.8328291015625,-0.012254801578819752,-0.012598616071045399,0.029450833797454834
1772797045935855000,0.842855224609375,-0.008614793419837952,-0.006312224548310041,-0.001454618526622653
1772797045945880000,0.852880126953125,-0.003846669802442193,0.007898136973381042,-0.031853269785642624
1772797045955906000,0.862906005859375,0.0017249294323846698,0.010760501958429813,-0.054311443120241165
1772797045965931300,0.87293115234375,0.0031185615807771683,-0.007358580362051725,-0.06498272716999054
1772797045975957200,0.882957275390625,0.008408664725720882,-0.014329404570162296,-0.06525197625160217
1772797045985983200,0.892983154296875,0.006917028222233057,-0.014672153629362583,-0.06077307090163231
1772797045996008200,0.90300830078125,0.00830879621207714,-0.013575996272265911,-0.052200086414813995
1772797046006034200,0.9130341796875,0.004743622615933418,-0.010433732531964779,-0.039503466337919235
1772797046016059100,0.92305908203125,0.0005728459218516946,-0.003915912006050348,-0.027941886335611343
1772797046026085000,0.933085205078125,-0.003251187037676573,-0.009248625487089157,-0.005092496518045664
1772797046036111000,0.943111083984375,-0.009409214369952679,-0.018431471660733223,0.022403841838240623
1772797046046136000,0.953135986328125,-0.010436395183205605,-0.013249225914478302,0.03839585930109024
1772797046056162000,0.963162109375,-0.007048055995255709,-0.004682902246713638,0.04274400323629379
1772797046066187500,0.9731875,-0.005013134330511093,0.004321777727454901,0.03885791823267937
1772797046076213500,0.983213623046875,0.0013440974289551377,0.001192829804494977,0.034448254853487015
1772797046086238700,0.99323876953125,0.006973753683269024,0.00256462418474257,0.029381323605775833
1772797046096264700,1.0032646484375,0.010960505343973637,0.008272577077150345,0.0187222883105278
1772797046106290700,1.013290771484375,0.00749120581895113,0.008700280450284481,0.01824371889233589
1772797046116315600,1.023315673828125,0.00932372733950615,-0.010630805976688862,0.02088797092437744
1772797046126341600,1.033341552734375,0.00936021190136671,-0.020428042858839035,0.026492327451705933
1772797046136366600,1.04336669921875,0.008217450231313705,-0.022827018052339554,0.015163772739470005
1772797046146392600,1.053392578125,0.004790760576725006,-0.01727379485964775,0.00723447697237134
1772797046156418600,1.06341845703125,0.002855974016711116,-0.014332599937915802,-0.005197159014642239
1772797046166443500,1.073443603515625,0.010121610015630722,-0.004387291613966227,-0.02647288702428341
1772797046176469500,1.083469482421875,0.014552044682204723,0.007595335599035025,-0.044026315212249756
1772797046186494500,1.093494384765625,0.01557975821197033,0.01612810418009758,-0.05121418461203575
1772797046196520400,1.1035205078125,0.019108446314930916,0.009215869009494781,-0.049678605049848557
1772797046206545700,1.113545654296875,0.019533753395080566,-0.0014045510906726122,-0.03761155903339386
1772797046216571600,1.123571533203125,0.019210180267691612,-0.011798868887126446,-0.024087758734822273
1772797046226597600,1.13359765625,0.015058045275509357,-0.021281586959958076,-0.011550928466022015
1772797046236622600,1.14362255859375,0.012212724424898624,-0.023784691467881203,-0.006601976230740547
1772797046246648600,1.153648681640625,0.0023150858469307423,-0.015397065319120884,0.0005518069956451654
1772797046256673500,1.163673583984375,-0.005537777207791805,-0.007367635145783424,0.0003067961661145091
1772797046266699500,1.173699462890625,-0.008762332610785961,-0.006200105417519808,0.0017869811272248626
1772797046276725500,1.1837255859375,-0.007427556440234184,0.0007731156656518579,0.0031403994653373957
1772797046286750500,1.19375048828125,-0.009441172704100609,0.011901666410267353,0.0018897791160270572
1772797046296776400,1.2037763671875,-0.011245197616517544,0.01552143506705761,0.004044010303914547
1772797046306801700,1.2138017578125,-0.014702779240906239,0.013880128972232342,0.005333778914064169
1772797046316827600,1.22382763671875,-0.014283065684139729,0.002739860210567713,0.012869725935161114
1772797046326853600,1.233853515625,-0.007927698083221912,-0.011653460562229156,0.015428757295012474
1772797046336878600,1.243878662109375,0.0035175031516700983,-0.027062511071562767,0.010232930071651936
1772797046346904600,1.253904541015625,0.0084262415766716,-0.02743881568312645,-0.0041425470262765884
1772797046356929500,1.263929443359375,0.016035158187150955,-0.017885256558656693,-0.031795747578144073
1772797046366955500,1.27395556640625,0.013397297821938992,-0.01489452738314867,-0.05209435895085335
1772797046376981500,1.2839814453125,0.012167982757091522,-0.008274175226688385,-0.05666168034076691
1772797046387006500,1.29400634765625,0.008084557950496674,-0.013614878058433533,-0.05746356025338173
1772797046397032400,1.304032470703125,0.003790477057918906,-0.019603528082370758,-0.06090516224503517
1772797046407057400,1.314057373046875,0.0062392535619437695,-0.008972988463938236,-0.06260159611701965
1772797046417083400,1.32408349609375,0.003210174385458231,0.002682602033019066,-0.059490758925676346
1772797046427109400,1.334109375,0.0016982977977022529,0.010373012162744999,-0.042270757257938385
1772797046437134600,1.344134521484375,-0.0036128442734479904,0.008335161954164505,-0.015047659166157246
1772797046447160600,1.35416064453125,-0.010725081898272038,-0.010126137174665928,0.025802835822105408
1772797046457185500,1.364185546875,-0.01486256904900074,-0.02461905963718891,0.05980074778199196
1772797046467211500,1.37421142578125,-0.014643923379480839,-0.021742846816778183,0.07478875666856766
1772797046477236500,1.384236572265625,-0.009883522987365723,-0.009306415915489197,0.06666690856218338
1772797046487262500,1.394262451171875,-0.004238154739141464,-0.0019619506783783436,0.04637335613369942
1772797046497288400,1.404288330078125,0.0003579288604669273,-0.00035420042695477605,0.029744047671556473
1772797046507313400,1.4143134765625,0.003772367723286152,-0.006401440128684044,0.025350097566843033
1772797046517339400,1.42433935546875,0.008708270266652107,-0.017011741176247597,0.019298329949378967
1772797046527364600,1.434364501953125,0.01611798256635666,-0.013793043792247772,0.00001864212754298933
1772797046537390600,1.444390625,0.020123377442359924,0.00021731393644586205,-0.021996378898620605
1772797046547416600,1.45441650390625,0.02231942117214203,-0.0023702133912593126,-0.03657851740717888
1772797046557441500,1.464441650390625,0.01913268119096756,-0.007952199317514896,-0.04380100965499878
1772797046567467500,1.474467529296875,0.01888687163591385,-0.00851625669747591,-0.04962347820401192
1772797046577492500,1.484492431640625,0.010219081304967403,-0.006909305229783058,-0.05077769234776497
1772797046587518500,1.4945185546875,0.005330849438905716,-0.008610266260802746,-0.046915844082832336
1772797046597544700,1.504544677734375,0.0039113848470151424,-0.007906392216682434,-0.046185337007045746
1772797046607569400,1.5145693359375,-0.002425074577331543,-0.0070222229696810246,-0.03074805811047554
1772797046617595600,1.524595703125,-0.01016555167734623,-0.018388595432043076,-0.006070942152291536
1772797046627620400,1.534620361328125,-0.011864649131894112,-0.026226278394460678,0.013793310150504112
1772797046637646600,1.544646484375,-0.028265459463000298,-0.025472337380051613,0.013656423427164555
1772797046647672600,1.554672607421875,-0.01912575773894787,-0.0029702235478907824,0.018341723829507828
1772797046657697800,1.56469775390625,-0.026339462026953697,0.006683735176920891,0.018818162381649017
1772797046667723800,1.574723876953125,-0.019399531185626984,0.007570301648229361,0.017713749781250954
1772797046677748700,1.584748779296875,-0.014026869088411331,-0.0025798040442168713,0.016529707238078117
1772797046687774700,1.594774658203125,-0.013891846872866154,-0.014158695936203003,0.018992332741618156
1772797046697800700,1.60480078125,-0.012411662377417088,-0.015365107916295528,0.020839234814047813
1772797046707825700,1.61482568359375,-0.005005144979804754,-0.009672068059444427,0.0221436507999897
1772797046717851600,1.6248515625,-0.0006900250446051359,-0.008772452361881733,0.021080784499645233
1772797046727876600,1.634876708984375,0.006022206041961908,-0.009667540900409222,0.013731790706515312
1772797046737902600,1.644902587890625,0.015273494645953178,-0.015191202983260155,0.0036336169578135014
1772797046747928600,1.654928466796875,0.01600346714258194,-0.014491324312984943,-0.006625145673751831
1772797046757953500,1.66495361328125,0.011699533089995384,-0.012710468843579292,-0.0126420259475708
1772797046767979500,1.6749794921875,0.0059601543471217155,-0.01260953489691019,-0.024594824761152267
1772797046778004700,1.685004638671875,0.007305583450943232,-0.00541447289288044,-0.03682086616754532
1772797046788030700,1.69503076171875,0.010578608140349388,-0.0011776498286053538,-0.04844769462943077
1772797046798056700,1.705056640625,0.011483284644782543,-0.0009187905816361308,-0.04622235521674156
1772797046808081700,1.71508154296875,0.011141601018607616,-0.006473345682024956,-0.03996339440345764
1772797046818107600,1.725107666015625,0.00942173134535551,-0.008565258234739304,-0.02321903593838215
1772797046828132600,1.735132568359375,0.0075513930059969425,-0.016405072063207626,-0.00544403400272131
1772797046838158600,1.74515869140625,0.005915945861488581,-0.016953682526946068,0.008363923989236355
1772797046848184600,1.7551845703125,0.0025449167005717754,-0.015055116266012192,0.015356319025158882
1772797046858209500,1.76520947265625,-0.0037491980474442244,-0.013188772834837437,0.015631956979632378
1772797046868235500,1.775235595703125,-0.009600695222616196,-0.0060296631418168545,0.008592689409852028
1772797046878260700,1.7852607421875,-0.016148876398801804,0.0054818508215248585,0.0007909588166512549
1772797046888286500,1.795286376953125,-0.017364077270030975,0.008302404545247555,-0.0010551444720476866
1772797046898312400,1.8053125,-0.014135792851448059,0.0033190976828336716,0.0030213561840355396
1772797046908337700,1.815337646484375,-0.010131197050213814,-0.0034610440488904715,0.0012873720843344927
1772797046918363600,1.82536376953125,-0.008432100526988506,0.0013888385146856308,0.001005343277938664
1772797046928388600,1.835388671875,-0.00628932099789381,0.010701113380491734,-0.0003813646617345512
1772797046938414600,1.84541455078125,-0.0026399914640933275,0.0026991136837750673,0.006381466519087553
1772797046948440600,1.855440673828125,0.0019236012594774365,-0.016041018068790436,0.019452793523669243
1772797046958465500,1.865465576171875,0.013439375907182693,-0.026396453380584717,0.015313442796468735
1772797046968491500,1.875491455078125,0.01805037260055542,-0.018674883991479874,-0.0018210695125162601
1772797046978516500,1.8855166015625,0.019944945350289345,-0.008045143447816372,-0.027726968750357628
1772797046988542500,1.89554248046875,0.020534036681056023,0.00313001312315464,-0.049735862761735916
1772797046998568400,1.905568359375,0.02244405634701252,0.005310609471052885,-0.06581949442625046
1772797047008593700,1.91559375,0.022101040929555893,0.003173955250531435,-0.07249683886766434
1772797047018619600,1.92561962890625,0.015142734162509441,0.0009294432238675654,-0.07268299162387848
1772797047028644600,1.93564453125,0.004728176165372133,-0.0031696942169219255,-0.06484557688236237
1772797047038670600,1.945670654296875,-0.006410761270672083,-0.0015425028977915645,-0.04854969307780266
1772797047048696600,1.955696533203125,-0.014169614762067795,0.0048948898911476135,-0.028420189395546913
1772797047058721500,1.965721435546875,-0.02369707264006138,0.010645986534655094,0.0006761765689589083
1772797047068747500,1.97574755859375,-0.028179174289107323,0.009646502323448658,0.03815777227282524
1772797047078772500,1.9857724609375,-0.034444525837898254,0.0003158508916385472,0.07165181636810303
1772797047088798500,1.995798583984375,-0.030825290828943253,-0.01960565894842148,0.09912046045064926
1772797047098824400,2.005824462890625,-0.026555445045232773,-0.020414726808667183,0.10340335220098495
1772797047108849400,2.015849365234375,-0.02454742044210434,-0.007190801203250885,0.0901075229048729
1772797047118875400,2.02587548828125,-0.018281536176800728,0.005949501879513264,0.06795614957809448
1772797047128900600,2.035900634765625,-0.010541590861976147,0.0038807583041489124,0.04622102528810501
1772797047138926600,2.045926513671875,0.002840261207893491,-0.0001030643325066194,0.02303927205502987
1772797047148952600,2.05595263671875,0.01122149545699358,0.0002181128947995603,-0.0026788737159222364
1772797047158977500,2.0659775390625,0.019164640456438065,0.0011619371362030506,-0.02522226609289646
1772797047169003500,2.07600341796875,0.02118171751499176,0.002838130807504058,-0.049141447991132736
1772797047179028500,2.086028564453125,0.020796891301870346,0.004473311826586723,-0.05625235289335251
1772797047189054500,2.096054443359375,0.017293769866228104,-0.011082212440669537,-0.05717913433909416
1772797047199080400,2.10608056640625,0.016463128849864006,-0.01296240370720625,-0.060083311051130295
1772797047209105400,2.11610546875,0.013508085161447525,-0.023374032229185104,-0.054965779185295105
1772797047219131400,2.12613134765625,0.011324293911457062,-0.023154854774475098,-0.05005011707544327
1772797047229156600,2.136156494140625,0.005290369503200054,-0.006600910797715187,-0.04255837947130203
1772797047239182600,2.1461826171875,0.003245594445616007,0.0022338596172630787,-0.02827717736363411
1772797047249208600,2.15620849609375,0.0019803266040980816,0.0073348782025277615,-0.011373295448720455
1772797047259233500,2.166233642578125,0.0006444850005209446,0.005675462540239096,0.011121626943349838
1772797047269259500,2.176259521484375,-0.003778493031859398,-0.0005099953268654644,0.0388275571167469
1772797047279284500,2.186284423828125,-0.006338323466479778,-0.01571584679186344,0.0685039609670639
1772797047289310500,2.196310546875,-0.0092936335131526,-0.025319471955299377,0.08534152805805206
1772797047299336400,2.20633642578125,-0.01215706393122673,-0.01587909832596779,0.08584859222173691
1772797047309361400,2.216361328125,-0.017856495454907417,-0.00145195540972054,0.06308362632989883
1772797047319387400,2.226387451171875,-0.019628295674920082,0.007673099637031555,0.032216791063547134
1772797047329412400,2.236412353515625,-0.021563615649938583,0.012838300317525864,0.008978847414255142
1772797047339438300,2.246438232421875,-0.025419073179364204,-0.0006181196658872068,-0.0012245214311406016
1772797047349464300,2.25646435546875,-0.024152474477887154,-0.0204544086009264,0.0006151901907287538
1772797047359489500,2.266489501953125,-0.018082864582538605,-0.015214638784527779,-0.014030331745743752
1772797047369515500,2.276515625,-0.011460913345217705,-0.006459763273596764,-0.03447834774851799
1772797047379540500,2.28654052734375,-0.001752360025420785,0.004671717062592506,-0.047690555453300476
1772797047389566500,2.29656640625,-0.00022397184511646628,-0.003931624814867973,-0.04219752177596092
1772797047399592400,2.306592529296875,0.005367601290345192,-0.018328674137592316,-0.03386395797133446
1772797047409617400,2.316617431640625,0.007849667221307755,-0.020132431760430336,-0.03503068909049034
1772797047419643400,2.326643310546875,0.009623332880437374,-0.009858223609626293,-0.032226379960775375
1772797047429668400,2.33666845703125,0.01727992109954357,-0.005254683084785938,-0.029391711577773094
1772797047439694300,2.3466943359375,0.013734720647335052,-0.0016223976854234934,-0.025133848190307617
1772797047449719600,2.356719482421875,0.00980362854897976,-0.0007683219737373292,-0.009618538431823254
1772797047459745300,2.366745361328125,0.007421164773404598,-0.004548679105937481,0.003111371072009206
1772797047469771300,2.376771240234375,0.007311975117772818,-0.012114985845983028,0.011476892977952957
1772797047479796500,2.38679638671875,0.006934605073183775,-0.010026801377534866,0.01380955521017313
1772797047489822500,2.396822509765625,0.003141731023788452,-0.012530705891549587,0.013786652125418186
1772797047499848400,2.406848388671875,-0.000931041082367301,-0.013610617257654667,0.004288754425942898
1772797047509873400,2.416873291015625,-0.005299424286931753,-0.007742607966065407,-0.011943744495511055
1772797047519899400,2.4268994140625,-0.00729386555030942,-0.0031132353469729424,-0.025525599718093872
1772797047529924400,2.43692431640625,-0.015080948360264301,0.006648847833275795,-0.03815324604511261
1772797047539950300,2.446950439453125,-0.012432967312633991,0.011514176614582539,-0.0516141913831234
1772797047549975300,2.456975341796875,-0.009294698014855385,0.008792959153652191,-0.05272659286856651
1772797047560001300,2.467001220703125,0.003943875432014465,0.0018255969043821096,-0.043831903487443924
1772797047570027500,2.477027587890625,0.009578058496117592,-0.003817907767370343,-0.02261796034872532
1772797047580052500,2.487052490234375,0.013158945366740227,-0.008323709480464458,0.00044288369826972485
1772797047590078700,2.49707861328125,0.004083957523107529,-0.0075849490240216255,0.014420484192669392
1772797047600103400,2.507103515625,-0.0028216191567480564,-0.003926032222807407,0.0203327015042305
1772797047610129700,2.517129638671875,-0.006762032397091389,-0.0043686493299901485,0.02142832614481449
1772797047620155600,2.52715576171875,-0.005103948060423136,-0.00762915750965476,0.010335462167859077
1772797047630180600,2.5371806640625,0.00012170646368758753,-0.012010856531560421,0.00008974852971732616
1772797047640206600,2.54720654296875,-0.0014008227735757828,-0.013110741972923279,-0.008056062273681164
1772797047650231600,2.5572314453125,-0.0022567627020180225,-0.011174623854458332,-0.019244002178311348
1772797047660257500,2.567257568359375,0.0016756609547883272,-0.0037824877072125673,-0.037165746092796326
1772797047670283500,2.577283447265625,0.002139583695679903,0.0017486315919086337,-0.04965197667479515
1772797047680308500,2.58730859375,-0.00216568261384964,0.005625395104289055,-0.06548366695642471
1772797047690334500,2.59733447265625,-0.004446680191904306,0.0032735576387494802,-0.07136765867471695
1772797047700359700,2.607359619140625,-0.012378638610243797,-0.000330231967382133,-0.06338483095169067
1772797047710385700,2.6173857421875,-0.022006765007972717,-0.002031192881986499,-0.04414881765842438
1772797047720411600,2.62741162109375,-0.028486503288149834,0.00439075380563736,-0.017374197021126747
1772797047730436600,2.6374365234375,-0.032045550644397736,0.005347094964236021,0.010947190225124359
1772797047740462600,2.647462646484375,-0.028233235701918602,-0.0014687333023175597,0.03482535853981972
1772797047750487600,2.657487548828125,-0.022532738745212555,-0.00043995422311127186,0.051542021334171295
1772797047760513500,2.667513427734375,-0.013806626200675964,-0.009765278548002243,0.05931392312049866
1772797047770539500,2.67753955078125,-0.006078132428228855,-0.010518155060708523,0.05969555303454399
1772797047780564500,2.687564453125,-0.0036730316933244467,-0.011750931851565838,0.04626656323671341
1772797047790590500,2.697590576171875,0.00026019083452410996,-0.006054696626961231,0.027120834216475487
1772797047800615400,2.707615478515625,0.006295979022979736,0.004858671221882105,0.009833189658820629
1772797047810641400,2.717641357421875,0.01167263463139534,0.00774607015773654,-0.0070576430298388
1772797047820667400,2.72766748046875,0.019773172214627266,-0.0037643781397491693,-0.016454074531793594
1772797047830692600,2.737692626953125,0.0242608655244112,-0.011655590496957302,-0.022540995851159096
1772797047840718600,2.747718505859375,0.03175020590424538,-0.009471798315644264,-0.033312950283288956
1772797047850743600,2.75774365234375,0.030918501317501068,-0.004453337751328945,-0.03664882481098175
1772797047860769500,2.76776953125,0.032223716378211975,-0.014013553969562054,-0.03129161149263382
1772797047870795500,2.77779541015625,0.024628380313515663,-0.017680993303656578,-0.023329025134444237
1772797047880820500,2.787820556640625,0.019567042589187622,-0.011861719191074371,-0.017294567078351974
1772797047890846500,2.797846435546875,0.009552226401865482,-0.004095941781997681,-0.008133027702569962
1772797047900871400,2.807871337890625,0.0013736584223806858,-0.00355904852040112,0.0006703176186420023
1772797047910897400,2.8178974609375,-0.004345479886978865,0.001862082164734602,0.006927148438990116
1772797047920923400,2.82792333984375,-0.011891013942658901,0.005361209623515606,0.011029215529561043
1772797047930948600,2.837948486328125,-0.017076455056667328,0.0021435783710330725,0.02172074094414711
1772797047940974600,2.847974609375,-0.020777184516191483,-0.004108192399144173,0.038544729351997375
1772797047950999600,2.85799951171875,-0.01931244507431984,-0.010061156004667282,0.04723009467124939
1772797047961025500,2.868025634765625,-0.0161784365773201,-0.012418586760759354,0.04397944360971451
1772797047971051500,2.878051513671875,-0.010183128528296947,-0.011856392957270145,0.04025287926197052
1772797047981076500,2.888076416015625,-0.008616125211119652,-0.009044094942510128,0.03370869532227516
1772797047991102500,2.8981025390625,-0.01050244178622961,-0.008074171841144562,0.028613802045583725
1772797048001127400,2.90812744140625,-0.005960687063634396,-0.005631520412862301,0.02197320945560932
1772797048011153400,2.9181533203125,-0.005907690152525902,0.001431182725355029,0.005997438915073872
1772797048021179400,2.928179443359375,-0.004145476501435041,-0.0024919197894632816,-0.007881891913712025
1772797048031204400,2.938204345703125,0.0019478360190987587,0.0005874933558516204,-0.028373051434755325
1772797048041230300,2.948230224609375,0.004965463653206825,0.00580782163888216,-0.038728222250938416
1772797048051255600,2.958255615234375,0.011835887096822262,-0.004544950556010008,-0.0378057025372982
1772797048061281500,2.968281494140625,0.01363325398415327,-0.01347452960908413,-0.02816958539187908
1772797048071307800,2.978307861328125,0.007510913070291281,-0.01287318766117096,-0.01996784843504429
1772797048081332700,2.988332763671875,0.0016578177455812693,-0.007798268459737301,-0.010916030965745449
1772797048091358700,2.998358642578125,0.0033305492252111435,-0.0044259075075387955,-0.005556951742619276
1772797048101383700,3.0083837890625,0.0031097731553018093,-0.010103766806423664,0.0014508900931105018
1772797048111409700,3.01840966796875,0.002614957746118307,-0.004811799619346857,0.0016612798208370805
1772797048121435600,3.028435546875,-0.002813895931467414,0.004788097459822893,-0.0018168084789067507
1772797048131460600,3.038460693359375,-0.006225937977433205,0.0062429821118712425,-0.0043649207800626755
1772797048141486600,3.048486572265625,-0.009707754477858543,0.007756190374493599,-0.0036538569256663322
1772797048151511600,3.058511474609375,-0.01255094539374113,0.0017089504981413484,0.002814162289723754
1772797048161537500,3.06853759765625,-0.01726553961634636,-0.00990243162959814,0.017402425408363342
1772797048171563500,3.0785634765625,-0.016468456014990807,-0.02371837943792343,0.03295954689383507
1772797048181588700,3.088588623046875,-0.020619258284568787,-0.02034441940486431,0.03224075958132744
1772797048191614700,3.09861474609375,-0.020908743143081665,-0.008758870884776115,0.018559036776423454
1772797048201639700,3.1086396484375,-0.022975889965891838,-0.0008916263468563557,0.005119927227497101
1772797048211665700,3.118665771484375,-0.025536518543958664,0.004465588368475437,-0.0043840957805514336
1772797048221691600,3.128691650390625,-0.024875255301594734,0.0020538298413157463,-0.0062301987782120705
1772797048231716600,3.138716552734375,-0.017588049173355103,0.003846936160698533,-0.010821755044162273
1772797048241742600,3.14874267578125,-0.009097358211874962,0.00780492601916194,-0.017254088073968887
1772797048251767600,3.158767578125,-0.008473645895719528,0.014731275849044323,-0.016293220221996307
1772797048261793500,3.16879345703125,-0.00652687530964613,0.013529124669730663,-0.008428905159235
1772797048271818800,3.17881884765625,-0.004919923841953278,0.007506652269512415,-0.0009299758239649236
1772797048281844700,3.1888447265625,-0.008025435730814934,0.000687361869495362,0.014772288501262665
1772797048291870700,3.19887060546875,-0.004830707795917988,-0.013373862020671368,0.027122164145112038
1772797048301895700,3.208895751953125,-0.0035782232880592346,-0.02358655259013176,0.02960023656487465
1772797048311921700,3.218921630859375,-0.005507150664925575,-0.019418705254793167,0.017256751656532288
1772797048321946600,3.228946533203125,-0.006610498297959566,-0.011150122620165348,0.007053115870803595
1772797048331972600,3.23897265625,-0.006578540429472923,-0.012760802172124386,-0.0014828480780124664
1772797048341998600,3.24899853515625,-0.0028759476263076067,-0.007075486239045858,-0.016208531334996223
1772797048352023600,3.2590234375,-0.0024053670931607485,-0.002686064224690199,-0.02599271759390831
1772797048362049500,3.269049560546875,-0.004102599807083607,-0.0024804682470858097,-0.03320535644888878
1772797048372074500,3.279074462890625,-0.015180550515651703,-0.0011595403775572777,-0.03724164515733719
1772797048382100500,3.2891005859375,-0.028191424906253815,0.0007416903390549123,-0.03724111244082451
1772797048392126500,3.29912646484375,-0.041063278913497925,0.012458800338208675,-0.025107217952609062
1772797048402151700,3.309151611328125,-0.04610650986433029,0.00794234499335289,-0.002773149637505412
1772797048412177700,3.319177734375,-0.048704955726861954,-0.0031728900503367186,0.025982864201068878
1772797048422202600,3.32920263671875,-0.046065494418144226,-0.006427805405110121,0.044676125049591064
1772797048432228600,3.339228515625,-0.03567250818014145,-0.01082654856145382,0.05928888916969299
1772797048442254600,3.349254638671875,-0.023969247937202454,-0.01751241460442543,0.05927823856472969
1772797048452279600,3.359279541015625,-0.009076053276658058,-0.004125769250094891,0.049910303205251694
1772797048462305500,3.369305419921875,-0.0014045510906726122,0.007767908275127411,0.02815067768096924
1772797048472330500,3.37933056640625,0.004206995479762554,0.008859803900122643,0.016437295824289322
1772797048482356500,3.3893564453125,0.006824616342782974,0.0023278691805899143,0.008378570899367332
1772797048492382500,3.399382568359375,0.01059405505657196,-0.0009060074225999415,-0.0023875238839536905
1772797048502407400,3.409407470703125,0.01269928365945816,0.002439189236611128,-0.018489528447389603
1772797048512433400,3.419433349609375,0.013643108308315277,0.0017118799732998013,-0.030170151963829994
1772797048522458600,3.429458740234375,0.013325126841664314,-0.005940713454037905,-0.03032994270324707
1772797048532484600,3.439484619140625,0.010732538998126984,-0.014682806096971035,-0.027234284207224846
1772797048542509600,3.449509521484375,0.00672155199572444,-0.016378439962863922,-0.024231836199760437
1772797048552535600,3.45953564453125,-0.001064998097717762,-0.0123030049726367,-0.01877821423113346
1772797048562561500,3.4695615234375,-0.010616159066557884,-0.00869415607303381,-0.014580274000763893
1772797048572586500,3.47958642578125,-0.020832045003771782,-0.004706870764493942,-0.006682403851300478
1772797048582612500,3.489612548828125,-0.0279123242944479,-0.002900714986026287,0.0029350698459893465
1772797048592637400,3.499637451171875,-0.031434621661901474,-0.0010301107540726662,0.01617950201034546
1772797048602663400,3.509663330078125,-0.030321154743433,0.002246642718091607,0.019634421914815903
1772797048612689400,3.519689453125,-0.028363730758428574,0.010640393942594528,0.017835723236203194
1772797048622714600,3.529714599609375,-0.025840651243925095,0.013218866661190987,0.015602395869791508
1772797048632740600,3.53974072265625,-0.022792929783463478,0.006856041960418224,0.026040121912956238
1772797048642765600,3.549765625,-0.022780945524573326,-0.006462160497903824,0.03580886498093605
1772797048652791600,3.55979150390625,-0.020329507067799568,-0.007949535734951496,0.03870664909482002
1772797048662817500,3.569817626953125,-0.01877022534608841,-0.009863549843430519,0.03759051859378815
1772797048672842500,3.579842529296875,-0.017592841759324074,-0.008943160995841026,0.026676883921027184
1772797048682868500,3.589868408203125,-0.02063044346868992,-0.0025337315164506435,0.009135973639786243
1772797048692893400,3.5998935546875,-0.023742614313960075,0.00227939966134727,-0.008207862265408039
1772797048702919400,3.60991943359375,-0.024942101910710335,0.003972903825342655,-0.024322116747498512
1772797048712945400,3.6199453125,-0.023358052596449852,0.008772186003625393,-0.030843932181596756
1772797048722970400,3.629970458984375,-0.018506307154893875,0.003547064261510968,-0.03145726025104523
1772797048732996400,3.639996337890625,-0.01774650625884533,0.000014647385796706658,-0.021009411662817
1772797048743021600,3.650021484375,-0.012799418531358242,-0.0032522522378712893,-0.011755725368857384
1772797048753047600,3.660047607421875,-0.007398261222988367,-0.009298959746956825,-0.0013552826130762696
1772797048763073800,3.67007373046875,-0.007125287316739559,-0.017418671399354935,0.002010686555877328
1772797048773098500,3.680098388671875,-0.011442537419497967,-0.012938435189425945,0.006237922236323357
1772797048783124700,3.690124755859375,-0.01672145538032055,-0.008037419989705086,0.004713262431323528
1772797048793149400,3.7001494140625,-0.018122011795639992,0.0008072041091509163,-0.006515157409012318
1772797048803175400,3.710175537109375,-0.022279739379882812,0.007507983595132828,-0.011802863329648972
1772797048813201700,3.72020166015625,-0.023743413388729095,0.004338023252785206,-0.007097324356436729
1772797048823226400,3.730226318359375,-0.02329014241695404,0.005905293393880129,-0.003917243797332048
1772797048833252600,3.740252685546875,-0.02015187405049801,-0.0020879183430224657,0.007547931279987097
1772797048843277600,3.750277587890625,-0.02190103754401207,-0.017074324190616608,0.022531939670443535
1772797048853303600,3.760303466796875,-0.02581694908440113,-0.024652348831295967,0.028187429532408714
1772797048863329500,3.77032958984375,-0.026152241975069046,-0.019410183653235435,0.02683880552649498
1772797048873354800,3.780354736328125,-0.030610373243689537,-0.012323511764407158,0.011292601935565472
1772797048883380700,3.790380615234375,-0.03477049618959427,-0.003634415799751878,-0.006916229147464037
1772797048893405700,3.80040576171875,-0.03465331718325615,0.0007302387384697795,-0.023498401045799255
1772797048903431700,3.810431640625,-0.031441278755664825,0.008449411019682884,-0.031139809638261795
1772797048913456600,3.82045654296875,-0.024169784039258957,0.0064714811742305756,-0.026799390092492104
1772797048923482600,3.830482666015625,-0.02316311001777649,0.0012833772925660014,-0.011097125709056854
1772797048933508600,3.840508544921875,-0.025046763941645622,0.0013214604696258903,0.004995024763047695
1772797048943533600,3.850533447265625,-0.02413037046790123,0.0003270361921750009,0.01840164326131344
1772797048953559600,3.8605595703125,-0.01895318552851677,-0.013081979937851429,0.0204530768096447
1772797048963584800,3.870584716796875,-0.007229150738567114,-0.01512968447059393,0.009822270832955837
1772797048973610800,3.88061083984375,-0.004502606578171253,-0.018267421051859856,-0.001335575245320797
1772797048983636700,3.89063671875,-0.0057039582170546055,-0.012226572260260582,-0.009750897996127605
1772797048993661700,3.90066162109375,-0.00737376045435667,-0.0054626758210361,-0.020711136981844902
1772797049003687700,3.910687744140625,-0.0067686899565160275,0.00344586418941617,-0.038959115743637085
1772797049013712600,3.920712646484375,-0.005615274887531996,0.0027419906109571457,-0.05012202262878418
1772797049023738600,3.930738525390625,-0.005613144487142563,-0.00119629199616611,-0.05420411750674248
1772797049033764600,3.9407646484375,-0.005756955128163099,-0.010509099811315536,-0.05607977882027626
1772797049043789600,3.95078955078125,-0.011347196996212006,-0.01786102168262005,-0.04441353678703308
1772797049053815600,3.960815673828125,-0.01756834052503109,-0.02779647707939148,-0.025858495384454727
1772797049063840800,3.9708408203125,-0.02658846788108349,-0.021502628922462463,-0.007440339308232069
1772797049073866800,3.98086669921875,-0.0375649519264698,-0.005401955917477608,0.007847536355257034
1772797049083892000,3.99089208984375,-0.0394589938223362,-0.0024716798216104507,0.020905815064907074
1772797049093918000,4.00091796875,-0.03754444420337677,0.002755839144811034,0.04470062628388405
1772797049103944000,4.01094384765625,-0.030952056869864464,-0.0017752632265910506,0.056164469569921494
1772797049113969000,4.020968994140625,-0.014347514137625694,-0.004570250865072012,0.05565367639064789
1772797049123995000,4.030994873046875,0.0011725898366421461,-0.005559614859521389,0.0482756532728672
1772797049134019800,4.041019775390625,0.016229303553700447,-0.001612544059753418,0.02930356003344059
1772797049144045800,4.0510458984375,0.027478495612740517,-0.004052798729389906,0.011876100674271584
1772797049154072000,4.061072021484375,0.03458221256732941,-0.006102100946009159,-0.01212537195533514
1772797049164096800,4.0710966796875,0.03575479984283447,-0.001782453735359013,-0.024292290210723877
1772797049174123000,4.081123046875,0.03431136906147003,-0.0036701022181659937,-0.030651120468974113
1772797049184147700,4.091147705078125,0.033971283584833145,-0.011565842665731907,-0.03015657141804695
1772797049194174000,4.101174072265625,0.033178459852933884,-0.01581811159849167,-0.025616945698857307
1772797049204200000,4.111199951171875,0.027882764115929604,-0.020807543769478798,-0.023325562477111816
1772797049214225200,4.12122509765625,0.02375699393451214,-0.011109909042716026,-0.033488184213638306
1772797049224251100,4.131251220703125,0.01956411451101303,-0.00037230990710668266,-0.03875511884689331
1772797049234276000,4.141276123046875,0.01601172238588333,0.003712446428835392,-0.04021240025758743
1772797049244302000,4.151302001953125,0.012219647876918316,0.0012652678415179253,-0.030732879415154457
1772797049254328000,4.161328125,0.004907939583063126,-0.004129763692617416,-0.009189236909151077
1772797049264353000,4.17135302734375,0.006449909880757332,-0.011593539267778397,0.00827710423618555
1772797049274379000,4.18137890625,0.008016381412744522,-0.013027118518948555,0.020964937284588814
1772797049284404000,4.191404052734375,0.007900799624621868,-0.006954578682780266,0.022052038460969925
1772797049294430000,4.201429931640625,0.008340488187968731,-0.0035518580116331577,0.021086109802126884
1772797049304455200,4.211455078125,0.0137789286673069,-0.005434446502476931,0.013705159537494183
1772797049314481000,4.22148095703125,0.012544820085167885,-0.0018516959389671683,0.009892045520246029
1772797049324507000,4.2315068359375,0.010486729443073273,-0.004614459350705147,0.0026354643050581217
1772797049334532000,4.241531982421875,0.009504289366304874,-0.0031012510880827904,-0.0013608753215521574
1772797049344558000,4.25155810546875,0.0054642739705741405,-0.001371794263832271,-0.00669465446844697
1772797049354583000,4.2615830078125,0.0036874127108603716,-0.006220345385372639,-0.01143028773367405
1772797049364609000,4.271609130859375,0.0046426886692643166,-0.012545086443424225,-0.022286929190158844
1772797049374635000,4.281635009765625,0.005357747431844473,-0.006020075641572475,-0.03261999413371086
1772797049384660000,4.291659912109375,0.009940248914062977,-0.00884968414902687,-0.03159148246049881
1772797049394686000,4.30168603515625,0.013553093187510967,-0.02130422368645668,-0.025557024404406548
1772797049404711000,4.3117109375,0.017361413687467575,-0.017580591142177582,-0.026765035465359688
1772797049414737000,4.32173681640625,0.014961638487875462,-0.003066629869863391,-0.029871080070734024
1772797049424763000,4.331762939453125,0.006538859568536282,0.008443019352853298,-0.028025776147842407
1772797049434788000,4.3417880859375,0.003573429537937045,0.010489392094314098,-0.01835690252482891
1772797049444814000,4.35181396484375,0.0013227921444922686,0.001139033935032785,0.0031182952225208282
1772797049454839000,4.361839111328125,0.0011121360585093498,-0.014058294706046581,0.024568991735577583
1772797049464865000,4.371864990234375,-0.0006205165409483016,-0.02051246538758278,0.0349140428006649
1772797049474890000,4.381889892578125,-0.010610033757984638,-0.017252223566174507,0.02702629193663597
1772797049484916000,4.391916015625,-0.02400280348956585,-0.00920308567583561,0.016653278842568398
1772797049494942000,4.40194189453125,-0.028779184445738792,-0.003040797309949994,0.003943342715501785
1772797049504967000,4.411966796875,-0.03333771601319313,-0.0021017666440457106,-0.010381268337368965
1772797049514993000,4.421992919921875,-0.026737071573734283,-0.004738030023872852,-0.015607189387083054
1772797049525017900,4.432017822265625,-0.024638233706355095,-0.004082892090082169,-0.01654169149696827
1772797049535043800,4.4420439453125,-0.019539613276720047,-0.000987766426987946,-0.01321061048656702
1772797049545069800,4.45206982421875,-0.018804313614964485,0.002031725598499179,-0.008875783532857895
1772797049555095000,4.462094970703125,-0.020177707076072693,-0.0002921487612184137,-0.001487375469878316
1772797049565121000,4.47212109375,-0.020351877436041832,-0.003634415799751878,0.0046267095021903515
1772797049575146000,4.48214599609375,-0.01931430958211422,-0.012427641078829765,0.009134376421570778
1772797049585172000,4.492171875,-0.01369104441255331,-0.015852732583880424,0.0036157737486064434
1772797049595198000,4.502197998046875,-0.014733405783772469,-0.016115320846438408,-0.009798302315175533
1772797049605223000,4.512222900390625,-0.014377607963979244,-0.010840663686394691,-0.028422320261597633
1772797049615249000,4.522248779296875,-0.012425243854522705,0.0011861718958243728,-0.03826030343770981
1772797049625273900,4.53227392578125,-0.010098440572619438,0.0018610169645398855,-0.03969361633062363
1772797049635299800,4.5422998046875,-0.006772951222956181,-0.005605421494692564,-0.03711194917559624
1772797049645325000,4.552324951171875,-0.005367867648601532,-0.012258796952664852,-0.02997148036956787
1772797049655351000,4.56235107421875,-0.00869415607303381,-0.008665393106639385,-0.028849758207798004
1772797049665377000,4.572376953125,-0.01612517423927784,-0.004999019671231508,-0.02472931519150734
1772797049675402000,4.582402099609375,-0.027183683589100838,0.00267727579921484,-0.019879965111613274
1772797049685428000,4.592427978515625,-0.03515026345849037,0.012911004945635796,-0.0075487298890948296
1772797049695453000,4.602452880859375,-0.041614290326833725,0.01883840188384056,0.01501117367297411
1772797049705479000,4.61247900390625,-0.03832901269197464,0.01320874597877264,0.037994787096977234
1772797049715505000,4.6225048828125,-0.03063354268670082,-0.0036732980515807867,0.056647833436727524
1772797049725529900,4.63252978515625,-0.025106152519583702,-0.00891040451824665,0.060010604560375214
1772797049735555800,4.642555908203125,-0.017418937757611275,-0.005503688473254442,0.04791559278964996
1772797049745580800,4.652580810546875,-0.01107395626604557,0.0014303837670013309,0.023913055658340454
1772797049755606800,4.662606689453125,-0.004543885588645935,-0.002513757674023509,0.002299639629200101
1772797049765632800,4.6726328125,0.0014761901693418622,-0.0005507417372427881,-0.01324256882071495
1772797049775658000,4.682657958984375,0.007464041467756033,-0.00510021997615695,-0.027766650542616844
1772797049785684000,4.69268408203125,0.006170277949422598,-0.008143680170178413,-0.03785736858844757
1772797049795709000,4.702708984375,0.011322962120175362,-0.00028868665685877204,-0.0468098483979702
1772797049805735000,4.71273486328125,0.015141668729484081,0.0051508196629583836,-0.052682917565107346
1772797049815760000,4.722759765625,0.018694326281547546,0.007791610434651375,-0.05013773590326309
1772797049825785900,4.732785888671875,0.017964087426662445,0.007237939164042473,-0.04399275779724121
1772797049835811800,4.742811767578125,0.01998276263475418,0.005515406373888254,-0.033302564173936844
1772797049845836800,4.7528369140625,0.021345235407352448,-0.0020501012913882732,-0.022817431017756462
1772797049855862800,4.76286279296875,0.013700099661946297,-0.012164254672825336,-0.010278203524649143
1772797049865888000,4.772887939453125,0.00765845226123929,-0.017305221408605576,-0.0014226606581360102
1772797049875914000,4.7829140625,0.001704689348116517,-0.004258926957845688,0.0017012272728607059
1772797049885939700,4.792939697265625,-0.0005731122801080346,0.009301888756453991,-0.000046339002437889576
1772797049895965000,4.80296484375,-0.004482100252062082,0.01600639708340168,0.00048363005043938756
1772797049905991000,4.812990966796875,-0.004727377090603113,0.0016615461790934205,0.010541324503719807
1772797049916015900,4.823015869140625,-0.008053665049374104,-0.009472064673900604,0.026820428669452667
1772797049926041900,4.833041748046875,-0.007922371849417686,-0.018219484016299248,0.03189055621623993
1772797049936066800,4.84306689453125,-0.014612498693168163,-0.019080750644207,0.0210642721503973
1772797049946092800,4.8530927734375,-0.017843445762991905,-0.007240069564431906,0.0019254654180258512
1772797049956119000,4.863119140625,-0.015459916554391384,-0.0034993935842067003,-0.02317243069410324
1772797049966143700,4.873143798828125,-0.004845088813453913,-0.011624432168900967,-0.028790635988116264
1772797049976169700,4.883169677734375,0.010728544555604458,-0.01931830495595932,-0.025791648775339127
1772797049986195000,4.89319482421875,0.014342720620334148,-0.014147777110338211,-0.02996295876801014
1772797049996221000,4.903220947265625,0.019947342574596405,-0.0005603290628641844,-0.02949690632522106
1772797050006247200,4.9132470703125,0.022362297400832176,-0.0009973538108170033,-0.01727193035185337
1772797050016272000,4.92327197265625,0.02382197603583336,-0.006785468198359013,-0.00746164470911026
1772797050026298000,4.933298095703125,0.02472878247499466,-0.011773834936320782,0.0002300971100339666
1772797050036322800,4.94332275390625,0.02136094868183136,-0.01949939876794815,0.009386577643454075
1772797050046349000,4.95334912109375,0.020259466022253036,-0.011968512088060379,0.007535947021096945
1772797050056373800,4.963373779296875,0.010699249804019928,-0.000026365294615970924,-0.013115801848471165
1772797050066399500,4.9733994140625,0.0012221246724948287,0.017298296093940735,-0.03700462356209755
1772797050076425500,4.983425537109375,-0.006399043370038271,0.02684279903769493,-0.04057672247290611
1772797050086450700,4.99345068359375,-0.013413011096417904,0.00878869742155075,-0.018851185217499733
1772797050096476700,5.0034765625,-0.01503860391676426,-0.01575952209532261,0.005012867972254753
1772797050106501600,5.013501708984375,-0.01618216559290886,-0.03188762441277504,0.026125609874725342
1772797050116527600,5.023527587890625,-0.012839365750551224,-0.024685107171535492,0.035343341529369354
1772797050126553600,5.0335537109375,-0.013593573123216629,-0.01338824350386858,0.025652898475527763
1772797050136578600,5.04357861328125,-0.02124057337641716,-0.002685531508177519,0.01014051865786314
1772797050146604500,5.0536044921875,-0.024953819811344147,-0.003058107802644372,0.006970557849854231
1772797050156629500,5.06362939453125,-0.020562533289194107,-0.015118499286472797,0.00842863880097866
1772797050166655500,5.073655517578125,-0.011530422605574131,-0.019170232117176056,-0.0011851066956296563
1772797050176680400,5.083680419921875,-0.006771353539079428,-0.01768472045660019,-0.021021928638219833
1772797050186706400,5.09370654296875,-0.0022000374738126993,-0.011356784030795097,-0.032412268221378326
1772797050196732400,5.103732421875,0.0007760451408103108,-0.013336578384041786,-0.041362352669239044
1772797050206757600,5.113757568359375,0.0041161817498505116,-0.018336663022637367,-0.04104410484433174
1772797050216783600,5.12378369140625,0.005514341406524181,-0.009516806341707706,-0.04218633472919464
1772797050226808600,5.13380859375,0.010676080361008644,-0.011008442379534245,-0.04021266847848892
1772797050236834600,5.14383447265625,0.007898403331637383,-0.016331568360328674,-0.03924620524048805
1772797050246860500,5.153860595703125,0.004021106753498316,-0.011642275378108025,-0.032949961721897125
1772797050256885500,5.163885498046875,-0.007062170654535294,-0.004578772932291031,-0.020851751789450645
1772797050266911500,5.173911376953125,-0.01751268096268177,-0.0036796897184103727,-0.0013480921043083072
1772797050276936400,5.1839365234375,-0.030490797013044357,-0.0003579288604669273,0.011448396369814873
1772797050286962400,5.19396240234375,-0.03291826695203781,0.0016580841038376093,0.028003139421343803
1772797050296987600,5.203987548828125,-0.028183434158563614,-0.009915481321513653,0.03973596170544624
1772797050307013600,5.214013671875,-0.01871350035071373,-0.007983357645571232,0.04502313584089279
1772797050317039600,5.22403955078125,-0.009675797075033188,-0.00857164990156889,0.04361512139439583
1772797050327064600,5.234064697265625,0.0009195895399898291,-0.0070374030619859695,0.037630464881658554
1772797050337090600,5.244090576171875,0.00920042209327221,-0.014080398716032505,0.02809794805943966
1772797050347115500,5.254115478515625,0.012022041715681553,-0.015295066870748997,0.019375029951334
1772797050357141500,5.2641416015625,0.011393535882234573,-0.0176229365170002,0.004229366313666105
1772797050367167700,5.274167724609375,0.0145286088809371,-0.009672068059444427,-0.016511065885424614
1772797050377192400,5.2841923828125,0.01895664632320404,0.0024732777383178473,-0.040516000241041183
1772797050387218700,5.29421875,0.02316018007695675,-0.002781405346468091,-0.047987766563892365
1772797050397243400,5.304243408203125,0.02268826775252819,-0.017305221408605576,-0.039033420383930206
1772797050407269600,5.31426953125,0.01924799755215645,-0.021009411662817,-0.031065773218870163
1772797050417294600,5.324294677734375,0.009404953569173813,-0.014669223688542843,-0.022833410650491714
1772797050427320800,5.33432080078125,0.001347293145954609,-0.007207578979432583,-0.020188625901937485
1772797050437346800,5.344346923828125,-0.003970772959291935,0.0016026903176680207,-0.017722005024552345
1772797050447371800,5.354371826171875,-0.0007414240390062332,0.004279167391359806,-0.013878265395760536
1772797050457397800,5.364397705078125,-0.0010897654574364424,0.006472812965512276,-0.004057592246681452
1772797050467422700,5.374422607421875,-0.004818457178771496,-0.0021875204984098673,0.02033989317715168
1772797050477448700,5.38444873046875,-0.006060022860765457,-0.00950801745057106,0.04117007181048393
1772797050487473700,5.3944736328125,-0.011682488955557346,-0.015147794038057327,0.04848577827215195
1772797050497499600,5.404499755859375,-0.014212491922080517,-0.007380684372037649,0.04333602264523506
1772797050507525600,5.414525634765625,-0.017120130360126495,0.0013997574569657445,0.03167057782411575
1772797050517550600,5.424550537109375,-0.01477681566029787,0.00333241350017488,0.014372281730175018
1772797050527576600,5.43457666015625,-0.0070611052215099335,-0.004200071096420288,0.005830724723637104
1772797050537601800,5.444601806640625,-0.003251719754189253,-0.01056422758847475,-0.004596616141498089
1772797050547627800,5.454627685546875,0.003693005535751581,-0.014772022143006325,-0.01531610544770956
1772797050557653800,5.46465380859375,0.007291468791663647,-0.007011304143816233,-0.0341116301715374
1772797050567678700,5.4746787109375,0.006688262801617384,0.002027997048571706,-0.04603327065706253
1772797050577704700,5.48470458984375,0.008822786621749401,-0.0005001416429877281,-0.04859842732548714
1772797050587729700,5.494729736328125,0.013859356753528118,-0.006067213602364063,-0.03849918767809868
1772797050597755600,5.504755615234375,0.013789049349725246,-0.015448465012013912,-0.027534954249858856
1772797050607780600,5.514780517578125,0.015361645258963108,-0.014286261051893234,-0.013467072509229183
1772797050617806600,5.524806640625,0.015988286584615707,-0.020708473399281502,-0.005391037091612816
1772797050627832600,5.53483251953125,0.014202105812728405,-0.012631638906896114,-0.005553489550948143
1772797050637857800,5.54485791015625,0.010024404153227806,-0.00487092137336731,-0.0036903421860188246
1772797050647883800,5.5548837890625,0.0038456046022474766,0.0013760552974417806,-0.004471180960536003
1772797050657908700,5.56490869140625,-0.0046445527113974094,0.010130930691957474,-0.0017259946325793862
1772797050667934700,5.574934814453125,-0.012401276268064976,0.004511927254498005,0.007345530670136213
1772797050677960700,5.584960693359375,-0.017894312739372253,-0.004220045171678066,0.015307850204408169
1772797050687985700,5.594985595703125,-0.01762719638645649,-0.005649097263813019,0.01860058307647705
1772797050698011600,5.60501171875,-0.011583153158426285,-0.008799084462225437,0.026824690401554108
1772797050708036600,5.61503662109375,-0.007445665542036295,-0.00484295841306448,0.02016598917543888
1772797050718062600,5.6250625,-0.00999218039214611,0.005100485868752003,0.0065138256177306175
1772797050728087600,5.635087646484375,-0.014794126152992249,0.007787082809954882,0.006806507240980864
1772797050738113500,5.645113525390625,-0.012982910498976707,-0.016880979761481285,0.022295985370874405
1772797050748139500,5.655139404296875,-0.004447478801012039,-0.03189747780561447,0.021337779238820076
1772797050758164700,5.665164794921875,0.003947869874536991,-0.027301395311951637,0.0024588967207819223
1772797050768190700,5.675190673828125,0.005616873037070036,-0.01726154424250126,-0.024272050708532333
1772797050778215700,5.685215576171875,0.00726483715698123,-0.005951632279902697,-0.043959733098745346
1772797050788241700,5.69524169921875,0.010192982852458954,0.003887682454660535,-0.05591466277837753
1772797050798266600,5.7052666015625,0.011876367032527924,-0.0027651600539684296,-0.05423847213387489
1772797050808292600,5.715292724609375,0.011944543570280075,-0.005818474106490612,-0.04575657099485397
1772797050818318600,5.725318603515625,0.005823001731187105,-0.00965449120849371,-0.034214429557323456
1772797050828343600,5.735343505859375,0.0019409117521718144,-0.011982360854744911,-0.026681145653128624
1772797050838369500,5.74536962890625,-0.01236425805836916,-0.014274010434746742,-0.016204535961151123
1772797050848394800,5.755394775390625,-0.023069633170962334,-0.007767109200358391,0.007963118143379688
1772797050858420700,5.765420654296875,-0.030123546719551086,-0.0054791877046227455,0.02989904209971428
1772797050868446500,5.775446533203125,-0.03166098892688751,-0.0006713828770443797,0.04391366243362427
1772797050878471700,5.7854716796875,-0.02448723278939724,-0.004204865079373121,0.05016196891665459
1772797050888497700,5.79549755859375,-0.01528654433786869,-0.006812898442149162,0.05128422752022743
1772797050898522600,5.805522705078125,-0.006571882404386997,-0.0068448567762970924,0.042088598012924194
1772797050908548600,5.815548583984375,0.001446362817659974,-0.00549330236390233,0.03641286864876747
1772797050918573600,5.825573486328125,0.013057212345302105,-0.010057694278657436,0.026802053675055504
1772797050928599600,5.835599609375,0.023483488708734512,-0.01552383229136467,0.016227439045906067
1772797050938625500,5.84562548828125,0.03057548590004444,-0.021507157012820244,0.005608883686363697
1772797050948650500,5.855650390625,0.03545892611145973,-0.020853882655501366,-0.0175627488642931
1772797050958676500,5.865676513671875,0.03611912205815315,-0.016751550137996674,-0.04030294716358185
1772797050968701700,5.87570166015625,0.03651007264852524,-0.008651811629533768,-0.05579615384340286
1772797050978727700,5.885727783203125,0.032818399369716644,-0.004544684197753668,-0.0609123520553112
1772797050988753700,5.895753662109375,0.02303927205502987,-0.0044229780323803425,-0.048174187541007996
1772797050998778600,5.905778564453125,0.01426495611667633,-0.00333214714191854,-0.03530339524149895
1772797051008804600,5.9158046875,0.009069395251572132,-0.0057138120755553246,-0.014712100848555565
1772797051018829600,5.92582958984375,0.006159891374409199,-0.01212723646312952,0.0031502533238381147
1772797051028855600,5.93585546875,0.007105313707143068,-0.00920308567583561,0.014190121553838253
1772797051038880500,5.945880615234375,0.0001424791116733104,-0.0006820355774834752,0.019840283319354057
1772797051048906500,5.955906494140625,-0.006222475785762072,-0.0033545177429914474,0.03979801386594772
1772797051058932500,5.965932373046875,-0.008339955471456051,-0.010967429727315903,0.05862016975879669
1772797051068957400,5.97595751953125,-0.013258281163871288,-0.00993146002292633,0.06253182142972946
1772797051078983400,5.9859833984375,-0.013228720054030418,-0.00481393001973629,0.05643557757139206
1772797051089008600,5.996008544921875,-0.014826616272330284,-0.0018122810870409012,0.0397157222032547
1772797051099034600,6.00603466796875,-0.011634285561740398,-0.0008263788768090308,0.019106050953269005
1772797051109059600,6.0160595703125,-0.008869924582540989,-0.001785116852261126,0.0005792375304736197
1772797051119085600,6.02608544921875,-0.0008074704091995955,-0.008390022441744804,-0.0059998356737196445
1772797051129111600,6.036111572265625,0.007721835747361183,-0.018793661147356033,-0.01510065607726574
1772797051139136500,6.046136474609375,0.01022787019610405,-0.01179300993680954,-0.029871346428990364
1772797051149162500,6.05616259765625,0.019036274403333664,-0.009583917446434498,-0.03924434259533882
1772797051159187500,6.0661875,0.022070948034524918,-0.007446730975061655,-0.047810930758714676
1772797051169213400,6.07621337890625,0.02297855354845524,-0.005970008205622435,-0.046058837324380875
1772797051179238700,6.08623876953125,0.027699803933501244,-0.007937018759548664,-0.041435591876506805
1772797051189264600,6.0962646484375,0.02562892995774746,-0.009919475764036179,-0.03411722555756569
1772797051199290600,6.10629052734375,0.02106613665819168,-0.01429105456918478,-0.024704813957214355
1772797051209315600,6.116315673828125,0.01872255466878414,-0.02292742021381855,-0.009189236909151077
1772797051219341600,6.126341552734375,0.01888873614370823,-0.030316360294818878,-0.0003174488083459437
1772797051229366500,6.136366455078125,0.010919492691755295,-0.02100568264722824,0.004413124173879623
1772797051239392500,6.146392578125,0.0005518069956451654,-0.017844511196017265,0.005482915788888931
1772797051249418500,6.15641845703125,-0.005864813458174467,-0.01420263759791851,0.0009768474847078323
1772797051259443500,6.166443359375,-0.00634897593408823,-0.018373148515820503,0.0006926882197149098
1772797051269469400,6.176469482421875,-0.0008149272762238979,-0.014959774911403656,-0.004273840691894293
1772797051279494400,6.186494384765625,0.003038134193047881,-0.008816394954919815,-0.008416388183832169
1772797051289520400,6.196520263671875,0.011113637126982212,0.003689543344080448,-0.020050939172506332
1772797051299545600,6.206545654296875,0.015396798960864544,0.012694756500422955,-0.01810337044298649
1772797051309571600,6.216571533203125,0.012049471959471703,-0.003412574529647827,0.004225105047225952
1772797051319597600,6.22659765625,0.012771455571055412,-0.02327735908329487,0.03176724910736084
1772797051329622500,6.23662255859375,0.015625564381480217,-0.042019620537757874,0.045997586101293564
1772797051339648500,6.2466484375,0.019832827150821686,-0.03952530398964882,0.03261839598417282
1772797051349673500,6.256673583984375,0.018394187092781067,-0.02201821655035019,0.005546032916754484
1772797051359699500,6.266699462890625,0.018543323501944542,-0.007375358138233423,-0.022705046460032463
1772797051369724400,6.276724365234375,0.017297230660915375,-0.004593953024595976,-0.03760729730129242
1772797051379750400,6.28675048828125,0.017461014911532402,-0.0070485882461071014,-0.046068690717220306
1772797051389776400,6.2967763671875,0.015503591857850552,-0.007574030198156834,-0.05624356493353844
1772797051399801600,6.306801513671875,0.0067452541552484035,-0.006837932392954826,-0.06160157918930054
1772797051409827600,6.31682763671875,-0.005055745132267475,-0.005584382452070713,-0.058095525950193405
1772797051419852500,6.3268525390625,-0.017645040526986122,-0.006307430565357208,-0.036067988723516464
1772797051429878500,6.33687841796875,-0.028027640655636787,-0.010066215880215168,-0.011642275378108025
1772797051439903500,6.346903564453125,-0.034146517515182495,-0.013696903362870216,0.01176105160266161
1772797051449929500,6.356929443359375,-0.03309643268585205,-0.01612144522368908,0.03418779745697975
1772797051459955500,6.36695556640625,-0.02780633047223091,-0.01715581677854061,0.045576807111501694
1772797051469980400,6.37698046875,-0.021742314100265503,-0.00911360327154398,0.04627402126789093
1772797051480006400,6.38700634765625,-0.01787327229976654,-0.002147839404642582,0.03867016360163689
1772797051490031400,6.39703125,-0.013227121904492378,0.00043569316039793193,0.026925357058644295
1772797051500057300,6.407057373046875,-0.013107812032103539,0.0021459751296788454,0.017789382487535477
1772797051510082600,6.41708251953125,-0.00293373828753829,-0.0027411917690187693,0.005897836294025183
1772797051520108500,6.427108642578125,0.00762862479314208,-0.0014860439114272594,-0.006070143077522516
1772797051530134800,6.437134765625,0.01684289611876011,0.0015970977256074548,-0.01557922549545765
1772797051540159500,6.447159423828125,0.024508804082870483,-0.00586747657507658,-0.02406831830739975
1772797051550185700,6.457185791015625,0.03242851421236992,-0.016334764659404755,-0.02581535093486309
1772797051560210400,6.46721044921875,0.03262638673186302,-0.015364841558039188,-0.030354710295796394
1772797051570236700,6.477236572265625,0.029515281319618225,-0.01617923565208912,-0.03335289657115936
1772797051580261400,6.487261474609375,0.023482689633965492,-0.0121866250410676,-0.04097326472401619
1772797051590287600,6.49728759765625,0.014271347783505917,0.0007584682898595929,-0.04393363371491432
1772797051600313600,6.507313720703125,0.012034825049340725,0.0008820389630272985,-0.04195250943303108
1772797051610338600,6.517338623046875,0.010845190845429897,-0.002433330286294222,-0.022048844024538994
1772797051620364500,6.527364501953125,0.01082867942750454,-0.017485249787569046,-0.00032676986302249134
1772797051630389500,6.537389404296875,0.006262955721467733,-0.020966799929738045,0.020070115104317665
1772797051640415700,6.547415771484375,0.005753759294748306,-0.014534734189510345,0.02684253267943859
1772797051650441700,6.557441650390625,0.0037294907961040735,-0.005062136333435774,0.023541279137134552
1772797051660466700,6.567466796875,0.0022482406347990036,-0.0024626250378787518,0.019781427457928658
1772797051670492700,6.57749267578125,0.000794420950114727,-0.0019030949333682656,0.018254371359944344
1772797051680517600,6.587517578125,0.004454136826097965,-0.0029859361238777637,0.021442441269755363
1772797051690543600,6.597543701171875,0.007626228034496307,-0.007171892561018467,0.023539148271083832
1772797051700568600,6.607568603515625,0.00785792339593172,-0.008636098355054855,0.018736936151981354
1772797051710594600,6.617594482421875,0.011562380008399487,0.000523577444255352,0.005347893573343754
1772797051720620500,6.62762060546875,0.011625230312347412,0.006563893053680658,-0.011130415834486485
1772797051730645800,6.637645751953125,0.014735536649823189,0.004171042703092098,-0.013036972843110561
1772797051740671700,6.647671630859375,0.019656525924801826,-0.005185973364859819,-0.012222844175994396
1772797051750696700,6.65769677734375,0.02267654985189438,-0.011727762408554554,-0.004525776021182537
1772797051760722700,6.66772265625,0.02267814800143242,-0.007457383442670107,-0.007422229740768671
1772797051770747600,6.67774755859375,0.014974954538047314,-0.007378820329904556,-0.010976484976708889
1772797051780773600,6.687773681640625,-0.016390157863497734,-0.012850284576416016,0.0017845842521637678
1772797051790799600,6.697799560546875,-0.0009046758059412241,-0.0024980450980365276,0.0023289343807846308
1772797051800824600,6.707824462890625,0.019633356481790543,-0.004474110435694456,-0.016528910025954247
1772797051810850600,6.7178505859375,0.008626244962215424,-0.012441223487257957,-0.0257522352039814
1772797051820875500,6.72787548828125,0.004396879114210606,-0.003094326937571168,-0.024160463362932205
1772797051830901500,6.737901611328125,0.0026607641484588385,-0.001859685406088829,-0.023518642410635948
1772797051840926700,6.7479267578125,0.0027316042687743902,-0.0070517840795218945,-0.021027520298957825
1772797051850952700,6.75795263671875,0.005556685384362936,-0.0073567163199186325,-0.02328694611787796
1772797051860978700,6.767978759765625,0.0057473680935800076,-0.0008988168556243181,-0.024264859035611153
1772797051871003600,6.778003662109375,0.006447246763855219,0.004776645917445421,-0.018558237701654434
1772797051881029600,6.788029541015625,0.007533283904194832,0.0007933556917123497,-0.004369714763015509
1772797051891054600,6.7980546875,0.012279569171369076,-0.015722770243883133,0.013837252743542194
1772797051901080600,6.80808056640625,0.020307136699557304,-0.02736903913319111,0.02665398083627224
1772797051911105500,6.81810546875,0.030481742694973946,-0.030536070466041565,0.013424728997051716
1772797051921131500,6.828131591796875,0.02990490198135376,-0.019825369119644165,-0.011949869804084301
1772797051931157500,6.838157470703125,0.03307805955410004,-0.009250223636627197,-0.03843101114034653
1772797051941182700,6.8481826171875,0.014990135096013546,0.010607370175421238,-0.04842106252908707
1772797051951208700,6.858208740234375,-0.010684868320822716,0.01395736075937748,-0.025082716718316078
1772797051961233700,6.868233642578125,0.01044518407434225,0.009051552042365074,-0.019841082394123077
1772797051971259600,6.878259765625,0.029948310926556587,-0.017103619873523712,-0.04398450255393982
1772797051981284600,6.88828466796875,0.024404674768447876,-0.012144813314080238,-0.05247599259018898
1772797051991310600,6.898310546875,0.02202780358493328,-0.003668770659714937,-0.049853574484586716
1772797052001336600,6.908336669921875,0.011130415834486485,0.006932474672794342,-0.03958975523710251
1772797052011361500,6.918361572265625,0.0007185208378359675,0.02105361968278885,-0.019164906814694405
1772797052021387500,6.928387451171875,-0.002680471632629633,0.0052259210497140884,0.005474660079926252
1772797052031412500,6.93841259765625,-0.0012620720081031322,-0.011575163342058659,0.03044339269399643
1772797052041438500,6.9484384765625,-0.0012785836588591337,-0.02286989614367485,0.052611012011766434
1772797052051463700,6.958463623046875,0.00242134602740407,-0.020116453990340233,0.05095719173550606
1772797052061489700,6.96848974609375,0.005140433553606272,-0.012242019176483154,0.03249429166316986
1772797052071515000,6.978514892578125,0.005507683381438255,0.005338572897017002,0.007869108580052853
1772797052081539800,6.988539794921875,0.006744455546140671,0.011153585277497768,-0.015371499583125114
1772797052091565800,6.99856591796875,0.014463627710938454,0.013251356780529022,-0.028610872104763985
1772797052101590800,7.0085908203125,0.016717195510864258,0.002757969545200467,-0.030437801033258438
1772797052111616800,7.01861669921875,0.017243701964616776,-0.01068273838609457,-0.02792244404554367
1772797052121642000,7.02864208984375,0.017297230660915375,-0.018938004970550537,-0.02376844547688961
1772797052131668000,7.03866796875,0.012287558987736702,-0.01756487973034382,-0.023249130696058273
1772797052141694000,7.04869384765625,0.0057494984939694405,-0.01642211712896824,-0.029106220230460167
1772797052151719000,7.058718994140625,-0.02604811266064644,-0.002656769473105669,-0.010237457230687141
1772797052161745000,7.068744873046875,-0.019723370671272278,-0.005616073962301016,0.00621129060164094
1772797052171769900,7.078769775390625,0.007189203519374132,-0.0059926449321210384,-0.013758689165115356
1772797052181795800,7.0887958984375,0.012834305875003338,-0.02558019384741783,-0.04380287602543831
1772797052191820800,7.09882080078125,0.012164254672825336,-0.02582254260778427,-0.03849732503294945
1772797052201846800,7.1088466796875,0.008389489725232124,-0.026634007692337036,-0.02322143316268921
1772797052211872800,7.118872802734375,-0.005871737375855446,-0.017131315544247627,-0.011305118910968304
1772797052221897700,7.128897705078125,-0.013622335158288479,-0.011669705621898174,-0.005591839086264372
1772797052231923700,7.138923828125,-0.014675615355372429,-0.010957576334476471,-0.004715126473456621
1772797052241949000,7.148948974609375,-0.009427856653928757,-0.015032478608191013,-0.0025566346012055874
1772797052251975000,7.158974853515625,-0.006232862360775471,-0.010614560917019844,0.0002798982313834131
1772797052262001000,7.1690009765625,-0.0034024545457214117,-0.012643889524042606,0.007693605963140726
1772797052272025900,7.17902587890625,-0.0012471582740545273,-0.012622051872313023,0.01076795905828476
1772797052282051800,7.1890517578125,-0.0046389601193368435,-0.005224589258432388,0.00791624654084444
1772797052292076800,7.199076904296875,-0.0013438310706987977,-0.004816859494894743,-0.00013209278404247016
1772797052302102800,7.209102783203125,0.005201419815421104,-0.0005728459218516946,-0.007224090863019228
1772797052312127700,7.219127685546875,0.009750098921358585,0.0015736619243398309,-0.014200241304934025
1772797052322153700,7.22915380859375,0.00818149745464325,-0.001990712946280837,-0.0200410857796669
1772797052332179000,7.239178955078125,0.009519468992948532,-0.0025278725661337376,-0.02612481079995632
1772797052342205000,7.249204833984375,0.010575146414339542,-0.008383364416658878,-0.026320554316043854
1772797052352231000,7.25923095703125,0.009981794282793999,-0.017522267997264862,-0.023604128509759903
1772797052362256000,7.269255859375,0.008670720271766186,-0.016950488090515137,-0.017370201647281647
1772797052372281900,7.27928173828125,0.001005343277938664,-0.010424943640828133,-0.01576298475265503
1772797052382306800,7.289306884765625,-0.00691889226436615,-0.01504073478281498,-0.002754773711785674
1772797052392332800,7.299332763671875,-0.012491290457546711,-0.018075939267873764,0.003035471076145768
1772797052402357800,7.309357666015625,-0.013916081748902798,-0.012003399431705475,0.00977380108088255
1772797052412383700,7.3193837890625,-0.009377788752317429,-0.012586099095642567,0.0027864654548466206
1772797052422409700,7.32940966796875,-0.00242081331089139,-0.008470715954899788,-0.00023968449386302382
1772797052432434700,7.3394345703125,0.000037550569686573,0.00016831177345011383,-0.004738296382129192
1772797052442460700,7.349460693359375,0.0036706349346786737,0.010471017099916935,-0.0032487902790308
1772797052452486000,7.35948583984375,-0.0007566040731035173,0.003991545643657446,0.007370298262685537
1772797052462511900,7.369511962890625,0.003965446725487709,-0.016536898910999298,0.029319006949663162
1772797052472536800,7.379536865234375,0.006998520810157061,-0.03386076167225838,0.037514619529247284
1772797052482562800,7.389562744140625,0.010950119234621525,-0.029471339657902718,0.025189243257045746
1772797052492588800,7.3995888671875,0.011053982190787792,-0.01931111328303814,-0.0028879318851977587
1772797052502613800,7.40961376953125,0.006612895056605339,-0.004349474795162678,-0.025131186470389366
1772797052512639700,7.4196396484375,0.004456001333892345,-0.0011749867117032409,-0.03814978152513504
1772797052522664700,7.429664794921875,0.00535588338971138,-0.0032229574862867594,-0.03740649297833443
1772797052532690700,7.439690673828125,0.004236822947859764,-0.0007360977469943464,-0.03627811372280121
1772797052542716000,7.4497158203125,-0.0025744778104126453,0.007333280518651009,-0.035408325493335724
1772797052552742000,7.459741943359375,-0.008833971805870533,0.008489890955388546,-0.03646479919552803
1772797052562768000,7.469767822265625,-0.016323845833539963,0.012868926860392094,-0.029380260035395622
1772797052572792800,7.479792724609375,-0.027163710445165634,0.014084127731621265,-0.013130183331668377
1772797052582818800,7.48981884765625,-0.036378778517246246,0.007639011368155479,0.011925102211534977
1772797052592843800,7.49984375,-0.043711792677640915,-0.0015672702575102448,0.04097726196050644
1772797052602869800,7.509869873046875,-0.0460822731256485,-0.009072324261069298,0.061532068997621536
1772797052612894700,7.519894775390625,-0.03997724503278732,-0.005103948060423136,0.0674501433968544
1772797052622920700,7.529920654296875,-0.0325494222342968,-0.0032866070978343487,0.056171659380197525
1772797052632946700,7.53994677734375,-0.030002107843756676,0.011569570749998093,0.036080773919820786
1772797052642971600,7.5499716796875,-0.023730896413326263,0.01565459370613098,0.018912971019744873
1772797052652997600,7.55999755859375,-0.018686335533857346,0.013932060450315475,0.009612679481506348
1772797052663022800,7.57002294921875,-0.0062637547962367535,-0.003296993440017104,0.002041046740487218
1772797052673048800,7.580048828125,-0.001609348226338625,0.003891144646331668,0.003984089009463787
1772797052683073800,7.59007373046875,0.0033566481433808804,0.0021821942646056414,0.0012937636347487569
1772797052693099800,7.600099853515625,0.009808954782783985,-0.005821137689054012,-0.008500809781253338
1772797052703125800,7.610125732421875,0.00506906071677804,0.0011060107499361038,-0.017601363360881805
1772797052713150700,7.620150634765625,-0.001463406952098012,0.006030728109180927,-0.013684386387467384
1772797052723176700,7.6301767578125,-0.0030474551022052765,-0.004573180340230465,-0.007675230037420988
1772797052733201700,7.64020166015625,-0.01233123429119587,-0.0012191950809210539,-0.007104780990630388
1772797052743227600,7.6502275390625,-0.016764599829912186,0.012484366074204445,-0.008117581717669964
1772797052753252900,7.6602529296875,-0.021207816898822784,0.019573701545596123,-0.00908697210252285
1772797052763278800,7.67027880859375,-0.024562867358326912,0.021762819960713387,-0.004436826333403587
1772797052773304600,7.6803046875,-0.03081570379436016,0.015445268712937832,0.012899020686745644
1772797052783329800,7.690329833984375,-0.035112980753183365,0.006690393202006817,0.034940674901008606
1772797052793355800,7.700355712890625,-0.03504160791635513,-0.007187605369836092,0.05000324547290802
1772797052803380700,7.710380615234375,-0.03803393617272377,-0.0013662016717717052,0.04999499022960663
1772797052813406700,7.72040673828125,-0.03736468404531479,0.007282946724444628,0.04852119833230972
1772797052823431700,7.730431640625,-0.03952184319496155,0.003261040663346648,0.04434322938323021
1772797052833457700,7.740457763671875,-0.03623150661587715,0.003817641409114003,0.03702433034777641
1772797052843484000,7.75048388671875,-0.031372569501399994,0.00720518222078681,0.023322632536292076
1772797052853508600,7.760508544921875,-0.024900289252400398,0.013794109225273132,0.002484729280695319
1772797052863534800,7.770534912109375,-0.015967248007655144,0.01721760258078575,-0.022607574239373207
1772797052873559800,7.780559814453125,-0.007174023427069187,0.01326680276542902,-0.0415186807513237
1772797052883586000,7.7905859375,-0.0049428269267082214,0.007672300562262535,-0.04352777078747749
1772797052893610800,7.80061083984375,-0.0015243934467434883,-0.002356098499149084,-0.03952717036008835
1772797052903637000,7.810636962890625,0.002416019793599844,-0.001856489572674036,-0.03063567355275154
1772797052913663000,7.8206630859375,0.012023639865219593,-0.0052171326242387295,-0.02129223942756653
1772797052923688000,7.83068798828125,0.011098723858594894,-0.007021158002316952,-0.01756461337208748
1772797052933714000,7.8407138671875,0.004059189930558205,-0.002588059986010194,-0.017772872000932693
1772797052943738600,7.850738525390625,-0.004881574306637049,0.0038392129354178905,-0.012982644140720367
1772797052953764900,7.860764892578125,-0.01404577773064375,0.006403304636478424,-0.006457632873207331
1772797052963789800,7.870789794921875,-0.01387160737067461,0.004857339430600405,0.0015342470724135637
1772797052973815800,7.88081591796875,-0.011699533089995384,0.002688460983335972,0.011276090517640114
1772797052983840800,7.8908408203125,-0.005181446205824614,-0.003569700988009572,0.020605942234396935
1772797052993867000,7.900866943359375,-0.000056459015468135476,0.0027768779546022415,0.023631826043128967
1772797053003893000,7.91089306640625,0.00013076121103949845,0.0060110208578407764,0.01912975311279297
1772797053013918000,7.92091796875,-0.0037939392495900393,0.011697668582201004,0.018933743238449097
1772797053023944000,7.93094384765625,-0.004322310443967581,0.014244182966649532,0.02588113211095333
1772797053033969000,7.940968994140625,0.002953978255391121,-0.0027057717088609934,0.033118803054094315
1772797053043995000,7.950994873046875,-0.0008892294717952609,-0.02436552755534649,0.03753805533051491
1772797053054019800,7.961019775390625,-0.008468319661915302,-0.02624145708978176,0.03422108665108681
1772797053064045800,7.9710458984375,-0.012466789223253727,-0.013569870963692665,0.022465094923973083
1772797053074072000,7.981072021484375,-0.010842527262866497,-0.008164718747138977,0.004418983124196529
1772797053084097000,7.991096923828125,-0.011285144835710526,0.005364139098674059,-0.014464426785707474
1772797053094123000,8.001123046875,-0.00815166998654604,0.005166266113519669,-0.020807810127735138
1772797053104148200,8.011148193359375,-0.003944674041122198,-0.00752050057053566,-0.01780349761247635
1772797053114174200,8.02117431640625,-0.011094729416072369,-0.01690121926367283,-0.005911951418966055
1772797053124199200,8.03119921875,-0.013876667246222496,-0.00711729796603322,0.002695651724934578
1772797053134225200,8.04122509765625,-0.01450117863714695,0.006582801695913076,0.008821454830467701
1772797053144251400,8.05125146484375,-0.0168524831533432,0.008730107918381691,0.023490944877266884
1772797053154276000,8.061276123046875,-0.020669059827923775,0.006503439508378506,0.037338584661483765
1772797053164302300,8.07130224609375,-0.018383800983428955,0.010057960636913776,0.03934021666646004
1772797053174327000,8.0813271484375,-0.019458919763565063,0.00818043202161789,0.04297836124897003
1772797053184353300,8.091353271484374,-0.014465758576989174,-0.006462692748755217,0.041429731994867325
1772797053194378200,8.101378173828126,-0.010290187783539295,-0.015055116266012192,0.04839762672781944
1772797053204404200,8.111404296875,-0.0026575683150440454,-0.018016284331679344,0.043291013687849045
1772797053214430200,8.12143017578125,0.005415804218500853,-0.011404454708099365,0.031073763966560364
1772797053224455200,8.131455078125,0.010547716170549393,-0.0073295519687235355,0.0149251539260149
1772797053234481400,8.1414814453125,0.016211992129683495,-0.006421147845685482,-0.0006620618514716625
1772797053244506000,8.151506103515626,0.02292635478079319,-0.00481339730322361,-0.020205136388540268
1772797053254532400,8.161532470703126,0.02225603722035885,-0.004581702407449484,-0.03257205709815025
1772797053264557000,8.17155712890625,0.026064623147249222,-0.0004948153509758413,-0.04080308973789215
1772797053274583300,8.181583251953125,0.023245668038725853,-0.0006929545197635889,-0.040102146565914154
1772797053284609300,8.191609375,0.023299995809793472,-0.0083085298538208,-0.03373932093381882
1772797053294634200,8.20163427734375,0.015438877046108246,-0.008668323047459126,-0.020316990092396736
1772797053304660200,8.21166015625,0.007164702285081148,-0.00863423477858305,-0.009180715307593346
1772797053314685400,8.221685546875,0.0012950951931998134,-0.005330849438905716,-0.0027507790364325047
1772797053324711400,8.23171142578125,-0.007489341776818037,0.0050099384970963,0.007881092838943005
1772797053334736400,8.241736328125,-0.005882123950868845,-0.003270095447078347,0.02227175049483776
1772797053344762400,8.251762451171874,-0.009125587530434132,-0.01104253064841032,0.03695375844836235
1772797053354787300,8.261787353515626,-0.007782022934406996,-0.0138404481112957,0.04844503104686737
1772797053364813300,8.271813232421875,-0.008933573961257935,-0.011439874768257141,0.05108821764588356
1772797053374839300,8.28183935546875,-0.011560515500605106,-0.011938418261706829,0.04970284178853035
1772797053384864300,8.2918642578125,-0.011501659639179707,-0.009313340298831463,0.036798495799303055
1772797053394890200,8.30189013671875,-0.006536195985972881,-0.001907355966977775,0.01531450729817152
1772797053404915500,8.31191552734375,-0.0031465247739106417,0.001817873795516789,0.0018900453578680754
1772797053414941200,8.321941162109376,0.0004242415598127991,-0.0031553131993860006,-0.0047260457649827
1772797053424966400,8.33196630859375,0.0023276028223335743,-0.008609200827777386,-0.008362858556210995
1772797053434992400,8.341992431640625,0.0037918086163699627,-0.008656072430312634,-0.0082089276984334
1772797053445018400,8.352018310546875,0.0075782909989356995,-0.01660587452352047,-0.0035747610963881016
1772797053455043300,8.362043212890624,0.008551943115890026,-0.016630908474326134,0.002100967802107334
1772797053465069300,8.3720693359375,0.01338478084653616,-0.019713250920176506,0.007474694401025772
1772797053475094300,8.38209423828125,0.00891093723475933,-0.016103336587548256,0.0006514092092402279
1772797053485120300,8.392120361328125,0.0017747305100783706,-0.006925017572939396,-0.008843825198709965
1772797053495145200,8.402145263671875,-0.00956687331199646,-0.0036016590893268585,-0.016759272664785385
1772797053505171200,8.412171142578124,-0.012192483991384506,-0.003952397499233484,-0.020780112594366074
1772797053515197200,8.422197265625,-0.005303418729454279,-0.012624449096620083,-0.027517378330230713
1772797053525222400,8.432222412109375,0.0009944243356585503,-0.013683321885764599,-0.027423368766903877
1772797053535248400,8.442248291015625,0.004358529578894377,-0.016716929152607918,-0.020788902416825294
1772797053545273300,8.4522734375,0.00199337606318295,-0.006207295693457127,-0.01143028773367405
1772797053555299300,8.46229931640625,-0.009758355095982552,0.008916263468563557,-0.00640916358679533
1772797053565324300,8.47232421875,-0.01384098082780838,0.005406483076512814,0.0032562471460551023
1772797053575350300,8.482350341796876,-0.011986888013780117,-0.0015872439835220575,0.022546853870153427
1772797053585376300,8.492376220703125,-0.005003546830266714,-0.011781824752688408,0.03743685409426689
1772797053595401200,8.502401123046875,-0.0007211840129457414,-0.01715608313679695,0.033600836992263794
1772797053605427200,8.51242724609375,0.0068211546167731285,-0.010746121406555176,0.023551931604743004
1772797053615452400,8.522452392578124,0.013260412029922009,-0.00908777117729187,0.0070278155617415905
1772797053625478100,8.53247802734375,0.015054583549499512,-0.0046445527113974094,-0.0038093857001513243
1772797053635503400,8.54250341796875,0.017901502549648285,-0.006161223165690899,-0.012291020713746548
1772797053645529300,8.552529296875,0.016682041808962822,-0.007790811359882355,-0.02371012233197689
1772797053655555300,8.562555419921875,0.014149640686810017,-0.008125037886202335,-0.03159574419260025
1772797053665580300,8.572580322265624,0.006224073935300112,0.0024205471854656935,-0.04065981134772301
1772797053675606300,8.582606201171876,-0.0013339773286134005,0.001246892032213509,-0.03314223885536194
1772797053685631200,8.59263134765625,-0.010835337452590466,-0.0018218684708699584,-0.009671535342931747
1772797053695657200,8.6026572265625,-0.017462613061070442,-0.007709318771958351,0.02365179918706417
1772797053705682200,8.61268212890625,-0.019397133961319923,-0.008896023035049438,0.04496694356203079
1772797053715708200,8.622708251953124,-0.022409701719880104,-0.009497364982962608,0.057423077523708344
1772797053725733400,8.6327333984375,-0.01853719912469387,-0.007509848102927208,0.05603530630469322
1772797053735759400,8.64275927734375,-0.0095671396702528,-0.0036618465092033148,0.039676837623119354
1772797053745785300,8.652785400390625,-0.0014708638191223145,-0.001907089608721435,0.01853853091597557
1772797053755810300,8.662810302734375,0.006938599981367588,-0.005035505164414644,0.007710117381066084
1772797053765836300,8.672836181640625,0.012909939512610435,-0.009151420556008816,-0.0007313040550798178
1772797053775861200,8.682861328125,0.015868978574872017,-0.0207540150731802,-0.012569854035973549
1772797053785887200,8.69288720703125,0.01607697084546089,-0.014219948090612888,-0.021999308839440346
1772797053795912200,8.702912109375,0.016769392415881157,-0.008130097761750221,-0.025184715166687965
1772797053805938200,8.712938232421875,0.020312994718551636,-0.01372513361275196,-0.02647155523300171
1772797053815964200,8.722964111328125,0.023037143051624298,-0.016397083178162575,-0.026035329326987267
1772797053825989000,8.732989013671874,0.030283071100711823,-0.013881194405257702,-0.021221932023763657
1772797053836015000,8.74301513671875,0.02929956465959549,-0.009216668084263802,-0.018561167642474174
1772797053846040300,8.753040283203125,0.032110799103975296,-0.00555215822532773,-0.021445371210575104
1772797053856066300,8.76306640625,0.028962142765522003,0.006310626398772001,-0.013057212345302105
1772797053866091300,8.77309130859375,0.022718895226716995,0.005132976453751326,-0.00024101608141791075
1772797053876117200,8.7831171875,0.020377177745103836,-0.0070312777534127235,0.0190152358263731
1772797053886143200,8.793143310546874,0.014986672438681126,-0.01372193731367588,0.03790770098567009
1772797053896168200,8.803168212890625,0.006676544900983572,-0.014738465659320354,0.049672748893499374
1772797053906194200,8.813194091796875,0.0070680296048521996,-0.004911135416477919,0.04601942375302315
1772797053916219100,8.82321923828125,0.004935103934258223,0.001074052881449461,0.02906414121389389
1772797053926245000,8.8332451171875,0.0041731735691428185,0.008297877386212349,0.009875001385807991
1772797053936270300,8.843270263671876,0.0014511564513668418,0.007674697786569595,0.000024234765078290366
1772797053946296300,8.85329638671875,-0.005313538946211338,-0.0004796353168785572,-0.00020666129421442747
1772797053956321300,8.8633212890625,-0.010468353517353535,-0.0024975123815238476,-0.000368847802747041
1772797053966347300,8.87334716796875,-0.010147443041205406,-0.00752156600356102,-0.0008839031797833741
1772797053976373200,8.883373291015625,-0.0029710223898291588,-0.008451275527477264,-0.005279450677335262
1772797053986398200,8.893398193359374,0.004426706116646528,-0.004607268609106541,-0.013600231148302555
1772797053996424200,8.903424072265626,0.010521084070205688,-0.0031459920573979616,-0.019300993531942368
1772797054006449200,8.91344921875,0.011573831550776958,-0.006283728405833244,-0.020298346877098083
1772797054016475100,8.92347509765625,0.007546333130449057,-0.01776168681681156,-0.009855826385319233
1772797054026500400,8.933500244140625,0.0022535668686032295,-0.012168515473604202,-0.0009198558400385082
1772797054036526000,8.943526123046874,-0.003976366017013788,-0.01124865934252739,0.005333512555807829
1772797054046552000,8.953552001953126,-0.0080925477668643,-0.006041381042450666,0.0034016557037830353
1772797054056577300,8.963577392578125,-0.0059926449321210384,0.0001280980504816398,-0.0043803672306239605
1772797054066603300,8.973603271484375,-0.0009302421822212636,0.0028269453905522823,-0.014171745628118515
1772797054076628700,8.983628662109375,0.005007009021937847,0.002635996788740158,-0.011999671347439289
1772797054086654700,8.99365478515625,0.004054929129779339,0.002858637133613229,-0.0017512947088107467
1772797054096679700,9.0036796875,0.0024985778145492077,0.0032258869614452124,0.00654551712796092
1772797054106705700,9.01370556640625,-0.005004612263292074,0.004835501778870821,0.013219931162893772
1772797054116730600,9.023730712890625,-0.007059241179376841,-0.002895388752222061,0.026037460193037987
1772797054126756600,9.033756591796875,-0.003984888084232807,-0.010325341485440731,0.035361986607313156
1772797054136782600,9.043782470703125,-0.002049036091193557,-0.013730726204812527,0.029934994876384735
1772797054146807600,9.0538076171875,0.001112935016863048,-0.01738564856350422,0.013886520639061928
1772797054156833500,9.06383349609375,0.0005792375304736197,-0.01218476053327322,-0.002703641075640917
1772797054166858800,9.073858642578125,0.006081328261643648,-0.0003038666909560561,-0.02321743778884411
1772797054176884700,9.083884765625,0.007933823391795158,0.005399026442319155,-0.03344131261110306
1772797054186909700,9.09390966796875,0.011167433112859726,0.003421895671635866,-0.04729188233613968
1772797054196935700,9.103935791015624,0.005730856209993362,0.0022631543688476086,-0.054919708520174026
1772797054206961700,9.113961669921874,0.0009339706157334149,0.0037614486645907164,-0.057285126298666
1772797054216986600,9.123986572265625,-0.00896979309618473,0.001350222621113062,-0.04283108562231064
1772797054227012600,9.1340126953125,-0.016763800755143166,-0.0068272799253463745,-0.01477308664470911
1772797054237037600,9.14403759765625,-0.02468217723071575,-0.003852795111015439,0.009092831052839756
1772797054247063600,9.1540634765625,-0.02316843532025814,0.005694637540727854,0.028255073353648186
1772797054257088800,9.1640888671875,-0.020663199946284294,0.006180131807923317,0.04285212606191635
1772797054267114800,9.17411474609375,-0.0173180028796196,0.00507065886631608,0.05076730623841286
1772797054277140700,9.184140625,-0.013133645057678223,-0.0009235842735506594,0.05693864822387695
1772797054287165700,9.194165771484375,-0.00814953912049532,-0.006145510356873274,0.05476284772157669
1772797054297191700,9.204191650390625,-0.0017856494523584843,-0.002435460686683655,0.040641967207193375
1772797054307216600,9.214216552734374,0.00352868833579123,-0.000023968450477696024,0.02418949268758297
1772797054317242600,9.22424267578125,0.00900015328079462,0.0033547841012477875,-0.003751595038920641
1772797054327267600,9.234267578125,0.009692042134702206,0.00929389987140894,-0.027222299948334694
1772797054337293600,9.24429345703125,0.01190965622663498,0.008530637249350548,-0.04265931248664856
1772797054347318500,9.254318603515625,0.009988452307879925,-0.01248250249773264,-0.043954674154520035
1772797054357344500,9.264344482421874,0.005215002223849297,-0.01607590541243553,-0.035290081053972244
1772797054367370500,9.27437060546875,0.004217382054775953,-0.016759272664785385,-0.031125428155064583
1772797054377395700,9.284395751953125,0.0005645901546813548,-0.011271828785538673,-0.031206121668219566
1772797054387421700,9.294421630859375,0.002663161139935255,-0.0021369203459471464,-0.03519127517938614
1772797054397446700,9.30444677734375,0.0033161682076752186,0.0023459785152226686,-0.03586665540933609
1772797054407472600,9.31447265625,0.0001512675517005846,0.00213532242923975,-0.03527756407856941
1772797054417497600,9.32449755859375,-0.006021406967192888,0.0034298852551728487,-0.021570272743701935
1772797054427523600,9.334523681640626,-0.00980602577328682,-0.006262689363211393,-0.0017616810509935021
1772797054437549600,9.344549560546875,-0.016347015276551247,-0.01932469569146633,0.020846959203481674
1772797054447574500,9.354574462890625,-0.016885772347450256,-0.015599465928971767,0.03232837840914726
1772797054457600500,9.3646005859375,-0.016597885638475418,-0.00811917893588543,0.026269420981407166
1772797054467625700,9.374625732421874,-0.014270548708736897,0.004993959795683622,0.01599814184010029
1772797054477651700,9.384651611328126,-0.007192132994532585,0.005616606678813696,0.002959837205708027
1772797054487676700,9.3946767578125,-0.002898584585636854,0.004590224474668503,-0.005161738954484463
1772797054497702700,9.40470263671875,0.00011478224041638896,-0.00532552320510149,-0.010074738413095474
1772797054507727600,9.4147275390625,0.003739078063517809,-0.01230726670473814,-0.011141068302094936
1772797054517753600,9.424753662109374,0.007441138383001089,-0.0030160299502313137,-0.019691945984959602
1772797054527779600,9.434779541015626,0.012812468223273754,-0.0022011026740074158,-0.029772276058793068
1772797054537804500,9.444804443359375,0.014997324906289577,-0.012321114540100098,-0.03176937997341156
1772797054547830500,9.45483056640625,0.017676997929811478,-0.018163558095693588,-0.029578398913145065
1772797054557855500,9.46485546875,0.013093964196741581,-0.01531850267201662,-0.030219953507184982
1772797054567881500,9.474881591796875,0.008688030764460564,-0.010793792083859444,-0.03421842306852341
1772797054577906700,9.48490673828125,-0.0031518512405455112,-0.0068030450493097305,-0.03307246416807175
1772797054587932700,9.4949326171875,-0.01224521454423666,-0.003677292726933956,-0.023692812770605087
1772797054597959000,9.504958984375,-0.015055116266012192,-0.009618804790079594,-0.017046095803380013
1772797054607983600,9.514983642578125,-0.012508600950241089,-0.013601562939584255,-0.0030975225381553173
1772797054618009900,9.525009765625,-0.008653941564261913,-0.01092508528381586,0.005979862064123154
1772797054628034600,9.53503466796875,-0.0028695559594780207,-0.00637827068567276,0.009470201097428799
1772797054638060800,9.545060791015626,-0.00572925852611661,0.0043926178477704525,0.010456901974976063
1772797054648085500,9.55508544921875,-0.009244897402822971,0.014627411961555481,0.012751481495797634
1772797054658111700,9.56511181640625,-0.010689395479857922,0.004250937607139349,0.02111780270934105
1772797054668137700,9.5751376953125,-0.00407383730635047,-0.013976535759866238,0.03603123873472214
1772797054678162700,9.58516259765625,0.005789978429675102,-0.030243389308452606,0.03133475407958031
1772797054688188700,9.595188720703124,0.013028983026742935,-0.03537210449576378,0.016084160655736923
1772797054698213600,9.605213623046875,0.014426076784729958,-0.026668628677725792,-0.005371862091124058
1772797054708240000,9.615239990234375,0.01601385325193405,-0.013786385767161846,-0.028130171820521355
1772797054718264600,9.6252646484375,0.013878265395760536,-0.003070624778047204,-0.045934200286865234
1772797054728290800,9.635290771484375,0.014661766588687897,0.002269279444590211,-0.054071757942438126
1772797054738315500,9.6453154296875,0.01082921214401722,0.001582716591656208,-0.05566592514514923
1772797054748341800,9.655341796875,0.0035209653433412313,0.003099386813119054,-0.04632435366511345
1772797054758367700,9.66536767578125,-0.002894589677453041,0.0026114957872778177,-0.0252800565212965
1772797054768392700,9.675392822265625,-0.0070310113951563835,-0.006346845533698797,0.005489573813974857
1772797054778418700,9.685418701171875,-0.01477734837681055,-0.014389325864613056,0.033730264753103256
1772797054788444000,9.69544384765625,-0.017239972949028015,-0.008955411612987518,0.04898884892463684
1772797054798470000,9.705469970703126,-0.020504210144281387,-0.005260542035102844,0.05012202262878418
1772797054808494800,9.715494873046875,-0.017102021723985672,0.006942062173038721,0.043788228183984756
1772797054818520800,9.725520751953125,-0.013056679628789425,0.0037417414132505655,0.04110562428832054
1772797054828545800,9.7355458984375,-0.009856891818344593,-0.005352154839783907,0.03777427598834038
1772797054838571800,9.74557177734375,-0.00603525573387742,-0.008521050214767456,0.029567213729023933
1772797054848597800,9.75559765625,-0.004385693464428186,-0.0021816615480929613,0.022063490003347397
1772797054858622700,9.765622802734375,-0.0006303702248260379,-0.006096508353948593,0.008560997433960438
1772797054868648700,9.775648681640625,0.003882622579112649,-0.008140751160681248,-0.009571400471031666
1772797054878673700,9.785673583984375,0.010251838713884354,-0.004278368316590786,-0.020350545644760132
1772797054888699600,9.79569970703125,0.012307798489928246,-0.00021758026559837162,-0.028746692463755608
1772797054898724900,9.805724853515626,0.014447649009525776,-0.008325041271746159,-0.02895255573093891
1772797054908750800,9.815750732421876,0.013353089801967144,-0.012117383070290089,-0.021274928003549576
1772797054918776800,9.82577685546875,0.008555138483643532,-0.01769351027905941,-0.016148610040545464
1772797054928801800,9.8358017578125,0.002781671704724431,-0.01878274232149124,-0.008364190347492695
1772797054938827800,9.845827880859375,0.0002998719282913953,-0.011321896687150002,-0.01516084372997284
1772797054948852700,9.855852783203124,0.0022034994326531887,-0.005927397403866053,-0.01918754354119301
1772797054958878700,9.865878662109376,0.002071140334010124,-0.002793123247101903,-0.017676731571555138
1772797054968903700,9.875903564453125,-0.0038077877834439278,0.004252535756677389,-0.010529872961342335
1772797054978929700,9.8859296875,-0.011208978481590748,-0.0013009541435167193,0.010029464960098267
1772797054988955000,9.895954833984375,-0.01631106249988079,-0.015447932295501232,0.03413107246160507
1772797054998980900,9.90598095703125,-0.01678217574954033,-0.019155850633978844,0.04428304359316826
1772797055009006800,9.9160068359375,-0.01458986196666956,-0.014507037587463856,0.04543512687087059
1772797055019031800,9.92603173828125,-0.01498294435441494,-0.013069995678961277,0.040046487003564835
1772797055029057800,9.936057861328125,-0.012240421026945114,-0.014523815363645554,0.023495739325881004
1772797055039082800,9.946082763671875,-0.013560815714299679,-0.0052176653407514095,0.011052917689085007
1772797055049108700,9.956108642578124,-0.011260909959673882,0.003369697602465749,-0.011577294208109379
1772797055059133700,9.9661337890625,-0.004910602699965239,0.0056925066746771336,-0.025309616699814796
1772797055069159700,9.97615966796875,0.0009744506096467376,-0.002522279741242528,-0.02828463539481163
1772797055079185700,9.986185546875,0.008500277064740658,-0.010456901974976063,-0.027342941612005234
1772797055089210600,9.996210693359375,0.013456952758133411,-0.023309316486120224,-0.023844879120588303
1772797055099236600,10.006236572265625,0.018315358087420464,-0.027519242838025093,-0.022786539047956467
1772797055109261800,10.01626171875,0.020478110760450363,-0.018247978761792183,-0.03882329538464546
1772797055119287800,10.026287841796876,0.014330470003187656,-0.009125321172177792,-0.05744651332497597
1772797055129312800,10.036312744140625,0.0031851406674832106,-0.000681236619129777,-0.07102810591459274
1772797055139338800,10.0463388671875,0.0001304948964389041,0.00823982059955597,-0.07557012140750885
1772797055149363700,10.05636376953125,-0.0003307645965833217,0.0018618159228935838,-0.07049813121557236
1772797055159389700,10.0663896484375,-0.0009741843095980585,-0.009383381344377995,-0.05272366479039192
1772797055169415700,10.076415771484376,-0.0002980077115353197,-0.01008166279643774,-0.02394155226647854
1772797055179440600,10.086440673828125,-0.00017949705943465233,-0.011649198830127716,-0.006000102031975985
1772797055189466600,10.096466552734375,-0.0073447320610284805,-0.004239486064761877,0.009061938151717186
1772797055199491800,10.106491943359375,-0.012313923798501492,-0.002356631215661764,0.024997228756546974
1772797055209517800,10.116517822265624,-0.014359232038259506,-0.013761085458099842,0.04518399015069008
1772797055219542800,10.126542724609376,-0.010130664333701134,-0.0279123242944479,0.051772117614746094
1772797055229568800,10.13656884765625,-0.008509598672389984,-0.026128007099032402,0.038355909287929535
1772797055239593700,10.14659375,-0.004792091902345419,-0.01095491275191307,0.011948804371058941
1772797055249619700,10.15661962890625,-0.0008423578692600131,0.001002413802780211,-0.020979583263397217
1772797055259645700,10.166645751953125,0.006060289219021797,-0.002862365450710058,-0.040171653032302856
1772797055269670700,10.176670654296874,0.009375392459332943,-0.01212936732918024,-0.04488971084356308
1772797055279696600,10.186696533203126,0.010692858137190342,-0.009052617475390434,-0.05191619321703911
1772797055289721600,10.1967216796875,0.007798268459737301,-0.006963899824768305,-0.06623228639364243
1772797055299747600,10.20674755859375,0.003653324441984296,0.007245395798236132,-0.06968214362859726
1772797055309772800,10.216772705078125,-0.003599794814363122,0.0111607750877738,-0.06513159722089767
1772797055319798800,10.226798828125,-0.011818576604127884,0.013660685159265995,-0.048536643385887146
1772797055329824800,10.23682470703125,-0.00996421743184328,0.009920807555317879,-0.01714383251965046
1772797055339849700,10.246849609375,-0.014445784501731396,0.0007371630053967237,0.02124057337641716
1772797055349875700,10.256875732421875,-0.010969560593366623,-0.005839246790856123,0.058936022222042084
1772797055359900700,10.266900634765625,-0.0034024545457214117,-0.01655074767768383,0.07804100215435028
1772797055369926700,10.2769267578125,0.001748897833749652,-0.017858359962701797,0.07233571261167526
1772797055379951600,10.28695166015625,0.007997206412255764,-0.007137271575629711,0.057204701006412506
1772797055389977600,10.2969775390625,0.011114436201751232,0.0016176040517166257,0.03472895175218582
1772797055400002800,10.3070029296875,0.01577230542898178,0.0029494508635252714,0.013027118518948555
1772797055410028800,10.31702880859375,0.01594754122197628,0.01124839298427105,-0.010911770164966583
1772797055420054800,10.3270546875,0.02165203168988228,0.0052261874079704285,-0.02930409274995327
1772797055430079700,10.337079833984374,0.02449042908847332,-0.0032538501545786858,-0.04288994148373604
1772797055440105700,10.347105712890626,0.022768162190914154,0.0004159857635386288,-0.05179448798298836
1772797055450130700,10.357130615234375,0.023324230685830116,-0.0027244137600064278,-0.05631520226597786
1772797055460156700,10.36715673828125,0.024112526327371597,-0.010834804736077785,-0.04938698932528496
1772797055470181600,10.377181640625,0.01889006793498993,-0.008840097114443779,-0.04123904928565025
1772797055480207600,10.38720751953125,0.010790329426527023,-0.007842742837965488,-0.029702501371502876
1772797055490233600,10.397233642578126,0.001163268811069429,-0.006572947837412357,-0.01750309392809868
1772797055500258600,10.407258544921875,-0.015388277359306812,0.0041582598350942135,-0.010181797668337822
1772797055510284500,10.417284423828125,-0.019646139815449715,0.014554175548255444,-0.0007890945998951793
1772797055520309800,10.427309814453125,-0.018865033984184265,0.018567824736237526,0.004804342519491911
1772797055530335700,10.437335693359374,-0.016536099836230278,0.011811385862529278,0.01998196355998516
1772797055540360700,10.447360595703126,-0.016863934695720673,-0.0018322548130527139,0.04242575541138649
1772797055550386700,10.45738671875,-0.014128069393336773,-0.009188172407448292,0.05419772490859032
1772797055560411600,10.46741162109375,-0.007386543322354555,-0.00965369213372469,0.05034652724862099
1772797055570437600,10.477437744140625,-0.0051654670387506485,-0.010175139643251896,0.04230378195643425
1772797055580463600,10.487463623046875,0.003683950752019882,-0.004547081422060728,0.02846040390431881
1772797055590488600,10.497488525390626,0.006087986286729574,-0.004180097486823797,0.012263324111700058
1772797055600514600,10.5075146484375,0.013865215703845024,-0.004791825544089079,-0.008583367802202702
1772797055610539800,10.517539794921875,0.014658038504421711,0.0036187032237648964,-0.022716231644153595
1772797055620565800,10.527565673828125,0.014287859201431274,0.002965163439512253,-0.026694461703300476
1772797055630590700,10.5375908203125,0.014949388802051544,-0.0033803503029048443,-0.02857039123773575
1772797055640616700,10.54761669921875,0.01377972774207592,-0.009118396788835526,-0.027355192229151726
1772797055650641700,10.5576416015625,0.014090253040194511,-0.01152695994824171,-0.029891319572925568
1772797055660667600,10.567667724609375,0.018498582765460014,-0.009953564032912254,-0.03424692153930664
1772797055670693600,10.577693603515625,0.016276441514492035,-0.009110407903790474,-0.03236725926399231
1772797055680718600,10.587718505859375,0.009374593384563923,-0.010950651951134205,-0.029998378828167915
1772797055690744600,10.59774462890625,-0.001466869143769145,-0.00754899624735117,-0.025143170729279518
1772797055700769500,10.60776953125,-0.01677684858441353,-0.001568069215863943,-0.017831195145845413
1772797055710795500,10.61779541015625,-0.02239372208714485,-0.0002657834847923368,-0.008812399581074715
1772797055720820700,10.62782080078125,-0.02183765359222889,-0.006421680096536875,0.0035563854034990072
1772797055730846700,10.6378466796875,-0.020808609202504158,-0.0035217641852796078,0.015804795548319817
1772797055740872700,10.647872802734375,-0.018704712390899658,0.0015752597246319056,0.029619144275784492
1772797055750897700,10.657897705078126,-0.02082165889441967,0.00256409146822989,0.03677931800484657
1772797055760923600,10.667923583984376,-0.022540196776390076,0.0012144014472141862,0.04066646844148636
1772797055770948600,10.677948486328125,-0.01967916265130043,-0.004929244983941317,0.043893955647945404
1772797055780974600,10.687974609375,-0.009652361273765564,-0.008076036348938942,0.03916151821613312
1772797055790999600,10.69799951171875,0.0020607539918273687,-0.014697719365358353,0.02666010707616806
1772797055801025500,10.708025634765624,0.013484117574989796,-0.014719025231897831,0.009276323020458221
1772797055811050800,10.71805078125,0.022466693073511124,-0.009978331625461578,-0.0032613070216029882
1772797055821076700,10.72807666015625,0.019397133961319923,-0.0020426444243639708,-0.010522948578000069
1772797055831102700,10.738102783203125,0.022492792457342148,-0.009329586289823055,-0.016209596768021584
1772797055841127700,10.748127685546875,0.023629428818821907,-0.017422400414943695,-0.031562987715005875
1772797055851153700,10.758153564453124,0.0130907678976655,-0.01025450136512518,-0.045872949063777924
1772797055861178600,10.7681787109375,0.005511411931365728,0.003769704606384039,-0.06045295670628548
1772797055871204600,10.77820458984375,-0.004508199170231819,0.007720503956079483,-0.07376796007156372
1772797055881229600,10.7882294921875,-0.010920558124780655,0.026080602779984474,-0.08335480839014053
1772797055891255600,10.798255615234375,-0.014919294975697994,0.030786141753196716,-0.07000917941331863
1772797055901280800,10.80828076171875,-0.016978716477751732,0.022999858483672142,-0.03738279268145561
1772797055911306500,10.818306396484376,-0.007872836664319038,-0.000984570593573153,0.0012804478174075484
1772797055921332500,10.82833251953125,0.0012998889433220029,-0.022044049575924873,0.027727767825126648
1772797055931357700,10.838357666015625,0.004280498716980219,-0.022834742441773415,0.03899427130818367
1772797055941383700,10.8483837890625,0.002311357529833913,-0.011267035268247128,0.04529797285795212
1772797055951408600,10.85840869140625,0.00824807584285736,-0.007562845014035702,0.042933885008096695
1772797055961434600,10.8684345703125,0.007133809383958578,-0.003287938656285405,0.02684812620282173
1772797055971459600,10.87845947265625,0.006594785954803228,0.0034163030795753,0.008874984458088875
1772797055981485600,10.888485595703125,0.01660880446434021,0.002482066163793206,-0.010122941806912422
1772797055991510500,10.898510498046875,0.024991104379296303,0.004446413833647966,-0.02424089051783085
1772797056001536500,10.90853662109375,0.032891903072595596,-0.0010151970200240612,-0.04357011243700981
1772797056011562500,10.9185625,0.03236140310764313,-0.0046448190696537495,-0.05390504375100136
1772797056021587700,10.928587646484376,0.030961643904447556,-0.008233695290982723,-0.053475476801395416
1772797056031613700,10.93861376953125,0.028736039996147156,-0.0023667511995881796,-0.048351287841796875
1772797056041638700,10.948638671875,0.018863435834646225,-0.01013945322483778,-0.03659822419285774
1772797056051664600,10.95866455078125,0.008145544677972794,-0.011480621062219143,-0.0299104955047369
1772797056061689600,10.968689697265624,0.001412806916050613,-0.016055932268500328,-0.021264808252453804
1772797056071716400,10.97871630859375,-0.005861351266503334,-0.038248319178819656,-0.013486780226230621
1772797056081742300,10.988742431640626,-0.016707340255379677,0.002965429797768593,-0.01744450442492962
1772797056091767300,10.998767333984375,-0.03153049573302269,0.020792895928025246,-0.020434701815247536
1772797056101793300,11.008793212890625,-0.012686233967542648,-0.01570865511894226,-0.002566754585132003
1772797056111818000,11.01881787109375,0.004065315239131451,-0.029335517436265945,0.01040603592991829
1772797056121844200,11.02884423828125,0.00871972180902958,0.0034381409641355276,0.019465576857328415
1772797056131869200,11.038869140625,0.0034080471377819777,0.012978915125131607,0.02743215672671795
1772797056141895200,11.048895263671875,0.010465158149600029,-0.008160724304616451,0.037689853459596634
1772797056151920000,11.058920166015625,-0.0007025419035926461,-0.028264660388231277,0.041014544665813446
1772797056161946400,11.0689462890625,-0.007748733274638653,-0.014812768436968327,0.020049873739480972
1772797056171972400,11.078972412109374,-0.003979827743023634,0.006924485322088003,-0.010551177896559238
1772797056181997300,11.088997314453126,-0.0041497377678751945,0.011782357469201088,-0.03472042828798294
1772797056192023300,11.099023193359375,0.0018184063956141472,0.009395631961524487,-0.04784182459115982
1772797056202048300,11.10904833984375,0.007889614440500736,-0.0018096179701387882,-0.06010860949754715
1772797056212074200,11.11907421875,0.017292970791459084,-0.004480502102524042,-0.0767001062631607
1772797056222099200,11.12909912109375,0.01363218855112791,0.010068879462778568,-0.08908593654632568
1772797056232125200,11.139125244140626,0.014178669080138206,0.003326288191601634,-0.0793968215584755
1772797056242150400,11.149150390625,0.013658021576702595,-0.0019150790758430958,-0.045691587030887604
1772797056252176400,11.15917626953125,0.017099890857934952,-0.023611053824424744,-0.015473764389753342
1772797056262202400,11.169202392578125,0.01966717839241028,-0.025542378425598145,-0.002222940558567643
1772797056272227300,11.179227294921875,0.011111773550510406,-0.020914603024721146,-0.003567037871107459
1772797056282253300,11.18925341796875,0.00245117349550128,-0.015366173349320889,-0.006318083498626947
1772797056292278300,11.1992783203125,-0.009110674262046814,-0.009063003584742546,-0.012597017921507359
1772797056302304300,11.20930419921875,-0.014702512882649899,0.005863481666892767,-0.008114385418593884
1772797056312329200,11.2193291015625,-0.014158962294459343,-0.00891146995127201,0.0036610474344342947
1772797056322355200,11.229355224609375,0.002698048483580351,-0.008810003288090229,0.009792443364858627
1772797056332381200,11.239381103515624,-0.024213461205363274,0.003318032482638955,0.013464942574501038
1772797056342406400,11.249406494140626,-0.027721643447875977,-0.0005779059720225632,0.028441227972507477
1772797056352432000,11.25943212890625,-0.025555960834026337,-0.0016029566759243608,0.031855933368206024
1772797056362457300,11.269457275390625,-0.007005445193499327,-0.015292136929929256,0.01907782070338726
1772797056372483300,11.2794833984375,-0.015391472727060318,0.021499698981642723,-0.008589493110775948
1772797056382508300,11.28950830078125,-0.009346097707748413,0.012544553726911545,-0.032278578728437424
1772797056392534300,11.2995341796875,0.009165268391370773,0.00452790642157197,-0.06064843386411667
1772797056402559200,11.309559326171875,0.014186392538249493,0.008912800811231136,-0.09449747949838638
1772797056412585200,11.319585205078125,0.020833909511566162,-0.01703251339495182,-0.11972427368164062
1772797056422611200,11.329611083984375,0.0286412313580513,-0.01792200841009617,-0.13367044925689697
1772797056432636200,11.33963623046875,0.020958011969923973,-0.005603556986898184,-0.13927826285362244
1772797056442662100,11.349662109375,0.02485155314207077,-0.025188444182276726,-0.12813453376293182
1772797056452687400,11.359687255859376,0.008678442798554897,-0.0059684100560843945,-0.10347632318735123
1772797056462713300,11.36971337890625,-0.007869907654821873,-0.014772554859519005,-0.06959905475378036
1772797056472738300,11.37973828125,-0.014519288204610348,-0.03868001699447632,-0.03596119582653046
1772797056482764300,11.389764404296875,-0.022791864350438118,-0.012403938919305801,-0.014812502078711987
1772797056492789200,11.399789306640624,-0.028060130774974823,0.009270995855331421,-0.0017979000695049763
1772797056502815200,11.409815185546876,-0.02197400853037834,0.007484015077352524,0.005949235521256924
1772797056512841200,11.41984130859375,-0.009920807555317879,0.014896923676133156,0.010901915840804577
1772797056522866200,11.4298662109375,-0.004414988216012716,0.00869415607303381,0.017546769231557846
1772797056532892200,11.43989208984375,-0.007222492713481188,-0.0015166702214628458,0.03170120343565941
1772797056542917400,11.44991748046875,-0.002088983543217182,-0.017373664304614067,0.045399174094200134
1772797056552943000,11.459943115234376,0.0030274814926087856,-0.016924388706684113,0.0416284017264843
1772797056562968300,11.46996826171875,0.009498430415987968,0.002531068166717887,0.0306915994733572
1772797056572994300,11.479994384765625,0.02401159331202507,-0.0041702440939843655,0.025987658649683
1772797056583019300,11.490019287109375,0.02219505049288273,-0.015218634158372879,0.00412390474230051
1772797056593045200,11.500045166015624,0.02912566065788269,-0.015720106661319733,-0.012527243234217167
1772797056603071200,11.5100712890625,0.0243143942207098,-0.017173927277326584,-0.020308732986450195
1772797056613096200,11.52009619140625,0.014966965653002262,-0.03436196967959404,-0.015861520543694496
1772797056623122200,11.5301220703125,0.010613229125738144,-0.044423658400774,0.005119394510984421
1772797056633147100,11.540147216796875,-0.001972337020561099,-0.0213063545525074,0.04193919524550438
1772797056643173000,11.550173095703125,-0.0348365418612957,-0.03964275121688843,0.07638797909021378
1772797056653198300,11.5601982421875,-0.04157167673110962,-0.08162082731723785,0.07412748783826828
1772797056663224300,11.570224365234376,-0.04314454272389412,-0.05841723829507828,0.049074068665504456
1772797056673250300,11.580250244140625,-0.04879283905029297,-0.058398861438035965,0.08039577305316925
1772797056683275300,11.590275146484375,-0.04789935052394867,-0.007443801499903202,0.06072033941745758
1772797056693301200,11.60030126953125,-0.05236440524458885,0.02545822225511074,0.06251930445432663
1772797056703326200,11.610326171875,-0.04454323276877403,0.034634411334991455,0.06580591201782227
1772797056713352200,11.620352294921876,-0.03358246013522148,0.02901034615933895,0.036922864615917206
1772797056723377200,11.630377197265625,-0.02015853114426136,0.05973710119724274,-0.0041036647744476795
1772797056733403100,11.640403076171875,-0.019150791689753532,0.0694536417722702,-0.04398157075047493
