time,seconds_elapsed,z,y,x
1772797045183937300,0.090937255859375,-0.0044740475714206696,-0.027267510071396828,0.05168560892343521
1772797045193962200,0.100962158203125,-0.018476635217666626,-0.02704170159995556,0.04731399565935135
1772797045203988200,0.11098828125,-0.03623059391975403,-0.01086060144007206,0.037849657237529755
1772797045214014200,0.12101416015625,-0.048350512981414795,-0.005381605587899685,0.02694270946085453
1772797045224039400,0.131039306640625,-0.0536789670586586,0.005595145747065544,0.011768549680709839
1772797045234065400,0.1410654296875,-0.059594083577394485,0.015740176662802696,0.0010462203063070774
1772797045244090400,0.15109033203125,-0.07149894535541534,0.02086969092488289,0.009383512660861015
1772797045254116400,0.161116455078125,-0.06611265242099762,0.011012440547347069,0.023553626611828804
1772797045264141300,0.171141357421875,-0.054295409470796585,0.0017718039453029633,0.032532207667827606
1772797045274167300,0.181167236328125,-0.0539589524269104,0.006889019161462784,0.03916555270552635
1772797045284193300,0.191193359375,-0.04727361723780632,0.004132913425564766,0.04105932638049126
1772797045294218200,0.20121826171875,-0.03667449578642845,-0.0013787690550088882,0.03895031288266182
1772797045304244200,0.211244140625,-0.03162913769483566,0.00754841323941946,0.036571577191352844
1772797045314269200,0.221269287109375,-0.018565446138381958,0.006826912052929401,0.028369305655360222
1772797045324295200,0.231295166015625,-0.007823051884770393,0.008741192519664764,0.024465110152959824
1772797045334320400,0.2413203125,-0.0026055036578327417,0.01771850883960724,0.03737017139792442
1772797045344346400,0.251346435546875,0.0019969712011516094,-0.0124878641217947,0.05726638063788414
1772797045354372400,0.261372314453125,-0.002944445936009288,-0.03919834643602371,0.07581055909395218
1772797045364397300,0.271397216796875,-0.0005526612512767315,-0.03354046121239662,0.061472900211811066
1772797045374423300,0.28142333984375,0.013619940727949142,-0.01426719967275858,0.03901703283190727
1772797045384448300,0.2914482421875,0.025665683671832085,0.0007516979239881039,0.011022951453924179
1772797045394474200,0.30147412109375,0.0209079310297966,0.006419388577342033,-0.009331467561423779
1772797045404499200,0.311499267578125,0.006023522466421127,0.02919953502714634,-0.02550431154668331
1772797045414525200,0.321525146484375,0.00944444164633751,0.04503597319126129,-0.03386424109339714
1772797045424550400,0.33155029296875,0.025542451068758965,0.03136490285396576,-0.03914102911949158
1772797045434576400,0.341576416015625,0.008848948404192924,0.0018664069939404726,-0.0276398416608572
1772797045444602400,0.351602294921875,-0.009016867727041245,0.003515436314046383,-0.00888879131525755
1772797045454627300,0.36162744140625,-0.021418675780296326,0.014952913857996464,0.007202561013400555
1772797045464653300,0.3716533203125,-0.03270089253783226,0.02061106637120247,0.024390071630477905
1772797045474678300,0.38167822265625,-0.03782804682850838,0.014258117415010929,0.041814833879470825
1772797045484704300,0.391704345703125,-0.04207072779536247,0.0001617390662431717,0.05928224325180054
1772797045494729200,0.401729248046875,-0.04103627800941467,0.00040291575714945793,0.06925610452890396
1772797045504755200,0.411755126953125,-0.045631296932697296,0.007204629015177488,0.0783153846859932
1772797045514781200,0.42178125,-0.0331539660692215,0.0018086540512740612,0.07076490670442581
1772797045524806100,0.43180615234375,-0.031880706548690796,0.013958527706563473,0.05841875821352005
1772797045534832000,0.44183203125,-0.03151935338973999,0.014706690795719624,0.046868063509464264
1772797045544857300,0.451857421875,-0.020404919981956482,0.01129171997308731,0.03362363204360008
1772797045554883300,0.46188330078125,-0.01076060626655817,0.011825982481241226,0.012429487891495228
1772797045564908300,0.471908203125,-0.0015471340157091618,0.0187603197991848,-0.00016220356337726116
1772797045574934300,0.481934326171875,0.006264350842684507,0.005202282685786486,-0.004439979791641235
1772797045584959200,0.491959228515625,0.01147162914276123,-0.00591827929019928,-0.010683761909604073
1772797045594985200,0.501985107421875,0.011598573997616768,-0.0046995701268315315,-0.017860714346170425
1772797045605011200,0.51201123046875,0.012355178594589233,-0.002607123926281929,-0.024521280080080032
1772797045615036200,0.5220361328125,0.011303802020847797,0.006256388034671545,-0.031739749014377594
1772797045625062100,0.532062255859375,0.004984653554856777,0.016566816717386246,-0.034928351640701294
1772797045635087400,0.54208740234375,-0.007240982260555029,0.01309551578015089,-0.025791341438889503
1772797045645113300,0.55211328125,-0.01563286781311035,-0.006729055196046829,-0.005980085581541061
1772797045655139300,0.562139404296875,-0.02582165040075779,-0.01694650948047638,0.0007649892941117287
1772797045665164300,0.572164306640625,-0.02155313454568386,-0.00032145949080586433,-0.00824768003076315
1772797045675190300,0.582190185546875,-0.017484044656157494,0.004876403603702784,-0.017378896474838257
1772797045685215200,0.59221533203125,-0.01854212023317814,0.0012124269269406796,-0.012897329404950142
1772797045695241200,0.6022412109375,-0.017282480373978615,0.000676955096423626,-0.006090045906603336
1772797045705266200,0.61226611328125,-0.018558934330940247,0.0020878976210951805,-0.007951862178742886
1772797045715292200,0.622292236328125,-0.016439324244856834,0.012061435729265213,-0.017483849078416824
1772797045725318100,0.632318115234375,-0.012489855289459229,0.020322561264038086,-0.02931147813796997
1772797045735343000,0.642343017578125,-0.0027983561158180237,0.020917516201734543,-0.03276820480823517
1772797045745369000,0.652369140625,-0.0007357378490269184,-0.005080528557300568,-0.024092156440019608
1772797045755394300,0.662394287109375,0.001448330469429493,-0.031329445540905,-0.0015932985115796328
1772797045765420300,0.672420166015625,-0.005184805020689964,-0.04354962706565857,0.0056425100192427635
1772797045775445200,0.6824453125,-0.010870061814785004,-0.026286248117685318,-0.005923686549067497
1772797045785471200,0.69247119140625,-0.006847623735666275,-0.011775217019021511,-0.03168870508670807
1772797045795497200,0.702497314453125,-0.008743004873394966,-0.009640689007937908,-0.05135529115796089
1772797045805522200,0.712522216796875,-0.010348625481128693,-0.020796138793230057,-0.058904021978378296
1772797045815548200,0.722548095703125,-0.013801553286612034,-0.014417001977562904,-0.051132094115018845
1772797045825573000,0.732572998046875,-0.014822077937424183,-0.004202182404696941,-0.04076653718948364
1772797045835599000,0.74259912109375,-0.015992891043424606,0.0031064453069120646,-0.01632564142346382
1772797045845624300,0.752624267578125,-0.016662675887346268,0.0031977917533367872,0.0062310658395290375
1772797045855650300,0.762650390625,-0.02775765024125576,-0.0026001855731010437,0.03453076258301735
1772797045865676300,0.77267626953125,-0.02937179245054722,-0.01283284928649664,0.0663752481341362
1772797045875701200,0.782701171875,-0.03561484441161156,-0.012798463925719261,0.0844462662935257
1772797045885727200,0.792727294921875,-0.03546091541647911,-0.0048918044194579124,0.09162455797195435
1772797045895752200,0.802752197265625,-0.031205087900161743,0.0009225555695593357,0.08574929088354111
1772797045905778200,0.812778076171875,-0.027064403519034386,-0.007696765474975109,0.07555604726076126
1772797045915804200,0.82280419921875,-0.018898241221904755,-0.013699311763048172,0.05612977221608162
1772797045925829000,0.8328291015625,-0.009875716641545296,-0.007061648182570934,0.03219833970069885
1772797045935855000,0.842855224609375,-0.006237643770873547,-0.0007733623497188091,0.0012895669788122177
1772797045945880000,0.852880126953125,-0.001469520153477788,0.013436999171972275,-0.029109084978699684
1772797045955906000,0.862906005859375,0.004101940430700779,0.016299501061439514,-0.05156749486923218
1772797045965931300,0.87293115234375,0.005495572462677956,-0.0018195821903645992,-0.06223877891898155
1772797045975957200,0.882957275390625,0.010783877223730087,-0.008788649924099445,-0.06251111626625061
1772797045985983200,0.892983154296875,0.009292240254580975,-0.009131398983299732,-0.05803220719099045
1772797045996008200,0.90300830078125,0.010686775669455528,-0.008037945255637169,-0.049454476684331894
1772797046006034200,0.9130341796875,0.007121602073311806,-0.004895681515336037,-0.036757856607437134
1772797046016059100,0.92305908203125,0.002948473207652569,0.001624437514692545,-0.025200311094522476
1772797046026085000,0.933085205078125,-0.0008755596354603767,-0.003708275966346264,-0.002350921742618084
1772797046036111000,0.943111083984375,-0.007032894529402256,-0.012891797348856926,0.02514660358428955
1772797046046136000,0.953135986328125,-0.008060075342655182,-0.007709551602602005,0.04113862290978432
1772797046056162000,0.963162109375,-0.004671736620366573,0.0008567720651626587,0.04548676684498787
1772797046066187500,0.9731875,-0.002636814722791314,0.009861452504992485,0.041600681841373444
1772797046076213500,0.983213623046875,0.0037224912084639072,0.006730474531650543,0.03719457611441612
1772797046086238700,0.99323876953125,0.009352147579193115,0.008102268911898136,0.03212764486670494
1772797046096264700,1.0032646484375,0.013336271047592163,0.013812791556119919,0.02146410010755062
1772797046106290700,1.013290771484375,0.009866971522569656,0.014240494929254055,0.02098553068935871
1772797046116315600,1.023315673828125,0.011699769645929337,-0.005090861581265926,0.023630257695913315
1772797046126341600,1.033341552734375,0.011736255139112473,-0.0148880984634161,0.029234614223241806
1772797046136366600,1.04336669921875,0.010593077167868614,-0.017286669462919235,0.017905347049236298
1772797046146392600,1.053392578125,0.007166387978941202,-0.011733445338904858,0.00997605174779892
1772797046156418600,1.06341845703125,0.005230632610619068,-0.008791305124759674,-0.0024572466500103474
1772797046166443500,1.073443603515625,0.01249626837670803,0.0011540031991899014,-0.023732975125312805
1772797046176469500,1.083469482421875,0.016927950084209442,0.013135414570569992,-0.041284266859292984
1772797046186494500,1.093494384765625,0.017955662682652473,0.02166818454861641,-0.04847213625907898
1772797046196520400,1.1035205078125,0.021483657881617546,0.014756623655557632,-0.046937741339206696
1772797046206545700,1.113545654296875,0.021908964961767197,0.004136203788220882,-0.034870695322752
1772797046216571600,1.123571533203125,0.02158373035490513,-0.0062564946711063385,-0.021349746733903885
1772797046226597600,1.13359765625,0.0174315944314003,-0.015739213675260544,-0.008812916465103626
1772797046236622600,1.14362255859375,0.014588074758648872,-0.018244070932269096,-0.003860875964164734
1772797046246648600,1.153648681640625,0.0046904366463422775,-0.009856444783508778,0.0032929072622209787
1772797046256673500,1.163673583984375,-0.003162149805575609,-0.0018272856250405312,0.003048371057957411
1772797046266699500,1.173699462890625,-0.006386705208569765,-0.0006597558967769146,0.004528556019067764
1772797046276725500,1.1837255859375,-0.005051236599683762,0.006312789861112833,0.005883161444216967
1772797046286750500,1.19375048828125,-0.007064852863550186,0.017441339790821075,0.004632540978491306
1772797046296776400,1.2037763671875,-0.00886956974864006,0.021061785519123077,0.006785585079342127
1772797046306801700,1.2138017578125,-0.012327151373028755,0.019420478492975235,0.008075353689491749
1772797046316827600,1.22382763671875,-0.011907576583325863,0.008280344307422638,0.015611063688993454
1772797046326853600,1.233853515625,-0.005552208982408047,-0.006112975999712944,0.01817009411752224
1772797046336878600,1.243878662109375,0.005891745910048485,-0.021520812064409256,0.012972129508852959
1772797046346904600,1.253904541015625,0.01080048456788063,-0.02189711667597294,-0.001403347123414278
1772797046356929500,1.263929443359375,0.018410369753837585,-0.012344501912593842,-0.029054883867502213
1772797046366955500,1.27395556640625,0.015772510319948196,-0.00935377273708582,-0.04935349524021149
1772797046376981500,1.2839814453125,0.014544163830578327,-0.0027343658730387688,-0.05391915515065193
1772797046387006500,1.29400634765625,0.010460739023983479,-0.008075068704783916,-0.054721035063266754
1772797046397032400,1.304032470703125,0.006165412254631519,-0.014062503352761269,-0.058164775371551514
1772797046407057400,1.314057373046875,0.008614188991487026,-0.003431963734328747,-0.059861209243535995
1772797046417083400,1.32408349609375,0.0055852485820651054,0.008223491720855236,-0.056750133633613586
1772797046427109400,1.334109375,0.004073371645063162,0.01591390185058117,-0.039530131965875626
1772797046437134600,1.344134521484375,-0.0012392941862344742,0.013877536170184612,-0.012309647165238857
1772797046447160600,1.35416064453125,-0.008351531811058521,-0.004583762958645821,0.028540847823023796
1772797046457185500,1.364185546875,-0.012487633153796196,-0.019078034907579422,0.06254113465547562
1772797046467211500,1.37421142578125,-0.01226898841559887,-0.016201822087168694,0.07752914726734161
1772797046477236500,1.384236572265625,-0.007508587557822466,-0.0037653911858797073,0.06940729916095734
1772797046487262500,1.394262451171875,-0.0018632193095982075,0.003579074051231146,0.049113743007183075
1772797046497288400,1.404288330078125,0.0027321716770529747,0.005187498405575752,0.03248324617743492
1772797046507313400,1.4143134765625,0.006146610714495182,-0.0008597411215305328,0.02808929793536663
1772797046517339400,1.42433935546875,0.011083206161856651,-0.011470716446638107,0.022038716822862625
1772797046527364600,1.434364501953125,0.018492918461561203,-0.008252019062638283,0.002759029855951667
1772797046537390600,1.444390625,0.022498173639178276,0.00575847364962101,-0.0192562285810709
1772797046547416600,1.45441650390625,0.02469421736896038,0.003170946380123496,-0.03383836895227432
1772797046557441500,1.464441650390625,0.021505815908312798,-0.002409420907497406,-0.041063711047172546
1772797046567467500,1.474467529296875,0.021260006353259087,-0.00297347828745842,-0.046886179596185684
1772797046577492500,1.484492431640625,0.012594431638717651,-0.0013686846941709518,-0.048036590218544006
1772797046587518500,1.4945185546875,0.007706199772655964,-0.0030696457251906395,-0.04417474567890167
1772797046597544700,1.504544677734375,0.006284242495894432,-0.00236334465444088,-0.043448515236377716
1772797046607569400,1.5145693359375,-0.000052217161282896996,-0.0014791754074394703,-0.02801123447716236
1772797046617595600,1.524595703125,-0.007792694494128227,-0.012845547869801521,-0.0033341189846396446
1772797046627620400,1.534620361328125,-0.00949179194867611,-0.020683230832219124,0.01653013378381729
1772797046637646600,1.544646484375,-0.025893157348036766,-0.01992875151336193,0.016392294317483902
1772797046647672600,1.554672607421875,-0.016753455623984337,0.0025733623187988997,0.02107759565114975
1772797046657697800,1.56469775390625,-0.023963142186403275,0.012223409488797188,0.021560924127697945
1772797046667723800,1.574723876953125,-0.01702321134507656,0.013109976425766945,0.02045651152729988
1772797046677748700,1.584748779296875,-0.01165304146707058,0.0029623000882565975,0.01926819421350956
1772797046687774700,1.594774658203125,-0.011518019251525402,-0.008616591803729534,0.0217308197170496
1772797046697800700,1.60480078125,-0.01003852766007185,-0.009822329506278038,0.023576533421874046
1772797046707825700,1.61482568359375,-0.00263201049529016,-0.004129289649426937,0.024880949407815933
1772797046717851600,1.6248515625,0.0016832482069730759,-0.003229808993637562,0.023818321526050568
1772797046727876600,1.634876708984375,0.008395479060709476,-0.0041248975321650505,0.016469327732920647
1772797046737902600,1.644902587890625,0.017649536952376366,-0.00965125858783722,0.006375904195010662
1772797046747928600,1.654928466796875,0.018379509449005127,-0.008951379917562008,-0.003882858669385314
1772797046757953500,1.66495361328125,0.014072945341467857,-0.00716796051710844,-0.009904252365231514
1772797046767979500,1.6749794921875,0.008333565667271614,-0.007067026570439339,-0.02185705117881298
1772797046778004700,1.685004638671875,0.009678024798631668,0.00012897886335849762,-0.034084755927324295
1772797046788030700,1.69503076171875,0.012951049953699112,0.004365801811218262,-0.04571158438920975
1772797046798056700,1.705056640625,0.013856003060936928,0.004624390974640846,-0.043485768139362335
1772797046808081700,1.71508154296875,0.013514319434762001,-0.0009301640093326569,-0.03722681105136871
1772797046818107600,1.725107666015625,0.01179597433656454,-0.0030235592275857925,-0.02047983556985855
1772797046828132600,1.735132568359375,0.009925635531544685,-0.010863373056054115,-0.0027048340998589993
1772797046838158600,1.74515869140625,0.008287416771054268,-0.011409289203584194,0.011098368093371391
1772797046848184600,1.7551845703125,0.004916387610137463,-0.009510722942650318,0.018090764060616493
1772797046858209500,1.76520947265625,-0.0013777271378785372,-0.007644379511475563,0.01836640201508999
1772797046868235500,1.775235595703125,-0.0072292243130505085,-0.00048526981845498085,0.011327133513987064
1772797046878260700,1.7852607421875,-0.013777544721961021,0.011026378720998764,0.00352516514249146
1772797046888286500,1.795286376953125,-0.014992745593190193,0.013846931979060173,0.0016790619120001793
1772797046898312400,1.8053125,-0.011763213202357292,0.00886241439729929,0.005757703445851803
1772797046908337700,1.815337646484375,-0.00775861693546176,0.0020822726655751467,0.0040237195789813995
1772797046918363600,1.82536376953125,-0.00605647312477231,0.006929188035428524,0.003746917936950922
1772797046928388600,1.835388671875,-0.003913693595677614,0.016241462901234627,0.0023602100554853678
1772797046938414600,1.84541455078125,-0.0002663026098161936,0.008241351693868637,0.009119715541601181
1772797046948440600,1.855440673828125,0.004297289997339249,-0.010498779825866222,0.022191043943166733
1772797046958465500,1.865465576171875,0.015810847282409668,-0.02085205912590027,0.018047887831926346
1772797046968491500,1.875491455078125,0.020421843975782394,-0.013130490668118,0.00091337482444942
1772797046978516500,1.8855166015625,0.022318357601761818,-0.00250263512134552,-0.02498919516801834
1772797046988542500,1.89554248046875,0.022907448932528496,0.008672521449625492,-0.04699808731675148
1772797046998568400,1.905568359375,0.024816635996103287,0.010853925719857216,-0.06308314949274063
1772797047008593700,1.91559375,0.02447362057864666,0.00871727243065834,-0.06976049393415451
1772797047018619600,1.92561962890625,0.017515867948532104,0.006472221575677395,-0.06994569301605225
1772797047028644600,1.93564453125,0.007101310417056084,0.002373084193095565,-0.06210827827453613
1772797047038670600,1.945670654296875,-0.004035272169858217,0.003997981548309326,-0.04580835625529289
1772797047048696600,1.955696533203125,-0.01179412566125393,0.010435374453663826,-0.025678852573037148
1772797047058721500,1.965721435546875,-0.021323522552847862,0.0161883607506752,0.003414188278838992
1772797047068747500,1.97574755859375,-0.025805624201893806,0.015188876539468765,0.04089578241109848
1772797047078772500,1.9857724609375,-0.03207070007920265,0.005857955198734999,0.07439030706882477
1772797047088798500,1.995798583984375,-0.0284514632076025,-0.01406355481594801,0.1018589437007904
1772797047098824400,2.005824462890625,-0.02418050915002823,-0.014873702079057693,0.10614374279975891
1772797047108849400,2.015849365234375,-0.022172484546899796,-0.0016497764736413956,0.09284791350364685
1772797047118875400,2.02587548828125,-0.01590840145945549,0.011492280289530754,0.07069344818592072
1772797047128900600,2.035900634765625,-0.008168456144630909,0.00942353717982769,0.048958323895931244
1772797047138926600,2.045926513671875,0.005214503966271877,0.005438634660094976,0.025778472423553467
1772797047148952600,2.05595263671875,0.01359573844820261,0.005759811960160732,0.00006032618694007397
1772797047158977500,2.0659775390625,0.021536527201533318,0.006705927196890116,-0.022487107664346695
1772797047169003500,2.07600341796875,0.023553604260087013,0.008382121101021767,-0.04640629142522812
1772797047179028500,2.086028564453125,0.023169055581092834,0.010017032735049725,-0.05351671949028969
1772797047189054500,2.096054443359375,0.019665934145450592,-0.005538491532206535,-0.05444350093603134
1772797047199080400,2.10608056640625,0.01883806474506855,-0.00742137897759676,-0.05734292417764664
1772797047209105400,2.11610546875,0.01588302105665207,-0.017833007499575615,-0.05222539231181145
1772797047219131400,2.12613134765625,0.013697289861738682,-0.017611943185329437,-0.047313056886196136
1772797047229156600,2.136156494140625,0.007663365453481674,-0.001057998277246952,-0.0398213192820549
1772797047239182600,2.1461826171875,0.005617481656372547,0.007777849677950144,-0.025542018935084343
1772797047249208600,2.15620849609375,0.004352213814854622,0.012878868728876114,-0.008638137020170689
1772797047259233500,2.166233642578125,0.0030172038823366165,0.011218644678592682,0.013858212158083916
1772797047269259500,2.176259521484375,-0.001405774150043726,0.005033186171203852,0.04156414419412613
1772797047279284500,2.186284423828125,-0.003965466283261776,-0.010172799229621887,0.07124078273773193
1772797047289310500,2.196310546875,-0.006920776329934597,-0.019776424393057823,0.08807834982872009
1772797047299336400,2.20633642578125,-0.009783375076949596,-0.010336860083043575,0.08858684450387955
1772797047309361400,2.216361328125,-0.015482806600630283,0.004090283066034317,0.06582187861204147
1772797047319387400,2.226387451171875,-0.017254745587706566,0.013215473853051662,0.034954801201820374
1772797047329412400,2.236412353515625,-0.019190065562725067,0.018380675464868546,0.01171685941517353
1772797047339438300,2.246438232421875,-0.023044830188155174,0.004923579283058643,0.0015146784717217088
1772797047349464300,2.25646435546875,-0.021778231486678123,-0.014912709593772888,0.003354390151798725
1772797047359489500,2.266489501953125,-0.015710007399320602,-0.009671591222286224,-0.011293508112430573
1772797047369515500,2.276515625,-0.009088056161999702,-0.0009167157113552094,-0.03174152597784996
1772797047379540500,2.28654052734375,0.000621328828856349,0.01021395530551672,-0.044952306896448135
1772797047389566500,2.29656640625,0.0021497169509530067,0.00161061342805624,-0.03945927321910858
1772797047399592400,2.306592529296875,0.007741844281554222,-0.012786975130438805,-0.03112475760281086
1772797047409617400,2.316617431640625,0.010223910212516785,-0.014590732753276825,-0.03229149058461189
1772797047419643400,2.326643310546875,0.011997714638710022,-0.004316659644246101,-0.029486943036317825
1772797047429668400,2.33666845703125,0.019654301926493645,0.00028688088059425354,-0.026652274653315544
1772797047439694300,2.3466943359375,0.016109932214021683,0.003918357193470001,-0.022392984479665756
1772797047449719600,2.356719482421875,0.012178841046988964,0.004772432614117861,-0.006877675652503967
1772797047459745300,2.366745361328125,0.009797484613955021,0.000990995205938816,0.005854133050888777
1772797047469771300,2.376771240234375,0.009688294492661953,-0.006575311534106731,0.014219654724001884
1772797047479796500,2.38679638671875,0.009309401735663414,-0.004485641606152058,0.01654970645904541
1772797047489822500,2.396822509765625,0.0055165281519293785,-0.0069895461201667786,0.016526803374290466
1772797047499848400,2.406848388671875,0.0014438943471759558,-0.008069592528045177,0.00702914223074913
1772797047509873400,2.416873291015625,-0.0029244888573884964,-0.0022015832364559174,-0.009203356690704823
1772797047519899400,2.4268994140625,-0.004922117106616497,0.0024308888241648674,-0.022790679708123207
1772797047529924400,2.43692431640625,-0.012709200382232666,0.012192972004413605,-0.035418324172496796
1772797047539950300,2.446950439453125,-0.010057893581688404,0.01705506630241871,-0.04887356609106064
1772797047549975300,2.456975341796875,-0.006919624283909798,0.014333848841488361,-0.049985967576503754
1772797047560001300,2.467001220703125,0.006317564286291599,0.007367835380136967,-0.04109365493059158
1772797047570027500,2.477027587890625,0.011951747350394726,0.0017243304755538702,-0.01987970992922783
1772797047580052500,2.487052490234375,0.015533742494881153,-0.0027825497090816498,0.0031830340158194304
1772797047590078700,2.49707861328125,0.006458754651248455,-0.002043789252638817,0.017160635441541672
1772797047600103400,2.507103515625,-0.0004468222614377737,0.0016151275485754013,0.023072851821780205
1772797047610129700,2.517129638671875,-0.004387235268950462,0.0011725104413926601,0.024168476462364197
1772797047620155600,2.52715576171875,-0.0027298436034470797,-0.00208732346072793,0.013074424117803574
1772797047630180600,2.5371806640625,0.002495810855180025,-0.006469022482633591,0.0028287109453231096
1772797047640206600,2.54720654296875,0.000972450478002429,-0.007568098604679108,-0.005318525712937117
1772797047650231600,2.5572314453125,0.00011651054956018925,-0.005631980486214161,-0.016506465151906013
1772797047660257500,2.567257568359375,0.004048518370836973,0.001760559855028987,-0.034428924322128296
1772797047670283500,2.577283447265625,0.004512441344559193,0.00729167927056551,-0.04691515490412712
1772797047680308500,2.58730859375,0.0002084218431264162,0.011167229153215885,-0.06274470686912537
1772797047690334500,2.59733447265625,-0.0020725757349282503,0.008815391920506954,-0.0686286985874176
1772797047700359700,2.607359619140625,-0.01000550389289856,0.0052125463262200356,-0.06064753234386444
1772797047710385700,2.6173857421875,-0.01963363029062748,0.0035115855280309916,-0.041411519050598145
1772797047720411600,2.62741162109375,-0.02611406147480011,0.009934205561876297,-0.014638087712228298
1772797047730436600,2.6374365234375,-0.029673108831048012,0.010890547186136246,0.013683299534022808
1772797047740462600,2.647462646484375,-0.025859545916318893,0.004073504824191332,0.03756360709667206
1772797047750487600,2.657487548828125,-0.020159050822257996,0.005102284252643585,0.054280269891023636
1772797047760513500,2.667513427734375,-0.011433491483330727,-0.004222500137984753,0.06205122172832489
1772797047770539500,2.67753955078125,-0.003704997943714261,-0.004975376650691032,0.062432851642370224
1772797047780564500,2.687564453125,-0.0012987889349460602,-0.006209232844412327,0.04900576174259186
1772797047790590500,2.697590576171875,0.002634433563798666,-0.0005129976198077202,0.029860034584999084
1772797047800615400,2.707615478515625,0.00866939127445221,0.010401180014014244,0.01257096417248249
1772797047810641400,2.717641357421875,0.014046046882867813,0.013288578018546104,-0.004319868981838226
1772797047820667400,2.72766748046875,0.02214755304157734,0.0017771858256310225,-0.01371463667601347
1772797047830692600,2.737692626953125,0.026635246351361275,-0.00611402653157711,-0.019801558926701546
1772797047840718600,2.747718505859375,0.034125834703445435,-0.003931448794901371,-0.03057137504220009
1772797047850743600,2.75774365234375,0.033294130116701126,0.001087011769413948,-0.03390724956989288
1772797047860769500,2.76776953125,0.034598514437675476,-0.008472394198179245,-0.028551461175084114
1772797047870795500,2.77779541015625,0.027003176510334015,-0.01213983353227377,-0.02058887481689453
1772797047880820500,2.787820556640625,0.021942254155874252,-0.00632096454501152,-0.014553704299032688
1772797047890846500,2.797846435546875,0.011927438899874687,0.0014448128640651703,-0.005392164923250675
1772797047900871400,2.807871337890625,0.003747624345123768,0.0019829205702990294,0.0034090422559529543
1772797047910897400,2.8178974609375,-0.0019715139642357826,0.0074040512554347515,0.009665872901678085
1772797047920923400,2.82792333984375,-0.009515524841845036,0.010901694186031818,0.013770553283393383
1772797047930948600,2.837948486328125,-0.014700965955853462,0.007684063166379929,0.024462077766656876
1772797047940974600,2.847974609375,-0.018403496593236923,0.0014340458437800407,0.041282977908849716
1772797047950999600,2.85799951171875,-0.01693875715136528,-0.004518917761743069,0.04996834322810173
1772797047961025500,2.868025634765625,-0.013802394270896912,-0.006878642365336418,0.04672173038125038
1772797047971051500,2.878051513671875,-0.007807085756212473,-0.00631644856184721,0.04299516603350639
1772797047981076500,2.888076416015625,-0.006244654301553965,-0.0034997016191482544,0.03644314035773277
1772797047991102500,2.8981025390625,-0.00813097134232521,-0.002529778517782688,0.031348247081041336
1772797048001127400,2.90812744140625,-0.003586305771023035,-0.00008995644748210907,0.02471264638006687
1772797048011153400,2.9181533203125,-0.0035333088599145412,0.0069727469235658646,0.008736876770853996
1772797048021179400,2.928179443359375,-0.0017713720444589853,0.0030499142594635487,-0.005142929498106241
1772797048031204400,2.938204345703125,0.004321940243244171,0.006129327230155468,-0.02563408948481083
1772797048041230300,2.948230224609375,0.007340122014284134,0.011349116452038288,-0.03598830848932266
1772797048051255600,2.958255615234375,0.01421054545789957,0.00099634425714612,-0.03506578877568245
1772797048061281500,2.968281494140625,0.01600818894803524,-0.00793350487947464,-0.025429196655750275
1772797048071307800,2.978307861328125,0.009885848499834538,-0.00733216293156147,-0.01722745969891548
1772797048081332700,2.988332763671875,0.004033445380628109,-0.0022579189389944077,-0.008174456655979156
1772797048091358700,2.998358642578125,0.0057061766274273396,0.0011144420132040977,-0.002815376967191696
1772797048101383700,3.0083837890625,0.0054830461740493774,-0.004561123438179493,0.004188426770269871
1772797048111409700,3.01840966796875,0.004988230764865875,0.0007308437488973141,0.004398816265165806
1772797048121435600,3.028435546875,-0.00043826852925121784,0.010328447446227074,0.0009247662965208292
1772797048131460600,3.038460693359375,-0.0038503105752170086,0.011783331632614136,-0.0016233460046350956
1772797048141486600,3.048486572265625,-0.007334480993449688,0.01329883374273777,-0.0009163203649222851
1772797048151511600,3.058511474609375,-0.010177671909332275,0.007251593749970198,0.0055516986176371574
1772797048161537500,3.06853759765625,-0.014891574159264565,-0.004360462538897991,0.020141150802373886
1772797048171563500,3.0785634765625,-0.014094490557909012,-0.018176410347223282,0.03569827228784561
1772797048181588700,3.088588623046875,-0.01824667863547802,-0.014801102690398693,0.034977108240127563
1772797048191614700,3.09861474609375,-0.018536163493990898,-0.0032155541703104973,0.02129538357257843
1772797048201639700,3.1086396484375,-0.02060026302933693,0.0046487231738865376,0.007861502468585968
1772797048211665700,3.118665771484375,-0.023160891607403755,0.01000593788921833,-0.0016425210051238537
1772797048221691600,3.128691650390625,-0.02250087447464466,0.007595393806695938,-0.0034907611552625895
1772797048231716600,3.138716552734375,-0.01521366834640503,0.009388499893248081,-0.008082317188382149
1772797048241742600,3.14874267578125,-0.00672353059053421,0.013347029685974121,-0.014515601098537445
1772797048251767600,3.158767578125,-0.0060998182743787766,0.020273379981517792,-0.013554733246564865
1772797048261793500,3.16879345703125,-0.0041529093869030476,0.019071094691753387,-0.005690180696547031
1772797048271818800,3.17881884765625,-0.0025459579192101955,0.013048620894551277,0.0018087488133460283
1772797048281844700,3.1888447265625,-0.005649392958730459,0.006227306090295315,0.017514575272798538
1772797048291870700,3.19887060546875,-0.0024546650238335133,-0.007833917625248432,0.02986445091664791
1772797048301895700,3.208895751953125,-0.001202041981741786,-0.018046744167804718,0.032342761754989624
1772797048311921700,3.218921630859375,-0.0031309693586081266,-0.013878895901143551,0.019999276846647263
1772797048321946600,3.228946533203125,-0.004236117005348206,-0.005608558654785156,0.009792553260922432
1772797048331972600,3.23897265625,-0.004204159136861563,-0.007219238206744194,0.0012565895449370146
1772797048341998600,3.24899853515625,-0.0005030902102589607,-0.0015324386768043041,-0.013471707701683044
1772797048352023600,3.2590234375,-0.00003250967711210251,0.0028569833375513554,-0.02325589396059513
1772797048362049500,3.269049560546875,-0.0017286338843405247,0.00306150084361434,-0.030466631054878235
1772797048372074500,3.279074462890625,-0.012806585058569908,0.004382428713142872,-0.034502919763326645
1772797048382100500,3.2891005859375,-0.025815242901444435,0.0062814997509121895,-0.034498587250709534
1772797048392126500,3.29912646484375,-0.038687098771333694,0.01799860969185829,-0.022364694625139236
1772797048402151700,3.309151611328125,-0.04373129829764366,0.013483099639415741,-0.000032286858186125755
1772797048412177700,3.319177734375,-0.046329744160175323,0.0023678645957261324,0.02872372791171074
1772797048422202600,3.32920263671875,-0.043693747371435165,-0.000883681233972311,0.04741104692220688
1772797048432228600,3.339228515625,-0.03330076113343239,-0.0052824243903160095,0.06202381104230881
1772797048442254600,3.349254638671875,-0.021594589576125145,-0.011971119791269302,0.062018152326345444
1772797048452279600,3.359279541015625,-0.0067013949155807495,0.0014155255630612373,0.05265021696686745
1772797048462305500,3.369305419921875,0.0009710763115435839,0.013308257795870304,0.030892252922058105
1772797048472330500,3.37933056640625,0.00658262288197875,0.014400153420865536,0.01917887106537819
1772797048482356500,3.3893564453125,0.009198859333992004,0.007869567722082138,0.01111777126789093
1772797048492382500,3.399382568359375,0.01296829804778099,0.0046356916427612305,0.0003516760189086199
1772797048502407400,3.409407470703125,0.015073803253471851,0.007980618625879288,-0.01574985310435295
1772797048512433400,3.419433349609375,0.016017628833651543,0.007253309711813927,-0.027430476620793343
1772797048522458600,3.429458740234375,0.01570296846330166,-0.00040252646431326866,-0.02758457139134407
1772797048532484600,3.439484619140625,0.013110379688441753,-0.009144619107246399,-0.024488912895321846
1772797048542509600,3.449509521484375,0.009097871370613575,-0.010838765650987625,-0.02148907445371151
1772797048552535600,3.45953564453125,0.001311321510002017,-0.006763330660760403,-0.016035452485084534
1772797048562561500,3.4695615234375,-0.008238732814788818,-0.003155563957989216,-0.0118356142193079
1772797048572586500,3.47958642578125,-0.018454618752002716,0.0008317213505506516,-0.003937744069844484
1772797048582612500,3.489612548828125,-0.02553628198802471,0.0026392294093966484,0.005677356850355864
1772797048592637400,3.499637451171875,-0.029058579355478287,0.004509833641350269,0.018921788781881332
1772797048602663400,3.509663330078125,-0.027944834902882576,0.0077863167971372604,0.02237718366086483
1772797048612689400,3.519689453125,-0.02598741091787815,0.016180068254470825,0.02057848498225212
1772797048622714600,3.529714599609375,-0.023465992882847786,0.018760161474347115,0.018342308700084686
1772797048632740600,3.53974072265625,-0.02041827142238617,0.012397336773574352,0.028780033811926842
1772797048642765600,3.549765625,-0.020406149327754974,-0.0009210007265210152,0.03854901343584061
1772797048652791600,3.55979150390625,-0.017954710870981216,-0.0024083759635686874,0.04144679754972458
1772797048662817500,3.569817626953125,-0.01639695279300213,-0.004320906475186348,0.04032805562019348
1772797048672842500,3.579842529296875,-0.015219568274915218,-0.003400517627596855,0.029414420947432518
1772797048682868500,3.589868408203125,-0.018256062641739845,0.0030078324489295483,0.011875411495566368
1772797048692893400,3.5998935546875,-0.021368233487010002,0.007820963859558105,-0.005468424409627914
1772797048702919400,3.60991943359375,-0.022566890344023705,0.009513658471405506,-0.0215812548995018
1772797048712945400,3.6199453125,-0.020982841029763222,0.014312940649688244,-0.028103068470954895
1772797048722970400,3.629970458984375,-0.016129571944475174,0.009086333215236664,-0.028713786974549294
1772797048732996400,3.639996337890625,-0.015369771979749203,0.005553916562348604,-0.018265938386321068
1772797048743021600,3.650021484375,-0.01042531430721283,0.002289581811055541,-0.009016763418912888
1772797048753047600,3.660047607421875,-0.005024156533181667,-0.003757125698029995,0.0013836798025295138
1772797048763073800,3.67007373046875,-0.004747999366372824,-0.011879944242537022,0.004755109082907438
1772797048773098500,3.680098388671875,-0.009065249934792519,-0.007399708032608032,0.008982344530522823
1772797048783124700,3.690124755859375,-0.014348598197102547,-0.0024943724274635315,0.00745008559897542
1772797048793149400,3.7001494140625,-0.01574915461242199,0.006350251846015453,-0.003778334241360426
1772797048803175400,3.710175537109375,-0.01990438811480999,0.013048604130744934,-0.009061763063073158
1772797048813201700,3.72020166015625,-0.021368062123656273,0.009878643788397312,-0.004356224089860916
1772797048823226400,3.730226318359375,-0.02091493085026741,0.011446047574281693,-0.001176381018012762
1772797048833252600,3.740252685546875,-0.01777666248381138,0.0034528363030403852,0.010288793593645096
1772797048843277600,3.750277587890625,-0.01952541060745716,-0.011533974669873714,0.025273514911532402
1772797048853303600,3.760303466796875,-0.023441322147846222,-0.0191119983792305,0.03092900477349758
1772797048863329500,3.77032958984375,-0.023776615038514137,-0.013869834132492542,0.029580380767583847
1772797048873354800,3.780354736328125,-0.02823474630713463,-0.006783162243664265,0.014034176245331764
1772797048883380700,3.790380615234375,-0.03239445388317108,0.0019055285956710577,-0.004173941910266876
1772797048893405700,3.80040576171875,-0.03227727487683296,0.006270183250308037,-0.020756114274263382
1772797048903431700,3.810431640625,-0.02906440570950508,0.01398854423314333,-0.02839609794318676
1772797048913456600,3.82045654296875,-0.021792910993099213,0.012010614387691021,-0.02405567839741707
1772797048923482600,3.830482666015625,-0.020789282396435738,0.006825481541454792,-0.008358638733625412
1772797048933508600,3.840508544921875,-0.02267293632030487,0.006863564718514681,0.007733511738479137
1772797048943533600,3.850533447265625,-0.02175709791481495,0.005869679618626833,0.021139180287718773
1772797048953559600,3.8605595703125,-0.01657991297543049,-0.007539336569607258,0.023190613836050034
1772797048963584800,3.870584716796875,-0.004851586185395718,-0.009591227397322655,0.012567168101668358
1772797048973610800,3.88061083984375,-0.002125042024999857,-0.012728963978588581,0.00140932179056108
1772797048983636700,3.89063671875,-0.0033276386093348265,-0.006686897948384285,-0.007008136250078678
1772797048993661700,3.90066162109375,-0.004997440613806248,0.00007699849084019661,-0.017968375235795975
1772797049003687700,3.910687744140625,-0.004393339157104492,0.00898648425936699,-0.03621801733970642
1772797049013712600,3.920712646484375,-0.003239924320951104,0.008282611146569252,-0.047380924224853516
1772797049023738600,3.930738525390625,-0.0032358565367758274,0.004342434927821159,-0.051459696143865585
1772797049033764600,3.9407646484375,-0.003379667177796364,-0.0049703726544976234,-0.05333535745739937
1772797049043789600,3.95078955078125,-0.0089719844982028,-0.012320267036557198,-0.04167267307639122
1772797049053815600,3.960815673828125,-0.015193128027021885,-0.02225572243332863,-0.023117631673812866
1772797049063840800,3.9708408203125,-0.02421187236905098,-0.015963226556777954,-0.004697103053331375
1772797049073866800,3.98086669921875,-0.035188354551792145,0.00013744737952947617,0.010590773075819016
1772797049083892000,3.99089208984375,-0.03708433359861374,0.003069614991545677,0.023645726963877678
1772797049093918000,4.00091796875,-0.03516978397965431,0.008297134190797806,0.0474405400454998
1772797049103944000,4.01094384765625,-0.02857712097465992,0.003765761386603117,0.05890485644340515
1772797049113969000,4.020968994140625,-0.01197257824242115,0.0009707738645374775,0.058394063264131546
1772797049123995000,4.030994873046875,0.003549739485606551,-0.000020752660930156708,0.05101983994245529
1772797049134019800,4.041019775390625,0.018606454133987427,0.003926318138837814,0.03204774484038353
1772797049144045800,4.0510458984375,0.02985536865890026,0.0014863344840705395,0.014619811438024044
1772797049154072000,4.061072021484375,0.03695908561348915,-0.0005629677325487137,-0.00938166119158268
1772797049164096800,4.0710966796875,0.038132503628730774,0.003755868412554264,-0.02154715545475483
1772797049174123000,4.081123046875,0.03668907284736633,0.0018682198133319616,-0.027905985713005066
1772797049184147700,4.091147705078125,0.036347463726997375,-0.006026033312082291,-0.027414046227931976
1772797049194174000,4.101174072265625,0.035554639995098114,-0.010278302244842052,-0.02287442237138748
1772797049204200000,4.111199951171875,0.030258391052484512,-0.015267194248735905,-0.02058398723602295
1772797049214225200,4.12122509765625,0.026132620871067047,-0.005569559521973133,-0.03074660897254944
1772797049224251100,4.131251220703125,0.021938635036349297,0.005169120151549578,-0.03601544350385666
1772797049234276000,4.141276123046875,0.018386242911219597,0.00925387628376484,-0.03747272491455078
1772797049244302000,4.151302001953125,0.014595967717468739,0.006804942153394222,-0.02799011766910553
1772797049254328000,4.161328125,0.007284259423613548,0.0014099106192588806,-0.00644647516310215
1772797049264353000,4.17135302734375,0.00882456824183464,-0.006052244454622269,0.01101701706647873
1772797049274379000,4.18137890625,0.01039103977382183,-0.007485823705792427,0.023704849183559418
1772797049284404000,4.191404052734375,0.01027684286236763,-0.0014146342873573303,0.0247943252325058
1772797049294430000,4.201429931640625,0.010716531425714493,0.0019880863837897778,0.023828396573662758
1772797049304455200,4.211455078125,0.016155386343598366,0.00010509183630347252,0.016448158770799637
1772797049314481000,4.22148095703125,0.01492127776145935,0.003687842283397913,0.012635044753551483
1772797049324507000,4.2315068359375,0.01286277174949646,0.0009254850447177887,0.005377751309424639
1772797049334532000,4.241531982421875,0.011880332604050636,0.002438693307340145,0.0013814116828143597
1772797049344558000,4.25155810546875,0.007840178906917572,0.004168285056948662,-0.003952604718506336
1772797049354583000,4.2615830078125,0.006063316948711872,-0.000680265948176384,-0.008688237518072128
1772797049364609000,4.271609130859375,0.007018454372882843,-0.007004871964454651,-0.019545117393136024
1772797049374635000,4.281635009765625,0.007733513601124287,-0.00047986116260290146,-0.02987818233668804
1772797049384660000,4.291659912109375,0.012317121960222721,-0.0033105509355664253,-0.028847770765423775
1772797049394686000,4.30168603515625,0.015929965302348137,-0.01576508954167366,-0.022813312709331512
1772797049404711000,4.3117109375,0.01973537914454937,-0.012038622051477432,-0.024026310071349144
1772797049414737000,4.32173681640625,0.01733560487627983,0.0024753392208367586,-0.02713235467672348
1772797049424763000,4.331762939453125,0.008912963792681694,0.013984853401780128,-0.02528681419789791
1772797049434788000,4.3417880859375,0.005947533994913101,0.01603122614324093,-0.015617940574884415
1772797049444814000,4.35181396484375,0.0036977275740355253,0.006680058781057596,0.005858683027327061
1772797049454839000,4.361839111328125,0.0034870714880526066,-0.008517269976437092,0.02730938047170639
1772797049464865000,4.371864990234375,0.00175386480987072,-0.014970901422202587,0.03765347972512245
1772797049474890000,4.381889892578125,-0.00823565199971199,-0.011710659600794315,0.02976572886109352
1772797049484916000,4.391916015625,-0.02163063921034336,-0.003659364767372608,0.019388912245631218
1772797049494942000,4.40194189453125,-0.026407020166516304,0.002502923598513007,0.00667897704988718
1772797049504967000,4.411966796875,-0.03096402809023857,0.003440471598878503,-0.00764301884919405
1772797049514993000,4.421992919921875,-0.024363383650779724,0.0008042082190513611,-0.012868939898908138
1772797049525017900,4.432017822265625,-0.02226177603006363,0.0014566462486982346,-0.013798692263662815
1772797049535043800,4.4420439453125,-0.01716315560042858,0.004551772028207779,-0.010467611253261566
1772797049545069800,4.45206982421875,-0.016427578404545784,0.007570995017886162,-0.006132309790700674
1772797049555095000,4.462094970703125,-0.01780097186565399,0.005247120279818773,0.001256098272278905
1772797049565121000,4.47212109375,-0.01797458902001381,0.0019043113570660353,0.0073711322620511055
1772797049575146000,4.48214599609375,-0.016937021166086197,-0.006888913922011852,0.011878798715770245
1772797049585172000,4.492171875,-0.011313341557979584,-0.01031441055238247,0.006360908038914204
1772797049595198000,4.502197998046875,-0.012355702929198742,-0.010576998814940453,-0.00705316849052906
1772797049605223000,4.512222900390625,-0.0120017034932971,-0.005300584249198437,-0.025680270045995712
1772797049615249000,4.522248779296875,-0.010049339383840561,0.006726251449435949,-0.035518255084753036
1772797049625273900,4.53227392578125,-0.007724751718342304,0.007403255440294743,-0.036955367773771286
1772797049635299800,4.5422998046875,-0.004399262368679047,-0.0000631832517683506,-0.034373700618743896
1772797049645325000,4.552324951171875,-0.002989750122651458,-0.006720881909132004,-0.027225634083151817
1772797049655351000,4.56235107421875,-0.006316038779914379,-0.003127478063106537,-0.02610391192138195
1772797049665377000,4.572376953125,-0.013749269768595695,0.0005410597659647465,-0.02198726497590542
1772797049675402000,4.582402099609375,-0.024807779118418694,0.008217355236411095,-0.017137914896011353
1772797049685428000,4.592427978515625,-0.032772284001111984,0.018449056893587112,-0.004803121089935303
1772797049695453000,4.602452880859375,-0.03923631086945534,0.02437645196914673,0.017756782472133636
1772797049705479000,4.61247900390625,-0.03595283254981041,0.018748555332422256,0.04073731228709221
1772797049715505000,4.6225048828125,-0.02825736068189144,0.0018665113020688295,0.0593903586268425
1772797049725529900,4.63252978515625,-0.02272886410355568,-0.0033716773614287376,0.0627550259232521
1772797049735555800,4.642555908203125,-0.015041649341583252,0.00003503868356347084,0.050660014152526855
1772797049745580800,4.652580810546875,-0.00869971327483654,0.006972082890570164,0.026652256026864052
1772797049755606800,4.662606689453125,-0.0021696428302675486,0.003027941333130002,0.005038839764893055
1772797049765632800,4.6726328125,0.0038540312089025974,0.004987445194274187,-0.01049719750881195
1772797049775658000,4.682657958984375,0.00984188262373209,0.0004379670135676861,-0.025021279230713844
1772797049785684000,4.69268408203125,0.008546320721507072,-0.002603735774755478,-0.0351150818169117
1772797049795709000,4.702708984375,0.013699004426598549,0.0052512576803565025,-0.044067561626434326
1772797049805735000,4.71273486328125,0.01751895621418953,0.010689547285437584,-0.049938496202230453
1772797049815760000,4.722759765625,0.02107161469757557,0.013330337591469288,-0.0473933145403862
1772797049825785900,4.732785888671875,0.020342620089650154,0.012775448150932789,-0.0412462018430233
1772797049835811800,4.742811767578125,0.02236129529774189,0.011052915826439857,-0.030556008219718933
1772797049845836800,4.7528369140625,0.023723768070340157,0.0034874076955020428,-0.020070873200893402
1772797049855862800,4.76286279296875,0.016078632324934006,-0.0066267456859350204,-0.007531646639108658
1772797049865888000,4.772887939453125,0.010035187005996704,-0.011765952222049236,0.0013208130840212107
1772797049875914000,4.7829140625,0.004081423860043287,0.0012803422287106514,0.0044447011314332485
1772797049885939700,4.792939697265625,0.0018025151221081614,0.014842238277196884,0.002695235889405012
1772797049895965000,4.80296484375,-0.0021064728498458862,0.021546747535467148,0.0032252047676593065
1772797049905991000,4.812990966796875,-0.002348983194679022,0.0071991910226643085,0.01328764483332634
1772797049916015900,4.823015869140625,-0.005675271153450012,-0.003934419713914394,0.029566748067736626
1772797049926041900,4.833041748046875,-0.0055432869121432304,-0.012682516127824783,0.03463806211948395
1772797049936066800,4.84306689453125,-0.012233413755893707,-0.013543782755732536,0.02381177619099617
1772797049946092800,4.8530927734375,-0.015467125922441483,-0.0017003952525556087,0.004668227396905422
1772797049956119000,4.863119140625,-0.013083596713840961,0.0020402807276695967,-0.020429668948054314
1772797049966143700,4.873143798828125,-0.0024678008630871773,-0.006085705012083054,-0.026046212762594223
1772797049976169700,4.883169677734375,0.013105832040309906,-0.013779577799141407,-0.023047225549817085
1772797049986195000,4.89319482421875,0.016718070954084396,-0.008607156574726105,-0.027221858501434326
1772797049996221000,4.903220947265625,0.022322693839669228,0.004980291239917278,-0.02675580605864525
1772797050006247200,4.9132470703125,0.024739447981119156,0.004541508387774229,-0.014527744613587856
1772797050016272000,4.92327197265625,0.02619912475347519,-0.0012466059997677803,-0.004717458970844746
1772797050026298000,4.933298095703125,0.027104824781417847,-0.006233890540897846,0.0029723842162638903
1772797050036322800,4.94332275390625,0.023736990988254547,-0.013959454372525215,0.012128864414989948
1772797050046349000,4.95334912109375,0.022636201232671738,-0.00642924290150404,0.010279420763254166
1772797050056373800,4.963373779296875,0.013075984083116055,0.005512903910130262,-0.010372327640652657
1772797050066399500,4.9733994140625,0.003598444163799286,0.022837970405817032,-0.03426185995340347
1772797050076425500,4.983425537109375,-0.004022723995149136,0.03238247334957123,-0.037833958864212036
1772797050086450700,4.99345068359375,-0.011036691255867481,0.014328371733427048,-0.016108423471450806
1772797050096476700,5.0034765625,-0.012662284076213837,-0.010219847783446312,0.00775562971830368
1772797050106501600,5.013501708984375,-0.01380432490259409,-0.02634943649172783,0.02887098118662834
1772797050116527600,5.023527587890625,-0.010461525060236454,-0.01914691925048828,0.038088712841272354
1772797050126553600,5.0335537109375,-0.011216284707188606,-0.007849516347050667,0.028397321701049805
1772797050136578600,5.04357861328125,-0.018863284960389137,0.002853195648640394,0.012884940952062607
1772797050146604500,5.0536044921875,-0.022575564682483673,0.002479672199115157,0.00971664022654295
1772797050156629500,5.06362939453125,-0.018184278160333633,-0.009580719284713268,0.011174721643328667
1772797050166655500,5.073655517578125,-0.009152581915259361,-0.01363204512745142,0.0015602646162733436
1772797050176680400,5.083680419921875,-0.004393512383103371,-0.012146533466875553,-0.018276557326316833
1772797050186706400,5.09370654296875,0.00017725047655403614,-0.005818056873977184,-0.029667844995856285
1772797050196732400,5.103732421875,0.0031533329747617245,-0.007797851227223873,-0.03861793130636215
1772797050206757600,5.113757568359375,0.006492086220532656,-0.012796583585441113,-0.03830205649137497
1772797050216783600,5.12378369140625,0.007890245877206326,-0.003976726904511452,-0.03944428637623787
1772797050226808600,5.13380859375,0.013055304065346718,-0.005471610464155674,-0.0374649278819561
1772797050236834600,5.14383447265625,0.010277627035975456,-0.010794736444950104,-0.03649846464395523
1772797050246860500,5.153860595703125,0.0063981181010603905,-0.0061032772064208984,-0.030206013470888138
1772797050256885500,5.163885498046875,-0.004685159772634506,0.0009602252393960953,-0.018107803538441658
1772797050266911500,5.173911376953125,-0.015135392546653748,0.0018590374384075403,0.0013963304227218032
1772797050276936400,5.1839365234375,-0.028113508597016335,0.0051807984709739685,0.01419281866401434
1772797050286962400,5.19396240234375,-0.03054097853600979,0.007196811027824879,0.030747562646865845
1772797050296987600,5.203987548828125,-0.02580614574253559,-0.00437675416469574,0.042480383068323135
1772797050307013600,5.214013671875,-0.016334829851984978,-0.002445983700454235,0.047769930213689804
1772797050317039600,5.22403955078125,-0.007297126576304436,-0.003034275956451893,0.04636191576719284
1772797050327064600,5.234064697265625,0.0032979834359139204,-0.0014997581019997597,0.04037678614258766
1772797050337090600,5.244090576171875,0.0115788159891963,-0.008542753756046295,0.030844267457723618
1772797050347115500,5.254115478515625,0.014400712214410305,-0.009757692925632,0.022121824324131012
1772797050357141500,5.2641416015625,0.013772206380963326,-0.012085562571883202,0.00697616022080183
1772797050367167700,5.274167724609375,0.01690603420138359,-0.004133475944399834,-0.01376640610396862
1772797050377192400,5.2841923828125,0.021334072574973106,0.008011870086193085,-0.03777134045958519
1772797050387218700,5.29421875,0.02553746849298477,0.002757321810349822,-0.04524334520101547
1772797050397243400,5.304243408203125,0.025065556168556213,-0.011766494251787663,-0.036288999021053314
1772797050407269600,5.31426953125,0.0216256994754076,-0.015471089631319046,-0.028320638462901115
1772797050417294600,5.324294677734375,0.01178265642374754,-0.009130901657044888,-0.020088275894522667
1772797050427320800,5.33432080078125,0.0037252723705023527,-0.0016695279628038406,-0.017443018034100533
1772797050437346800,5.344346923828125,-0.0015927937347441912,0.007140741217881441,-0.014976396225392818
1772797050447371800,5.354371826171875,0.0016369698569178581,0.009816812351346016,-0.011131945997476578
1772797050457397800,5.364397705078125,0.001288628438487649,0.012010457925498486,-0.001311272382736206
1772797050467422700,5.374422607421875,-0.0024408926256000996,0.0033509365748614073,0.023084789514541626
1772797050477448700,5.38444873046875,-0.003682458307594061,-0.003969560377299786,0.04391497001051903
1772797050487473700,5.3944736328125,-0.009304509498178959,-0.009609743021428585,0.05123138800263405
1772797050497499600,5.404499755859375,-0.01183451246470213,-0.001842633355408907,0.04608163237571716
1772797050507525600,5.414525634765625,-0.014741459861397743,0.006937131285667419,0.034417372196912766
1772797050517550600,5.424550537109375,-0.012398145161569118,0.00886978767812252,0.01711907610297203
1772797050527576600,5.43457666015625,-0.004679948091506958,0.0013348618522286415,0.008581782691180706
1772797050537601800,5.444601806640625,-0.000870562857016921,-0.005029294639825821,-0.0018455581739544868
1772797050547627800,5.454627685546875,0.006074576638638973,-0.009237497113645077,-0.012564336881041527
1772797050557653800,5.46465380859375,0.009673039428889751,-0.0014767791144549847,-0.03135986253619194
1772797050567678700,5.4746787109375,0.009068038314580917,0.0075642867013812065,-0.0432845801115036
1772797050577704700,5.48470458984375,0.011202562600374222,0.005036148242652416,-0.04584973677992821
1772797050587729700,5.494729736328125,0.016238166019320488,-0.0005299756303429604,-0.03575215861201286
1772797050597755600,5.504755615234375,0.016167858615517616,-0.00991122703999281,-0.02478792332112789
1772797050607780600,5.514780517578125,0.01773824170231819,-0.00874685775488615,-0.010723836719989777
1772797050617806600,5.524806640625,0.018364882096648216,-0.015169070102274418,-0.002647800836712122
1772797050627832600,5.53483251953125,0.016578424721956253,-0.007091964595019817,-0.002810727572068572
1772797050637857800,5.54485791015625,0.012400723993778229,0.0006687529385089874,-0.0009475802071392536
1772797050647883800,5.5548837890625,0.0062223393470048904,0.006915324367582798,-0.0017277072183787823
1772797050657908700,5.56490869140625,-0.0022678181994706392,0.01567019894719124,0.0010174791095778346
1772797050667934700,5.574934814453125,-0.010023573413491249,0.01005024928599596,0.010090664960443974
1772797050677960700,5.584960693359375,-0.015516609884798527,0.001318276859819889,0.01805298402905464
1772797050687985700,5.594985595703125,-0.015249493531882763,-0.00011077523231506348,0.0213457178324461
1772797050698011600,5.60501171875,-0.009205450303852558,-0.003260762430727482,0.029569825157523155
1772797050708036600,5.61503662109375,-0.005070038139820099,0.0006973911076784134,0.022907564416527748
1772797050718062600,5.6250625,-0.0076165529899299145,0.010640835389494896,0.00925539992749691
1772797050728087600,5.635087646484375,-0.012417115271091461,0.01332608051598072,0.009550455957651138
1772797050738113500,5.645113525390625,-0.01060589961707592,-0.011341981589794159,0.025039933621883392
1772797050748139500,5.655139404296875,-0.0020679791923612356,-0.02636091783642769,0.02408599480986595
1772797050758164700,5.665164794921875,0.006327369250357151,-0.021764833480119705,0.005207112990319729
1772797050768190700,5.675190673828125,0.007995957508683205,-0.011724576354026794,-0.021524546667933464
1772797050778215700,5.685215576171875,0.009643921628594398,-0.0004146643914282322,-0.04121222719550133
1772797050788241700,5.69524169921875,0.012570823542773724,0.009425869211554527,-0.05316929146647453
1772797050798266600,5.7052666015625,0.014254207722842693,0.0027730269357562065,-0.05149310082197189
1772797050808292600,5.715292724609375,0.014321969822049141,-0.0002798819914460182,-0.04301191121339798
1772797050818318600,5.725318603515625,0.008200427517294884,-0.004115899093449116,-0.03146976977586746
1772797050828343600,5.735343505859375,0.004317508079111576,-0.006442957557737827,-0.023937908932566643
1772797050838369500,5.74536962890625,-0.009987661615014076,-0.008734607137739658,-0.013461299240589142
1772797050848394800,5.755394775390625,-0.020689580589532852,-0.002231091260910034,0.010712281800806522
1772797050858420700,5.765420654296875,-0.027743494138121605,0.000056830234825611115,0.03264820575714111
1772797050868446500,5.775446533203125,-0.02928328700363636,0.004866939038038254,0.046658795326948166
1772797050878471700,5.7854716796875,-0.022109530866146088,0.001333456952124834,0.052907101809978485
1772797050888497700,5.79549755859375,-0.012907597236335278,-0.0012757955119013786,0.05403149500489235
1772797050898522600,5.805522705078125,-0.004192935302853584,-0.0013077538460493088,0.04483586549758911
1772797050908548600,5.815548583984375,0.0038232356309890747,0.000045830849558115005,0.03915657848119736
1772797050918573600,5.825573486328125,0.01543408539146185,-0.004518561065196991,0.02954576537013054
1772797050928599600,5.835599609375,0.025859808549284935,-0.009984157979488373,0.018970200791954994
1772797050938625500,5.84562548828125,0.032951805740594864,-0.015967482700943947,0.008351645432412624
1772797050948650500,5.855650390625,0.03783801198005676,-0.015316914767026901,-0.014815243892371655
1772797050958676500,5.865676513671875,0.03849820792675018,-0.01121458224952221,-0.03755544126033783
1772797050968701700,5.87570166015625,0.038887638598680496,-0.003113354556262493,-0.05305125564336777
1772797050978727700,5.885727783203125,0.0351959653198719,0.0009937728755176067,-0.05816745385527611
1772797050988753700,5.895753662109375,0.02541877143085003,0.001113582868129015,-0.04542597010731697
1772797050998778600,5.905778564453125,0.01664445549249649,0.0022044137585908175,-0.03255517780780792
1772797051008804600,5.9158046875,0.011448618024587631,-0.000176980160176754,-0.011964358389377594
1772797051018829600,5.92582958984375,0.008539114147424698,-0.00659040454775095,0.005897995084524155
1772797051028855600,5.93585546875,0.009483983740210533,-0.0036657117307186127,0.01693691499531269
1772797051038880500,5.945880615234375,0.002521149581298232,0.004855338484048843,0.02258707769215107
1772797051048906500,5.955906494140625,-0.0038449112325906754,0.002183939330279827,0.04254291206598282
1772797051058932500,5.965932373046875,-0.005962390918284655,-0.005428972654044628,0.06136506795883179
1772797051068957400,5.97595751953125,-0.010879887267947197,-0.004393815062940121,0.06527814269065857
1772797051078983400,5.9859833984375,-0.010850326158106327,0.0007237149402499199,0.05918189883232117
1772797051089008600,5.996008544921875,-0.012447669170796871,0.0037248218432068825,0.04246298968791962
1772797051099034600,6.00603466796875,-0.009255338460206985,0.004710724111646414,0.021853318437933922
1772797051109059600,6.0160595703125,-0.006489596329629421,0.003750631120055914,0.003328874707221985
1772797051119085600,6.02608544921875,0.0015728578437119722,-0.0028542745858430862,-0.0032501984387636185
1772797051129111600,6.036111572265625,0.010097048245370388,-0.013252906501293182,-0.012359793297946453
1772797051139136500,6.046136474609375,0.012603082694113255,-0.006252255290746689,-0.027130484580993652
1772797051149162500,6.05616259765625,0.02141508273780346,-0.004046679474413395,-0.036497313529253006
1772797051159187500,6.0661875,0.024449756368994713,-0.0019094930030405521,-0.04506390169262886
1772797051169213400,6.07621337890625,0.025359295308589935,-0.00043466826900839806,-0.04330848902463913
1772797051179238700,6.08623876953125,0.03008054569363594,-0.0024016788229346275,-0.03868524357676506
1772797051189264600,6.0962646484375,0.02800649404525757,-0.004381018690764904,-0.031372327357530594
1772797051199290600,6.10629052734375,0.02344370074570179,-0.008752597495913506,-0.02195991761982441
1772797051209315600,6.116315673828125,0.021101363003253937,-0.017390182241797447,-0.006442205980420113
1772797051219341600,6.126341552734375,0.021267544478178024,-0.024779122322797775,0.0024295819457620382
1772797051229366500,6.136366455078125,0.013298163190484047,-0.015468308702111244,0.0071599180810153484
1772797051239392500,6.146392578125,0.0029304774943739176,-0.012307137250900269,0.008229710161685944
1772797051249418500,6.15641845703125,-0.0034882172476500273,-0.008663234300911427,0.0037200837396085262
1772797051259443500,6.166443359375,-0.003972379490733147,-0.01283374521881342,0.0034359244164079428
1772797051269469400,6.176469482421875,0.0015651246067136526,-0.0094237569719553,-0.0015246772672981024
1772797051279494400,6.186494384765625,0.005418186075985432,-0.0032803770154714584,-0.0056672245264053345
1772797051289520400,6.196520263671875,0.01349396537989378,0.009225291199982166,-0.017301302403211594
1772797051299545600,6.206545654296875,0.017777126282453537,0.018230505287647247,-0.01535373367369175
1772797051309571600,6.216571533203125,0.014426760375499725,0.002126152627170086,0.006969527341425419
1772797051319597600,6.22659765625,0.015148743987083435,-0.01773863285779953,0.03451167047023773
1772797051329622500,6.23662255859375,0.018003959208726883,-0.03648197650909424,0.04874390736222267
1772797051339648500,6.2466484375,0.022211220115423203,-0.033987659960985184,0.03536471724510193
1772797051349673500,6.256673583984375,0.020775895565748215,-0.01648382842540741,0.008298037573695183
1772797051359699500,6.266699462890625,0.02092503197491169,-0.001840969081968069,-0.019953042268753052
1772797051369724400,6.276724365234375,0.01967921480536461,0.0009401650168001652,-0.034854818135499954
1772797051379750400,6.28675048828125,0.019843000918626785,-0.0015144702047109604,-0.04331621155142784
1772797051389776400,6.2967763671875,0.017883919179439545,-0.0020382823422551155,-0.0534939281642437
1772797051399801600,6.306801513671875,0.009125582873821259,-0.0013021845370531082,-0.0588519424200058
1772797051409827600,6.31682763671875,-0.0026772129349410534,-0.000046873465180397034,-0.055348969995975494
1772797051419852500,6.3268525390625,-0.015266507863998413,-0.0007699215784668922,-0.03332143276929855
1772797051429878500,6.33687841796875,-0.025647450238466263,-0.004530332982540131,-0.008892875164747238
1772797051439903500,6.346903564453125,-0.03176632896065712,-0.008161020465195179,0.014510451816022396
1772797051449929500,6.356929443359375,-0.030716242268681526,-0.010585562326014042,0.03693719953298569
1772797051459955500,6.36695556640625,-0.025426140055060387,-0.011619933880865574,0.04832620918750763
1772797051469980400,6.37698046875,-0.019363228231668472,-0.0035766353830695152,0.04902152717113495
1772797051480006400,6.38700634765625,-0.015494187362492085,0.0033891284838318825,0.041417669504880905
1772797051490031400,6.39703125,-0.010845964774489403,0.005970626138150692,0.029676415026187897
1772797051500057300,6.407057373046875,-0.010726654902100563,0.007680907845497131,0.02054044045507908
1772797051510082600,6.41708251953125,-0.0005529955960810184,0.0027941481675952673,0.00864818412810564
1772797051520108500,6.427108642578125,0.010009367018938065,0.004049296025186777,-0.0033197952434420586
1772797051530134800,6.437134765625,0.019222257658839226,0.00713379355147481,-0.012831246480345726
1772797051540159500,6.447159423828125,0.0268881656229496,-0.00033078063279390335,-0.021320339292287827
1772797051550185700,6.457185791015625,0.03481022268533707,-0.0108003756031394,-0.02306334674358368
1772797051560210400,6.46721044921875,0.03500809520483017,-0.009830452501773834,-0.027602706104516983
1772797051570236700,6.477236572265625,0.03189270943403244,-0.010640643537044525,-0.03060823678970337
1772797051580261400,6.487261474609375,0.025860115885734558,-0.0066480329260230064,-0.038228604942560196
1772797051590287600,6.49728759765625,0.016650017350912094,0.006295842118561268,-0.04118683934211731
1772797051600313600,6.507313720703125,0.014413495548069477,0.006419412791728973,-0.03920571506023407
1772797051610338600,6.517338623046875,0.013223722577095032,0.003104178700596094,-0.019302286207675934
1772797051620364500,6.527364501953125,0.013207212090492249,-0.01194774080067873,0.0024197869934141636
1772797051630389500,6.537389404296875,0.008642317727208138,-0.015430103987455368,0.02281809411942959
1772797051640415700,6.547415771484375,0.008133120834827423,-0.008998038247227669,0.029590511694550514
1772797051650441700,6.557441650390625,0.006109404843300581,0.00047401757910847664,0.026290206238627434
1772797051660466700,6.567466796875,0.004628154449164867,0.0030735288746654987,0.02253035455942154
1772797051670492700,6.57749267578125,0.0031748872715979815,0.0036325170658528805,0.021004244685173035
1772797051680517600,6.587517578125,0.006834602914750576,0.0025496757589280605,0.024192314594984055
1772797051690543600,6.597543701171875,0.010006279684603214,-0.0016358746215701103,0.026288311928510666
1772797051700568600,6.607568603515625,0.010237975046038628,-0.0031000804156064987,0.021486099809408188
1772797051710594600,6.617594482421875,0.013940497301518917,0.0060614924877882,0.008093738928437233
1772797051720620500,6.62762060546875,0.014003347605466843,0.012101808562874794,-0.008384570479393005
1772797051730645800,6.637645751953125,0.017117107287049294,0.009705567732453346,-0.010285204276442528
1772797051740671700,6.647671630859375,0.02203809656202793,0.0003485516645014286,-0.009471075609326363
1772797051750696700,6.65769677734375,0.02505563572049141,-0.00619079452008009,-0.0017782712820917368
1772797051760722700,6.66772265625,0.02505723387002945,-0.0019204155541956425,-0.004674725234508514
1772797051770747600,6.67774755859375,0.01735403947532177,-0.0018418524414300919,-0.008228980004787445
1772797051780773600,6.687773681640625,-0.014011072926223278,-0.007313316687941551,0.004532088991254568
1772797051790799600,6.697799560546875,0.0014751001726835966,0.0030382447876036167,0.005077624227851629
1772797051800824600,6.707824462890625,0.02201313152909279,0.0010621794499456882,-0.013780220411717892
1772797051810850600,6.7178505859375,0.011005744338035583,-0.0069046625867486,-0.023004019632935524
1772797051820875500,6.72787548828125,0.0067763784900307655,0.0024422339629381895,-0.02141224779188633
1772797051830901500,6.737901611328125,0.00504109263420105,0.003676062449812889,-0.02076900564134121
1772797051840926700,6.7479267578125,0.0051119327545166016,-0.0015160362236201763,-0.018277883529663086
1772797051850952700,6.75795263671875,0.007937014102935791,-0.0018209684640169144,-0.02053730934858322
1772797051860978700,6.767978759765625,0.008127696812152863,0.004636931233108044,-0.021515222266316414
1772797051871003600,6.778003662109375,0.008828265592455864,0.010311713442206383,-0.015807416290044785
1772797051881029600,6.788029541015625,0.009914303198456764,0.006328423507511616,-0.0016188935842365026
1772797051891054600,6.7980546875,0.014659620821475983,-0.010186752304434776,0.016586415469646454
1772797051901080600,6.80808056640625,0.022687189280986786,-0.021833021193742752,0.029403144493699074
1772797051911105500,6.81810546875,0.0328633151948452,-0.025001544505357742,0.01617649756371975
1772797051921131500,6.828131591796875,0.032286472618579865,-0.014290844090282917,-0.009198101237416267
1772797051931157500,6.838157470703125,0.03545880317687988,-0.0037148837000131607,-0.03568066284060478
1772797051941182700,6.8481826171875,0.017370877787470818,0.01614271104335785,-0.04567071422934532
1772797051951208700,6.858208740234375,-0.008306888863444328,0.019495412707328796,-0.022337108850479126
1772797051961233700,6.868233642578125,0.012823163531720638,0.014589603058993816,-0.017095474526286125
1772797051971259600,6.878259765625,0.03232753276824951,-0.011566787958145142,-0.041236761957407
1772797051981284600,6.88828466796875,0.02678389847278595,-0.006607981398701668,-0.04972825199365616
1772797051991310600,6.898310546875,0.024408407509326935,0.0018667052499949932,-0.04710346460342407
1772797052001336600,6.908336669921875,0.013511020690202713,0.012467950582504272,-0.036839645355939865
1772797052011361500,6.918361572265625,0.0030981586314737797,0.026590045541524887,-0.016416454687714577
1772797052021387500,6.928387451171875,-0.000300833722576499,0.010762345977127552,0.008223112672567368
1772797052031412500,6.93841259765625,0.0011182562448084354,-0.0060394154861569405,0.03319302946329117
1772797052041438500,6.9484384765625,0.001101744594052434,-0.017334148287773132,0.05536064878106117
1772797052051463700,6.958463623046875,0.004803468938916922,-0.014582471922039986,0.053709905594587326
1772797052061489700,6.96848974609375,0.0075225564651191235,-0.006708037108182907,0.03524700552225113
1772797052071515000,6.978514892578125,0.00789063423871994,0.010871739126741886,0.01062324270606041
1772797052081539800,6.988539794921875,0.009127406403422356,0.016686752438545227,-0.012617364525794983
1772797052091565800,6.99856591796875,0.01684340462088585,0.018787646666169167,-0.025862181559205055
1772797052101590800,7.0085908203125,0.019096970558166504,0.008294259198009968,-0.02768911048769951
1772797052111616800,7.01861669921875,0.0196238923817873,-0.005146855488419533,-0.025173043832182884
1772797052121642000,7.02864208984375,0.0196774210780859,-0.0134021220728755,-0.021019045263528824
1772797052131668000,7.03866796875,0.014667749404907227,-0.012028996832668781,-0.020499730482697487
1772797052141694000,7.04869384765625,0.008129688911139965,-0.010886234231293201,-0.02635682001709938
1772797052151719000,7.058718994140625,-0.0236691664904356,0.0028803334571421146,-0.007490189746022224
1772797052161745000,7.068744873046875,-0.01734442450106144,-0.00007897103205323219,0.008958558551967144
1772797052171769900,7.078769775390625,0.009566905908286572,-0.0004543229006230831,-0.011013555340468884
1772797052181795800,7.0887958984375,0.015212008729577065,-0.020041871815919876,-0.04105774313211441
1772797052191820800,7.09882080078125,0.014543616212904453,-0.020285846665501595,-0.035749346017837524
1772797052201846800,7.1088466796875,0.010768851265311241,-0.02109731175005436,-0.020473454147577286
1772797052211872800,7.118872802734375,-0.0034916854929178953,-0.01159529760479927,-0.00855595525354147
1772797052221897700,7.128897705078125,-0.011242283508181572,-0.006133687682449818,-0.0028426756616681814
1772797052231923700,7.138923828125,-0.012294596061110497,-0.005422508344054222,-0.001964305294677615
1772797052241949000,7.148948974609375,-0.007046837825328112,-0.009497410617768764,0.00019418657757341862
1772797052251975000,7.158974853515625,-0.0038518435321748257,-0.005079492926597595,0.00303071946837008
1772797052262001000,7.1690009765625,-0.0010214357171207666,-0.0071088215336203575,0.010444426909089088
1772797052272025900,7.17902587890625,0.0011323413345962763,-0.007085490971803665,0.013516174629330635
1772797052282051800,7.1890517578125,-0.00225946051068604,0.00031197164207696915,0.01066446304321289
1772797052292076800,7.199076904296875,0.00103649718221277,0.0007188883610069752,0.0026175444945693016
1772797052302102800,7.209102783203125,0.007581748068332672,0.004962902050465345,-0.004474453628063202
1772797052312127700,7.219127685546875,0.01212724857032299,0.007112524006515741,-0.01145605556666851
1772797052322153700,7.22915380859375,0.010558647103607655,0.0035481492523103952,-0.01729690097272396
1772797052332179000,7.239178955078125,0.011897586286067963,0.003010042477399111,-0.023378964513540268
1772797052342205000,7.249204833984375,0.012953263707458973,-0.00284544937312603,-0.0235747080296278
1772797052352231000,7.25923095703125,0.012364055030047894,-0.011988421902060509,-0.020851176232099533
1772797052362256000,7.269255859375,0.01105298101902008,-0.011416641995310783,-0.014617250300943851
1772797052372281900,7.27928173828125,0.0033849813044071198,-0.004888518713414669,-0.013014531694352627
1772797052382306800,7.289306884765625,-0.004539254121482372,-0.009504309855401516,-0.000006320886313915253
1772797052392332800,7.299332763671875,-0.010109995491802692,-0.012541142292320728,0.005786765832453966
1772797052402357800,7.309357666015625,-0.01153478678315878,-0.006468602456152439,0.012525095604360104
1772797052412383700,7.3193837890625,-0.006996631622314453,-0.007051166146993637,0.0055375234223902225
1772797052422409700,7.32940966796875,-0.00003965641371905804,-0.0029357830062508583,0.0025113734882324934
1772797052432434700,7.3394345703125,0.002418569289147854,0.005703379865735769,-0.0019874752033501863
1772797052442460700,7.349460693359375,0.0060516539961099625,0.01600608602166176,-0.0004979691002517939
1772797052452486000,7.35948583984375,0.0016244146972894669,0.009526614099740982,0.0101211192086339
1772797052462511900,7.369511962890625,0.006346465554088354,-0.01100183092057705,0.03206982836127281
1772797052472536800,7.379536865234375,0.009379401803016663,-0.028325557708740234,0.04026520252227783
1772797052482562800,7.389562744140625,0.01333099976181984,-0.023936135694384575,0.027939828112721443
1772797052492588800,7.3995888671875,0.013433343730866909,-0.013774417340755463,-0.00013995287008583546
1772797052502613800,7.40961376953125,0.008992256596684456,0.001187221147119999,-0.022383207455277443
1772797052512639700,7.4196396484375,0.0068370201624929905,0.004360081162303686,-0.03539896011352539
1772797052522664700,7.429664794921875,0.007736902218312025,0.0023121105041354895,-0.03465567156672478
1772797052532690700,7.439690673828125,0.006617841776460409,0.0047989701852202415,-0.03352729231119156
1772797052542716000,7.4497158203125,-0.00019345898181200027,0.012868348509073257,-0.032657504081726074
1772797052552742000,7.459741943359375,-0.0064526768401265144,0.014024687930941582,-0.033713504672050476
1772797052562768000,7.469767822265625,-0.013942550867795944,0.01840372383594513,-0.026628965511918068
1772797052572792800,7.479792724609375,-0.024783382192254066,0.01961987465620041,-0.010380545631051064
1772797052582818800,7.48981884765625,-0.03399845212697983,0.013174759224057198,0.01467473991215229
1772797052592843800,7.49984375,-0.041333261877298355,0.003970238845795393,0.04372381791472435
1772797052602869800,7.509869873046875,-0.04370374232530594,-0.0035348152741789818,0.06427862495183945
1772797052612894700,7.519894775390625,-0.03759526088833809,0.0004301699809730053,0.07020261883735657
1772797052622920700,7.529920654296875,-0.030167438089847565,0.0022475109435617924,0.05892413854598999
1772797052632946700,7.53994677734375,-0.027622470632195473,0.01710599660873413,0.03882922604680061
1772797052642971600,7.5499716796875,-0.02135125920176506,0.02119101956486702,0.0216614231467247
1772797052652997600,7.55999755859375,-0.0163065604865551,0.01946835033595562,0.012361369095742702
1772797052663022800,7.57002294921875,-0.0038839788176119328,0.00223929644562304,0.004789736587554216
1772797052673048800,7.580048828125,0.0007736026309430599,0.009424311108887196,0.006738223601132631
1772797052683073800,7.59007373046875,0.005739599000662565,0.007715360261499882,0.004047898110002279
1772797052693099800,7.600099853515625,0.012188039720058441,-0.0002841698005795479,-0.005753304809331894
1772797052703125800,7.610125732421875,0.007448145654052496,0.006642978638410568,-0.014853858388960361
1772797052713150700,7.620150634765625,0.0009176118765026331,0.011565796099603176,-0.010933564975857735
1772797052723176700,7.6301767578125,-0.0006664362736046314,0.0009618876501917839,-0.004924409091472626
1772797052733201700,7.64020166015625,-0.009949525818228722,0.004315193742513657,-0.00435277633368969
1772797052743227600,7.6502275390625,-0.014382891356945038,0.018018756061792374,-0.005365576595067978
1772797052753252900,7.6602529296875,-0.018827902153134346,0.025109855458140373,-0.006338045932352543
1772797052763278800,7.67027880859375,-0.022182952612638474,0.027298973873257637,-0.0016878999304026365
1772797052773304600,7.6803046875,-0.02843330428004265,0.020978979766368866,0.015652209520339966
1772797052783329800,7.690329833984375,-0.032730583101511,0.012224103324115276,0.03769386187195778
1772797052793355800,7.700355712890625,-0.03266113996505737,-0.0016519934870302677,0.05275312066078186
1772797052803380700,7.710380615234375,-0.03565346822142601,0.004169410094618797,0.05274486541748047
1772797052813406700,7.72040673828125,-0.034981317818164825,0.012815706431865692,0.05127604305744171
1772797052823431700,7.730431640625,-0.037138476967811584,0.008793800137937069,0.0470980741083622
1772797052833457700,7.740457763671875,-0.03385062515735626,0.009352845139801502,0.03977491334080696
1772797052843484000,7.75048388671875,-0.028991688042879105,0.01274038664996624,0.026073217391967773
1772797052853508600,7.760508544921875,-0.02252092771232128,0.01933080516755581,0.005232708528637886
1772797052863534800,7.770534912109375,-0.013587886467576027,0.022754298523068428,-0.019859595224261284
1772797052873559800,7.780559814453125,-0.004791486542671919,0.01880037784576416,-0.038765255361795425
1772797052883586000,7.7905859375,-0.002560290042310953,0.0132058747112751,-0.04077434539794922
1772797052893610800,7.80061083984375,0.0008566253818571568,0.0031789694912731647,-0.0367763489484787
1772797052903637000,7.810636962890625,0.004797038622200489,0.003678578417748213,-0.02788485214114189
1772797052913663000,7.8206630859375,0.014406866393983364,0.00031576259061694145,-0.018537631258368492
1772797052923688000,7.83068798828125,0.013481950387358665,-0.0014882627874612808,-0.014810006134212017
1772797052933714000,7.8407138671875,0.006442968267947435,0.0029442894738167524,-0.015017317607998848
1772797052943738600,7.850738525390625,-0.002497795969247818,0.00937156192958355,-0.010227089747786522
1772797052953764900,7.860764892578125,-0.011667107231914997,0.01194067858159542,-0.0037108389660716057
1772797052963789800,7.870789794921875,-0.011492936871945858,0.010394712910056114,0.004281041212379932
1772797052973815800,7.88081591796875,-0.009316720068454742,0.00822176318615675,0.014029989019036293
1772797052983840800,7.8908408203125,-0.002798633184283972,0.001963601214811206,0.023359840735793114
1772797052993867000,7.900866943359375,0.002323178807273507,0.008313302882015705,0.026380278170108795
1772797053003893000,7.91089306640625,0.002510399091988802,0.011547446250915527,0.021878205239772797
1772797053013918000,7.92091796875,-0.0014120922423899174,0.01723192259669304,0.02168598398566246
1772797053023944000,7.93094384765625,-0.001940463436767459,0.019778437912464142,0.028633374720811844
1772797053033969000,7.940968994140625,0.005336929112672806,0.0028273945208638906,0.0358729362487793
1772797053043995000,7.950994873046875,0.001493721385486424,-0.018832361325621605,0.04029218852519989
1772797053054019800,7.961019775390625,-0.0060855066403746605,-0.020708154886960983,0.036974985152482986
1772797053064045800,7.9710458984375,-0.010083976201713085,-0.008036568760871887,0.025218993425369263
1772797053074072000,7.981072021484375,-0.008461922407150269,-0.0026292428374290466,0.0071690939366817474
1772797053084097000,7.991096923828125,-0.008904539979994297,0.010899614542722702,-0.011714315973222256
1772797053094123000,8.001123046875,-0.005768856965005398,0.010699568316340446,-0.01805391162633896
1772797053104148200,8.011148193359375,-0.0015618610195815563,-0.001987198367714882,-0.01504959911108017
1772797053114174200,8.02117431640625,-0.008713020011782646,-0.011366830207407475,-0.0031599465291947126
1772797053124199200,8.03119921875,-0.011494958773255348,-0.0015829089097678661,0.005447656847536564
1772797053134225200,8.04122509765625,-0.012118365615606308,0.012116104364395142,0.011575352400541306
1772797053144251400,8.05125146484375,-0.014469670131802559,0.014263410121202469,0.026244843378663063
1772797053154276000,8.061276123046875,-0.018288178369402885,0.012038643471896648,0.04008916765451431
1772797053164302300,8.07130224609375,-0.016002919524908066,0.015593164600431919,0.042090799659490585
1772797053174327000,8.0813271484375,-0.017077211290597916,0.013714821077883244,0.04573036730289459
1772797053184353300,8.091353271484374,-0.012084050104022026,-0.0009283036924898624,0.044181738048791885
1772797053194378200,8.101378173828126,-0.00791110284626484,-0.009518148377537727,0.05114513263106346
1772797053204404200,8.111404296875,-0.0002784833777695894,-0.01247931644320488,0.04603851959109306
1772797053214430200,8.12143017578125,0.007798203267157078,-0.005870744585990906,0.03382695093750954
1772797053224455200,8.131455078125,0.01293011475354433,-0.001795841846615076,0.017678342759609222
1772797053234481400,8.1414814453125,0.018592320382595062,-0.0008853999897837639,0.0020875753834843636
1772797053244506000,8.151506103515626,0.025306683033704758,0.0007223505526781082,-0.01745549961924553
1772797053254532400,8.161532470703126,0.024637332186102867,0.0009530945681035519,-0.0298207625746727
1772797053264557000,8.17155712890625,0.02844591811299324,0.0050399815663695335,-0.0380517952144146
1772797053274583300,8.181583251953125,0.025626687332987785,0.004842113703489304,-0.037351325154304504
1772797053284609300,8.191609375,0.025681015104055405,-0.002773461863398552,-0.030988499522209167
1772797053294634200,8.20163427734375,0.01782182790338993,-0.0031351568177342415,-0.017562855035066605
1772797053304660200,8.21166015625,0.009547652676701546,-0.0031010685488581657,-0.006426580715924501
1772797053314685400,8.221685546875,0.0036769420839846134,0.00020340457558631897,0.000001462642103433609
1772797053324711400,8.23171142578125,-0.005107495002448559,0.010544192045927048,0.010633334517478943
1772797053334736400,8.241736328125,-0.0034990350250154734,0.002262934809550643,0.025026122108101845
1772797053344762400,8.251762451171874,-0.006742498837411404,-0.00550950039178133,0.039708130061626434
1772797053354787300,8.261787353515626,-0.005400451831519604,-0.008305923081934452,0.05119679868221283
1772797053364813300,8.271813232421875,-0.00655200332403183,-0.005905349738895893,0.05383998528122902
1772797053374839300,8.28183935546875,-0.00918143056333065,-0.006401450373232365,0.05245034769177437
1772797053384864300,8.2918642578125,-0.00912257470190525,-0.0037763724103569984,0.03954600170254707
1772797053394890200,8.30189013671875,-0.004156557843089104,0.0036290688440203667,0.018062960356473923
1772797053404915500,8.31191552734375,-0.0007668868638575077,0.007354298606514931,0.004638498183339834
1772797053414941200,8.321941162109376,0.0028081578202545643,0.0023769002873450518,-0.0019702555146068335
1772797053424966400,8.33196630859375,0.004711518995463848,-0.0030769873410463333,-0.0056070685386657715
1772797053434992400,8.341992431640625,0.006174069829285145,-0.00312222633510828,-0.005455976352095604
1772797053445018400,8.352018310546875,0.009960551746189594,-0.011072028428316116,-0.0008218095172196627
1772797053455043300,8.362043212890624,0.010934618301689625,-0.011097470298409462,0.004854629281908274
1772797053465069300,8.3720693359375,0.015767455101013184,-0.014179812744259834,0.010228356346487999
1772797053475094300,8.38209423828125,0.011290298774838448,-0.01056664064526558,0.0033993881661444902
1772797053485120300,8.392120361328125,0.004154092166572809,-0.0013883216306567192,-0.0060958461835980415
1772797053495145200,8.402145263671875,-0.0071862684562802315,0.001933816820383072,-0.014009161852300167
1772797053505171200,8.412171142578124,-0.009811879135668278,0.0015830784104764462,-0.01803000271320343
1772797053515197200,8.422197265625,-0.0029193644877523184,-0.00709237065166235,-0.024761350825428963
1772797053525222400,8.432222412109375,0.003378478577360511,-0.008151243440806866,-0.024667341262102127
1772797053535248400,8.442248291015625,0.0067388578318059444,-0.0111811812967062,-0.018039265647530556
1772797053545273300,8.4522734375,0.004373704083263874,-0.0006715478375554085,-0.00868065096437931
1772797053555299300,8.46229931640625,-0.007379131857305765,0.014453095383942127,-0.0036614215932786465
1772797053565324300,8.47232421875,-0.011461757123470306,0.010943314991891384,0.006003988906741142
1772797053575350300,8.482350341796876,-0.009603109210729599,0.003945105709135532,0.025302408263087273
1772797053585376300,8.492376220703125,-0.0026197684928774834,-0.006249475292861462,0.04019240662455559
1772797053595401200,8.502401123046875,0.0016583155374974012,-0.011619522236287594,0.03634905442595482
1772797053605427200,8.51242724609375,0.009200653992593288,-0.005209560506045818,0.02630014717578888
1772797053615452400,8.522452392578124,0.01564350165426731,-0.00355474092066288,0.009782186709344387
1772797053625478100,8.53247802734375,0.01743767224252224,0.0008884775452315807,-0.0010550147853791714
1772797053635503400,8.54250341796875,0.020283624529838562,-0.0006272410973906517,-0.009538305923342705
1772797053645529300,8.552529296875,0.01906416565179825,-0.0022568292915821075,-0.020957406610250473
1772797053655555300,8.562555419921875,0.01652817241847515,-0.0025875288993120193,-0.02884918823838234
1772797053665580300,8.572580322265624,0.008602606132626534,0.007958056405186653,-0.037913255393505096
1772797053675606300,8.582606201171876,0.0010451076086610556,0.006783859804272652,-0.03039473481476307
1772797053685631200,8.59263134765625,-0.00845625251531601,0.003715099301189184,-0.0069240303710103035
1772797053695657200,8.6026572265625,-0.015079524368047714,-0.002176288515329361,0.026406170800328255
1772797053705682200,8.61268212890625,-0.017014045268297195,-0.0033629927784204483,0.047721315175294876
1772797053715708200,8.622708251953124,-0.02002771571278572,-0.003963246941566467,0.06017555668950081
1772797053725733400,8.6327333984375,-0.016155213117599487,-0.001975730061531067,0.05878778547048569
1772797053735759400,8.64275927734375,-0.007183637470006943,0.0018707758281379938,0.042431917041540146
1772797053745785300,8.652785400390625,0.0009126386139541864,0.0036255326122045517,0.02129361219704151
1772797053755810300,8.662810302734375,0.009316856041550636,0.0005022748373448849,0.010456199757754803
1772797053765836300,8.672836181640625,0.015288195572793484,-0.0036136405542492867,0.0020147785544395447
1772797053775861200,8.682861328125,0.018251102417707443,-0.015220033004879951,-0.009817139245569706
1772797053785887200,8.69288720703125,0.01845909282565117,-0.008685966022312641,-0.019246593117713928
1772797053795912200,8.702912109375,0.019151516258716583,-0.002596115693449974,-0.022431999444961548
1772797053805938200,8.712938232421875,0.022695116698741913,-0.008191151544451714,-0.02371884137392044
1772797053815964200,8.722964111328125,0.02541760914027691,-0.01086147129535675,-0.023285456001758575
1772797053825989000,8.732989013671874,0.03266353905200958,-0.008345582522451878,-0.018472058698534966
1772797053836015000,8.74301513671875,0.03168265521526337,-0.0036836378276348114,-0.01580679602921009
1772797053846040300,8.753040283203125,0.03449388965964317,-0.000019127968698740005,-0.01869099959731102
1772797053856066300,8.76306640625,0.031343575567007065,0.011845286935567856,-0.010305680334568024
1772797053866091300,8.77309130859375,0.025100328028202057,0.01066763699054718,0.002510515507310629
1772797053876117200,8.7831171875,0.022757505998015404,-0.0014955298975110054,0.02176487259566784
1772797053886143200,8.793143310546874,0.017367001622915268,-0.008186189457774162,0.04065733775496483
1772797053896168200,8.803168212890625,0.009056873619556427,-0.009202717803418636,0.05242238566279411
1772797053906194200,8.813194091796875,0.009448357857763767,0.0006246124394237995,0.048769060522317886
1772797053916219100,8.82321923828125,0.007316122762858868,0.00660912087187171,0.03181496262550354
1772797053926245000,8.8332451171875,0.0065541923977434635,0.013832945376634598,0.01262582279741764
1772797053936270300,8.843270263671876,0.0038327272050082684,0.013209222815930843,0.0027760029770433903
1772797053946296300,8.85329638671875,-0.0029319680761545897,0.005054889712482691,0.002545106690376997
1772797053956321300,8.8633212890625,-0.00808609277009964,0.0030363337136805058,0.002384103834629059
1772797053966347300,8.87334716796875,-0.007765182293951511,-0.0019877199083566666,0.0018690484575927258
1772797053976373200,8.883373291015625,-0.0005858654621988535,-0.0029202867299318314,-0.0025215325877070427
1772797053986398200,8.893398193359374,0.00681186281144619,0.0009237201884388924,-0.010842313058674335
1772797053996424200,8.903424072265626,0.01290320698171854,0.0023879900109022856,-0.0165482796728611
1772797054006449200,8.91344921875,0.01395595446228981,-0.0007497463375329971,-0.017545633018016815
1772797054016475100,8.92347509765625,0.009927766397595406,-0.01222702581435442,-0.007104294840246439
1772797054026500400,8.933500244140625,0.004634999670088291,-0.00663385447114706,0.0018316756468266249
1772797054036526000,8.943526123046874,-0.001593001652508974,-0.0057159001007676125,0.00808835681527853
1772797054046552000,8.953552001953126,-0.005709183402359486,-0.0005086218006908894,0.006156499497592449
1772797054056577300,8.963577392578125,-0.0036090046633034945,0.005660584196448326,-0.0016250500921159983
1772797054066603300,8.973603271484375,0.0014533980283886194,0.008359432220458984,-0.011416428722441196
1772797054076628700,8.983628662109375,0.007390787359327078,0.008168346248567104,-0.009244117885828018
1772797054086654700,8.99365478515625,0.0064387074671685696,0.008390986360609531,0.0010042592184618115
1772797054096679700,9.0036796875,0.004880011081695557,0.008760548196732998,0.009297048673033714
1772797054106705700,9.01370556640625,-0.002623179228976369,0.01037016324698925,0.015971463173627853
1772797054116730600,9.023730712890625,-0.004675325006246567,0.0026368247345089912,0.028793251141905785
1772797054126756600,9.033756591796875,-0.0016009719111025333,-0.004793127998709679,0.038117777556180954
1772797054136782600,9.043782470703125,0.00033405283465981483,-0.008197695948183537,0.03268936648964882
1772797054146807600,9.0538076171875,0.003496023826301098,-0.011852618306875229,0.01664089225232601
1772797054156833500,9.06383349609375,0.002961912425234914,-0.006651322357356548,0.000050020404160022736
1772797054166858800,9.073858642578125,0.00846400298178196,0.005229571368545294,-0.02046377584338188
1772797054176884700,9.083884765625,0.010316360741853714,0.010932600125670433,-0.030687887221574783
1772797054186909700,9.09390966796875,0.013549970462918282,0.008955469354987144,-0.044538456946611404
1772797054196935700,9.103935791015624,0.008113116957247257,0.007797000464051962,-0.05216675624251366
1772797054206961700,9.113961669921874,0.0033162315376102924,0.009295294992625713,-0.05453217402100563
1772797054216986600,9.123986572265625,-0.006588912568986416,0.006885426584631205,-0.04008050262928009
1772797054227012600,9.1340126953125,-0.014382920227944851,-0.0012920759618282318,-0.012022502720355988
1772797054237037600,9.14403759765625,-0.02230115793645382,0.0016822728794068098,0.011843652464449406
1772797054247063600,9.1540634765625,-0.020787416025996208,0.011229705065488815,0.031005894765257835
1772797054257088800,9.1640888671875,-0.018279973417520523,0.011713027022778988,0.04560673236846924
1772797054267114800,9.17411474609375,-0.014934776350855827,0.010603554546833038,0.053521912544965744
1772797054277140700,9.184140625,-0.010754006914794445,0.004612840712070465,0.05968710035085678
1772797054287165700,9.194165771484375,-0.005769900977611542,-0.0006090854294598103,0.05751129984855652
1772797054297191700,9.204191650390625,0.0005960594862699509,0.0030989283695816994,0.043393973261117935
1772797054307216600,9.214216552734374,0.005910397507250309,0.00551042053848505,0.02694149687886238
1772797054317242600,9.22424267578125,0.011384207755327225,0.00888686254620552,-0.0009955682326108217
1772797054327267600,9.234267578125,0.01207609660923481,0.014825978316366673,-0.024466272443532944
1772797054337293600,9.24429345703125,0.014290675520896912,0.014065705239772797,-0.03990849107503891
1772797054347318500,9.254318603515625,0.012369470670819283,-0.0069474345073103905,-0.041203852742910385
1772797054357344500,9.264344482421874,0.007595882751047611,-0.010540701448917389,-0.032539498060941696
1772797054367370500,9.27437060546875,0.006598263047635555,-0.011224068701267242,-0.028374843299388885
1772797054377395700,9.284395751953125,0.0029480925295501947,-0.005739206448197365,-0.028451040387153625
1772797054387421700,9.294421630859375,0.0050466638058424,0.003395701991394162,-0.03243619576096535
1772797054397446700,9.30444677734375,0.005696496460586786,0.007881726138293743,-0.03311701864004135
1772797054407472600,9.31447265625,0.0025315957609564066,0.007671070285141468,-0.03252792730927467
1772797054417497600,9.32449755859375,-0.003639973932877183,0.008964546024799347,-0.018818741664290428
1772797054427523600,9.334523681640626,-0.007424592971801758,-0.0007280283607542515,0.0009898504940792918
1772797054437549600,9.344549560546875,-0.013965168036520481,-0.013790441676974297,0.023599199950695038
1772797054447574500,9.354574462890625,-0.01450392510741949,-0.010065211914479733,0.035080619156360626
1772797054457600500,9.3646005859375,-0.01421617716550827,-0.0025847898796200752,0.029021425172686577
1772797054467625700,9.374625732421874,-0.011888839304447174,0.01052834838628769,0.0187501460313797
1772797054477651700,9.384651611328126,-0.004812909755855799,0.011153439059853554,0.0057075791992247105
1772797054487676700,9.3946767578125,-0.0005193613469600677,0.010127056390047073,-0.002413996960967779
1772797054497702700,9.40470263671875,0.0024953868705779314,0.0002099527046084404,-0.007324627600610256
1772797054507727600,9.4147275390625,0.00611968245357275,-0.00677179079502821,-0.008390957489609718
1772797054517753600,9.424753662109374,0.0098238131031394,0.002517408225685358,-0.016938284039497375
1772797054527779600,9.434779541015626,0.015195143409073353,0.003332335501909256,-0.02701861411333084
1772797054537804500,9.444804443359375,0.01738041453063488,-0.0067880842834711075,-0.029015008360147476
1772797054547830500,9.45483056640625,0.020060086622834206,-0.012630527839064598,-0.02682402729988098
1772797054557855500,9.46485546875,0.015476224943995476,-0.009784656576812267,-0.027467001229524612
1772797054567881500,9.474881591796875,0.011070291511714458,-0.00525994598865509,-0.03146547079086304
1772797054577906700,9.48490673828125,-0.0007680729031562805,-0.0012706955894827843,-0.0303169097751379
1772797054587932700,9.4949326171875,-0.009861435741186142,0.0018550567328929901,-0.020937258377671242
1772797054597959000,9.504958984375,-0.012672027572989464,-0.0040857745334506035,-0.014291725121438503
1772797054607983600,9.514983642578125,-0.010125512257218361,-0.008068532682955265,-0.0003431516233831644
1772797054618009900,9.525009765625,-0.0062716808170080185,-0.005391239188611507,0.008732813410460949
1772797054628034600,9.53503466796875,-0.0004872949793934822,-0.0008444245904684067,0.012223152443766594
1772797054638060800,9.545060791015626,-0.0033482396975159645,0.009927686303853989,0.013207723386585712
1772797054648085500,9.55508544921875,-0.006863878574222326,0.02016247995197773,0.015502302907407284
1772797054658111700,9.56511181640625,-0.008308377116918564,0.009786006063222885,0.0238686241209507
1772797054668137700,9.5751376953125,-0.0016928184777498245,-0.008441467769443989,0.03878206014633179
1772797054678162700,9.58516259765625,0.00817237701267004,-0.024709679186344147,0.03408794105052948
1772797054688188700,9.595188720703124,0.015411381609737873,-0.02983839437365532,0.018837349489331245
1772797054698213600,9.605213623046875,0.016808338463306427,-0.02113478258252144,-0.002618910511955619
1772797054708240000,9.615239990234375,0.01839611493051052,-0.008252539671957493,-0.025377219542860985
1772797054718264600,9.6252646484375,0.016261354088783264,0.002462405478581786,-0.04317982867360115
1772797054728290800,9.635290771484375,0.017044855281710625,0.0078023094683885574,-0.05131738632917404
1772797054738315500,9.6453154296875,0.013211610727012157,0.0071164267137646675,-0.05291273817420006
1772797054748341800,9.655341796875,0.005903364159166813,0.00863309670239687,-0.043571166694164276
1772797054758367700,9.66536767578125,-0.0005103976000100374,0.008143438026309013,-0.022523794323205948
1772797054768392700,9.675392822265625,-0.004646819084882736,-0.0008149030618369579,0.008245836943387985
1772797054778418700,9.685418701171875,-0.012396605685353279,-0.00885398592799902,0.036480613052845
1772797054788444000,9.69544384765625,-0.014859230257570744,-0.0034200716763734818,0.051739197224378586
1772797054798470000,9.705469970703126,-0.018119467422366142,0.000270855613052845,0.05287923291325569
1772797054808494800,9.715494873046875,-0.014717279002070427,0.012473460286855698,0.04654543846845627
1772797054818520800,9.725520751953125,-0.01067483238875866,0.009275995194911957,0.043857865035533905
1772797054828545800,9.7355458984375,-0.0074750445783138275,0.00018209917470812798,0.04052651673555374
1772797054838571800,9.74557177734375,-0.003653822699561715,-0.002986389212310314,0.03231874480843544
1772797054848597800,9.75559765625,-0.002004260430112481,0.0033529994543641806,0.024815021082758904
1772797054858622700,9.765622802734375,0.001753132208250463,-0.0005638860166072845,0.011316077783703804
1772797054868648700,9.775648681640625,0.00626612501218915,-0.002608128823339939,-0.0068163201212882996
1772797054878673700,9.785673583984375,0.012637684121727943,0.0012519396841526031,-0.0175914466381073
1772797054888699600,9.79569970703125,0.014693643897771835,0.005312727764248848,-0.025987593457102776
1772797054898724900,9.805724853515626,0.016829771921038628,-0.0027910592034459114,-0.026199840009212494
1772797054908750800,9.815750732421876,0.015735212713479996,-0.0065834010019898415,-0.018522214144468307
1772797054918776800,9.82577685546875,0.010938640683889389,-0.012160887941718102,-0.013393529690802097
1772797054928801800,9.8358017578125,0.005165174137800932,-0.013250119984149933,-0.005609109997749329
1772797054938827800,9.845827880859375,0.002683098427951336,-0.005789001472294331,-0.012406236492097378
1772797054948852700,9.855852783203124,0.00458672596141696,-0.0003945021890103817,-0.016432935371994972
1772797054958878700,9.865878662109376,0.004453953355550766,0.002740178955718875,-0.014922833070158958
1772797054968903700,9.875903564453125,-0.001424974761903286,0.009785838425159454,-0.007775974925607443
1772797054978929700,9.8859296875,-0.0088247861713171,0.004230988211929798,0.012785728089511395
1772797054988955000,9.895954833984375,-0.013926870189607143,-0.009915989823639393,0.036887336522340775
1772797054998980900,9.90598095703125,-0.01439950056374073,-0.013622412458062172,0.047036703675985336
1772797055009006800,9.9160068359375,-0.01220718678086996,-0.008973599411547184,0.04818878695368767
1772797055019031800,9.92603173828125,-0.012600545771420002,-0.0075362855568528175,0.04279967397451401
1772797055029057800,9.936057861328125,-0.009858022443950176,-0.008990105241537094,0.026248928159475327
1772797055039082800,9.946082763671875,-0.011176347732543945,0.00031400425359606743,0.013809652999043465
1772797055049108700,9.956108642578124,-0.008876441977918148,0.008901366963982582,-0.008820557966828346
1772797055059133700,9.9661337890625,-0.0025291696656495333,0.011227168142795563,-0.02255808562040329
1772797055069159700,9.97615966796875,0.003355883527547121,0.003012381261214614,-0.025533104315400124
1772797055079185700,9.986185546875,0.010884745046496391,-0.004925232380628586,-0.024586206302046776
1772797055089210600,9.996210693359375,0.015841420739889145,-0.01777764782309532,-0.021088143810629845
1772797055099236600,10.006236572265625,0.020699825137853622,-0.02198757231235504,-0.02002980373799801
1772797055109261800,10.01626171875,0.022862577810883522,-0.012716309167444706,-0.036066558212041855
1772797055119287800,10.026287841796876,0.016715075820684433,-0.0035937875509262085,-0.05468954145908356
1772797055129312800,10.036312744140625,0.0055697462521493435,0.00485029723495245,-0.06827113032341003
1772797055139338800,10.0463388671875,0.002516478532925248,0.01376999169588089,-0.07281078398227692
1772797055149363700,10.05636376953125,0.002055219141766429,0.007391986902803183,-0.06773879379034042
1772797055159389700,10.0663896484375,0.001410558819770813,-0.0038519836962223053,-0.04996645450592041
1772797055169415700,10.076415771484376,0.002086735563352704,-0.004550265148282051,-0.021184343844652176
1772797055179440600,10.086440673828125,0.0022015217691659927,-0.006114130839705467,-0.0032492808531969786
1772797055189466600,10.096466552734375,-0.0049637132324278355,0.0012955819256603718,0.011812759563326836
1772797055199491800,10.106491943359375,-0.009932076558470726,0.0031776227988302708,0.027749471366405487
1772797055209517800,10.116517822265624,-0.01197738479822874,-0.008226831443607807,0.04793623089790344
1772797055219542800,10.126542724609376,-0.007749369367957115,-0.022377528250217438,0.05452341213822365
1772797055229568800,10.13656884765625,-0.006128303706645966,-0.02059321105480194,0.04110720381140709
1772797055239593700,10.14659375,-0.0024087275378406048,-0.005422153510153294,0.014703648164868355
1772797055249619700,10.15661962890625,0.001541006495244801,0.006535172928124666,-0.01822473853826523
1772797055259645700,10.166645751953125,0.008443515747785568,0.0026705297641456127,-0.03741704672574997
1772797055269670700,10.176670654296874,0.011758618988096714,-0.00659647211432457,-0.04213510453701019
1772797055279696600,10.186696533203126,0.013074567541480064,-0.00351822841912508,-0.04916418716311455
1772797055289721600,10.1967216796875,0.010179977864027023,-0.0014295107685029507,-0.06348028033971786
1772797055299747600,10.20674755859375,0.006035447120666504,0.012779377400875092,-0.06692942976951599
1772797055309772800,10.216772705078125,-0.0012176719028502703,0.01669475808739662,-0.062378883361816406
1772797055319798800,10.226798828125,-0.009435763582587242,0.019193988293409348,-0.04578274488449097
1772797055329824800,10.23682470703125,-0.007581404410302639,0.015454109758138657,-0.01438993401825428
1772797055339849700,10.246849609375,-0.012062420137226582,0.0062699224799871445,0.02399541810154915
1772797055349875700,10.256875732421875,-0.008586196228861809,-0.0003064875490963459,0.06169086694717407
1772797055359900700,10.266900634765625,-0.0010189521126449108,-0.011018125340342522,0.08079608529806137
1772797055369926700,10.2769267578125,0.004132400266826153,-0.012325737625360489,0.07509079575538635
1772797055379951600,10.28695166015625,0.010380846448242664,-0.0016047852113842964,0.0599600188434124
1772797055389977600,10.2969775390625,0.013498076237738132,0.007150090299546719,0.037484269589185715
1772797055400002800,10.3070029296875,0.01815718598663807,0.00848071277141571,0.01578456349670887
1772797055410028800,10.31702880859375,0.01833242177963257,0.01677965372800827,-0.008154325187206268
1772797055420054800,10.3270546875,0.024036085233092308,0.010758265852928162,-0.02654806524515152
1772797055430079700,10.337079833984374,0.02687448263168335,0.0022782282903790474,-0.04013391584157944
1772797055440105700,10.347105712890626,0.025152629241347313,0.0059476555325090885,-0.04903775081038475
1772797055450130700,10.357130615234375,0.025708697736263275,0.002807255834341049,-0.05355846509337425
1772797055460156700,10.36715673828125,0.026493683457374573,-0.005299871787428856,-0.046635933220386505
1772797055470181600,10.377181640625,0.021271225064992905,-0.0033051641657948494,-0.0384879931807518
1772797055480207600,10.38720751953125,0.013173004612326622,-0.0023093046620488167,-0.02694883942604065
1772797055490233600,10.397233642578126,0.003545943647623062,-0.0010395096614956856,-0.014749431982636452
1772797055500258600,10.407258544921875,-0.013005878776311874,0.00969197042286396,-0.007428609300404787
1772797055510284500,10.417284423828125,-0.017263740301132202,0.020087886601686478,0.001964093651622534
1772797055520309800,10.427309814453125,-0.01648166961967945,0.02410058304667473,0.007559186778962612
1772797055530335700,10.437335693359374,-0.014152735471725464,0.017344145104289055,0.02273680828511715
1772797055540360700,10.447360595703126,-0.01447863969951868,0.0036985971964895725,0.04518390819430351
1772797055550386700,10.45738671875,-0.011742774397134781,-0.003657320514321327,0.05695587769150734
1772797055560411600,10.46741162109375,-0.005003316793590784,-0.0041207969188690186,0.053101133555173874
1772797055570437600,10.477437744140625,-0.0027822405099868774,-0.004642244428396225,0.04505838826298714
1772797055580463600,10.487463623046875,0.006068556569516659,0.000984452199190855,0.03121737577021122
1772797055590488600,10.497488525390626,0.008472591638565063,0.0013514361344277859,0.015020295977592468
1772797055600514600,10.5075146484375,0.016248304396867752,0.0007412047125399113,-0.005828997120261192
1772797055610539800,10.517539794921875,0.017041128128767014,0.009151733480393887,-0.01996186003088951
1772797055620565800,10.527565673828125,0.016670120880007744,0.008499009534716606,-0.023941509425640106
1772797055630590700,10.5375908203125,0.017331650480628014,0.002153495792299509,-0.02581743896007538
1772797055640616700,10.54761669921875,0.016163919121026993,-0.0035864543169736862,-0.024598930031061172
1772797055650641700,10.5576416015625,0.016474444419145584,-0.005995017476379871,-0.027135057374835014
1772797055660667600,10.567667724609375,0.020880568772554398,-0.004419445991516113,-0.031494442373514175
1772797055670693600,10.577693603515625,0.01865842565894127,-0.003576289862394333,-0.029614781960844994
1772797055680718600,10.587718505859375,0.011761678382754326,-0.005421571433544159,-0.02723715268075466
1772797055690744600,10.59774462890625,0.0009202163200825453,-0.0020199157297611237,-0.022381944581866264
1772797055700769500,10.60776953125,-0.014392380602657795,0.003963600378483534,-0.015074459835886955
1772797055710795500,10.61779541015625,-0.020009255036711693,0.005265885964035988,-0.006055663805454969
1772797055720820700,10.62782080078125,-0.019456772133708,-0.0008864761330187321,0.006306969560682774
1772797055730846700,10.6378466796875,-0.01842772774398327,0.002013439778238535,0.018555380403995514
1772797055740872700,10.647872802734375,-0.01632245071232319,0.007109105587005615,0.03237209469079971
1772797055750897700,10.657897705078126,-0.0184393972158432,0.0080979373306036,0.03953227028250694
1772797055760923600,10.667923583984376,-0.020157935097813606,0.006748247426003218,0.04341942071914673
1772797055770948600,10.677948486328125,-0.01729690097272396,0.0006046011112630367,0.046646907925605774
1772797055780974600,10.687974609375,-0.007269134745001793,-0.002543141134083271,0.041916124522686005
1772797055790999600,10.69799951171875,0.0044439807534217834,-0.009164824150502682,0.029414715245366096
1772797055801025500,10.708025634765624,0.015868034213781357,-0.009186811745166779,0.012032113038003445
1772797055811050800,10.71805078125,0.02485060878098011,-0.004446118138730526,-0.0005055167712271214
1772797055821076700,10.72807666015625,0.021783117204904556,0.00348752667196095,-0.007763613015413284
1772797055831102700,10.738102783203125,0.02487877570092678,-0.0037994151934981346,-0.0134502612054348
1772797055841127700,10.748127685546875,0.026013068854808807,-0.01188991405069828,-0.02880766987800598
1772797055851153700,10.758153564453124,0.015474407933652401,-0.0047220150008797646,-0.04311763122677803
1772797055861178600,10.7681787109375,0.007894501090049744,0.009302735328674316,-0.05769858509302139
1772797055871204600,10.77820458984375,-0.0021251102443784475,0.013253534212708473,-0.07101359218358994
1772797055881229600,10.7882294921875,-0.008537331596016884,0.03161349892616272,-0.08060020208358765
1772797055891255600,10.798255615234375,-0.012536068446934223,0.03631903603672981,-0.06725457310676575
1772797055901280800,10.80828076171875,-0.01459590345621109,0.02853316068649292,-0.03462889418005943
1772797055911306500,10.818306396484376,-0.005490023642778397,0.004548731725662947,0.004034345969557762
1772797055921332500,10.82833251953125,0.0036824257113039494,-0.016510475426912308,0.030481193214654922
1772797055931357700,10.838357666015625,0.006663035601377487,-0.01730116829276085,0.041747696697711945
1772797055941383700,10.8483837890625,0.0046976166777312756,-0.005737137049436569,0.04805777966976166
1772797055951408600,10.85840869140625,0.01063433475792408,-0.0020329467952251434,0.045693691819906235
1772797055961434600,10.8684345703125,0.00951855257153511,0.002243458991870284,0.029605334624648094
1772797055971459600,10.87845947265625,0.00897952914237976,0.008947700262069702,0.011632192879915237
1772797055981485600,10.888485595703125,0.01899023726582527,0.008016726933419704,-0.007371410261839628
1772797055991510500,10.898510498046875,0.027372537180781364,0.009981075301766396,-0.021489359438419342
1772797056001536500,10.90853662109375,0.035276371985673904,0.004516472574323416,-0.040813375264406204
1772797056011562500,10.9185625,0.034745872020721436,0.0008868505246937275,-0.05114830657839775
1772797056021587700,10.928587646484376,0.03334376588463783,-0.002699713222682476,-0.05072276294231415
1772797056031613700,10.93861376953125,0.031118161976337433,0.0031672308687120676,-0.04559857398271561
1772797056041638700,10.948638671875,0.021246662363409996,-0.004606558009982109,-0.033843617886304855
1772797056051664600,10.95866455078125,0.010528771206736565,-0.005947725847363472,-0.027155887335538864
1772797056061689600,10.968689697265624,0.003795481752604246,-0.010522494092583656,-0.018511146306991577
1772797056071716400,10.97871630859375,-0.003478676313534379,-0.032714881002902985,-0.010733118280768394
1772797056081742300,10.988742431640626,-0.014325907453894615,0.008500090800225735,-0.014692973345518112
1772797056091767300,10.998767333984375,-0.029149062931537628,0.026327557861804962,-0.01768317073583603
1772797056101793300,11.008793212890625,-0.010300801135599613,-0.010177938267588615,0.00019163591787219048
1772797056111818000,11.01881787109375,0.006450748071074486,-0.0238048005849123,0.013164426200091839
1772797056121844200,11.02884423828125,0.011100878939032555,0.0089730741456151,0.022216634824872017
1772797056131869200,11.038869140625,0.0057892040349543095,0.018513847142457962,0.03018321469426155
1772797056141895200,11.048895263671875,0.012847833335399628,-0.0026272861286997795,0.04044351354241371
1772797056151920000,11.058920166015625,0.001680133049376309,-0.022731222212314606,0.043768204748630524
1772797056161946400,11.0689462890625,-0.005365782417356968,-0.009279602207243443,0.022804008796811104
1772797056171972400,11.078972412109374,-0.001596876885741949,0.012457652017474174,-0.007797043304890394
1772797056181997300,11.088997314453126,-0.0017681668978184462,0.01731688156723976,-0.03196866065263748
1772797056192023300,11.099023193359375,0.004199977032840252,0.014930156990885735,-0.04509005695581436
1772797056202048300,11.10904833984375,0.01027669943869114,0.0037194625474512577,-0.057347383350133896
1772797056212074200,11.11907421875,0.01968005672097206,0.0010485784150660038,-0.07393888384103775
1772797056222099200,11.12909912109375,0.016016105189919472,0.01560109294950962,-0.08633014559745789
1772797056232125200,11.139125244140626,0.016562584787607193,0.00885850191116333,-0.0766410306096077
1772797056242150400,11.149150390625,0.016042489558458328,0.003616590518504381,-0.042934849858284
1772797056252176400,11.15917626953125,0.01948435790836811,-0.01807938516139984,-0.012717029079794884
1772797056262202400,11.169202392578125,0.02205136977136135,-0.020010435953736305,0.0005333223380148411
1772797056272227300,11.179227294921875,0.013495965860784054,-0.015382660552859306,-0.0008107749745249748
1772797056282253300,11.18925341796875,0.0048363301903009415,-0.009835184551775455,-0.003560165408998728
1772797056292278300,11.1992783203125,-0.006725517101585865,-0.003532014787197113,-0.009839099831879139
1772797056302304300,11.20930419921875,-0.012316116131842136,0.011393243446946144,-0.005354341119527817
1772797056312329200,11.2193291015625,-0.01177256554365158,-0.0033817077055573463,0.006421091500669718
1772797056322355200,11.229355224609375,0.005081551149487495,-0.0032773809507489204,0.012547523714601994
1772797056332381200,11.239381103515624,-0.021829959005117416,0.00885065458714962,0.01622002385556698
1772797056342406400,11.249406494140626,-0.02533676289021969,0.004953355528414249,0.031198672950267792
1772797056352432000,11.25943212890625,-0.02317108027637005,0.0039283051155507565,0.03461337834596634
1772797056362457300,11.269457275390625,-0.004621942527592182,-0.009759514592587948,0.0218329019844532
1772797056372483300,11.2794833984375,-0.01300797052681446,0.02703232131898403,-0.005834412761032581
1772797056382508300,11.28950830078125,-0.006962319370359182,0.018076904118061066,-0.029523024335503578
1772797056392534300,11.2995341796875,0.011549046263098717,0.010060256347060204,-0.05789288133382797
1772797056402559200,11.309559326171875,0.01656879112124443,0.014446510933339596,-0.09174428880214691
1772797056412585200,11.319585205078125,0.023216309025883675,-0.011498803272843361,-0.11697108298540115
1772797056422611200,11.329611083984375,0.031025836244225502,-0.012390474788844585,-0.13091348111629486
1772797056432636200,11.33963623046875,0.023342616856098175,-0.00007202336564660072,-0.13652129471302032
1772797056442662100,11.349662109375,0.027231881394982338,-0.019652696326375008,-0.12538489699363708
1772797056452687400,11.359687255859376,0.011058771051466465,-0.0004326622001826763,-0.10072668641805649
1772797056462713300,11.36971337890625,-0.0054865432903170586,-0.009239795617759228,-0.06684421002864838
1772797056472738300,11.37973828125,-0.012135923840105534,-0.03314725682139397,-0.03320635110139847
1772797056482764300,11.389764404296875,-0.020409464836120605,-0.006870228797197342,-0.012059314176440239
1772797056492789200,11.399789306640624,-0.02567773126065731,0.01480470597743988,0.0009552882984280586
1772797056502815200,11.409815185546876,-0.019590092822909355,0.013016228564083576,0.008705025538802147
1772797056512841200,11.41984130859375,-0.007536891382187605,0.020429138094186783,0.0136577058583498
1772797056522866200,11.4298662109375,-0.002029969124123454,0.014225280843675137,0.020304450765252113
1772797056532892200,11.43989208984375,-0.004837473854422569,0.004014454782009125,0.03445888310670853
1772797056542917400,11.44991748046875,0.0002954842057079077,-0.01184199471026659,0.04815591126680374
1772797056552943000,11.459943115234376,0.005411949008703232,-0.011392719112336636,0.044385138899087906
1772797056562968300,11.46996826171875,0.011884275823831558,0.00806137640029192,0.03345070034265518
1772797056572994300,11.479994384765625,0.02639743871986866,0.0013600639067590237,0.02874675765633583
1772797056583019300,11.490019287109375,0.024579931050539017,-0.009687372483313084,0.006881349720060825
1772797056593045200,11.500045166015624,0.03151054307818413,-0.010188844986259937,-0.009769798256456852
1772797056603071200,11.5100712890625,0.02669748291373253,-0.011640897020697594,-0.01755436137318611
1772797056613096200,11.52009619140625,0.017350055277347565,-0.02882893942296505,-0.013107149861752987
1772797056623122200,11.5301220703125,0.012998386286199093,-0.03889267146587372,0.00787731260061264
1772797056633147100,11.540147216796875,0.00041281990706920624,-0.015775365754961967,0.0446971133351326
1772797056643173000,11.550173095703125,-0.03245207294821739,-0.034111082553863525,0.07914471626281738
1772797056653198300,11.5601982421875,-0.03918720781803131,-0.07608915865421295,0.07688422501087189
1772797056663224300,11.570224365234376,-0.04076048731803894,-0.052885159850120544,0.051830094307661057
1772797056673250300,11.580250244140625,-0.04640878364443779,-0.05286678299307823,0.08315180242061615
1772797056683275300,11.590275146484375,-0.04551515728235245,-0.0019118590280413628,0.06347659975290298
1772797056693301200,11.60030126953125,-0.04998021200299263,0.03099016472697258,0.06527556478977203
1772797056703326200,11.610326171875,-0.04215821251273155,0.04016553610563278,0.06856359541416168
1772797056713352200,11.620352294921876,-0.03119744174182415,0.03454147279262543,0.03968054801225662
1772797056723377200,11.630377197265625,-0.017775028944015503,0.06526972353458405,-0.0013485841918736696
1772797056733403100,11.640403076171875,-0.016767289489507675,0.07498626410961151,-0.04122649133205414
