time,seconds_elapsed,z,y,x
1772809207542644700,0.116644775390625,0.0004131551831960678,-0.0026888526044785976,0.00003561284393072128
1772809207552669000,0.1266689453125,0.0008639958687126637,-0.003128879936411977,-0.0016660206019878387
1772809207562691600,0.136691650390625,0.000766790471971035,0.003796670353040099,0.0007523959502577782
1772809207572715800,0.1467158203125,0.002260867040604353,-0.0012573979329317808,-0.0010966742411255836
1772809207582739700,0.15673974609375,0.0002504466101527214,-0.0012512726243585348,0.0016035046428442001
1772809207592763600,0.166763671875,0.0004951567389070988,-0.0005993670783936977,-0.0013434858992695808
1772809207602787800,0.176787841796875,0.0018552327528595924,-0.003923258278518915,0.0010107485577464104
1772809207612810500,0.186810546875,-0.00045646075159311295,-0.0018076244741678238,-0.0020367689430713654
1772809207622834700,0.196834716796875,0.0009393021464347839,0.0016931009013205767,0.00015128403902053833
1772809207632859000,0.20685888671875,0.001817015465348959,-0.0004293653182685375,-0.000016295351088047028
1772809207642882800,0.2168828125,0.0014055571518838406,0.0005746462848037481,-0.0001880694180727005
1772809207652906800,0.22690673828125,-0.0006750887259840965,-0.0020654797554016113,-0.0007837153971195221
1772809207662929700,0.2369296875,-0.0011310218833386898,0.0018674766179174185,-0.0009363144636154175
1772809207672953600,0.24695361328125,0.000688459724187851,0.002398977754637599,0.0014231950044631958
1772809207682977800,0.256977783203125,-0.00039491429924964905,-0.00024687289260327816,0.000036220066249370575
1772809207693001700,0.267001708984375,0.000828559510409832,0.001844241051003337,0.0010884357616305351
1772809207703026000,0.27702587890625,-0.0009134141728281975,-0.0006668535061180592,-0.0011052107438445091
1772809207713048600,0.287048583984375,-0.00025611836463212967,0.0015392599161714315,0.0007903147488832474
1772809207723072800,0.29707275390625,-0.0011373586021363735,0.000901166582480073,-0.0001135626807808876
1772809207733097000,0.307096923828125,0.000997873954474926,0.0008718192111700773,0.0010897181928157806
1772809207743120600,0.31712060546875,0.00028041843324899673,0.0026132601778954268,-0.0010698391124606133
1772809207753144800,0.327144775390625,-0.0013952315784990788,-0.0022457693703472614,0.00039215758442878723
1772809207763167700,0.337167724609375,-0.0005920222029089928,0.0001915555913001299,-0.0018683336675167084
1772809207773191700,0.347191650390625,-0.00023148534819483757,0.0015938247088342905,-0.0020556533709168434
1772809207783215900,0.3572158203125,0.0020377938635647297,-0.002120485994964838,0.00023173540830612183
1772809207793239800,0.36723974609375,-0.00042200135067105293,-0.0019628391601145267,-0.0008720559999346733
1772809207803263700,0.377263671875,0.00006935186684131622,0.00005850032903254032,-0.001981528475880623
1772809207813286700,0.38728662109375,-0.000040508806705474854,-0.002990339184179902,-0.001620871014893055
1772809207823310600,0.397310546875,-0.0007236097007989883,-0.0016377195715904236,-0.00031006336212158203
1772809207833334800,0.407334716796875,-0.0002690865658223629,0.0005874827038496733,-0.0009839469566941261
1772809207843358700,0.417358642578125,-0.0006765504367649555,-0.0010402414482086897,-0.0012494642287492752
1772809207853383000,0.4273828125,0.0010804543271660805,-0.0015357770025730133,0.0006597181782126427
1772809207863405800,0.43740576171875,-0.000919579528272152,-0.0024487085174769163,-0.0019437875598669052
1772809207873429800,0.4474296875,-0.00031612860038876534,-0.0012265108525753021,-0.0003835689276456833
1772809207883453700,0.45745361328125,0.000011706259101629257,-0.00012795696966350079,-0.0026389993727207184
1772809207893477600,0.4674775390625,0.001835871022194624,-0.0022320724092423916,0.0001550363376736641
1772809207903501800,0.477501708984375,-0.0015769698657095432,0.0009330946486443281,-0.0012543080374598503
1772809207913524700,0.487524658203125,0.000018693041056394577,0.00045813783071935177,-0.001444092020392418
1772809207923548700,0.497548583984375,0.00045811478048563004,0.0011747947428375483,0.0006129331886768341
1772809207933572900,0.50757275390625,0.00024175364524126053,-0.00020090234465897083,0.0012373179197311401
1772809207943596800,0.5175966796875,-0.0009420216083526611,-0.0007516441401094198,-0.0012838970869779587
1772809207953620700,0.527620849609375,0.0015713055618107319,-0.002313074888661504,0.000296691432595253
1772809207963644000,0.537643798828125,0.001030151266604662,0.0012768663000315428,-0.002419467084109783
1772809207973667600,0.54766748046875,0.0022016670554876328,-0.0015786171425133944,-0.0004317089915275574
1772809207983691800,0.55769189453125,-0.0008894642814993858,-0.00030216388404369354,0.0006327573210000992
1772809207993715700,0.5677158203125,0.0022689420729875565,0.0005562149453908205,0.0014634225517511368
1772809208003740000,0.577739990234375,-0.000781442504376173,0.0005612748209387064,-0.0014641908928751945
1772809208013762800,0.5877626953125,-0.0009929919615387917,0.0003821530845016241,-0.00003077462315559387
1772809208023786800,0.597786865234375,-0.00146383885294199,0.0008253029081970453,-0.0001359693706035614
1772809208033810700,0.607810791015625,-0.0008528446778655052,-0.00011366978287696838,-0.0008637215942144394
1772809208043838700,0.617838623046875,0.0016132425516843796,0.0007031217683106661,0.0012412415817379951
1772809208053863000,0.62786279296875,0.0009865490719676018,0.003362788585945964,-0.00034741219133138657
1772809208063885600,0.637885498046875,-0.000047023873776197433,0.00021519861184060574,-0.0014156065881252289
1772809208073909800,0.64790966796875,-0.00028688274323940277,0.00014657690189778805,0.00020615942776203156
1772809208083934000,0.657933837890625,0.0007272488437592983,-0.0027578668668866158,0.0013526501134037971
1772809208093957600,0.66795751953125,0.00016382383182644844,0.0006784447468817234,-0.00013668369501829147
1772809208103981800,0.67798193359375,-0.0007989085279405117,-0.001851291861385107,0.0017562918365001678
1772809208114005800,0.688005859375,0.0013632397167384624,-0.0016058122273534536,0.0005579832941293716
1772809208124028700,0.698028564453125,0.0018362170085310936,0.0018152843695133924,-0.0010055582970380783
1772809208134052900,0.708052978515625,0.0011621499434113503,0.000493406318128109,-0.0012922175228595734
1772809208144076800,0.718076904296875,0.000001810956746339798,-0.002145519945770502,-0.002801164984703064
1772809208154100700,0.728100830078125,-0.0021378814708441496,0.0008052964694797993,-0.002191859297454357
1772809208164124700,0.738124755859375,-0.0022515985183417797,-0.0013998006470501423,-0.0013873185962438583
1772809208174147600,0.748147705078125,0.0024548047222197056,-0.0005151405930519104,-0.002674827352166176
1772809208184171800,0.758171875,-0.0011164946481585503,0.001286221668124199,0.00020751263946294785
1772809208194195700,0.76819580078125,0.0012291516177356243,-0.0007005487568676472,0.00024340301752090454
1772809208204220000,0.778219970703125,0.0025809723883867264,-0.0021567652001976967,0.0002766922116279602
1772809208214243600,0.78824365234375,-0.0011553768999874592,-0.0011082864366471767,0.001613185741007328
1772809208224266800,0.798266845703125,0.0015495959669351578,-0.0007399711757898331,0.00010157562792301178
1772809208234291000,0.808291015625,0.001267529558390379,0.0005939877592027187,0.0001894477754831314
1772809208244314600,0.818314697265625,0.0002640504390001297,-0.001844668760895729,-0.00020203739404678345
1772809208254338800,0.8283388671875,0.001955154351890087,-0.0008024810813367367,-0.0004129381850361824
1772809208264362800,0.83836279296875,-0.0010968279093503952,0.0026327306404709816,-0.0012291967868804932
1772809208274385700,0.8483857421875,0.000016527250409126282,-0.0020800214260816574,-0.001075873151421547
1772809208284409900,0.858409912109375,0.0007323846220970154,0.0004534437321126461,-0.000830063596367836
1772809208294433800,0.868433837890625,0.00228647468611598,0.0006577274762094021,-0.0014063334092497826
1772809208304457700,0.878457763671875,0.000758086796849966,0.0005173790268599987,0.0002653328701853752
1772809208314481700,0.888481689453125,-0.0003683120012283325,0.0001911493018269539,-0.0017896238714456558
1772809208324504600,0.898504638671875,0.0005518100224435329,-0.003268563188612461,-0.0002529798075556755
1772809208334528800,0.90852880859375,-0.0009624194353818893,0.000635848380625248,-0.0005227038636803627
1772809208344552700,0.918552734375,0.00010231230407953262,0.00014422880485653877,0.002061626873910427
1772809208354577000,0.928576904296875,0.0036346283741295338,0.0006260108202695847,-0.0010145660489797592
1772809208364600600,0.9386005859375,-0.00044746464118361473,-0.00006561190821230412,0.0017612474039196968
1772809208374624800,0.948624755859375,-0.0007954793982207775,-0.000667627202346921,0.0014222720637917519
1772809208384647700,0.958647705078125,-0.0008061323314905167,-0.0018711097072809935,-0.0005447380244731903
1772809208394671600,0.968671630859375,-0.00040774932131171227,-0.0002292825374752283,0.0020817145705223083
1772809208404695800,0.97869580078125,-0.001811235211789608,0.0005928352475166321,0.0010404186323285103
1772809208414719700,0.9887197265625,-0.002001178218051791,0.0026770122349262238,-0.0014918474480509758
1772809208424743700,0.99874365234375,0.00021963194012641907,-0.0027832668274641037,-0.0009578829631209373
1772809208434766800,1.008766845703125,0.0009424109011888504,0.0006932220421731472,-0.000520327128469944
1772809208444790800,1.018790771484375,-0.002841408597305417,0.0004937509074807167,0.0003004595637321472
1772809208454814700,1.028814697265625,0.0011489465832710266,-0.0020503054838627577,0.0036187656223773956
1772809208464838700,1.038838623046875,-0.001074526458978653,0.0006235083565115929,-0.00019408203661441803
1772809208474862800,1.04886279296875,0.0010882816277444363,-0.0009214507881551981,-0.0020620301365852356
1772809208484886500,1.058886474609375,0.0018326351419091225,-0.0022530313581228256,-0.0012444397434592247
1772809208494909700,1.06890966796875,-0.0017772510182112455,-0.00024174153804779053,0.00011929590255022049
1772809208504934000,1.078933837890625,0.0025421297177672386,0.00026292772963643074,0.0005352813750505447
1772809208514957600,1.08895751953125,0.0004802355542778969,-0.002407264895737171,0.000464429147541523
1772809208524981800,1.098981689453125,0.0015478972345590591,-0.0017124461010098457,0.0007640346884727478
1772809208535005700,1.109005615234375,0.0016900398768484592,-0.00434913020581007,0.0009511802345514297
1772809208545028600,1.119028564453125,0.0001653800718486309,-0.0010848937090486288,-0.0010555116459727287
1772809208555052800,1.129052734375,0.00021350011229515076,0.0003913436084985733,0.0007448103278875351
1772809208565076700,1.13907666015625,0.0018462841399013996,-0.0022960519418120384,0.00006250850856304169
1772809208575100700,1.1491005859375,0.000747553538531065,0.000039346516132354736,0.0006757481023669243
1772809208585124600,1.15912451171875,-0.00001277867704629898,-0.0020919812377542257,-0.0004033651202917099
1772809208595148800,1.169148681640625,0.0006719408556818962,-0.00016146758571267128,0.00013520754873752594
1772809208605171700,1.179171630859375,-0.00038133934140205383,-0.00015827175229787827,0.0005938038229942322
1772809208615195600,1.189195556640625,0.002174378838390112,0.0006689508445560932,-0.003353171981871128
1772809208625219800,1.1992197265625,0.00009418372064828873,0.0004865243099629879,0.0006863102316856384
1772809208635243800,1.209243896484375,0.0007724910974502563,-0.0013138982467353344,-0.0014434820041060448
1772809208645267700,1.219267822265625,0.0004419926553964615,-0.00010988302528858185,-0.0008464017882943153
1772809208655290600,1.22929052734375,-0.00014613941311836243,-0.0009190551936626434,-0.0013943584635853767
1772809208665314600,1.239314453125,0.0005777077749371529,0.00019521149806678295,0.0006938260048627853
1772809208675338800,1.2493388671875,0.00043347617611289024,-0.00020519155077636242,0.002044588327407837
1772809208685362700,1.25936279296875,-0.0007724030874669552,0.0018763351254165173,-0.0006369482725858688
1772809208695386600,1.26938671875,-0.0010562269017100334,-0.001109864329919219,-0.00016923528164625168
1772809208705410800,1.279410888671875,0.00007055653259158134,0.00022864039056003094,0.00010160822421312332
1772809208715433700,1.289433837890625,0.0017632897943258286,0.003743615234270692,-0.0005488907918334007
1772809208725457700,1.299457763671875,-0.0003632442094385624,0.0020581006538122892,-0.00014861766248941422
1772809208735481900,1.30948193359375,0.00015558162704110146,-0.0027898340485990047,-0.0009272163733839989
1772809208745505800,1.319505859375,0.002413942478597164,-0.0003559710457921028,-0.001385279931128025
1772809208755529700,1.32952978515625,0.0018916325643658638,-0.0004391458351165056,0.0012682471424341202
1772809208765553700,1.3395537109375,-0.000823992770165205,0.00131001858972013,-0.0009712046012282372
1772809208775576800,1.349576904296875,-0.001972557744011283,-0.0014298113528639078,-0.0010462934151291847
1772809208785600800,1.359600830078125,-0.0003964989446103573,-0.0015006514731794596,-0.000884639099240303
1772809208795624700,1.369624755859375,0.000179952010512352,0.0017237202264368534,-0.001670563593506813
1772809208805649000,1.37964892578125,0.0029549659229815006,0.00016017816960811615,-0.00020928680896759033
1772809208815672600,1.389672607421875,0.0018711155280470848,-0.00030863936990499496,-0.00016523431986570358
1772809208825696800,1.39969677734375,0.0012716380879282951,0.0004471659194678068,-0.0009511327371001244
1772809208835720000,1.409719970703125,0.0008678324520587921,0.001720184227451682,-0.0006751399487257004
1772809208845743600,1.41974365234375,0.00043959636241197586,-0.002122224308550358,-0.00016061775386333466
1772809208855767800,1.429767822265625,-0.0005270647816359997,0.0013033016584813595,0.0011044247075915337
1772809208865791700,1.439791748046875,0.0017978744581341743,-0.0007649092003703117,-0.0021203970536589622
1772809208875815700,1.449815673828125,-0.00016756867989897728,-0.0012018554843962193,-0.0027607204392552376
1772809208885839600,1.459839599609375,-0.002299162559211254,0.0011955222580581903,-0.0015812069177627563
1772809208895862800,1.46986279296875,0.0019464637152850628,0.0004897594917565584,0.0011773072183132172
1772809208905886700,1.47988671875,0.0000170036219060421,-0.0012370343320071697,0.00011550448834896088
1772809208915910700,1.48991064453125,-0.001657203072682023,0.0010090272407978773,0.0012186439707875252
1772809208925934800,1.499934814453125,-0.0011256360448896885,-0.001811526482924819,-0.0000599399209022522
1772809208935958500,1.50995849609375,0.0006766589358448982,0.0008016247302293777,0.00028364360332489014
1772809208945982700,1.519982666015625,0.0013962453231215477,-0.00015524914488196373,-0.0020157303661108017
1772809208956006000,1.530005859375,-0.0005814279429614544,0.00038875779137015343,-0.0007007336243987083
1772809208966029600,1.540029541015625,-0.0027449799235910177,-0.000024830922484397888,0.0009626764804124832
1772809208976053800,1.5500537109375,-0.0013376646675169468,0.0012249322608113289,0.0008582761511206627
1772809208986077700,1.56007763671875,-0.0015392659697681665,0.001947447657585144,-0.0015862388536334038
1772809208996101600,1.5701015625,-0.0013162028044462204,-0.0010189157910645008,-0.0012509450316429138
1772809209006125600,1.58012548828125,0.0011445581912994385,-0.0018250546418130398,0.0003722524270415306
1772809209016149800,1.590149658203125,-0.00004651816561818123,0.00043578934855759144,0.0006637172773480415
1772809209026172700,1.600172607421875,0.0010112891905009747,0.0013846734073013067,-0.0026825452223420143
1772809209036196400,1.6101962890625,-0.0017450887244194746,-0.001309586688876152,0.00042363163083791733
1772809209046220500,1.620220458984375,-0.0010880869813263416,-0.002031569601967931,-0.0013377834111452103
1772809209056244500,1.630244384765625,0.0004035760648548603,-0.001471587223932147,-0.0022740140557289124
1772809209066268400,1.640268310546875,-0.001506176544353366,0.00013376609422266483,-0.0010902388021349907
1772809209076292600,1.650292724609375,0.0007872721180319786,-0.00043480750173330307,-0.00004055257886648178
1772809209086315500,1.6603154296875,0.001563051249831915,-0.002583445981144905,-0.0020845280960202217
1772809209096339500,1.67033935546875,-0.0007355613633990288,-0.0003472676035016775,-0.0014502257108688354
1772809209106363600,1.68036376953125,-0.002184587297961116,0.0007084095850586891,-0.00021025817841291428
1772809209116387300,1.69038720703125,0.0014773635193705559,0.0003896933048963547,-0.0010497979819774628
1772809209126411500,1.70041162109375,-0.0006811283528804779,0.001630726270377636,-0.0007238266989588737
1772809209136435500,1.710435546875,-0.00016366317868232727,-0.002297621686011553,-0.0005300194025039673
1772809209146459600,1.720459716796875,-0.002256641397252679,-0.0011998668778687716,-0.0011220406740903854
1772809209156482600,1.730482666015625,-0.0019058373291045427,-0.003303314559161663,0.0005363756790757179
1772809209166506500,1.740506591796875,-0.0010906439274549484,-0.0005658513400703669,-0.0005547218024730682
1772809209176530400,1.750530517578125,-0.0016799469012767076,0.0011123279109597206,-0.00004721805453300476
1772809209186554400,1.760554443359375,-0.0010967142879962921,0.0013309735804796219,0.00004945509135723114
1772809209196578600,1.77057861328125,-0.0016093826852738857,-0.00041241757571697235,-0.0005818260833621025
1772809209206602500,1.7806025390625,0.0014929338358342648,0.0005425917915999889,-0.0009229769930243492
1772809209216626400,1.79062646484375,0.0011011217720806599,-0.0020835958421230316,0.0004319446161389351
1772809209226649600,1.800649658203125,0.0011799512431025505,0.0022110179997980595,-0.0009481050074100494
1772809209236673300,1.81067333984375,0.0004952787421643734,0.0008872414473444223,0.0006733918562531471
1772809209246697500,1.820697509765625,-0.00026372261345386505,0.00044515705667436123,0.0005381032824516296
1772809209256721400,1.830721435546875,-0.001967920223250985,0.0005800661165267229,0.0017039934173226357
1772809209266745600,1.84074560546875,0.0005580880679190159,0.0009531748946756124,-0.0008736802265048027
1772809209276769300,1.850769287109375,-0.0002697659656405449,0.0001304436009377241,0.0011560162529349327
1772809209286793500,1.86079345703125,0.0011323881335556507,-0.0001435957383364439,-0.000298868864774704
1772809209296816600,1.870816650390625,-0.0010581784881651402,-0.0011924977879971266,0.0012332713231444359
1772809209306840300,1.88084033203125,0.0013924622908234596,0.0002786323893815279,0.0012854691594839096
1772809209316864500,1.890864501953125,-0.0009097992442548275,-0.0018448757473379374,-0.0019632503390312195
1772809209326888400,1.900888427734375,0.0010529500432312489,-0.0018280979711562395,-0.0004401886835694313
1772809209336912400,1.910912353515625,0.0003782939165830612,0.004155460745096207,0.0016460772603750229
1772809209346936600,1.9209365234375,-0.00014901207759976387,-0.00003129430115222931,-0.0020575812086462975
1772809209356960500,1.93096044921875,0.0007626265287399292,-0.0003674314357340336,0.0013538021594285965
1772809209366983400,1.9409833984375,-0.0008887997828423977,-0.0014217770658433437,0.0000022472813725471497
1772809209377007400,1.95100732421875,0.0012733866460621357,-0.0012827408500015736,-0.0002732193097472191
1772809209387031600,1.961031494140625,-0.0005753799341619015,-0.0010081690270453691,0.00043784454464912415
1772809209397055500,1.971055419921875,-0.0002162042073905468,0.0023952429182827473,0.00031120143830776215
1772809209407079400,1.981079345703125,-0.004293503705412149,-0.002192850923165679,-0.000645405612885952
1772809209417103600,1.991103515625,-0.0011632856912910938,-0.00002584722824394703,-0.001163075678050518
1772809209427127300,2.001127197265625,0.001489222515374422,-0.00015714089386165142,-0.0009079445153474808
1772809209437151500,2.0111513671875,0.0006037941202521324,0.0003706826828420162,0.0017734076827764511
1772809209447175400,2.021175537109375,0.0007460066117346287,-0.00038645369932055473,0.0005195913836359978
1772809209457198300,2.0311982421875,0.0006182636134326458,0.002226962009444833,0.0001851879060268402
1772809209467222500,2.041222412109375,-0.0011239759624004364,0.0008783370722085238,-0.0015687700361013412
1772809209477246500,2.05124658203125,0.001981852576136589,-0.001098068431019783,-0.0008394978940486908
1772809209487270400,2.0612705078125,-0.001739648636430502,0.001707039074972272,-0.0020957114174962044
1772809209497294300,2.07129443359375,-0.0006204629316926003,0.00026353634893894196,0.00015880167484283447
1772809209507318500,2.081318603515625,-0.0010516284964978695,-0.0014659205917268991,0.0007329788058996201
1772809209517342500,2.091342529296875,0.0008081849664449692,0.00017257314175367355,-0.00008280854672193527
1772809209527366400,2.101366455078125,0.00023240922018885612,-0.0004269045311957598,-0.0019611362367868423
1772809209537389600,2.1113896484375,0.0024420805275440216,0.0013183210976421833,0.001986817456781864
1772809209547413500,2.12141357421875,0.000726205762475729,-0.0014979718253016472,0.0026491452008485794
1772809209557437400,2.1314375,-0.0008864547125995159,-0.005410376004874706,-0.0033102603629231453
1772809209567461400,2.14146142578125,0.000156438909471035,0.001514641335234046,0.0003755539655685425
1772809209577485600,2.151485595703125,0.0008059078827500343,-0.0013079571072012186,-0.0014437232166528702
1772809209587509500,2.161509521484375,0.0005244119092822075,0.00183563819155097,0.002566465176641941
1772809209597533400,2.171533447265625,-0.00033910851925611496,-0.0012318792287260294,-0.00024206843227148056
1772809209607557600,2.1815576171875,0.00009658467024564743,-0.0007916586473584175,0.0005174651741981506
1772809209617580300,2.191580322265625,0.0017701033502817154,0.0010813677217811346,0.0007849773392081261
1772809209627604500,2.2016044921875,-0.0002560294233262539,-0.001130920136347413,0.0016459766775369644
1772809209637628700,2.211628662109375,-0.0011907508596777916,-0.0017408737912774086,-0.0009629065170884132
1772809209647652400,2.22165234375,-0.0004160371609032154,-0.0021749690640717745,0.0008355258032679558
1772809209657676500,2.231676513671875,0.0007512299343943596,-0.0010304320603609085,-0.00037047453224658966
1772809209667700500,2.241700439453125,0.0003237924538552761,-0.0020485585555434227,-0.0009790072217583656
1772809209677724400,2.251724365234375,0.000350272748619318,0.00006509944796562195,-0.0000515645369887352
1772809209687748400,2.261748291015625,0.001653091050684452,-0.001963163958862424,-0.0010984530672430992
1772809209697772500,2.2717724609375,0.0005650036036968231,-0.0017233227845281363,0.0004891753196716309
1772809209707796500,2.28179638671875,-0.000011570751667022705,-0.0006146489176899195,0.00021833181381225586
1772809209717819400,2.2918193359375,-0.0008295667357742786,-0.00029398733749985695,0.0010219532996416092
1772809209727843600,2.301843505859375,-0.0011289063841104507,-0.00048680021427571774,0.00010289624333381653
1772809209737867300,2.3118671875,0.002998813521116972,-0.0004590456373989582,-0.0018155844882130623
1772809209747891500,2.321891357421875,-0.0009567798115313053,0.000004877103492617607,-0.0009079789742827415
1772809209757915400,2.331915283203125,0.0016216975636780262,0.000738081056624651,-0.00164044089615345
1772809209767939600,2.341939697265625,0.00045949406921863556,-0.00032638455741107464,-0.0018665427342057228
1772809209777963500,2.351963623046875,0.0016762460581958294,0.00036997697316110134,0.0006473800167441368
1772809209787987500,2.361987548828125,0.0019670636393129826,-0.0007924926467239857,0.0002785315737128258
1772809209798011600,2.37201171875,0.001747175119817257,0.00068498938344419,0.0015134625136852264
1772809209808035300,2.382035400390625,0.0006693936884403229,0.0021332164760679007,0.0007406128570437431
1772809209818058500,2.39205859375,0.0012317164801061153,0.00044741411693394184,-0.0018706051632761955
1772809209828082700,2.402082763671875,0.0028447932563722134,0.0019273327197879553,-0.0007571382448077202
1772809209838106400,2.4121064453125,0.0002442360855638981,-0.00043300678953528404,-0.002114071510732174
1772809209848130600,2.422130615234375,-0.00029372237622737885,-0.0005533816292881966,0.000013794749975204468
1772809209858154500,2.432154541015625,0.0012446781620383263,0.0023391428403556347,0.00036380626261234283
1772809209868178400,2.442178466796875,0.0001463908702135086,0.0018280819058418274,0.000600028783082962
1772809209878202400,2.452202392578125,0.0008020699024200439,0.001818787306547165,0.0006882501766085625
1772809209888226600,2.4622265625,-0.0002176547423005104,-0.00011520041152834892,-0.000012161210179328918
1772809209898250500,2.47225048828125,0.0008657793514430523,0.00010676169767975807,-0.0021609431132674217
1772809209908274400,2.4822744140625,-0.0016578319482505322,0.004937469493597746,-0.00100726168602705
1772809209918298400,2.49229833984375,-0.0006148060783743858,0.0015851259231567383,0.00038238149136304855
1772809209928321300,2.5023212890625,-0.00013570347800850868,0.0018106955103576183,-0.0021036798134446144
1772809209938345500,2.512345458984375,-0.000155620276927948,0.000042202649638056755,-0.0005215741693973541
1772809209948369400,2.522369384765625,-0.00289867608807981,0.0007215752266347408,-0.0028105610981583595
1772809209958393600,2.5323935546875,-0.0005320473574101925,-0.000328251626342535,0.000011497177183628082
1772809209968417300,2.542417236328125,0.00023334473371505737,0.0024315821938216686,-0.0010558981448411942
1772809209978441500,2.55244140625,0.0007453346624970436,-0.0017188114579766989,-0.0016480041667819023
1772809209988465700,2.562465576171875,-0.0006006271578371525,0.0017454284243285656,-0.0009023193269968033
1772809209998489300,2.5724892578125,0.0012329500168561935,-0.0010731411166489124,0.0007812129333615303
1772809210008513500,2.582513427734375,0.0009389370679855347,-0.0003516906872391701,-0.00011733733117580414
1772809210018537500,2.592537353515625,0.0007806457579135895,-0.0007328852079808712,0.0005772458389401436
1772809210028561400,2.6025615234375,0.0020927852019667625,-0.0006023903843015432,-0.0008603287860751152
1772809210038582300,2.612582275390625,0.001353890635073185,0.002845240058377385,-0.0008060568943619728
1772809210048605400,2.62260546875,0.001317937858402729,-0.0010400456376373768,-0.001362125389277935
1772809210058629400,2.63262939453125,-0.0010443958453834057,0.0006476512644439936,0.0005667377263307571
1772809210068653300,2.6426533203125,0.0016398043371737003,-0.001782483421266079,-0.0008271615952253342
1772809210078677500,2.652677490234375,0.0021851109340786934,0.000012600794434547424,-0.0014598444104194641
1772809210088701200,2.662701171875,0.0010447455570101738,-0.0005951325874775648,0.0021684467792510986
1772809210098725400,2.672725341796875,-0.00008321553468704224,-0.0027685691602528095,0.00006518419831991196
1772809210108749300,2.682749267578125,-0.0007809638045728207,0.000580089632421732,0.0008303103968501091
1772809210118773500,2.6927734375,-0.00024982867762446404,0.0007644977886229753,-0.0008720234036445618
1772809210128797200,2.702797119140625,0.0004388648085296154,-0.00238176085986197,0.0007479777559638023
1772809210138821400,2.7128212890625,0.00014663254842162132,0.0009072928223758936,0.000736885704100132
1772809210148845300,2.72284521484375,-0.0016470062546432018,-0.0022165949922055006,0.00014379899948835373
1772809210158869200,2.732869140625,-0.0010664574801921844,-0.0008298894390463829,-0.00024203956127166748
1772809210168893400,2.7428935546875,0.0027280147187411785,-0.0020719878375530243,0.0008421335369348526
1772809210178917400,2.75291748046875,0.0014832988381385803,0.0013917069882154465,0.00013932771980762482
1772809210188940300,2.762940185546875,0.0001216246746480465,-0.00010605482384562492,-0.0028045307844877243
1772809210198964500,2.772964599609375,0.001620233990252018,-0.0009113985579460859,0.001723811961710453
1772809210208988400,2.782988525390625,-0.0006559696048498154,0.003458582330495119,0.0017144903540611267
1772809210219012400,2.793012451171875,-0.0006315750069916248,-0.0011666635982692242,0.0016009015962481499
1772809210229036300,2.803036376953125,0.0036550494842231274,-0.000425772275775671,0.0012283260002732277
1772809210239060500,2.813060546875,-0.0004216395318508148,-0.00214358139783144,0.0007801754400134087
1772809210249084200,2.823084228515625,0.0002382919192314148,0.0005488747265189886,0.0008827075362205505
1772809210259108400,2.8331083984375,0.0007422761991620064,-0.000539496773853898,0.0007432829588651657
1772809210269132300,2.84313232421875,0.0001925993710756302,-0.00027637649327516556,-0.0014785919338464737
1772809210279156500,2.853156494140625,0.00040465686470270157,0.0009103796910494566,-0.0006340397521853447
1772809210289180200,2.86318017578125,0.0008110553026199341,0.0006914681289345026,-0.002203174866735935
1772809210299204400,2.873204345703125,0.0019464525394141674,-0.0010145369451493025,0.00009859073907136917
1772809210309228500,2.883228515625,-0.00029326556250452995,0.000368442852050066,-0.0010833200067281723
1772809210319252200,2.893252197265625,0.00004332559183239937,-0.0004261224530637264,0.001562134362757206
1772809210329276400,2.9032763671875,0.001783967949450016,0.00031317095272243023,-0.0005279146134853363
1772809210339300400,2.91330029296875,-0.0001345379278063774,-0.00005753221921622753,0.00038141943514347076
1772809210349323300,2.9233232421875,0.0007003634236752987,0.00009426823817193508,-0.0006196629256010056
1772809210359347500,2.933347412109375,0.00029159290716052055,0.0012800502590835094,-0.0019097113981842995
1772809210369371400,2.943371337890625,0.00010357331484556198,-0.0007069343701004982,-0.0004212707281112671
1772809210379395300,2.953395263671875,0.0012043481692671776,0.0012642911169677973,-0.00012785103172063828
1772809210389419300,2.963419189453125,-0.0005221790634095669,0.0025023946072906256,0.0013946779072284698
1772809210399443500,2.973443359375,-0.0009497925639152527,0.00014807493425905704,-0.0009554056450724602
1772809210409467400,2.98346728515625,0.001254239585250616,0.0010735236573964357,-0.0010906942188739777
1772809210419491300,2.9934912109375,-0.0008664829656481743,0.000478711212053895,-0.0010900264605879784
1772809210429515300,3.003515380859375,0.0012571215629577637,-0.002659557620063424,0.0007893657311797142
1772809210439539500,3.01353955078125,-0.00007386086508631706,0.0011509624309837818,0.0011177780106663704
1772809210449563400,3.0235634765625,-0.0013268778566271067,0.0019360622391104698,-0.0016790730878710747
1772809210459587300,3.03358740234375,0.00012826360762119293,0.000045978929847478867,0.000756104476749897
1772809210469611500,3.043611572265625,0.000053695403039455414,-0.003681114874780178,0.0003070952370762825
1772809210479635200,3.05363525390625,-0.000054187141358852386,0.000012553995475172997,0.0012143822386860847
1772809210489659400,3.063659423828125,0.002611104864627123,0.0026890309527516365,-0.0010575605556368828
1772809210499683300,3.073683349609375,0.0021864851005375385,0.000055015552788972855,0.0021903598681092262
1772809210509707500,3.08370751953125,0.0002921787090599537,0.000041167251765728,-0.0018214266747236252
1772809210519731200,3.093731201171875,0.0006952914409339428,0.0012685302644968033,0.0020761974155902863
1772809210529755400,3.10375537109375,0.0010082130320370197,0.001682385802268982,-0.0010804478079080582
1772809210539779300,3.113779296875,0.00005818251520395279,-0.0010950749274343252,-0.0003719395026564598
1772809210549803300,3.12380322265625,-0.0004347683861851692,-0.00008387281559407711,-0.0031370995566248894
1772809210559827200,3.1338271484375,-0.0011622891761362553,0.0010570178274065256,0.0030708052217960358
1772809210569850400,3.143850341796875,0.000334140844643116,-0.0018024181481450796,0.001688358373939991
1772809210579874300,3.153874267578125,0.0012704376131296158,-0.0003334241919219494,-0.0009531276300549507
1772809210589898200,3.163898193359375,0.0015319599770009518,0.00027324375696480274,0.0020490530878305435
1772809210599922400,3.17392236328125,0.0023647663183510303,0.0019073421135544777,0.001987733878195286
1772809210609946400,3.1839462890625,0.0004134681075811386,-0.00006819074042141438,0.0011333916336297989
1772809210619970300,3.19397021484375,-0.0005186852067708969,0.0001499527134001255,-0.00029432307928800583
1772809210629994500,3.203994384765625,-0.0019338892307132483,-0.0018037422560155392,0.00011979881674051285
1772809210640018400,3.214018310546875,0.00016153277829289436,0.001378427492454648,-0.0008534733206033707
1772809210650042400,3.22404248046875,-0.0015724513214081526,0.0006444600876420736,0.0017580222338438034
1772809210660066300,3.23406640625,0.00031617842614650726,0.000015344703570008278,-0.0029243333265185356
1772809210670090500,3.244090576171875,-0.0010644043795764446,-0.0022576632909476757,-0.00022255629301071167
1772809210680114200,3.2541142578125,-0.0009599179029464722,-0.0033087744377553463,0.0008581215515732765
1772809210690138400,3.264138427734375,-0.0008872137404978275,0.000021242070943117142,-0.0005355104804039001
1772809210700162300,3.274162353515625,-0.0008720685727894306,-0.0008336028549820185,0.00013395212590694427
1772809210710186200,3.284186279296875,-0.0008507631719112396,-0.000548910815268755,0.000058584846556186676
1772809210720210400,3.29421044921875,-0.0009830226190388203,0.003223937936127186,0.00035127345472574234
1772809210730234400,3.304234375,0.0014228769578039646,-0.000615008408203721,-0.0032485220581293106
1772809210740258600,3.314258544921875,0.00012589525431394577,0.00013808347284793854,0.001765914261341095
1772809210750282200,3.3242822265625,0.0005733063444495201,-0.003223092295229435,0.00036988500505685806
1772809210760306400,3.334306396484375,-0.000936183612793684,0.0003887938801199198,0.00033918023109436035
1772809210770330400,3.344330322265625,-0.0020139648113399744,-0.0016533180605620146,-0.0018528671935200691
1772809210780354300,3.354354248046875,0.0002897833473980427,-0.0014897040091454983,-0.000900566577911377
1772809210790378200,3.364378173828125,-0.0006505786441266537,0.0014096791855990887,0.00003952905535697937
1772809210800402400,3.37440234375,-0.001954951323568821,0.0007036451715976,0.0005731945857405663
1772809210810426000,3.384426025390625,0.0010895743034780025,0.0006413271185010672,-0.0031919823959469795
1772809210820450300,3.3944501953125,0.0006576701998710632,0.0012263345997780561,0.0005766507238149643
1772809210830474500,3.404474609375,-0.0005330294370651245,-0.0005212314426898956,-0.0021277889609336853
1772809210840498400,3.41449853515625,-0.000593133270740509,0.0037677327636629343,-0.000041297636926174164
1772809210850522400,3.4245224609375,0.00034350017085671425,0.0007799321319907904,0.00004818476736545563
1772809210860546300,3.43454638671875,0.0004615494981408119,-0.0012624035589396954,-0.000008500181138515472
1772809210870570500,3.444570556640625,0.001997660845518112,-0.0012916983105242252,-0.0003150301054120064
1772809210880594200,3.45459423828125,0.0006318222731351852,-0.0021946171764284372,-0.0017515886574983597
1772809210890618400,3.464618408203125,0.0010310299694538116,-0.0005349351558834314,-0.0003813924267888069
1772809210900642300,3.474642333984375,0.0010090339928865433,0.0024221281055361032,-0.00005435384809970856
1772809210910666200,3.484666259765625,-0.001067965291440487,-0.000860484316945076,-0.0017148349434137344
1772809210920690200,3.494690185546875,0.00046404125168919563,-0.00015508988872170448,-0.0005101952701807022
1772809210930713300,3.50471337890625,0.0001287492923438549,-0.0005031649488955736,0.0001406809315085411
1772809210940737300,3.5147373046875,-0.0024688357952982187,-0.002184417098760605,0.001063651405274868
1772809210950761200,3.52476123046875,0.0020694569684565067,0.0014145791064947844,0.00009133107960224152
1772809210960785400,3.534785400390625,-0.0005280585028231144,-0.00012085307389497757,-0.0009577833116054535
1772809210970809300,3.544809326171875,0.0007443996146321297,-0.000937378266826272,-0.0018885573372244835
1772809210980833300,3.554833251953125,-0.00008640531450510025,-0.0015715330373495817,-0.0013765683397650719
1772809210990857500,3.564857421875,-0.00040012598037719727,-0.0003376905806362629,-0.001225300133228302
1772809211000881400,3.57488134765625,0.0010482524521648884,-0.001192173222079873,-0.0001647183671593666
1772809211010905300,3.5849052734375,0.0016575837507843971,-0.0023027113638818264,-0.0010550133883953094
1772809211020929300,3.59492919921875,-0.000012325122952461243,0.0009147634264081717,-0.0008563222363591194
1772809211030953500,3.604953369140625,0.0008638552390038967,0.0002809313591569662,-0.0012174472212791443
1772809211040977700,3.614977783203125,-0.0006730929017066956,0.0002164661418646574,-0.0023715365678071976
1772809211051001900,3.625001953125,-0.0011372817680239677,0.002509181620553136,-0.000051390379667282104
1772809211061025500,3.635025634765625,-0.0003721490502357483,-0.0009139319881796837,0.000871436670422554
1772809211071049700,3.6450498046875,-0.001182548701763153,-0.0003956807777285576,0.0019265804439783096
1772809211081073700,3.65507373046875,-0.0018005587626248598,-0.0015355914365500212,-0.0003861794248223305
1772809211091097900,3.665097900390625,0.0009555467404425144,-0.0016074967570602894,-0.000153418630361557
1772809211101121800,3.675121826171875,-0.0005944883450865746,0.0007801433093845844,0.000527738593518734
1772809211111145700,3.685145751953125,0.00018421979621052742,-0.0009285409469157457,-0.0005827993154525757
1772809211121170000,3.695169921875,-0.00034511275589466095,-0.0009549127425998449,-0.0005300147458910942
1772809211131193600,3.705193603515625,0.0015425360761582851,-0.0006142945494502783,0.0005530929192900658
1772809211141217800,3.7152177734375,-0.0015370682813227177,-0.001723310211673379,0.0007577156648039818
1772809211151241700,3.72524169921875,-0.0017029831651598215,-0.0010327526833862066,-0.0019030487164855003
1772809211161265700,3.735265625,-0.0006304709240794182,-0.00026378920301795006,-0.0014805719256401062
1772809211171289600,3.74528955078125,-0.0016864142380654812,0.0016675353981554508,-0.0015679234638810158
1772809211181313800,3.755313720703125,-0.001211205031722784,0.00020964490249752998,0.00013132672756910324
1772809211191337700,3.765337646484375,0.00003222469240427017,-0.0013443094212561846,0.0008810069411993027
1772809211201361700,3.775361572265625,0.0011696964502334595,-0.0023627993650734425,-0.0019760075956583023
1772809211211385600,3.785385498046875,-0.0009254124015569687,0.0005877169314771891,0.000540146604180336
1772809211221409800,3.795409912109375,0.00044155167415738106,0.001009748550131917,-0.0013630008324980736
1772809211231433700,3.805433837890625,0.001286040060222149,0.0018888579215854406,-0.00022609718143939972
1772809211241457700,3.815457763671875,0.00030054477974772453,-0.0029992670752108097,-0.0007542269304394722
1772809211251481900,3.82548193359375,0.0010209297761321068,0.00020025484263896942,-0.001545717939734459
1772809211261505500,3.835505615234375,0.0006477683782577515,0.00029101944528520107,-0.0005470365285873413
1772809211271529700,3.84552978515625,0.00023391330614686012,0.001325391000136733,-0.001609903760254383
1772809211281553700,3.8555537109375,-0.0019305581226944923,0.0029070458840578794,-0.0001052292063832283
1772809211291577900,3.865577880859375,-0.0004080287180840969,-0.0012064727488905191,-0.0004077646881341934
1772809211301601500,3.8756015625,0.0024686302058398724,0.0008471666369587183,-0.0018603652715682983
1772809211311625700,3.885625732421875,0.0012374510988593102,0.000006406567990779877,-0.0005032187327742577
1772809211321649700,3.895649658203125,0.0006794966757297516,0.004038523882627487,-0.0009622583165764809
1772809211331673600,3.905673583984375,0.000009445473551750183,0.0022973488084971905,0.0006912983953952789
1772809211341697800,3.91569775390625,0.001127065159380436,-0.0004563394468277693,-0.0009067310020327568
1772809211351721700,3.9257216796875,-0.0011486061848700047,-0.0010978949721902609,-0.00152511615306139
1772809211361746000,3.935745849609375,0.0007854434661567211,0.002549875760450959,-0.001233227550983429
1772809211371769600,3.94576953125,0.00014548609033226967,0.00025822571478784084,0.0007369788363575935
1772809211381793800,3.955793701171875,0.00023016100749373436,0.00014561554417014122,-0.0003089653328061104
1772809211391817700,3.965817626953125,-0.0002558659762144089,-0.00037290179170668125,0.0006385874003171921
1772809211401841700,3.975841552734375,-0.0021047599148005247,-0.0007431176491081715,0.0008362354710698128
1772809211411865600,3.985865478515625,-0.0021814589854329824,0.0007045767270028591,0.0008855033665895462
1772809211421889800,3.995889892578125,-0.001059223897755146,-0.00013265246525406837,0.0009310515597462654
1772809211431913700,4.005913818359375,0.0011999355629086494,0.000941666541621089,0.0011382456868886948
1772809211441937700,4.015937744140625,-0.0011834558099508286,-0.0023054913617670536,0.0027359025552868843
1772809211451961900,4.0259619140625,-0.0003930297680199146,-0.0012125303037464619,0.00043413229286670685
1772809211461985800,4.03598583984375,-0.0020702837500721216,0.00042058760300278664,0.000761665403842926
1772809211472009700,4.046009765625,-0.00024015968665480614,-0.0013333701062947512,0.0020527662709355354
1772809211482033700,4.05603369140625,0.0050661382265388966,0.0008246402721852064,-0.0014937324449419975
1772809211492059000,4.066058837890625,-0.0004905476234853268,0.0011514101643115282,0.00014038290828466415
1772809211502082800,4.076082763671875,-0.0005911774933338165,0.0011710359249264002,0.00046006496995687485
1772809211512106800,4.086106689453125,0.0018405551090836525,-0.0000984931830316782,0.0013479627668857574
1772809211522130700,4.096130615234375,0.0000642845407128334,0.0000723197590559721,0.00037324707955121994
1772809211532155000,4.10615478515625,0.0015881452709436417,-0.0016709857154637575,0.0015522288158535957
1772809211542178600,4.116178466796875,-0.0009652944281697273,0.00010539381764829159,0.0006514061242341995
1772809211552202800,4.12620263671875,-0.0004976433701813221,-0.0008874328341335058,-0.0012857774272561073
1772809211562226700,4.136226806640625,0.001385838259011507,0.0025548567064106464,0.0010908842086791992
1772809211572250600,4.146250732421875,0.0012843715958297253,-0.0012481370940804482,-0.0018812036141753197
1772809211582274600,4.156274658203125,-0.0017644709441810846,-0.0011203237809240818,-0.0003235647454857826
1772809211592298800,4.166298828125,-0.0007173158228397369,-0.0006886252667754889,-0.001295618712902069
1772809211602323000,4.176322998046875,0.0010367529466748238,-0.0007022623904049397,0.0001960061490535736
1772809211612346600,4.1863466796875,0.0004111761227250099,0.001227197702974081,-0.0003179842606186867
1772809211622370800,4.196370849609375,-0.0012038573622703552,-0.0007885065861046314,-0.00005003809928894043
1772809211632394800,4.206394775390625,0.0005599544383585453,0.0015835710801184177,-0.00033552851527929306
1772809211642418700,4.216418701171875,-0.00124048488214612,0.00019036419689655304,0.000030457042157649994
1772809211652442600,4.226442626953125,-0.001941961469128728,0.0018433881923556328,0.000757499597966671
1772809211662466800,4.236466796875,-0.001339973183348775,-0.00031799101270735264,0.002787953242659569
1772809211672490800,4.24649072265625,-0.0012627416290342808,0.002718278905376792,0.00002172868698835373
1772809211682514700,4.2565146484375,0.0016727917827665806,0.0003299284726381302,-0.0010810242965817451
1772809211692538600,4.26653857421875,-0.0007043457590043545,-0.00039551639929413795,-0.000906587578356266
1772809211702562800,4.276562744140625,0.0015431935898959637,-0.0016101323999464512,0.0030364906415343285
1772809211712586800,4.286586669921875,0.001467293594032526,-0.00038933916948735714,-0.0003712903708219528
1772809211722610700,4.296610595703125,0.0017631687223911285,-0.00007253768853843212,0.0002272389829158783
1772809211732635000,4.306634765625,-0.0028470291290432215,0.0023240409791469574,-0.0005437461659312248
1772809211742658600,4.316658447265625,-0.0023034417536109686,0.0018570879474282265,-0.0018108095973730087
1772809211752682800,4.326682861328125,-0.00011618761345744133,0.0026408564299345016,-0.0006789667531847954
1772809211762706700,4.336706787109375,-0.0011844206601381302,-0.0013776582200080156,0.00031247083097696304
1772809211772731000,4.34673095703125,0.0000179964117705822,0.0006524694617837667,0.0007500285282731056
1772809211782754600,4.356754638671875,-0.0018289103172719479,-0.00020683160983026028,-0.0009307293221354485
1772809211792778800,4.36677880859375,0.00015461212024092674,0.0017929358873516321,0.00041549932211637497
1772809211802802700,4.376802734375,-0.0002647782675921917,-0.001475800760090351,-0.0008173175156116486
1772809211812826600,4.38682666015625,-0.00018701422959566116,0.0022257266100496054,-0.0008668527007102966
1772809211822850800,4.396850830078125,-0.00007903389632701874,-0.0018978542648255825,-0.00154091976583004
1772809211832874800,4.406874755859375,0.000767851248383522,0.002364268759265542,-0.0025113755837082863
1772809211842898700,4.416898681640625,-0.0023230528458952904,0.0006922218017280102,0.00009601935744285583
1772809211852922600,4.426922607421875,-0.00035657454282045364,-0.0007136610802263021,0.0017447825521230698
1772809211862946800,4.43694677734375,-0.00042096711695194244,-0.00029608188197016716,0.0018238862976431847
1772809211872970800,4.446970703125,0.0002597370184957981,-0.00011179107241332531,-0.000978558324277401
1772809211882994700,4.45699462890625,0.0008381209336221218,0.0003829365596175194,-0.0008140429854393005
1772809211893018600,4.4670185546875,-0.003456492442637682,-0.00047113909386098385,0.0010845251381397247
1772809211903042800,4.477042724609375,0.0003886367194354534,0.0022885920479893684,0.0019053807482123375
1772809211913066800,4.487066650390625,-0.0009096544235944748,-0.003207906149327755,-0.0003793453797698021
1772809211923090700,4.497090576171875,0.002922519575804472,-0.0003252688329666853,0.00021489523351192474
1772809211933115000,4.507114990234375,0.0036349152214825153,0.0003477123100310564,0.00007774308323860168
1772809211943139800,4.517139892578125,-0.0009076106362044811,0.0029212897643446922,0.001231553964316845
1772809211953163500,4.52716357421875,0.0016615409404039383,0.000359861645847559,-0.0009016375988721848
1772809211963187700,4.537187744140625,-0.000027607660740613937,-0.0008591115474700928,0.0008158357813954353
1772809211973211600,4.547211669921875,0.00009276764467358589,0.001823490485548973,-0.00023957528173923492
1772809211983235800,4.55723583984375,0.0004793102853000164,0.0016507194377481937,0.0005870722234249115
1772809211993259800,4.567259765625,0.0011280565522611141,0.0004232688806951046,0.0005489885807037354
1772809212003283700,4.57728369140625,-0.0006923126056790352,-0.0009328527376055717,0.0014552120119333267
1772809212013308000,4.587307861328125,0.0012818886898458004,0.00044107227586209774,-0.00039275549352169037
1772809212023331600,4.59733154296875,-0.0010332223027944565,-0.0008305271621793509,-0.0013805646449327469
1772809212033355800,4.607355712890625,0.0014019720256328583,-0.0011397202033549547,0.000767008401453495
1772809212043379500,4.61737939453125,-0.0007412261329591274,0.0013659128453582525,-0.0008790707215666771
1772809212053403600,4.627403564453125,-0.0001667821779847145,0.0003219537902623415,0.0016629165038466454
1772809212063427300,4.63742724609375,0.00003414507955312729,-0.001196370692923665,0.0005416646599769592
1772809212073451500,4.647451416015625,-0.0016108895651996136,0.002214073436334729,0.00034938380122184753
1772809212083475700,4.657475830078125,0.00048327818512916565,0.000012349570170044899,0.0004716087132692337
1772809212093499400,4.66749951171875,-0.001133260317146778,-0.0003256055060774088,-0.0007981862872838974
1772809212103523600,4.677523681640625,0.0002122507430613041,-0.000030069611966609955,-0.00043385662138462067
1772809212113547500,4.687547607421875,0.00028202543035149574,-0.0011001278180629015,-0.001379811204969883
1772809212123571500,4.697571533203125,0.00008414313197135925,0.0025065753143280745,0.0010590702295303345
1772809212133595400,4.707595458984375,0.0013627265579998493,-0.0008721770718693733,-0.0004293704405426979
1772809212143619600,4.71761962890625,0.0007977783679962158,-0.0009698378853499889,0.0006041694432497025
1772809212153643500,4.7276435546875,-0.0007433928549289703,0.00020541506819427013,-0.0005913237109780312
1772809212163667500,4.73766748046875,-0.001213815063238144,-0.0009165548253804445,-0.0014151521027088165
1772809212173691400,4.74769140625,-0.0014721418265253305,-0.000030254945158958435,0.0005491953343153
1772809212183715600,4.757715576171875,0.00037138955667614937,0.002356285462155938,-0.0031144199892878532
1772809212193739500,4.767739501953125,0.0006014867685735226,-0.0010536257177591324,-0.00024006981402635574
1772809212203763500,4.777763427734375,0.000417445320636034,0.0026722289621829987,0.003471171483397484
1772809212213787600,4.78778759765625,0.001469660084694624,0.0007510245777666569,-0.0002916092053055763
1772809212223811600,4.7978115234375,-0.0005163159221410751,0.00020878901705145836,-0.0018808264285326004
1772809212233835500,4.80783544921875,0.0024334010668098927,0.001350219827145338,-0.001794273965060711
1772809212243859500,4.817859375,-0.0001799231395125389,-0.00042191590182483196,0.0005883574485778809
1772809212253883600,4.827883544921875,0.00004591280594468117,0.00010539009235799313,-0.0026319362223148346
1772809212263908600,4.83790869140625,0.000383774284273386,0.00037706876173615456,-0.0005778130143880844
1772809212273932500,4.8479326171875,0.0003036130219697952,0.0012207580730319023,-0.0019509391859173775
1772809212283956500,4.85795654296875,0.00006222818046808243,-0.00032213912345469,0.0005179345607757568
1772809212293980700,4.867980712890625,0.00019511999562382698,-0.0031887656077742577,-0.0005262913182377815
1772809212304004400,4.87800439453125,0.0007481691427528858,0.0012610889971256256,-0.0005834940820932388
1772809212314028500,4.888028564453125,0.0002946327440440655,0.0011132839135825634,-0.0012610023841261864
1772809212324052500,4.898052490234375,0.0005218018777668476,-0.001152019714936614,-0.0019401609897613525
1772809212334076400,4.908076416015625,-0.002321655163541436,0.0011699902825057507,0.00030088890343904495
1772809212344100400,4.918100341796875,-0.0017610767390578985,0.0012941258028149605,0.001481255516409874
1772809212354124500,4.92812451171875,-0.0009333663620054722,0.00009969808161258698,0.00004075095057487488
1772809212364148700,4.938148681640625,-0.0005140407010912895,-0.0007229617331176996,0.00045648030936717987
1772809212374172400,4.94817236328125,-0.000009638257324695587,0.001658703200519085,0.0021403972059488297
1772809212384196600,4.958196533203125,0.0004284195601940155,0.0012114117853343487,0.0014389706775546074
1772809212394220500,4.968220458984375,-0.0002831770107150078,0.00008356291800737381,-0.0011219251900911331
1772809212404244500,4.978244384765625,-0.0009504863992333412,-0.0006775816436856985,-0.001431269571185112
1772809212414268400,4.988268310546875,0.0007251747883856297,0.00006996747106313705,0.0006827469915151596
1772809212424292600,4.998292724609375,0.0011382144875824451,-0.00046157650649547577,0.0018109958618879318
1772809212434316300,5.00831640625,0.0008154390379786491,0.000132841058075428,0.002015526406466961
1772809212444340500,5.018340576171875,-0.001864991383627057,0.00006638653576374054,-0.000492866151034832
1772809212454364400,5.028364501953125,0.0005113473162055016,-0.00072617013938725,0.0009745350107550621
1772809212464388600,5.038388671875,-0.00023341458290815353,-0.0021482345182448626,-0.0004950286820530891
1772809212474412500,5.04841259765625,0.0017477110959589481,-0.00017856061458587646,-0.0004486888647079468
1772809212484436500,5.0584365234375,-0.00018483959138393402,-0.0002381172962486744,0.0005932571366429329
1772809212494460700,5.068460693359375,-0.00034596072509884834,-0.001135336235165596,0.0015192385762929916
1772809212504484400,5.078484375,-0.0010394761338829994,-0.0008120727725327015,-0.0009073689579963684
1772809212514508500,5.088508544921875,-0.0009313519112765789,-0.0002895605284720659,5.029141902923584e-7
1772809212524532500,5.098532470703125,-0.0010020807385444641,-0.0008072103373706341,-0.0005347467958927155
1772809212534556700,5.108556640625,0.00035479990765452385,-0.0011973634827882051,0.0010439753532409668
1772809212544581400,5.118581298828125,-0.0005762842483818531,-0.00335730891674757,0.0013000108301639557
1772809212554605600,5.12860546875,-0.00023353565484285355,0.00017084693536162376,0.00006323866546154022
1772809212564629500,5.13862939453125,0.0006734062917530537,0.0011475593782961369,-0.0004950594156980515
1772809212574653700,5.14865380859375,-0.00008799135684967041,-0.0008215820416808128,-0.0020287735387682915
1772809212584677400,5.158677490234375,-0.00017789006233215332,-0.00020442972891032696,0.0020695291459560394
1772809212594701600,5.16870166015625,0.0027396026998758316,-0.00031654885970056057,0.0003171684220433235
1772809212604725500,5.1787255859375,0.00019649090245366096,0.00014376547187566757,-0.0010675955563783646
1772809212614749400,5.18874951171875,0.0003964942879974842,0.0002782554365694523,0.001678655855357647
1772809212624773400,5.1987734375,-0.000470693688839674,-0.0017513970378786325,0.0019238628447055817
1772809212634797600,5.208797607421875,0.0015823375433683395,0.0002584904432296753,0.002095636911690235
1772809212644821500,5.218821533203125,-0.0019671928603202105,0.002761994954198599,-0.00007361453026533127
1772809212654845400,5.228845458984375,-0.000131209846585989,-0.0019006675574928522,-0.002047283574938774
1772809212664869600,5.23886962890625,0.0005917428061366081,-0.001152348704636097,-0.0010526496917009354
1772809212674893600,5.2488935546875,0.0003448678180575371,-0.001703090500086546,0.00039131566882133484
1772809212684917500,5.25891748046875,-0.0006541521288454533,-0.00029658572748303413,-0.0017404044046998024
1772809212694941400,5.26894140625,-0.0012773321941494942,-0.00006276019848883152,0.000524081289768219
1772809212704965600,5.278965576171875,-0.00005187699571251869,0.001855372916907072,-0.0008193207904696465
1772809212714989300,5.2889892578125,0.0004104473628103733,0.00130170164629817,-0.0007945531979203224
1772809212725013500,5.299013427734375,0.0010765129700303078,0.0018168799579143524,-0.0009447922930121422
1772809212735037400,5.309037353515625,-0.0001706453040242195,0.0006815744563937187,-0.0010292138904333115
1772809212745061400,5.319061279296875,0.0009507290087640285,0.00012474507093429565,0.0008531222119927406
1772809212755085600,5.32908544921875,0.0008841501548886299,-0.0020113764330744743,0.0009703012183308601
1772809212765109500,5.339109619140625,0.001550770364701748,-0.0009143538773059845,-0.0011606626212596893
1772809212775133700,5.3491337890625,-0.00022555794566869736,0.00024065887555480003,-0.0001665046438574791
1772809212785157400,5.359157470703125,-0.0009572198614478111,-0.002598186954855919,0.00005199667066335678
1772809212795181600,5.369181640625,-0.00008663255721330643,0.0008332959841936827,0.0010325722396373749
1772809212805206500,5.37920654296875,-0.0007592327892780304,0.000035497359931468964,0.0014888104051351547
1772809212815230700,5.389230712890625,-0.0002215406857430935,0.0027718953788280487,0.0002371249720454216
1772809212825254400,5.39925439453125,-0.0011186236515641212,-0.000005563721060752869,0.0001335982233285904
1772809212835278600,5.409278564453125,-0.0023010671138763428,-0.0010577784851193428,0.000020680949091911316
1772809212845302500,5.419302490234375,0.001228600274771452,0.0006770151667296886,0.0010218936949968338
1772809212855326500,5.429326416015625,-0.0003269519656896591,-0.000013009877875447273,-0.0008404543623328209
1772809212865350400,5.439350341796875,-0.0002934960648417473,-0.0020388057455420494,0.001460985280573368
1772809212875374600,5.44937451171875,-0.000653022900223732,0.0018555347342044115,0.00012567639350891113
1772809212885398500,5.4593984375,0.0011950181797146797,0.0008068694733083248,0.0016071386635303497
1772809212895422500,5.46942236328125,-0.0007538832724094391,0.0005738427862524986,0.00035705137997865677
1772809212905446700,5.47944677734375,-0.002117759548127651,0.000021748943254351616,-0.0008017299696803093
1772809212915470600,5.489470703125,-0.0009060213342308998,0.0014119187835603952,0.00008377060294151306
1772809212925494500,5.49949462890625,0.00035014841705560684,0.00037052202969789505,-0.0015721647068858147
1772809212935518500,5.5095185546875,0.000009796582162380219,-0.0003386777825653553,0.002209790050983429
1772809212945542700,5.519542724609375,-0.0017203078605234623,0.0003912013489753008,-0.0008077463135123253
1772809212955566300,5.52956640625,-0.000006563495844602585,0.00047615612857043743,0.0017912331968545914
1772809212965590500,5.539590576171875,-0.0008192691020667553,-0.0020475946366786957,-0.0008321609348058701
1772809212975614500,5.549614501953125,-0.0008917069062590599,0.001388948643580079,0.0021127620711922646
1772809212985638700,5.559638671875,-0.00011735642328858376,0.0007536252960562706,-0.0005959141999483109
1772809212995662300,5.569662353515625,0.0006890487857162952,0.0006079506129026413,-0.00017353612929582596
1772809213005686500,5.5796865234375,-0.00017766235396265984,0.0008315364830195904,0.0005636252462863922
1772809213015710700,5.589710693359375,0.001484949141740799,-0.0006009778007864952,-0.0014667687937617302
1772809213025734400,5.599734375,-0.0004244227893650532,-0.0008093933574855328,-0.00020986516028642654
1772809213035758600,5.609758544921875,0.00015081977471709251,-0.0003145781811326742,0.0003115823492407799
1772809213045783000,5.619782958984375,0.0008041895925998688,-0.0018178275786340237,0.00018076598644256592
1772809213055807200,5.62980712890625,-0.001932474784553051,-0.0008870528545230627,-0.0017151376232504845
1772809213065831200,5.6398310546875,0.0007401988841593266,0.00034115579910576344,0.0008321460336446762
1772809213075855000,5.649855224609375,-0.000053422991186380386,0.0010181309189647436,-0.0007780017331242561
1772809213085879000,5.659879150390625,-0.0013073314912617207,0.0011354349553585052,-0.00031012948602437973
1772809213095903200,5.6699033203125,-0.0016679232940077782,-0.0016454379074275494,0.00029360875487327576
1772809213105927000,5.679927001953125,-0.0003214636817574501,-0.0009447017218917608,0.0007069623097777367
1772809213115951000,5.689951171875,0.000178411602973938,-0.00012205145321786404,0.0004771314561367035
1772809213125975000,5.69997509765625,0.0019344561733305454,0.0005729759577661753,-0.0009026480838656425
1772809213135999200,5.709999267578125,0.0009616035968065262,-0.00016285525634884834,-0.0014986637979745865
1772809213146023000,5.72002294921875,0.0005197441205382347,-0.0015927294734865427,0.0001237494871020317
1772809213156047000,5.730047119140625,-0.002452077344059944,-0.00312537862919271,-0.0008586905896663666
1772809213166071300,5.7400712890625,0.0021633226424455643,-0.0017619982827454805,-0.0003422349691390991
1772809213176095000,5.750094970703125,-0.0001629483886063099,0.0013110232539474964,0.000994672067463398
1772809213186119200,5.760119140625,0.0010566147975623608,-0.0007564269471913576,-0.0014081792905926704
1772809213196143000,5.77014306640625,0.00018656020984053612,0.0002318723127245903,-0.00004863552749156952
1772809213206167000,5.7801669921875,0.0031893672421574593,0.00025781081058084965,0.0001650368794798851
1772809213216191000,5.79019091796875,0.0007501780055463314,0.00011506560258567333,0.0027805278077721596
1772809213226215200,5.800215087890625,0.0012794206850230694,-0.0004317134153097868,-0.0009864876046776772
1772809213236239000,5.810239013671875,0.00116330711171031,0.0012130551040172577,-0.00022056233137845993
1772809213246263000,5.820262939453125,0.00014570774510502815,-0.001017874339595437,0.0007876064628362656
1772809213256287000,5.830286865234375,0.00034943968057632446,0.0023017560597509146,0.0014973394572734833
1772809213266312200,5.840312255859375,-0.0007392577826976776,0.0016739380080252886,-0.0015539396554231644
1772809213276336000,5.850336181640625,0.0005814037285745144,-0.0020875106565654278,-0.0010860217735171318
1772809213286360000,5.860360107421875,-0.0002543819136917591,-0.00044378661550581455,-0.0016030129045248032
1772809213296384000,5.870384033203125,0.0003637378104031086,-0.001147660193964839,-0.0010192478075623512
1772809213306408200,5.880408203125,0.0005837022326886654,0.000552658224478364,-0.0006098886951804161
1772809213316432000,5.890431884765625,0.000008192844688892365,-0.0007110119331628084,-0.0012162905186414719
1772809213326456000,5.9004560546875,0.0007294202223420143,-0.001704434398561716,-0.0005226898938417435
1772809213336480300,5.910480224609375,0.00015763938426971436,-0.00037551717832684517,-0.00017141923308372498
1772809213346504200,5.920504150390625,-0.0007401108741760254,0.0005366271361708641,-0.0006861379370093346
1772809213356528000,5.930528076171875,-0.00037126336246728897,0.0015188013203442097,-0.0002160901203751564
1772809213366552000,5.940552001953125,-0.0019935653544962406,-0.0022205919958651066,0.00003575999289751053
1772809213376576300,5.950576171875,-0.0011890241876244545,-0.0031782647129148245,-0.0003067227080464363
1772809213386600000,5.960599853515625,-0.0009510540403425694,0.0012878701090812683,-0.0011601978912949562
1772809213396624100,5.9706240234375,-0.0018834264483302832,-0.000623214291408658,0.002228940837085247
1772809213406648000,5.98064794921875,-0.00003432435914874077,0.0023012112360447645,0.00037757959216833115
1772809213416672000,5.990672119140625,0.00036621512845158577,-0.000801105285063386,-0.0013388274237513542
1772809213426696000,6.000696044921875,-0.002468590857461095,-0.0003779139369726181,0.0011813966557383537
1772809213436720000,6.01072021484375,0.00031973887234926224,-0.0007089448627084494,0.0003113420680165291
1772809213446744300,6.020744384765625,0.00006338907405734062,-0.0010221507400274277,-0.00020836573094129562
1772809213456768000,6.03076806640625,-0.0001283586025238037,0.001561914337798953,-0.00023393239825963974
1772809213466792200,6.040792236328125,0.0011445977725088596,-0.0013171341270208359,-0.0005983775481581688
1772809213476816100,6.050816162109375,0.0005051726475358009,-0.0014087469317018986,-0.0005421852692961693
1772809213486841000,6.060841064453125,-0.0015410494524985552,0.001526333624497056,0.000709175132215023
1772809213496865000,6.070864990234375,0.0005689729005098343,-0.0012678548227995634,-0.0017864732071757317
1772809213506889200,6.08088916015625,0.0005760383792221546,-0.0006571381818503141,-0.002039884217083454
1772809213516913200,6.0909130859375,-0.001842378405854106,0.0005785685498267412,0.0003164801746606827
1772809213526937000,6.10093701171875,-0.0022947348188608885,-0.0000970794353634119,0.000026728957891464233
1772809213536961000,6.1109609375,-0.00012106262147426605,0.0013040099292993546,-0.0005003102123737335
1772809213546985200,6.120985107421875,-0.0009456961415708065,-0.00006984500214457512,0.0020144395530223846
1772809213557009000,6.1310087890625,-0.0017590257339179516,-0.001176388468593359,-0.0018804334104061127
1772809213567033000,6.141033203125,-0.0012078210711479187,0.000465101795271039,0.000031927600502967834
1772809213577057000,6.15105712890625,0.0003064521588385105,0.00018839933909475803,0.00002260599285364151
1772809213587081200,6.161081298828125,-0.0017924136482179165,-0.0016531706787645817,-0.0028403978794813156
1772809213597105200,6.171105224609375,-0.0033018933609128,-0.0009429056663066149,0.0021895142272114754
1772809213607129000,6.181129150390625,-0.0007189474999904633,-0.0012878403067588806,0.002025916241109371
1772809213617153300,6.1911533203125,-0.0015210914425551891,-0.0009216556791216135,0.0005553187802433968
1772809213627177000,6.201177001953125,-0.0025748296175152063,-0.001422446221113205,-0.0009148223325610161
1772809213637201200,6.211201171875,-0.0021255542524158955,0.0011246013455092907,0.0022197188809514046
1772809213647225000,6.22122509765625,-0.00004060612991452217,-0.001377173000946641,0.0016185203567147255
1772809213657249300,6.231249267578125,-0.0012946887873113155,0.0016332641243934631,0.000006509013473987579
1772809213667273000,6.24127294921875,0.0011694114655256271,-0.0009255723562091589,-0.002162223681807518
1772809213677297200,6.251297119140625,-0.00017335405573248863,0.0013285272289067507,0.0018138764426112175
1772809213687321000,6.261321044921875,0.001403698232024908,0.00022739614360034466,-0.004060469567775726
1772809213697346300,6.27134619140625,-0.000715112779289484,-0.0019356231205165386,-0.0015845289453864098
1772809213707370000,6.281369873046875,0.0011782031506299973,-0.0016163471154868603,0.0004842206835746765
1772809213717394200,6.291394287109375,-0.0007709646597504616,-0.0009303167462348938,-0.0017238063737750053
1772809213727418000,6.301418212890625,-0.00014513125643134117,0.0018132284749299288,-0.0011618100106716156
1772809213737442000,6.311442138671875,0.0005486221052706242,0.00003743288107216358,-0.00021851807832717896
1772809213747466000,6.321466064453125,-0.00017828168347477913,-0.00002439483068883419,-0.0006553428247570992
1772809213757490200,6.331490234375,-0.0011894842609763145,0.001240873010829091,0.0008690506219863892
1772809213767514000,6.34151416015625,-0.00026668887585401535,-0.0005555867683142424,0.0013886569067835808
1772809213777538000,6.3515380859375,-0.0003793402574956417,-0.0004876761231571436,0.0009516319260001183
1772809213787562200,6.361562255859375,-0.00023268070071935654,-0.000476388493552804,0.001650465652346611
1772809213797586200,6.371586181640625,-0.0017285782378166914,0.0016650594770908356,0.00011488702148199081
1772809213807610000,6.381610107421875,0.0010166028514504433,0.0005295164883136749,-0.0014606351032853127
1772809213817634000,6.391634033203125,-0.00014666561037302017,0.0016134227626025677,0.00007867254316806793
1772809213827658200,6.401658203125,-0.0034850393421947956,-0.0015607362147420645,-0.0006987052038311958
1772809213837682000,6.411681884765625,0.002450880128890276,-0.0004778951406478882,0.00017907284200191498
1772809213847706000,6.4217060546875,-0.0002514515072107315,-0.0014519141986966133,0.0019742781296372414
1772809213857730000,6.43172998046875,-0.0005739601328969002,-0.002010911703109741,0.0011119470000267029
1772809213867754000,6.44175390625,-0.0022718270774930716,0.0005157298874109983,-0.0008773030713200569
1772809213877778200,6.451778076171875,-0.0002891034819185734,0.00036819069646298885,0.0010020891204476357
1772809213887802000,6.461802001953125,-0.00011033611372113228,0.0003606085665524006,0.0003019208088517189
1772809213897827000,6.4718271484375,0.0008864854462444782,-0.0006199674680829048,0.00208437442779541
1772809213907851000,6.48185107421875,-0.0007917988114058971,0.0007314779795706272,-0.0000271722674369812
1772809213917875000,6.491875,0.00013977522030472755,-0.0009612273424863815,0.00023088790476322174
1772809213927899100,6.501899169921875,-0.00032425532117486,-0.0014856418129056692,-0.00028843339532613754
1772809213937923000,6.511923095703125,-0.0013112225569784641,-0.00043688900768756866,0.00035392120480537415
1772809213947947000,6.521947021484375,0.0016762027516961098,-0.0022705981973558664,-0.0005836086347699165
1772809213957971200,6.53197119140625,-0.00023248465731739998,0.001353963976725936,0.0009754057973623276
1772809213967995100,6.5419951171875,0.001009203027933836,-0.0018204483203589916,0.00019346456974744797
1772809213978019000,6.55201904296875,0.0005948152393102646,0.003324246034026146,-0.0013932473957538605
1772809213988043000,6.56204296875,-0.0009983032941818237,0.0018008742481470108,0.0007931236177682877
1772809213998067200,6.572067138671875,-0.0011935126967728138,0.0002767471596598625,0.000071672722697258
1772809214008091100,6.582091064453125,-0.0005898135714232922,-0.00012968224473297596,0.0013562478125095367
1772809214018115000,6.592114990234375,-0.00010085711255669594,-0.0012711130548268557,-0.0003343271091580391
1772809214028139000,6.602138916015625,0.0004158029332756996,0.00021687429398298264,-0.0004553524777293205
1772809214038163200,6.6121630859375,-0.0007597161456942558,0.0018113087862730026,0.0009385459125041962
1772809214048187400,6.6221875,-0.00029427744448184967,-0.00232014711946249,0.00016643013805150986
1772809214058211300,6.63221142578125,0.00018961867317557335,0.0007621955592185259,-0.00021040719002485275
1772809214068235500,6.642235595703125,-0.0015712701715528965,0.00026291003450751305,0.00010275095701217651
1772809214078259500,6.652259521484375,-0.0013257265090942383,0.0008951444178819656,0.00011872965842485428
1772809214088283400,6.662283447265625,0.0011743404902517796,0.0006432915106415749,-0.0008775480091571808
1772809214098308400,6.672308349609375,0.0010768687352538109,0.001675532665103674,-0.0006703538820147514
1772809214108332300,6.682332275390625,-0.00011914875358343124,0.0013167515862733126,-0.0003213789314031601
1772809214118356500,6.6923564453125,0.002440681681036949,-0.0024699969217181206,0.0020943740382790565
1772809214128380400,6.70238037109375,-0.0012685973197221756,-0.0005117910914123058,0.0010660924017429352
1772809214138404400,6.712404296875,0.0018299906514585018,-0.0005868922453373671,0.0023553287610411644
1772809214148428500,6.722428466796875,0.0013100625947117805,0.0006609139963984489,-0.0011061150580644608
1772809214158452200,6.7324521484375,0.00008181249722838402,-0.0010139478836208582,-0.0006552422419190407
1772809214168476400,6.742476318359375,0.0013959463685750961,-0.0005439270753413439,0.0022394508123397827
1772809214178500400,6.752500244140625,0.0007778266444802284,0.0008214754052460194,-0.0017739329487085342
1772809214188524500,6.762524658203125,-0.0012555061839520931,0.000576504273340106,-0.0003105597570538521
1772809214198548200,6.77254833984375,-0.002362582366913557,0.0012753175105899572,-0.0011859405785799026
1772809214208572400,6.782572509765625,-0.0004973742179572582,0.001578344264999032,-0.0002160053700208664
1772809214218596400,6.792596435546875,-0.0009351978078484535,0.00013757380656898022,0.0006974590942263603
1772809214228620300,6.802620361328125,-0.001063643954694271,0.004020382650196552,-0.00046576280146837234
1772809214238644500,6.81264453125,0.0006138808093965054,-0.0002324199303984642,-0.0016902843490242958
1772809214248668400,6.82266845703125,0.0007196627557277679,0.0006576967425644398,-0.0007259994745254517
1772809214258692600,6.832692626953125,0.0003119329921901226,0.00039590802043676376,-0.00043065473437309265
1772809214268716300,6.84271630859375,0.0002016671933233738,-0.0008368229027837515,-0.0012516621500253677
1772809214278740500,6.852740478515625,0.0004994086921215057,0.0007938304916024208,0.0013603661209344864
1772809214288765400,6.862765380859375,0.0000671902671456337,-0.0013940935023128986,-0.00023136846721172333
1772809214298789400,6.872789306640625,0.0014632190577685833,-0.0010928900446742773,0.0006232401356101036
1772809214308813300,6.882813232421875,-0.00046105217188596725,0.0006555686704814434,0.0009451201185584068
1772809214318837500,6.89283740234375,-0.00009193830192089081,-0.0007684235461056232,0.0013089077547192574
1772809214328861400,6.902861328125,-0.0006015310063958168,0.0020758130121976137,-0.0015395153313875198
1772809214338885400,6.912885498046875,-0.0011011403985321522,0.000041690655052661896,0.0012360308319330215
1772809214348909300,6.922909423828125,-0.0011996668763458729,-0.001136865234002471,0.0005258936434984207
1772809214358933500,6.93293359375,0.00044829724356532097,-0.0010593673214316368,-0.0012626862153410912
1772809214368957200,6.942957275390625,-0.001238871831446886,0.0013685214798897505,-0.0007083462551236153
1772809214378981400,6.9529814453125,0.0003646174445748329,-0.0009665379766374826,0.0011486755684018135
1772809214389005300,6.96300537109375,-0.0016496928874403238,0.00014424696564674377,0.001525605097413063
1772809214399029500,6.973029541015625,0.0005924226716160774,0.0026183235459029675,-0.00007841642946004868
1772809214409053400,6.983053466796875,0.00040566688403487206,0.0027553942054510117,-0.0004993900656700134
1772809214419077400,6.993077392578125,-0.0012324433773756027,-0.00124866864643991,-0.0007667718455195427
1772809214429101600,7.0031015625,0.0004480411298573017,-0.00003844010643661022,0.0010419217869639397
1772809214439125200,7.013125244140625,-0.00004171393811702728,0.0034268652088940144,0.00008904282003641129
1772809214449149400,7.0231494140625,0.0005215439014136791,-0.0010563619434833527,0.0020609935745596886
1772809214459173400,7.03317333984375,-0.0008510495536029339,0.0014645864721387625,-0.0016045812517404556
1772809214469197300,7.043197265625,0.0016960580833256245,-0.00219882745295763,-0.00010133255273103714
1772809214479222300,7.05322216796875,-0.0006773509085178375,0.0015258695930242538,0.0014259908348321915
1772809214489246500,7.06324658203125,0.0007658777758479118,0.0021336169447749853,-0.00019579194486141205
1772809214499270400,7.0732705078125,0.0002452298067510128,-0.0002640271559357643,-0.0006796875968575478
1772809214509294300,7.08329443359375,0.0014348882250487804,0.0011931166518479586,0.00198430847376585
1772809214519318300,7.093318359375,0.0004894658923149109,0.0018378680106252432,0.0005424730479717255
1772809214529342500,7.103342529296875,-0.0005234377458691597,-0.00022286828607320786,-0.0011318977922201157
1772809214539366400,7.113366455078125,0.0003266432322561741,0.001283149467781186,0.0012878505513072014
1772809214549390300,7.123390380859375,-0.001579964766278863,0.002853426616638899,-0.0017719939351081848
1772809214559414300,7.133414306640625,-0.0028015566058456898,-0.0010337235871702433,0.0015684086829423904
1772809214569438500,7.1434384765625,0.0001538326032459736,0.0011579347774386406,0.002119818702340126
1772809214579462400,7.15346240234375,-0.0024265041574835777,0.0006687124259769917,-0.0008498718962073326
1772809214589486300,7.163486328125,0.0019767754711210728,0.00047724763862788677,0.0018508769571781158
1772809214599510500,7.173510498046875,0.0007013878785073757,-0.002065804786980152,0.0008175699040293694
1772809214609534500,7.183534423828125,-0.00008556805551052094,-0.00013626273721456528,0.002184866927564144
1772809214619558400,7.193558349609375,0.0017040763050317764,-0.00015091011300683022,-0.0007672477513551712
1772809214629582300,7.203582275390625,0.0029286639764904976,-0.001159754814580083,-0.00026374589651823044
1772809214639606500,7.2136064453125,0.0008852207101881504,-0.0016130248550325632,0.0009165666997432709
1772809214649631500,7.223631591796875,0.0011295084841549397,0.002513790735974908,0.0002470659092068672
1772809214659655400,7.233655517578125,-0.00007477309554815292,-0.00039198435842990875,-0.0014206059277057648
1772809214669679400,7.243679443359375,0.0014154487289488316,-0.001271997345611453,-0.0011042477563023567
1772809214679703600,7.25370361328125,0.0010372796095907688,0.0003362854477018118,0.0008933888748288155
1772809214689727200,7.263727294921875,0.0004685516469180584,-0.0009165077935904264,0.0018385285511612892
1772809214699751400,7.27375146484375,0.0006456519477069378,-0.0005418008659034967,-0.0015066685155034065
1772809214709775400,7.283775390625,0.0009706621058285236,0.0008491929620504379,-0.001907997764647007
1772809214719799300,7.29379931640625,0.0017549628391861916,0.0015061949379742146,-0.00008293334394693375
1772809214729823200,7.3038232421875,0.00012849550694227219,0.0016263024881482124,0.0010970495641231537
1772809214739847400,7.313847412109375,0.0015791193582117558,0.0002840692177414894,-0.0009378716349601746
1772809214749871600,7.32387158203125,-0.00021427078172564507,0.000814937986433506,-0.0004439493641257286
1772809214759895300,7.333895263671875,0.0010198378004133701,0.0002844361588358879,-0.00117552001029253
1772809214769919500,7.34391943359375,0.0017214631661772728,0.0007235030643641949,0.00011211168020963669
1772809214779943400,7.353943359375,0.0004487386904656887,-0.0004131339956074953,-0.00047271884977817535
1772809214789967400,7.36396728515625,-0.000652817077934742,0.002711427630856633,0.0018763765692710876
1772809214799991300,7.3739912109375,0.0005756993778049946,0.001440034480765462,0.0018457500264048576
1772809214810015500,7.384015380859375,-0.0020411887671798468,-0.0005305102095007896,0.0001808907836675644
1772809214820040400,7.39404052734375,0.0017434293404221535,-0.0007140019442886114,0.0006235083565115929
1772809214830064400,7.404064453125,-0.0006687873974442482,-0.000850694952532649,0.0011023497208952904
1772809214840088300,7.41408837890625,-0.00018568988889455795,0.000518969027325511,0.00009114760905504227
1772809214850112500,7.424112548828125,0.0005629840306937695,0.00037356186658143997,-0.001804993487894535
1772809214860136200,7.43413623046875,-0.0016453091520816088,0.002208479680120945,0.001994539052248001
1772809214870160400,7.444160400390625,-0.0012714341282844543,0.0007723437156528234,-0.0006345855072140694
1772809214880184300,7.454184326171875,0.000748839695006609,0.0028935514856129885,-0.00008890405297279358
1772809214890208500,7.46420849609375,0.0005591525696218014,0.0000933248084038496,-0.00044294167309999466
1772809214900232200,7.474232177734375,0.0009551648981869221,-0.0007671425119042397,-0.0013276441022753716
1772809214910256400,7.48425634765625,-0.002754294779151678,-0.00036443001590669155,0.0002788715064525604
1772809214920280600,7.494280517578125,-0.0009228386916220188,0.0009711449965834618,-0.0007688160985708237
1772809214930304300,7.50430419921875,-0.0003695567138493061,-0.0004981821402907372,0.0005314545705914497
1772809214940328400,7.514328369140625,0.0008682808838784695,0.0009180866181850433,-0.0004483219236135483
1772809214950352400,7.524352294921875,0.002574341371655464,0.0013547558337450027,-0.0016082050278782845
1772809214960376600,7.53437646484375,0.0008962834253907204,0.0012285220436751842,0.0015329932793974876
1772809214970400300,7.544400146484375,-0.0004266216419637203,0.0009183371439576149,-0.0006033778190612793
1772809214980425500,7.554425537109375,0.001060753595083952,0.0000773109495639801,0.0008509745821356773
1772809214990449400,7.564449462890625,0.0022834097035229206,-0.0010779798030853271,0.0014413297176361084
1772809215000473600,7.5744736328125,0.0017550387419760227,0.0003084619529545307,0.00027992483228445053
1772809215010497300,7.584497314453125,0.0017415126785635948,0.0016662683337926865,0.0009997105225920677
1772809215020521500,7.594521484375,-0.000995418056845665,-0.0030890719499439,-0.0004056403413414955
1772809215030545400,7.60454541015625,-0.0011533312499523163,0.00020586815662682056,0.0005619488656520844
1772809215040569300,7.6145693359375,-0.0009386804886162281,0.0011398384813219309,0.0010229423642158508
1772809215050593000,7.624593017578125,-0.0017930674366652966,-0.0003078070003539324,0.0009387927129864693
1772809215060617000,7.634616943359375,-0.000020467210561037064,0.0006171087734401226,-0.0002766735851764679
1772809215070641000,7.644640869140625,0.0023217881098389626,-0.00016579474322497845,0.001999547705054283
1772809215080664800,7.654664794921875,-0.0012782728299498558,-0.0006102763582020998,0.001222703605890274
1772809215090689000,7.66468896484375,-0.0020927097648382187,0.0002476575318723917,0.00016617123037576675
1772809215100712700,7.674712646484375,0.0016005621291697025,0.00017495336942374706,-0.0010098805651068687
1772809215110737000,7.68473681640625,-0.0013041435740888119,0.0009678301867097616,-0.0016996124759316444
1772809215120760800,7.6947607421875,-0.0034455915447324514,-0.000750974053516984,0.0004439661279320717
1772809215130785000,7.704784912109375,0.0003685448318719864,-0.0015073835384100676,0.0012545222416520119
1772809215140809700,7.714809814453125,0.0002793287858366966,-0.0008375984616577625,0.00041136518120765686
1772809215150834000,7.724833984375,0.00010846275836229324,0.002532476093620062,0.0007979515939950943
1772809215160857900,7.73485791015625,0.0013838508166372776,-0.003503045765683055,-0.00017676595598459244
1772809215170882000,7.744882080078125,-0.0005237683653831482,0.0005868552252650261,-0.001258809119462967
1772809215180905700,7.75490576171875,0.002077341079711914,-0.0025218527298420668,-0.0017355149611830711
1772809215190930000,7.764929931640625,-0.0004603802226483822,-0.0005804237443953753,-0.0005215499550104141
1772809215200953900,7.774953857421875,0.0012722723186016083,0.0016326629556715488,0.0017258916050195694
1772809215210977800,7.784977783203125,0.00021435925737023354,0.002349275629967451,0.000921846367418766
1772809215221002000,7.795001953125,0.0006423294544219971,-0.00021348404698073864,0.0001354152336716652
1772809215231026000,7.80502587890625,-0.001568762818351388,0.001596694579347968,0.000535840168595314
1772809215241050000,7.815050048828125,-0.0012891311198472977,-0.000802014721557498,-0.001864466816186905
1772809215251073800,7.82507373046875,0.0000945795327425003,0.0020658967550843954,-0.001185229979455471
1772809215261098000,7.835097900390625,-0.0007682843133807182,0.0018610998522490263,0.00002437736839056015
1772809215271122000,7.845121826171875,-0.0014536643866449594,-0.0017864990513771772,0.000592818483710289
1772809215281145900,7.855145751953125,-0.0003489851951599121,-0.001559331314638257,0.002291915938258171
1772809215291170800,7.8651708984375,0.0003720046952366829,-0.0029126170556992292,0.001606169156730175
1772809215301195000,7.875195068359375,-0.0016312252264469862,0.0005287197418510914,-0.0001951931044459343
1772809215311219000,7.885218994140625,-0.0005972981452941895,0.0028369466308504343,0.000031803734600543976
1772809215321243000,7.895242919921875,-0.0010825260542333126,-0.0017636644188314676,0.0022326400503516197
1772809215331266800,7.905266845703125,-0.0012518432922661304,0.0006545854266732931,0.0009764237329363823
1772809215341291000,7.915291015625,-0.0012859315611422062,-0.001738797640427947,0.00041502900421619415
1772809215351314700,7.925314697265625,-0.002763870870694518,-0.0010288676712661982,-0.0008494136855006218
1772809215361339000,7.9353388671875,-0.0009374748915433884,-0.0011018384248018265,0.0013588797301054
1772809215371362800,7.94536279296875,0.0011790022253990173,0.0027167974039912224,-0.001550319604575634
1772809215381387000,7.955386962890625,0.002399795688688755,-0.0021509286016225815,-0.00018624868243932724
1772809215391411000,7.965410888671875,-0.0011805365793406963,-0.000003211433067917824,0.00048165488988161087
1772809215401435000,7.975434814453125,-0.003281770972535014,-0.00045248656533658504,-0.0017609931528568268
1772809215411459000,7.985458984375,-0.000048778485506772995,0.0029617485124617815,-0.0010928157716989517
1772809215421482800,7.995482666015625,-0.001394207589328289,-0.00019196677021682262,0.00007684435695409775
1772809215431507000,8.0055068359375,-0.00016566738486289978,0.0018025301396846771,-0.001134662888944149
1772809215441532000,8.015531982421875,0.0016330312937498093,0.0013966644182801247,-0.0019117733463644981
1772809215451555800,8.025555908203126,-0.0014314062427729368,0.00085240020416677,-0.000832756981253624
1772809215461579800,8.035579833984375,0.0003816741518676281,-0.0019875946454703808,-0.0008471384644508362
1772809215471604000,8.04560400390625,0.0003161029890179634,0.0019984703976660967,-0.002658179961144924
1772809215481628000,8.0556279296875,0.0010284986346960068,0.0000796630047261715,-0.0003673285245895386
1772809215491651800,8.06565185546875,-0.0004928945563733578,0.00025489041581749916,-0.0005480917170643806
1772809215501675800,8.07567578125,-0.00034482264891266823,-0.0008535173255950212,-0.0015518367290496826
1772809215511700000,8.085699951171875,-0.0006905584596097469,0.002168081235140562,0.0002912934869527817
1772809215521724000,8.095723876953125,-0.0005725803785026073,0.001911618746817112,-0.0008954107761383057
1772809215531747800,8.105747802734374,-0.00016862060874700546,0.0012934079859405756,-0.0014625182375311852
1772809215541771800,8.115771728515625,0.0003698701038956642,-0.0026009324938058853,-0.0012470679357647896
1772809215551796000,8.1257958984375,0.0005510938353836536,-0.0007366063073277473,-0.001335623674094677
1772809215561820000,8.13581982421875,0.0009415131062269211,0.0025811598170548677,0.001546715386211872
1772809215571843800,8.14584375,0.0003742747940123081,-0.00023249746300280094,-0.0001788027584552765
1772809215581868000,8.155867919921874,-0.0007639601826667786,-0.0009542140178382397,0.0008845971897244453
1772809215591893000,8.16589306640625,0.0012418599799275398,-0.001284959726035595,0.00031852535903453827
1772809215601916700,8.175916748046875,-0.00017201248556375504,0.0019766134209930897,-0.002999506890773773
1772809215611940900,8.18594091796875,0.0002474868670105934,0.0017614448443055153,-0.001162700355052948
1772809215621965000,8.195965087890626,-0.001988236792385578,0.0007180185057222843,0.0008477196097373962
1772809215631989000,8.205989013671875,-0.001551344757899642,0.00005145929753780365,0.0010215993970632553
1772809215642013000,8.216012939453124,0.00210837135091424,0.001760942628607154,0.0009203990921378136
1772809215652036900,8.226036865234375,-0.0022637341171503067,-0.000678021926432848,-0.0008137719705700874
1772809215662061000,8.23606103515625,0.0011104908771812916,0.0002839118242263794,0.0006459066644310951
1772809215672084700,8.246084716796876,-0.0002589891664683819,0.00007194001227617264,0.000553651712834835
1772809215682109000,8.25610888671875,0.0009700595401227474,0.0013870089314877987,0.0015206458047032356
1772809215692132900,8.2661328125,0.0013714744709432125,0.00008861720561981201,0.0003823107108473778
1772809215702156800,8.27615673828125,0.0009557553566992283,0.00043536070734262466,0.0011013643816113472
1772809215712180700,8.2861806640625,-0.0005709580145776272,0.0001959728542715311,0.0004738392308354378
1772809215722205000,8.296204833984374,-0.0011973334476351738,0.000739790266379714,-0.00003668852150440216
1772809215732229000,8.30622900390625,0.001352232415229082,-0.0010298737324774265,0.0009061656892299652
1772809215742253800,8.31625390625,-0.0019620715174824,0.0013920047786086798,0.0008427826687693596
1772809215752277800,8.32627783203125,0.0002777879126369953,0.0005547003820538521,-0.003328719176352024
1772809215762302000,8.336302001953126,-0.00045990757644176483,-0.0016725012101233006,-0.0027020778506994247
1772809215772326000,8.346325927734375,0.0007265787571668625,-0.0004967928398400545,0.0010863849893212318
1772809215782349800,8.356349853515624,-0.00031019002199172974,-0.001170572591945529,0.0010536275804042816
1772809215792374000,8.3663740234375,-0.0004958836361765862,-0.0005941751878708601,-0.001836724579334259
1772809215802398000,8.37639794921875,-0.0011462275870144367,-0.0005057582166045904,0.0014051413163542747
1772809215812422000,8.386421875,-0.0006453404203057289,0.0014149947091937065,-0.00027718953788280487
1772809215822445800,8.39644580078125,-0.001380372792482376,0.002571072895079851,0.0002613021060824394
1772809215832470000,8.406469970703125,-0.0015946913044899702,-0.001642822753638029,-0.0004616212099790573
1772809215842493700,8.41649365234375,-0.0001033213920891285,-0.000056111253798007965,0.0018278984352946281
1772809215852518000,8.426517822265625,0.0013739867135882378,-0.00029240897856652737,-0.0008242800831794739
1772809215862541800,8.436541748046874,-0.0024686886463314295,-0.0008721791673451662,0.000009289011359214783
1772809215872566000,8.44656591796875,-0.0030972312670201063,0.0018607315141707659,-0.00007984507828950882
1772809215882590700,8.4565908203125,-0.0011014584451913834,-0.0006575537845492363,0.0018850350752472878
1772809215892615000,8.466614990234374,0.00176155474036932,-0.0013729201164096594,0.0016911616548895836
1772809215902638800,8.476638916015625,0.0010667364113032818,0.0014574872329831123,0.0007454734295606613
1772809215912663000,8.4866630859375,-0.0010731001384556293,-0.002140019554644823,-0.0009352676570415497
1772809215922686700,8.496686767578124,0.0006475686095654964,0.00032926350831985474,-0.000858568586409092
1772809215932711000,8.5067109375,0.0003543803468346596,0.0009951954707503319,0.0026782136410474777
1772809215942734800,8.51673486328125,0.0017930199392139912,0.0002713482826948166,-0.0011700540781021118
1772809215952758800,8.5267587890625,-0.0008829250000417233,0.0015147337689995766,-0.0000779125839471817
1772809215962783000,8.536782958984375,-0.00016094185411930084,0.0020026247948408127,-0.0008912421762943268
1772809215972807000,8.546806884765624,0.00015596812590956688,0.0020217611454427242,-0.0011732513085007668
1772809215982831000,8.5568310546875,-0.00072846794500947,-0.0018302352400496602,0.0011586127802729607
1772809215992854800,8.566854736328125,0.00009414087980985641,0.0002282045315951109,-0.0008862335234880447
1772809216002879000,8.57687890625,-0.0003407532349228859,-0.0020131119526922703,0.0010959571227431297
1772809216012903000,8.58690283203125,-0.0012831236235797405,-0.0019085328094661236,0.0008725235238671303
1772809216022928000,8.596927978515625,-0.0020740823820233345,-0.0008539210539311171,0.0009103408083319664
1772809216032951800,8.606951904296874,-0.00003370782360434532,0.0028526356909424067,0.0012915553525090218
1772809216042980000,8.61697998046875,-0.00040894700214266777,0.00043661636300385,0.0010132547467947006
1772809216053004000,8.627004150390626,-0.0020977118983864784,-0.000100322300568223,0.0005609570071101189
1772809216063028200,8.6370283203125,-0.000011391472071409225,0.00009488733485341072,-0.0017346879467368126
1772809216073052200,8.64705224609375,-0.0009838291443884373,0.0003342078998684883,0.0029350295662879944
1772809216083076400,8.657076416015625,-0.001051473431289196,-0.0009763336274772882,-0.0019318973645567894
1772809216093100000,8.66710009765625,-0.003056574147194624,-0.0005594461690634489,-0.0005843313410878181
1772809216103124200,8.677124267578124,0.0011956952512264252,-0.00038847140967845917,0.00025376491248607635
1772809216113148200,8.687148193359375,-0.0005524582229554653,0.00027188914828002453,-0.0006816554814577103
1772809216123172000,8.697172119140625,0.001483528409153223,-0.00044556637294590473,0.0000022444874048233032
1772809216133196000,8.707196044921876,-0.002096939831972122,0.0016609816811978817,0.0007901955395936966
1772809216143220200,8.71722021484375,-0.002319047460332513,-0.0002506354358047247,-0.0006953161209821701
1772809216153245200,8.7272451171875,0.00017339875921607018,-0.0010605452116578817,0.001804932951927185
1772809216163269000,8.73726904296875,-0.00003965431824326515,0.0026335252914577723,-0.001318155787885189
1772809216173293000,8.74729296875,-0.001522639999166131,-0.0016383891925215721,0.0018773656338453293
1772809216183317200,8.757317138671874,0.0003974991850554943,-0.00004235678352415562,-0.001369561068713665
1772809216193341200,8.767341064453126,0.0019164839759469032,0.0004537601489573717,0.000249483622610569
1772809216203365000,8.777365234375,-0.0013048755936324596,-0.0029215302783995867,0.0007680011913180351
1772809216213389000,8.78738916015625,-0.00027269497513771057,-0.00042699510231614113,-0.0014602504670619965
1772809216223413200,8.797413330078125,-0.0006367489695549011,0.00047794682905077934,-0.0008317446336150169
1772809216233437200,8.807437255859375,0.0001291395165026188,0.0005714744329452515,0.0002027684822678566
1772809216243461000,8.817461181640626,-0.0003235982730984688,0.000752836000174284,0.0004328656941652298
1772809216253485300,8.8274853515625,-0.0008869939483702183,-0.0001325190532952547,0.0000523887574672699
1772809216263509000,8.837509033203125,-0.002233488019555807,0.0019801666494458914,-0.0010957000777125359
1772809216273533200,8.847533203125,0.002076814416795969,0.00013238051906228065,-0.00003723055124282837
1772809216283557000,8.85755712890625,-0.0010846243239939213,-0.0002945240121334791,-0.00008703209459781647
1772809216293582000,8.86758203125,-0.0014944826252758503,-0.0016612284816801548,0.0005877576768398285
1772809216303606000,8.87760595703125,-0.002302485750988126,0.0007577207870781422,0.0008199857547879219
1772809216313630200,8.887630126953125,0.0018609226681292057,-0.0005722299683839083,0.002963157370686531
1772809216323654100,8.897654052734374,-0.000902106985449791,0.0008325872477144003,0.001073111779987812
1772809216333678300,8.90767822265625,-0.0006562969647347927,-0.001260414719581604,-0.0008186278864741325
1772809216343702000,8.917701904296875,0.0002947179600596428,-0.00012883753515779972,0.0009915223345160484
1772809216353726200,8.927726318359374,0.000640129204839468,-0.0008574582170695066,-0.001303480938076973
1772809216363750100,8.937750244140625,0.00009577907621860504,0.0013052946887910366,-0.00025073345750570297
1772809216373774000,8.947774169921875,0.0011838567443192005,-0.00008291471749544144,-0.0004601944237947464
1772809216383798000,8.957798095703126,-0.002059873193502426,0.000216424698010087,0.0014415690675377846
1772809216393822200,8.967822265625,0.002050915267318487,0.001842327183112502,0.0014226529747247696
1772809216403846100,8.97784619140625,-0.0002865409478545189,-0.0007534557953476906,0.0012703202664852142
1772809216413870000,8.9878701171875,0.0010951482690870762,-0.00008170166984200478,0.002688022330403328
1772809216423894300,8.997894287109375,0.0002764924429357052,0.0029630903154611588,-0.0017080577090382576
1772809216433919200,9.007919189453125,0.00059868348762393,-0.0008243368938565254,-0.0010104048997163773
1772809216443943000,9.01794287109375,0.0005089351907372475,0.0026987590827047825,-0.0008000154048204422
1772809216453967000,9.027967041015625,-0.0009528333321213722,0.0005278552416712046,-0.0012514563277363777
1772809216463991000,9.037990966796874,0.000324418768286705,0.0006559535395354033,0.0012159626930952072
1772809216474015200,9.04801513671875,-0.00042228633537888527,0.0011685865465551615,-0.0007045809179544449
1772809216484039200,9.0580390625,0.0013055726885795593,0.0010932192672044039,-0.000237196683883667
1772809216494063000,9.06806298828125,-0.002262433059513569,-0.0009880342986434698,0.0004890095442533493
1772809216504087300,9.07808740234375,0.00023561203852295876,0.0028573039453476667,-0.003316381946206093
1772809216514111000,9.088111083984375,-0.0017549481708556414,0.0002515616361051798,-0.00020058918744325638
1772809216524135200,9.09813525390625,-0.000634556170552969,0.001989274052903056,-0.0018163295462727547
1772809216534159000,9.1081591796875,-0.0006358902901411057,0.00025494047440588474,0.0008482029661536217
1772809216544183300,9.118183349609374,-0.001110199373215437,-0.000600466737523675,0.0011073285713791847
1772809216554207000,9.12820703125,0.0007539056241512299,0.0030318335629999638,-0.0005062632262706757
1772809216564232200,9.138232177734375,-0.0010093729943037033,0.0003521605394780636,-0.0007731122896075249
1772809216574256000,9.148256103515624,0.0026829447597265244,0.00015549291856586933,0.0007260683923959732
1772809216584280300,9.1582802734375,0.0010874448344111443,0.0014061133842915297,-0.0015818271785974503
1772809216594304000,9.168303955078125,-0.0013223402202129364,0.000021357787773013115,0.0007413569837808609
1772809216604328200,9.178328125,0.002745105419307947,-0.0004177975933998823,-0.00014387723058462143
1772809216614352100,9.18835205078125,0.0009563309140503407,-0.0006832384970039129,-0.001435253769159317
1772809216624376000,9.1983759765625,0.0025603529065847397,-0.001194565324112773,-0.0007396358996629715
1772809216634400300,9.208400146484376,0.0012522926554083824,-0.0014415208715945482,-0.0019071809947490692
1772809216644424200,9.218424072265625,0.0013324539177119732,0.002515403786674142,0.0011954018846154213
1772809216654448000,9.2284482421875,-0.0011273575946688652,0.0011213435791432858,0.0006073983386158943
1772809216664472000,9.23847216796875,-0.0013630473986268044,-0.00000543985515832901,-0.0006671901792287827
1772809216674496300,9.248496337890625,-0.0007532616145908833,0.0023643530439585447,0.00003570038825273514
1772809216684520200,9.258520263671874,0.0013660816475749016,0.002538257511332631,0.0010093525052070618
1772809216694545200,9.268545166015626,-0.0008447570726275444,0.0016902056522667408,-0.00010108295828104019
1772809216704569000,9.278569091796875,-0.0022133553866297007,0.0018526585772633553,-0.0006707329303026199
1772809216714593300,9.28859326171875,0.0007601170800626278,-0.0011149067431688309,0.0002537919208407402
1772809216724617200,9.2986171875,-0.0018841354176402092,0.0015879357233643532,-0.0009302496910095215
1772809216734641200,9.30864111328125,-0.0006509493105113506,0.0036426978185772896,0.0003256136551499367
1772809216744665000,9.3186650390625,-0.0009383042342960835,0.0017736912705004215,-0.0007068933919072151
1772809216754689300,9.328689208984375,0.00033572036772966385,0.00032658176496624947,-0.0007363762706518173
1772809216764713000,9.338712890625,0.00020522577688097954,-0.00036344327963888645,-0.0009899092838168144
1772809216774737200,9.348737060546876,-0.000026124529540538788,0.0038199664559215307,0.00017672311514616013
1772809216784761000,9.358760986328125,-0.0009321318939328194,-0.004096013493835926,-0.0006648357957601547
1772809216794785000,9.368784912109374,-0.0001193326897919178,0.00040266639553010464,0.0016470476984977722
1772809216804809200,9.378809326171876,0.000730748288333416,-0.0005821706727147102,0.0018087010830640793
1772809216814834200,9.388834228515625,0.0014731832779943943,0.0023851448204368353,-0.0002423599362373352
1772809216824858000,9.398858154296875,-0.00008689658716320992,0.002410977380350232,0.0004226313903927803
1772809216834882000,9.408882080078126,0.0003876420669257641,0.0020870903972536325,-0.000028743408620357513
1772809216844906000,9.418906005859375,0.0009208065457642078,0.0005808065179735422,-0.00011662766337394714
1772809216854930200,9.42893017578125,0.0013540186919271946,0.0014372027944773436,0.00045116711407899857
1772809216864954000,9.4389541015625,0.0010655983351171017,0.0012174921575933695,-0.00019971001893281937
1772809216874978000,9.44897802734375,-0.0011504609137773514,-0.001716218888759613,0.00006494205445051193
1772809216885002200,9.459002197265624,0.002216573804616928,0.0011839636135846376,0.0011448543518781662
1772809216895026200,9.469026123046875,-0.00002244766801595688,-0.001162615604698658,0.00020120106637477875
1772809216905050000,9.479050048828125,-0.0006368388421833515,0.0014952190686017275,-0.00041691865772008896
1772809216915074000,9.489073974609376,0.00017531495541334152,0.0023137214593589306,0.000869174487888813
1772809216925098200,9.49909814453125,0.0006762552075088024,0.00018292618915438652,0.00013467390090227127
1772809216935122200,9.5091220703125,0.0007425989024341106,0.0006123457569628954,0.0031160861253738403
1772809216945146000,9.51914599609375,-0.00010828115046024323,-0.00309903547167778,-0.0007375078275799751
1772809216955171000,9.529171142578125,0.0017963405698537827,-0.002099421340972185,-0.001827462576329708
1772809216965195300,9.5391953125,-0.0008170190267264843,0.0009445720352232456,-0.002652243711054325
1772809216975219200,9.54921923828125,0.0007202154956758022,0.000021153362467885017,-0.0005172779783606529
1772809216985243100,9.5592431640625,0.00009384006261825562,-0.0018150962423533201,0.0007434627041220665
1772809216995267000,9.56926708984375,-3.7904828786849976e-7,0.0008759864140301943,-0.0004771500825881958
1772809217005291300,9.579291259765625,-0.00010743830353021622,-0.0009719810914248228,-0.0015575941652059555
1772809217015315000,9.58931494140625,-0.0008856938220560551,-0.0006937396246939898,-0.00031550880521535873
1772809217025339100,9.599339111328124,-0.0005823597311973572,-0.0014095972292125225,-0.0013986164703965187
1772809217035363000,9.609363037109375,-0.0017600338906049728,0.0008544535376131535,-0.00007648952305316925
1772809217045383700,9.6193837890625,-0.0012689470313489437,0.0010664411820471287,-0.0001329490914940834
1772809217055407600,9.62940771484375,-0.0008155922405421734,0.0007505977991968393,-0.0017070453613996506
1772809217065431600,9.639431640625,-0.000924249179661274,-0.004058538004755974,0.0007273498922586441
1772809217075456500,9.64945654296875,0.00022702058777213097,0.0003394524101167917,-0.000380171462893486
1772809217085480700,9.659480712890625,0.000516240019351244,-0.001082143047824502,-0.00042411312460899353
1772809217095504600,9.669504638671874,0.001417316496372223,-0.000054366420954465866,0.0012221643701195717
1772809217105528600,9.679528564453125,0.00037016160786151886,0.0013533802703022957,0.0010804841294884682
1772809217115552800,9.689552734375,0.0018309149891138077,-0.003299145493656397,0.0007468322291970253
1772809217125576400,9.699576416015624,0.00015578651800751686,-0.0005481003317981958,-0.00037675537168979645
1772809217135600600,9.7096005859375,-0.0013076048344373703,-0.0006002725567668676,-0.0019184807315468788
1772809217145624600,9.71962451171875,0.001549967098981142,-0.001156873069703579,-0.0013885116204619408
1772809217155648800,9.729648681640626,0.0008926265873014927,-0.0010747583582997322,-0.0012570098042488098
1772809217165672400,9.73967236328125,0.0020268666557967663,-0.0008372042793780565,-0.000988030806183815
1772809217175696600,9.749696533203124,-0.0004133456386625767,-0.0021594709251075983,0.0008871285244822502
1772809217185720600,9.759720458984376,-0.0008770017884671688,0.0008951749186962843,-0.0005650930106639862
1772809217195744500,9.76974462890625,0.00009687244892120361,-0.0006726989522576332,-0.0005790172144770622
1772809217205769500,9.77976953125,0.00006811041384935379,0.0005819161888211966,-0.0009627789258956909
1772809217215793700,9.789793701171876,-0.001922582508996129,-0.00041623227298259735,-0.003013978712260723
1772809217225817600,9.799817626953125,0.0017930599860846996,-0.00007135281339287758,-0.0008608130738139153
1772809217235841500,9.809841552734374,0.0017433264292776585,-0.0011903769336640835,0.0017688954249024391
1772809217245865500,9.819865478515625,-0.0012279623188078403,0.0008994056843221188,0.0008152173832058907
1772809217255889700,9.8298896484375,-0.000002127140760421753,-0.0006944045890122652,-0.001529870554804802
1772809217265913600,9.83991357421875,-0.0005009369924664497,-0.0002858757507055998,-0.00015860889106988907
1772809217275937500,9.8499375,-0.0006373892538249493,0.001301717245951295,0.0007886150851845741
1772809217285961700,9.859961669921875,-0.0002445727586746216,0.0007182189729064703,0.0014168545603752136
1772809217295985700,9.869985595703126,-0.000486492644995451,0.0005781217478215694,-0.0008250083774328232
1772809217306009600,9.880009521484375,0.00291942385956645,0.0005517564713954926,0.0010756896808743477
1772809217316033500,9.890033447265624,-0.00021533481776714325,0.0000017408747225999832,0.0008289190009236336
1772809217326058800,9.900058837890626,-0.0008592871017754078,0.0012768625747412443,-0.0030321311205625534
1772809217336082700,9.910082763671875,0.0010688481852412224,-0.0019223584095016122,-0.0016913451254367828
1772809217346106600,9.920106689453124,-0.0012156115844845772,-0.0011111595667898655,-0.0004364633932709694
1772809217356130600,9.930130615234376,0.0015106233768165112,-0.0005203771870583296,0.002745972014963627
1772809217366154800,9.94015478515625,0.00008929474279284477,-0.00111665902659297,-0.0007787216454744339
1772809217376178400,9.950178466796874,-0.0009298049844801426,-0.00039349542930722237,-0.001529024913907051
1772809217386202600,9.96020263671875,0.0004334668628871441,-0.0011085541918873787,0.0022177761420607567
1772809217396226600,9.9702265625,-0.00017025461420416832,-0.003210877301171422,-0.00024409033358097076
1772809217406250800,9.980250732421876,-0.00014016078785061836,0.0005377884954214096,0.0003173043951392174
1772809217416274400,9.9902744140625,-0.000418197363615036,0.0019782527815550566,0.0016039283946156502
1772809217426298600,10.000298583984375,-0.0008003609254956245,0.0003689045552164316,0.0002832673490047455
1772809217436322800,10.01032275390625,-0.0008861380629241467,-0.00009393342770636082,0.0020798398181796074
1772809217446346500,10.020346435546875,0.0023330911062657833,0.0015705421101301908,0.0020510777831077576
1772809217456371500,10.030371337890625,0.0006848745979368687,0.0006738321390002966,0.00044728443026542664
1772809217466395600,10.040395751953126,-0.0008949125185608864,0.0011292325798422098,0.0018952451646327972
1772809217476419600,10.050419677734375,-0.002300478285178542,-0.0013009263202548027,0.000650220550596714
1772809217486443500,10.060443603515624,-0.0013340171426534653,0.000847978051751852,-0.0002134423702955246
1772809217496467700,10.0704677734375,-0.0021782119292765856,0.0010082891676574945,0.0008510714396834373
1772809217506491600,10.08049169921875,-0.0009387768805027008,-0.00002262042835354805,-0.0006948942318558693
1772809217516515600,10.090515625,-0.0014807407278567553,-0.0002757664769887924,-0.0018821228295564651
1772809217526539500,10.10053955078125,0.000746461097151041,-0.00031065382063388824,-0.001455218531191349
1772809217536563700,10.110563720703125,0.00047794030979275703,0.0006095534190535545,-0.0006590103730559349
1772809217546587600,10.120587646484376,-0.0028227814473211765,0.0016231527552008629,-0.00028297118842601776
1772809217556611600,10.130611572265625,-0.001142431516200304,0.0005355319008231163,-0.000760314054787159
1772809217566636500,10.140636474609375,-0.0016007614322006702,-0.0007987120188772678,-0.0011920128017663956
1772809217576660700,10.15066064453125,0.0002034236676990986,-0.0027781683020293713,0.0005042180418968201
1772809217586684700,10.1606845703125,-0.0005952585488557816,-0.0013054399751126766,-0.0008798269554972649
1772809217596708600,10.17070849609375,0.00048701511695981026,-0.001964043593034148,0.0005416218191385269
1772809217606732500,10.180732666015626,0.00012988504022359848,0.002240022411569953,-0.0005944827571511269
1772809217616756700,10.1907568359375,0.0015819626860320568,0.001666666241362691,0.0011515459045767784
1772809217626780400,10.200780517578124,0.000762241892516613,-0.00012750527821481228,0.0008338307961821556
1772809217636804600,10.2108046875,-0.0005044550634920597,0.0002244897186756134,-0.0006589237600564957
1772809217646828500,10.22082861328125,-0.0012661190703511238,0.001680706162005663,-0.0016187271103262901
1772809217656852500,10.2308525390625,-0.0004642903804779053,-0.0007828662637621164,-0.0016575269401073456
1772809217666876700,10.240876708984375,-0.001115699764341116,0.0017884159460663795,0.0004325220361351967
1772809217676900600,10.250900634765625,0.0004083164967596531,0.0009928648360073566,-0.001773914322257042
1772809217686924800,10.2609248046875,-0.00038530537858605385,-0.0007174171041697264,-0.001800013706088066
1772809217696949500,10.270949462890625,-0.0009292340837419033,0.0020143226720392704,-0.0006673755124211311
1772809217706973400,10.280973388671875,-0.00041950494050979614,-0.0015732217580080032,0.0005688630044460297
1772809217716997600,10.29099755859375,-0.0012937355786561966,0.00029119662940502167,0.0009579285979270935
1772809217727021600,10.301021484375,0.001490333117544651,-0.0009610217530280352,-0.0017073629423975945
1772809217737045500,10.31104541015625,-0.0031063957139849663,0.0013971419539302588,0.00022647902369499207
1772809217747069700,10.321069580078126,-0.0005630766972899437,-0.0004249929916113615,-0.0013759452849626541
1772809217757093600,10.33109375,-0.0029623424634337425,-0.0020253509283065796,0.0012803347781300545
1772809217767117600,10.34111767578125,-0.001750071533024311,-0.0005891083274036646,-0.0005591101944446564
1772809217777141500,10.3511416015625,0.0007354407571256161,-0.0001937702763825655,-0.0015416871756315231
1772809217787165700,10.361165771484375,-0.0014872332103550434,-0.00046834233216941357,-0.0007126452401280403
1772809217797189600,10.371189697265624,0.0005019661039113998,0.0003683564718812704,0.00017167814075946808
1772809217807214600,10.381214599609375,-0.0012226970866322517,-0.0009200810454785824,0.0007969886064529419
1772809217817238500,10.391238525390625,-0.00032401829957962036,0.0014054740313440561,-0.0010644495487213135
1772809217827262700,10.4012626953125,-0.0012401454150676727,-0.00010933191515505314,0.0010503670200705528
1772809217837286700,10.41128662109375,0.0014633540995419025,0.0027481575962156057,0.003021528013050556
1772809217847310600,10.421310546875,-0.00010631326586008072,0.0015207065735012293,-0.0008746767416596413
1772809217857334500,10.43133447265625,-0.0011101667769253254,0.00038857036270201206,0.0017333067953586578
1772809217867358700,10.441358642578125,-0.0003453069366514683,-0.00005937344394624233,0.0001556500792503357
1772809217877382400,10.45138232421875,0.0007557561621069908,-0.003245745785534382,0.0006571542471647263
1772809217887406600,10.461406494140626,0.0005315179005265236,-0.00010960735380649567,-0.0011756336316466331
1772809217897430800,10.4714306640625,0.000037167221307754517,-0.0020475490018725395,0.0018854960799217224
1772809217907454500,10.481454345703124,-0.0008304906077682972,0.0004933730233460665,0.00025164708495140076
1772809217917478700,10.491478759765625,0.0008347122929990292,0.0009358846582472324,0.0016086166724562645
1772809217927502600,10.501502685546875,0.0005316445603966713,-0.002664975356310606,-0.00010246504098176956
1772809217937527600,10.511527587890624,0.0017826436087489128,0.0005296282470226288,-0.0002706144005060196
1772809217947551500,10.521551513671875,-0.0005263169296085835,0.0013339025899767876,-0.0014125779271125793
1772809217957575700,10.53157568359375,-0.00044747069478034973,-0.002777405548840761,-0.00020512007176876068
1772809217967599600,10.541599609375,-0.0014211225789040327,0.0017893831245601177,-0.001826719380915165
1772809217977623800,10.551623779296875,0.00044655567035079,-0.0019811359234154224,0.0008469121530652046
1772809217987647500,10.5616474609375,0.0007687979377806187,-0.00040694139897823334,0.00043385569006204605
1772809217997671700,10.571671630859376,0.00029061827808618546,0.0013398784212768078,0.0004681786522269249
1772809218007695600,10.581695556640625,-0.003086802549660206,0.0030972985550761223,-0.0004103975370526314
1772809218017719600,10.591719482421874,0.0018024337477982044,0.000032446347177028656,-0.0030491920188069344
1772809218027743500,10.601743408203125,0.000578444916754961,-0.0005124364979565144,-0.001296832226216793
1772809218037767700,10.611767578125,0.00010595889762043953,0.00022038142196834087,-0.0007671825587749481
1772809218047791400,10.621791259765626,0.0006175525486469269,0.0006020127329975367,-0.0012068701907992363
1772809218057816600,10.631816650390626,-0.003415741492062807,-0.0016651526093482971,-0.0011212630197405815
1772809218067840300,10.64184033203125,-7.702037692070007e-7,-0.0005407661665230989,0.0002678409218788147
1772809218077864400,10.651864501953124,0.000005087815225124359,0.0007165882270783186,0.00023720227181911469
1772809218087888400,10.661888427734375,-0.0003640260547399521,0.0007235121447592974,0.003191712312400341
1772809218097912300,10.671912353515625,0.00027098972350358963,-0.000060860998928546906,0.0007994063198566437
1772809218107936300,10.681936279296876,0.0005405014380812645,0.001045416109263897,-0.003036877140402794
1772809218117960400,10.69196044921875,0.00004422757774591446,-0.004282929003238678,0.0025008004158735275
1772809218127984400,10.701984375,0.000469001941382885,0.002412524539977312,0.0011116955429315567
1772809218138008300,10.71200830078125,-0.00015371153131127357,0.00030757556669414043,0.0019123880192637444
1772809218148032500,10.722032470703125,-0.0007766247726976871,-0.0015371963381767273,-0.000979539006948471
1772809218158056400,10.732056396484374,0.0004128469154238701,-0.0007649916224181652,0.0009337561205029488
1772809218168081400,10.742081298828126,-0.0008249906823039055,-0.0006949503440409899,0.0002541178837418556
1772809218178105300,10.752105224609375,0.0016673854552209377,-0.0012926470953971148,-0.0006405739113688469
1772809218188129500,10.762129638671874,-0.0009627523832023144,0.0005819522775709629,-0.004951166454702616
1772809218198153500,10.772153564453125,-0.000059903599321842194,-0.0007882427889853716,0.00037818029522895813
1772809218208177400,10.782177490234375,0.0006133434362709522,-0.0005751899443566799,-0.00019519776105880737
1772809218218201300,10.792201416015626,-0.00004880363121628761,-0.001954411156475544,-0.0002651643007993698
1772809218228225500,10.8022255859375,-0.00031911442056298256,-0.00040498399175703526,0.0004427032545208931
1772809218238249200,10.812249267578125,0.0011827917769551277,-0.0008674149867147207,0.0008250148966908455
1772809218248273400,10.8222734375,-0.0028457720763981342,0.0009025218896567822,-0.0011427951976656914
1772809218258297300,10.83229736328125,-0.001178075559437275,0.0016346087213605642,0.0012680543586611748
1772809218268321300,10.8423212890625,-0.0001972331665456295,-0.0017814277671277523,-0.001787923276424408
1772809218278345500,10.852345458984376,-0.0006731091998517513,0.00021831435151398182,0.0001628100872039795
1772809218288370400,10.862370361328125,-0.0007173172198235989,-0.0034097102470695972,-0.001074494794011116
1772809218298394400,10.872394287109374,-0.0011687371879816055,0.0014818725176155567,0.0012461496517062187
1772809218308418300,10.882418212890625,-0.00016525806859135628,-0.0005868710577487946,-0.0008660033345222473
1772809218318442200,10.892442138671875,-0.0008950447663664818,-0.00022927415557205677,-0.0014678547158837318
1772809218328466400,10.902466552734374,-0.0014439222868531942,0.0004216022789478302,-0.001120045781135559
1772809218338490400,10.912490478515625,0.0018728980794548988,-0.001873169792816043,-0.001314135268330574
1772809218348514300,10.922514404296875,0.0007799370214343071,0.0005644217599183321,0.0011918991804122925
1772809218358538500,10.93253857421875,0.0025333822704851627,-0.000882437452673912,-0.002690661698579788
1772809218368562400,10.9425625,0.0015067337080836296,0.00015699444338679314,-0.000883973203599453
1772809218378586400,10.95258642578125,0.00022723013535141945,-0.0009712707251310349,0.0008032908663153648
1772809218388610300,10.9626103515625,0.0005422821268439293,0.002918808488175273,-0.0006561214104294777
1772809218398634500,10.972634521484375,-0.0023283970076590776,-0.0011320740450173616,0.0007754797115921974
1772809218408659500,10.982659423828125,0.00004474585875868797,-0.00021860981360077858,-0.003173721954226494
1772809218418683400,10.992683349609376,0.0016999770887196064,0.0011568954214453697,-0.0006281612440943718
1772809218428707300,11.002707275390625,-0.00031070923432707787,-0.001359525602310896,0.000489301048219204
1772809218438731500,11.0127314453125,-0.0009318026714026928,0.001591027481481433,-0.0004507722333073616
1772809218448755500,11.02275537109375,-0.001201314851641655,0.00044480268843472004,-0.0018111150711774826
1772809218458779400,11.032779296875,-0.0008305390365421772,0.0016640722751617432,0.00023664068430662155
1772809218468803300,11.04280322265625,0.00043579423800110817,0.00026058638468384743,0.0004877764731645584
1772809218478827500,11.05282763671875,0.0007743425667285919,0.0007888884283602238,0.0019249692559242249
1772809218488851200,11.062851318359375,-0.0007258160039782524,0.0009204489178955555,-0.00035096798092126846
1772809218498875400,11.07287548828125,-0.002318751532584429,0.000718400115147233,-0.0009538792073726654
1772809218508899300,11.0828994140625,0.0013305782340466976,0.0015887210611253977,0.0023859916254878044
1772809218518924500,11.092924560546875,-0.0002795439213514328,-0.0018626751843839884,0.0020825564861297607
1772809218528948200,11.1029482421875,-0.0009205667302012444,0.00044708442874252796,0.0010548429563641548
1772809218538972400,11.112972412109375,-0.00001107528805732727,0.000373651972040534,-0.0010080141946673393
1772809218548996400,11.122996337890624,0.0005029146559536457,0.0020479813683778048,-0.00043303798884153366
1772809218559020300,11.133020263671876,0.0026483056135475636,0.0008614470716565847,-0.0003943406045436859
1772809218569044200,11.143044189453125,0.0003444054163992405,0.00044120033271610737,-0.0012537427246570587
1772809218579068400,11.153068359375,0.001337474212050438,0.0014860229566693306,-0.0009955214336514473
1772809218589092600,11.163092529296875,0.001547863706946373,-0.00022026454098522663,-0.0005837967619299889
1772809218599116300,11.1731162109375,0.00034177210181951523,-0.0013413326814770699,0.001202697865664959
1772809218609140500,11.183140380859374,0.00006613507866859436,-0.00008511962369084358,0.0005001556128263474
1772809218619164400,11.193164306640625,0.0014889431186020374,-0.0022660878021270037,-0.0008737621828913689
1772809218629188400,11.203188232421875,0.0010037152096629143,-0.0007470205891877413,-0.0017147893086075783
1772809218639213300,11.21321337890625,0.0012330738827586174,-0.0011252120602875948,0.00037580449134111404
1772809218649237500,11.223237548828125,0.0007086973637342453,-0.0001488972920924425,-0.0004138229414820671
1772809218659261400,11.233261474609375,-0.0025813691318035126,0.000950659392401576,-0.0003414144739508629
1772809218669285400,11.243285400390626,-0.00044098682701587677,0.0008358771447092295,0.0004343641921877861
1772809218679309300,11.253309326171875,0.0003776117227971554,-0.001342270988970995,0.00032058730721473694
1772809218689333500,11.26333349609375,-0.001268221763893962,0.0006316639482975006,0.0015445761382579803
1772809218699357200,11.273357177734376,-0.0004851999692618847,0.0019991532899439335,-0.002410273067653179
1772809218709381400,11.28338134765625,0.0010162903927266598,0.001304068136960268,-0.0009173043072223663
1772809218719405300,11.2934052734375,0.00048621464520692825,0.0012592743150889874,0.0015395646914839745
1772809218729429500,11.303429443359375,-0.00048823608085513115,-0.0014720635954290628,0.0010825665667653084
1772809218739453400,11.313453369140625,-0.000994561705738306,0.0021473693195730448,0.0021376637741923332
1772809218749478400,11.323478515625,0.0007913541048765182,0.00020805536769330502,-0.0008842255920171738
1772809218759502300,11.33350244140625,-0.001769005786627531,0.0000745819415897131,0.0019720839336514473
1772809218769526500,11.343526611328125,0.0001998692750930786,0.0016391889657825232,-0.0004266249015927315
1772809218779550200,11.35355029296875,0.00041395798325538635,-0.0021993382833898067,0.00033467449247837067
1772809218789574400,11.363574462890625,-0.0002331901341676712,-0.0003742738626897335,-0.000830991193652153
1772809218799598300,11.373598388671875,0.0016846447251737118,0.0009845492895692587,0.0011253822594881058
1772809218809622300,11.383622314453126,0.001607146579772234,0.00031503033824265003,-0.00034734606742858887
1772809218819646500,11.393646484375,-0.0004506395198404789,0.0005613022949546576,-0.0005261460319161415
1772809218829670400,11.40367041015625,0.0021270341239869595,0.06475413590669632,0.03549603745341301
1772809218839694600,11.413694580078126,-0.004360933322459459,0.34164342284202576,0.13901951909065247
1772809218849718300,11.42371826171875,-0.002640264807268977,0.07441065460443497,0.02247372269630432
1772809218859743200,11.4337431640625,-0.0017238790169358253,0.02279174141585827,0.009479058906435966
1772809218869767400,11.443767333984376,-0.0038315048441290855,0.00458211125805974,0.005940515547990799
1772809218879791600,11.45379150390625,-0.001643237890675664,0.005434805527329445,0.0060101766139268875
1772809218889815300,11.463815185546874,-0.0016850493848323822,0.0037703299894928932,0.001523016020655632
1772809218899839500,11.473839599609375,-0.024614667519927025,0.004785752855241299,0.004615808837115765
1772809218909863400,11.483863525390625,-0.1606486737728119,0.010801833122968674,0.0058951908722519875
1772809218919887400,11.493887451171876,-0.4062616229057312,0.01696748100221157,0.004758301191031933
1772809218929911300,11.503911376953125,-0.5571773648262024,0.01104034949094057,0.011861483566462994
1772809218939935500,11.513935546875,-0.47320398688316345,0.010223782621324062,0.007348288781940937
1772809218949959200,11.523959228515626,-0.20296156406402588,-0.0013868000824004412,0.0007987767457962036
1772809218959983400,11.5339833984375,0.0010278788395226002,-0.015952927991747856,-0.009870885871350765
1772809218970007300,11.54400732421875,0.0016446667723357677,-0.04835214838385582,-0.024202954024076462
1772809218980032500,11.554032470703126,0.0019738380797207355,-0.19872631132602692,-0.09136732667684555
1772809218990056200,11.56405615234375,0.0019757025875151157,0.032481078058481216,0.019129617139697075
1772809219000080400,11.574080322265624,0.00023479759693145752,0.0007036048918962479,0.00047631654888391495
1772809219010104300,11.584104248046875,-0.0010456498712301254,-0.023202791810035706,-0.011818433180451393
