time,seconds_elapsed,z,y,x
1772790165272657700,0.06565771484375,-0.9309539794921875,-0.2932281494140625,0.118377685546875
1772790165282723600,0.0757236328125,-0.95574951171875,-0.3106536865234375,0.113372802734375
1772790165292788700,0.085788818359375,-0.95806884765625,-0.3206939697265625,0.1243133544921875
1772790165302854700,0.095854736328125,-0.9435577392578125,-0.3220062255859375,0.136077880859375
1772790165312920800,0.1059208984375,-0.9465179443359375,-0.3217010498046875,0.136505126953125
1772790165322985700,0.11598583984375,-0.9599456787109375,-0.328826904296875,0.1304473876953125
1772790165333051600,0.1260517578125,-0.96514892578125,-0.338165283203125,0.1246490478515625
1772790165343117800,0.136117919921875,-0.9454498291015625,-0.3339996337890625,0.125579833984375
1772790165353183700,0.146183837890625,-0.9325714111328125,-0.33135986328125,0.1262054443359375
1772790165363249000,0.156248779296875,-0.9339447021484375,-0.33758544921875,0.1254119873046875
1772790165373314600,0.166314453125,-0.9254150390625,-0.334442138671875,0.1261444091796875
1772790165383380700,0.176380615234375,-0.928009033203125,-0.3363494873046875,0.1326904296875
1772790165393446700,0.18644677734375,-0.9509735107421875,-0.339996337890625,0.1387176513671875
1772790165403511800,0.19651171875,-0.9561004638671875,-0.3306884765625,0.1325836181640625
1772790165413577700,0.20657763671875,-0.9475860595703125,-0.316802978515625,0.12213134765625
1772790165423644000,0.216643798828125,-0.95098876953125,-0.3125152587890625,0.1134796142578125
1772790165433709600,0.22670947265625,-0.9488067626953125,-0.30999755859375,0.1057891845703125
1772790165443774700,0.236774658203125,-0.9403839111328125,-0.3038330078125,0.1064300537109375
1772790165453840600,0.246840576171875,-0.937469482421875,-0.3059539794921875,0.1134490966796875
1772790165463906800,0.25690673828125,-0.9404754638671875,-0.31097412109375,0.12445068359375
1772790165473971700,0.2669716796875,-0.9476318359375,-0.311065673828125,0.1262054443359375
1772790165484037600,0.27703759765625,-0.9447174072265625,-0.3082427978515625,0.1210479736328125
1772790165494103600,0.287103515625,-0.938568115234375,-0.3029632568359375,0.1074066162109375
1772790165504169700,0.297169677734375,-0.9442291259765625,-0.2996063232421875,0.0981597900390625
1772790165514235000,0.30723486328125,-0.949462890625,-0.304595947265625,0.105438232421875
1772790165524300800,0.31730078125,-0.9532318115234375,-0.3083038330078125,0.1134490966796875
1772790165534366700,0.32736669921875,-0.9512481689453125,-0.3040771484375,0.1100006103515625
1772790165544432600,0.3374326171875,-0.946014404296875,-0.301544189453125,0.103759765625
1772790165554497800,0.347497802734375,-0.9449462890625,-0.2992095947265625,0.1016387939453125
1772790165564563700,0.357563720703125,-0.94580078125,-0.303741455078125,0.1026611328125
1772790165574630000,0.3676298828125,-0.9447784423828125,-0.310302734375,0.1032562255859375
1772790165584695800,0.37769580078125,-0.9513397216796875,-0.3156890869140625,0.1063995361328125
1772790165594760700,0.3877607421875,-0.955322265625,-0.3246307373046875,0.1120758056640625
1772790165604826600,0.39782666015625,-0.9590911865234375,-0.3255767822265625,0.1143341064453125
1772790165614892800,0.407892822265625,-0.956817626953125,-0.322296142578125,0.10833740234375
1772790165624957700,0.417957763671875,-0.9560089111328125,-0.315032958984375,0.103546142578125
1772790165635023600,0.428023681640625,-0.951080322265625,-0.308135986328125,0.097869873046875
1772790165645089500,0.438089599609375,-0.94268798828125,-0.3026275634765625,0.09356689453125
1772790165655155700,0.44815576171875,-0.946990966796875,-0.30694580078125,0.0962066650390625
1772790165665220900,0.458220947265625,-0.957427978515625,-0.352386474609375,0.0958709716796875
1772790165675286800,0.468286865234375,-0.941070556640625,-0.32171630859375,0.129638671875
1772790165685352700,0.478352783203125,-0.9588623046875,-0.2839508056640625,0.136016845703125
1772790165695418600,0.488418701171875,-0.9490966796875,-0.3187713623046875,0.1177520751953125
1772790165705483800,0.49848388671875,-0.9286651611328125,-0.32000732421875,0.126617431640625
1772790165715549700,0.5085498046875,-0.9246063232421875,-0.300323486328125,0.1353759765625
1772790165725615600,0.51861572265625,-0.9151458740234375,-0.3114166259765625,0.1270294189453125
1772790165735680800,0.5286806640625,-0.9051666259765625,-0.3165740966796875,0.1287384033203125
1772790165745746700,0.53874658203125,-0.9118194580078125,-0.31439208984375,0.1317901611328125
1772790165755812600,0.5488125,-0.927032470703125,-0.3259735107421875,0.1363983154296875
1772790165765878800,0.558878662109375,-0.93212890625,-0.3351287841796875,0.1449432373046875
1772790165775943700,0.568943603515625,-0.9391021728515625,-0.338409423828125,0.152862548828125
1772790165786009900,0.579009765625,-0.9488067626953125,-0.3445587158203125,0.1558074951171875
1772790165796075800,0.58907568359375,-0.951568603515625,-0.3492279052734375,0.15802001953125
1772790165806141700,0.5991416015625,-0.948822021484375,-0.3530426025390625,0.155670166015625
1772790165816206600,0.60920654296875,-0.946136474609375,-0.3487091064453125,0.1519622802734375
1772790165826272800,0.619272705078125,-0.9434356689453125,-0.3395843505859375,0.1570281982421875
1772790165836338700,0.629338623046875,-0.942779541015625,-0.3398284912109375,0.1656951904296875
1772790165846404900,0.63940478515625,-0.9516143798828125,-0.35003662109375,0.1675262451171875
1772790165856469500,0.649469482421875,-0.962188720703125,-0.353271484375,0.1701812744140625
1772790165866535700,0.65953564453125,-0.971282958984375,-0.353851318359375,0.17523193359375
1772790165876601600,0.6696015625,-0.9709930419921875,-0.3592071533203125,0.1672821044921875
1772790165886666800,0.679666748046875,-0.9694976806640625,-0.3624725341796875,0.154083251953125
1772790165896733000,0.68973291015625,-0.9724578857421875,-0.3451080322265625,0.1590576171875
1772790165906798600,0.699798583984375,-0.9685516357421875,-0.338104248046875,0.1736297607421875
1772790165916864500,0.709864501953125,-0.967041015625,-0.3554534912109375,0.182769775390625
1772790165926929700,0.7199296875,-0.97235107421875,-0.370635986328125,0.1893310546875
1772790165936996600,0.72999658203125,-0.9774169921875,-0.3719329833984375,0.19989013671875
1772790165947062800,0.740062744140625,-0.980316162109375,-0.3722381591796875,0.202392578125
1772790165957128700,0.750128662109375,-0.99066162109375,-0.3712158203125,0.1999969482421875
1772790165967193900,0.76019384765625,-1.0128326416015625,-0.3708648681640625,0.1947021484375
1772790165977259800,0.770259765625,-1.0370330810546875,-0.3723907470703125,0.1849517822265625
1772790165987326000,0.780325927734375,-1.060943603515625,-0.3716278076171875,0.1709136962890625
1772790165997390800,0.790390869140625,-1.0792083740234375,-0.3516998291015625,0.1539459228515625
1772790166007456800,0.800456787109375,-1.0839080810546875,-0.322540283203125,0.140289306640625
1772790166017522700,0.810522705078125,-1.080841064453125,-0.2988128662109375,0.1260833740234375
1772790166027588900,0.8205888671875,-1.0775604248046875,-0.2752838134765625,0.1088104248046875
1772790166037653800,0.83065380859375,-1.06634521484375,-0.2550048828125,0.0985107421875
1772790166047719700,0.8407197265625,-1.0570831298828125,-0.2406768798828125,0.0980377197265625
1772790166057785900,0.850785888671875,-1.04827880859375,-0.2303619384765625,0.100189208984375
1772790166067851800,0.860851806640625,-1.037506103515625,-0.2247772216796875,0.1070709228515625
1772790166077917000,0.8709169921875,-1.03680419921875,-0.22174072265625,0.122283935546875
1772790166087982800,0.88098291015625,-1.0372314453125,-0.216278076171875,0.133941650390625
1772790166098048800,0.891048828125,-1.0225830078125,-0.202117919921875,0.1461639404296875
1772790166108113700,0.90111376953125,-1.0046539306640625,-0.18402099609375,0.1542205810546875
1772790166118179800,0.911179931640625,-0.99365234375,-0.1664886474609375,0.156951904296875
1772790166128245800,0.921245849609375,-0.9818115234375,-0.150421142578125,0.1514739990234375
1772790166138312000,0.93131201171875,-0.973602294921875,-0.137664794921875,0.1398468017578125
1772790166148376600,0.94137646484375,-0.9691314697265625,-0.1290130615234375,0.134368896484375
1772790166158442800,0.95144287109375,-0.965972900390625,-0.1185150146484375,0.136322021484375
1772790166168508700,0.9615087890625,-0.961273193359375,-0.111297607421875,0.1318206787109375
1772790166178574800,0.971574951171875,-0.951385498046875,-0.1024322509765625,0.1252288818359375
1772790166188640000,0.981639892578125,-0.9408721923828125,-0.092529296875,0.11798095703125
1772790166198706000,0.991705810546875,-0.92889404296875,-0.0850677490234375,0.1123199462890625
1772790166208771600,1.001771484375,-0.93328857421875,-0.0853424072265625,0.1069183349609375
1772790166218836700,1.011836669921875,-0.9492950439453125,-0.08819580078125,0.1001739501953125
1772790166228903000,1.02190283203125,-0.962860107421875,-0.0892791748046875,0.0945892333984375
1772790166238968800,1.03196875,-0.975006103515625,-0.0944976806640625,0.0893402099609375
1772790166249035000,1.042034912109375,-0.9796600341796875,-0.0971832275390625,0.0840301513671875
1772790166259099600,1.052099609375,-0.9805755615234375,-0.09808349609375,0.0749969482421875
1772790166269165800,1.062165771484375,-0.9739837646484375,-0.101043701171875,0.065673828125
1772790166279231700,1.072231689453125,-0.96795654296875,-0.103179931640625,0.0629119873046875
1772790166289298000,1.0822978515625,-0.963623046875,-0.100799560546875,0.063232421875
1772790166299362800,1.09236279296875,-0.96051025390625,-0.0953369140625,0.068695068359375
1772790166309428700,1.1024287109375,-0.958770751953125,-0.096160888671875,0.075897216796875
1772790166319494700,1.11249462890625,-0.96630859375,-0.1054229736328125,0.0767669677734375
1772790166329560800,1.122560791015625,-0.969635009765625,-0.1123504638671875,0.0725860595703125
1772790166339625700,1.132625732421875,-0.9668731689453125,-0.118133544921875,0.0712738037109375
1772790166349692000,1.14269189453125,-0.9673919677734375,-0.1219635009765625,0.0751953125
1772790166359757800,1.1527578125,-0.9656219482421875,-0.12548828125,0.0802764892578125
1772790166369822700,1.16282275390625,-0.9561004638671875,-0.1307525634765625,0.0869598388671875
1772790166379889000,1.172888916015625,-0.951568603515625,-0.13494873046875,0.09576416015625
1772790166389954800,1.182954833984375,-0.9534912109375,-0.13946533203125,0.1072235107421875
1772790166400020700,1.193020751953125,-0.9511566162109375,-0.1480865478515625,0.118927001953125
1772790166410085600,1.203085693359375,-0.9540863037109375,-0.1567535400390625,0.124664306640625
1772790166420151800,1.21315185546875,-0.9583587646484375,-0.1659088134765625,0.13214111328125
1772790166430217700,1.2232177734375,-0.953643798828125,-0.176177978515625,0.1386871337890625
1772790166440283600,1.23328369140625,-0.951873779296875,-0.18377685546875,0.1439971923828125
1772790166450348800,1.243348876953125,-0.9559783935546875,-0.1927947998046875,0.1434478759765625
1772790166460415000,1.2534150390625,-0.9580230712890625,-0.20294189453125,0.14068603515625
1772790166470480600,1.263480712890625,-0.95953369140625,-0.210418701171875,0.1339874267578125
1772790166480545800,1.2735458984375,-0.9547271728515625,-0.21502685546875,0.1305999755859375
1772790166490611700,1.28361181640625,-0.951141357421875,-0.216644287109375,0.1260986328125
1772790166500678000,1.293677978515625,-0.9506988525390625,-0.22210693359375,0.120391845703125
1772790166510743800,1.303743896484375,-0.944366455078125,-0.225677490234375,0.1179962158203125
1772790166520808700,1.31380859375,-0.939605712890625,-0.22991943359375,0.11932373046875
1772790166530874600,1.32387451171875,-0.941741943359375,-0.23944091796875,0.1248779296875
1772790166540940800,1.33394091796875,-0.939788818359375,-0.2426300048828125,0.130462646484375
1772790166551006700,1.3440068359375,-0.93218994140625,-0.2451629638671875,0.1351776123046875
1772790166561071900,1.35407177734375,-0.930145263671875,-0.2494964599609375,0.138946533203125
1772790166571137800,1.3641376953125,-0.9286041259765625,-0.25335693359375,0.145355224609375
1772790166581203700,1.37420361328125,-0.9284820556640625,-0.2542266845703125,0.148651123046875
1772790166591268900,1.384268798828125,-0.9258880615234375,-0.25689697265625,0.154541015625
1772790166601334800,1.394334716796875,-0.9316558837890625,-0.2609405517578125,0.1620941162109375
1772790166611401000,1.40440087890625,-0.9340667724609375,-0.2643585205078125,0.1653900146484375
1772790166621467000,1.414466796875,-0.9387969970703125,-0.2664947509765625,0.168853759765625
1772790166631531800,1.42453173828125,-0.93719482421875,-0.2664642333984375,0.1688690185546875
1772790166641597700,1.43459765625,-0.929595947265625,-0.26312255859375,0.1777191162109375
1772790166651664000,1.444663818359375,-0.93988037109375,-0.2626953125,0.1916656494140625
1772790166661729800,1.454729736328125,-0.9519195556640625,-0.26776123046875,0.2072906494140625
1772790166671795000,1.464794921875,-0.9583740234375,-0.2740631103515625,0.221923828125
1772790166681860600,1.474860595703125,-0.9669952392578125,-0.268768310546875,0.226654052734375
1772790166691926800,1.4849267578125,-0.97003173828125,-0.2633056640625,0.22686767578125
1772790166701991700,1.49499169921875,-0.9805755615234375,-0.2615966796875,0.2314453125
1772790166712057900,1.505057861328125,-0.995574951171875,-0.257568359375,0.2323455810546875
1772790166722123800,1.515123779296875,-1.0030517578125,-0.2520904541015625,0.2350006103515625
1772790166732190000,1.52518994140625,-1.012786865234375,-0.2475738525390625,0.2362213134765625
1772790166742254800,1.5352548828125,-1.0271759033203125,-0.248504638671875,0.2398834228515625
1772790166752320800,1.54532080078125,-1.0401763916015625,-0.25042724609375,0.245452880859375
1772790166762386700,1.55538671875,-1.0582733154296875,-0.2492218017578125,0.24969482421875
1772790166772452900,1.565452880859375,-1.0626068115234375,-0.2422332763671875,0.24517822265625
1772790166782518000,1.57551806640625,-1.0631866455078125,-0.235870361328125,0.240509033203125
1772790166792583700,1.585583740234375,-1.0723876953125,-0.2341766357421875,0.238067626953125
1772790166802649900,1.59564990234375,-1.0839691162109375,-0.2378082275390625,0.2383880615234375
1772790166812714800,1.60571484375,-1.0846710205078125,-0.243316650390625,0.2451934814453125
1772790166822781000,1.615781005859375,-1.0867919921875,-0.2470703125,0.2560882568359375
1772790166832846800,1.625846923828125,-1.0957183837890625,-0.255401611328125,0.2672882080078125
1772790166842912800,1.635912841796875,-1.10211181640625,-0.2621002197265625,0.27032470703125
1772790166852977700,1.645977783203125,-1.100311279296875,-0.261566162109375,0.2694244384765625
1772790166863043800,1.6560439453125,-1.102325439453125,-0.2535247802734375,0.2627410888671875
1772790166873109800,1.66610986328125,-1.10150146484375,-0.241241455078125,0.2517547607421875
1772790166883175000,1.6761748046875,-1.109832763671875,-0.2274169921875,0.2435150146484375
1772790166893240600,1.686240478515625,-1.1234588623046875,-0.217376708984375,0.2328643798828125
1772790166903306800,1.696306640625,-1.1267242431640625,-0.206329345703125,0.216949462890625
1772790166913372700,1.70637255859375,-1.1317596435546875,-0.1937103271484375,0.1995849609375
1772790166923437800,1.716437744140625,-1.1266632080078125,-0.1769256591796875,0.1807861328125
1772790166933503200,1.726503173828125,-1.1075439453125,-0.160369873046875,0.1565399169921875
1772790166943569000,1.73656884765625,-1.072906494140625,-0.1458282470703125,0.13311767578125
1772790166953635000,1.746635009765625,-1.0375213623046875,-0.1341400146484375,0.118377685546875
1772790166963700000,1.756699951171875,-1.012939453125,-0.141326904296875,0.11541748046875
1772790166973766100,1.76676611328125,-0.99395751953125,-0.154205322265625,0.1203460693359375
1772790166983832000,1.77683203125,-0.9637298583984375,-0.14874267578125,0.1220245361328125
1772790166993897000,1.78689697265625,-0.929168701171875,-0.144744873046875,0.1218719482421875
1772790167003963000,1.796962890625,-0.9007568359375,-0.1485748291015625,0.1247711181640625
1772790167014029000,1.807029052734375,-0.875152587890625,-0.15460205078125,0.1389007568359375
1772790167024095000,1.817094970703125,-0.85845947265625,-0.1569976806640625,0.1510162353515625
1772790167034160000,1.82716015625,-0.839691162109375,-0.1608734130859375,0.161956787109375
1772790167044226000,1.83722607421875,-0.81732177734375,-0.1674346923828125,0.1728363037109375
1772790167054292000,1.8472919921875,-0.8104400634765625,-0.1728057861328125,0.1893310546875
1772790167064358000,1.85735791015625,-0.819091796875,-0.1878204345703125,0.2066192626953125
1772790167074423000,1.867423095703125,-0.8284149169921875,-0.200592041015625,0.2181396484375
1772790167084489200,1.8774892578125,-0.8338775634765625,-0.2034912109375,0.2247161865234375
1772790167094555100,1.88755517578125,-0.84442138671875,-0.2053680419921875,0.2264556884765625
1772790167104620000,1.8976201171875,-0.8659210205078125,-0.207916259765625,0.229888916015625
1772790167114686000,1.90768603515625,-0.8898773193359375,-0.2133331298828125,0.2303314208984375
1772790167124752100,1.917752197265625,-0.91082763671875,-0.2063140869140625,0.2228240966796875
1772790167134818000,1.927818115234375,-0.9387969970703125,-0.1909637451171875,0.2115936279296875
1772790167144883200,1.93788330078125,-0.9702606201171875,-0.1788787841796875,0.1979522705078125
1772790167154948900,1.947948974609375,-1.000244140625,-0.1710357666015625,0.18450927734375
1772790167165015000,1.95801513671875,-1.0112762451171875,-0.1634368896484375,0.17108154296875
1772790167175081000,1.9680810546875,-1.0097198486328125,-0.1515655517578125,0.1614837646484375
1772790167185146000,1.97814599609375,-1.014373779296875,-0.14154052734375,0.1434326171875
1772790167195212000,1.9882119140625,-1.0088653564453125,-0.1322174072265625,0.1231536865234375
1772790167205278200,1.9982783203125,-0.9952239990234375,-0.117431640625,0.10589599609375
1772790167215343000,2.008343017578125,-0.9791412353515625,-0.122467041015625,0.0932464599609375
1772790167225409000,2.018408935546875,-0.969573974609375,-0.1288604736328125,0.0992431640625
1772790167235475000,2.028474853515625,-0.9702606201171875,-0.12506103515625,0.11517333984375
1772790167245541000,2.038541015625,-0.968109130859375,-0.157989501953125,0.1165771484375
1772790167255606000,2.04860595703125,-0.96148681640625,-0.1807098388671875,0.118927001953125
1772790167265672000,2.058671875,-0.961883544921875,-0.193084716796875,0.123016357421875
1772790167275738000,2.068738037109375,-0.9544677734375,-0.208953857421875,0.132049560546875
1772790167285803000,2.078802978515625,-0.9476165771484375,-0.220794677734375,0.141815185546875
1772790167295869200,2.088869140625,-0.9528656005859375,-0.23309326171875,0.1467132568359375
1772790167305935000,2.09893505859375,-0.9578399658203125,-0.241363525390625,0.144317626953125
1772790167316001000,2.1090009765625,-0.956298828125,-0.2438812255859375,0.1397857666015625
1772790167326066000,2.11906591796875,-0.9607696533203125,-0.2496795654296875,0.1325225830078125
1772790167336132000,2.129132080078125,-0.9660491943359375,-0.256011962890625,0.1208343505859375
1772790167346198000,2.139197998046875,-0.9582061767578125,-0.255859375,0.10821533203125
1772790167356264200,2.14926416015625,-0.950836181640625,-0.254669189453125,0.0966033935546875
1772790167366328800,2.159328857421875,-0.9483489990234375,-0.2584686279296875,0.086090087890625
1772790167376395000,2.16939501953125,-0.957427978515625,-0.2675323486328125,0.07769775390625
1772790167386461000,2.1794609375,-0.9734954833984375,-0.27508544921875,0.07012939453125
1772790167396526000,2.189526123046875,-0.9929962158203125,-0.2852020263671875,0.07012939453125
1772790167406592300,2.19959228515625,-1.0039825439453125,-0.2958221435546875,0.0645751953125
1772790167416658000,2.209657958984375,-0.9974517822265625,-0.3023529052734375,0.063873291015625
1772790167426723800,2.219723876953125,-0.986663818359375,-0.3043212890625,0.0621337890625
1772790167436789000,2.2297890625,-0.9772491455078125,-0.306854248046875,0.0650787353515625
1772790167446855200,2.239855224609375,-0.9732818603515625,-0.3179779052734375,0.0715484619140625
1772790167456921000,2.249921142578125,-0.9772186279296875,-0.3350982666015625,0.08349609375
1772790167466986000,2.259986083984375,-0.9842071533203125,-0.3453826904296875,0.0986175537109375
1772790167477052000,2.270052001953125,-0.98565673828125,-0.34942626953125,0.114593505859375
1772790167487118000,2.2801181640625,-0.996246337890625,-0.3531341552734375,0.1325225830078125
1772790167497184000,2.29018408203125,-1.0188446044921875,-0.3566741943359375,0.14923095703125
1772790167507249200,2.300249267578125,-1.0488739013671875,-0.3594818115234375,0.1651611328125
1772790167517315000,2.310315185546875,-1.0793304443359375,-0.356353759765625,0.1737823486328125
1772790167527381000,2.320381103515625,-1.11041259765625,-0.3413848876953125,0.166961669921875
1772790167537447000,2.330447021484375,-1.1418914794921875,-0.316741943359375,0.1470947265625
1772790167547512000,2.340511962890625,-1.17095947265625,-0.2884063720703125,0.1170654296875
1772790167557578000,2.350577880859375,-1.186614990234375,-0.264007568359375,0.09014892578125
1772790167567644200,2.36064404296875,-1.188201904296875,-0.2406158447265625,0.063751220703125
1772790167577709000,2.370708984375,-1.168487548828125,-0.209228515625,0.0436553955078125
1772790167587775000,2.38077490234375,-1.125457763671875,-0.1671600341796875,0.027313232421875
1772790167597841200,2.390841064453125,-1.0673065185546875,-0.1290740966796875,0.0230712890625
1772790167607907000,2.400906982421875,-1.0230712890625,-0.10552978515625,0.02691650390625
1772790167617972200,2.41097216796875,-0.9837799072265625,-0.0873870849609375,0.04833984375
1772790167628038000,2.421037841796875,-0.9420013427734375,-0.0804901123046875,0.0681304931640625
1772790167638104000,2.43110400390625,-0.915679931640625,-0.096160888671875,0.076080322265625
1772790167648169000,2.4411689453125,-0.8904876708984375,-0.1031341552734375,0.1019134521484375
1772790167658235100,2.451235107421875,-0.8684844970703125,-0.1278228759765625,0.111358642578125
1772790167668301000,2.461301025390625,-0.8469085693359375,-0.156280517578125,0.121490478515625
1772790167678367200,2.4713671875,-0.8338470458984375,-0.179840087890625,0.1401214599609375
1772790167688431900,2.481431884765625,-0.8394012451171875,-0.2096405029296875,0.1583099365234375
1772790167698498000,2.491498046875,-0.8501739501953125,-0.242034912109375,0.1766815185546875
1772790167708564000,2.50156396484375,-0.8621978759765625,-0.2721405029296875,0.1968841552734375
1772790167718630100,2.511630126953125,-0.8726348876953125,-0.295074462890625,0.2080841064453125
1772790167728695000,2.521695068359375,-0.886810302734375,-0.30517578125,0.214508056640625
1772790167738761000,2.531760986328125,-0.9061126708984375,-0.3129425048828125,0.2218780517578125
1772790167748827000,2.541826904296875,-0.9285888671875,-0.316436767578125,0.22332763671875
1772790167758892000,2.55189208984375,-0.9576568603515625,-0.306793212890625,0.2223052978515625
1772790167768958200,2.561958251953125,-0.9857177734375,-0.2896881103515625,0.220062255859375
1772790167779024100,2.572024169921875,-1.0137939453125,-0.2748870849609375,0.2087249755859375
1772790167789090000,2.582090087890625,-1.0377197265625,-0.2581024169921875,0.1912384033203125
1772790167799155000,2.592155029296875,-1.0534210205078125,-0.248321533203125,0.1775360107421875
1772790167809221000,2.60222119140625,-1.0630950927734375,-0.243133544921875,0.174285888671875
1772790167819287000,2.612287109375,-1.0624542236328125,-0.2320556640625,0.169342041015625
1772790167829352200,2.622352294921875,-1.0355072021484375,-0.2086181640625,0.1644287109375
1772790167839417900,2.63241796875,-1.0092010498046875,-0.1842803955078125,0.1584930419921875
1772790167849484000,2.642484130859375,-1.008209228515625,-0.1750640869140625,0.155487060546875
1772790167859550000,2.652550048828125,-1.007843017578125,-0.1757049560546875,0.16375732421875
1772790167869615000,2.662614990234375,-1.0048980712890625,-0.1812896728515625,0.1805572509765625
1772790167879681000,2.672680908203125,-1.0043182373046875,-0.1939849853515625,0.1974334716796875
1772790167889747200,2.682747314453125,-0.994384765625,-0.20635986328125,0.2056121826171875
1772790167899812900,2.692812744140625,-0.96942138671875,-0.2146453857421875,0.2065277099609375
1772790167909878000,2.7028779296875,-0.9477386474609375,-0.21685791015625,0.210296630859375
1772790167919944000,2.71294384765625,-0.934539794921875,-0.21246337890625,0.207794189453125
1772790167930009900,2.723009765625,-0.919036865234375,-0.21026611328125,0.2004852294921875
1772790167940075000,2.733074951171875,-0.90362548828125,-0.207794189453125,0.194000244140625
1772790167950141000,2.743140869140625,-0.8988037109375,-0.2010498046875,0.1899871826171875
1772790167960207000,2.75320703125,-0.8927764892578125,-0.193359375,0.18353271484375
1772790167970273000,2.76327294921875,-0.8861541748046875,-0.1866455078125,0.1783294677734375
1772790167980338000,2.773337890625,-0.87921142578125,-0.1828765869140625,0.17529296875
1772790167990403800,2.78340380859375,-0.8768463134765625,-0.1786956787109375,0.170257568359375
1772790168000470000,2.793469970703125,-0.8772430419921875,-0.1734771728515625,0.16510009765625
1772790168010535000,2.803534912109375,-0.88818359375,-0.1762847900390625,0.1573944091796875
1772790168020601000,2.81360107421875,-0.900665283203125,-0.1764678955078125,0.1463165283203125
1772790168030666800,2.823666748046875,-0.90380859375,-0.1650848388671875,0.13287353515625
1772790168040733000,2.83373291015625,-0.91571044921875,-0.15936279296875,0.106475830078125
1772790168050797800,2.8437978515625,-0.942291259765625,-0.1717987060546875,0.068878173828125
1772790168060864000,2.853864013671875,-0.9724884033203125,-0.1807708740234375,0.03765869140625
1772790168070930000,2.863929931640625,-0.9762420654296875,-0.18695068359375,0.01873779296875
1772790168080996000,2.87399609375,-0.9647216796875,-0.1970977783203125,0.0080108642578125
1772790168091061000,2.88406103515625,-0.96002197265625,-0.2189178466796875,0.007171630859375
1772790168101127000,2.894126953125,-0.9668731689453125,-0.2368011474609375,0.0050811767578125
1772790168111192800,2.90419287109375,-0.9548492431640625,-0.2540740966796875,0.0295562744140625
1772790168121258000,2.914258056640625,-0.9134979248046875,-0.256011962890625,0.0626068115234375
1772790168131324000,2.924323974609375,-0.93994140625,-0.2637481689453125,0.087646484375
1772790168141389800,2.934389892578125,-1.0043487548828125,-0.28582763671875,0.1065826416015625
1772790168151456000,2.9444560546875,-1.0623779296875,-0.3064117431640625,0.1191558837890625
1772790168161521000,2.95452099609375,-1.106231689453125,-0.316925048828125,0.126220703125
1772790168171587000,2.964587158203125,-1.127227783203125,-0.3173065185546875,0.128570556640625
1772790168181653000,2.974653076171875,-1.1347198486328125,-0.3088226318359375,0.125518798828125
1772790168191718000,2.9847177734375,-1.1273193359375,-0.2949981689453125,0.1233367919921875
1772790168201783800,2.99478369140625,-1.1056060791015625,-0.2726593017578125,0.1198883056640625
1772790168211850000,3.00485009765625,-1.076263427734375,-0.2532196044921875,0.120819091796875
1772790168221916000,3.014916015625,-1.049530029296875,-0.2375030517578125,0.12225341796875
1772790168231980800,3.024980712890625,-1.0229034423828125,-0.223419189453125,0.1266021728515625
1772790168242046700,3.035046630859375,-1.0017547607421875,-0.2149658203125,0.135162353515625
1772790168252113000,3.04511279296875,-0.9972991943359375,-0.211395263671875,0.146331787109375
1772790168262178800,3.0551787109375,-1.0038604736328125,-0.2161407470703125,0.15948486328125
1772790168272244000,3.065243896484375,-1.0087127685546875,-0.23175048828125,0.1736602783203125
1772790168282310000,3.075309814453125,-1.0090179443359375,-0.244873046875,0.1901702880859375
1772790168292375800,3.085375732421875,-1.0013427734375,-0.2522125244140625,0.206573486328125
1772790168302441000,3.09544091796875,-0.9865875244140625,-0.25701904296875,0.2133941650390625
1772790168312507000,3.1055068359375,-0.9827117919921875,-0.261322021484375,0.21588134765625
1772790168322573000,3.115572998046875,-0.985992431640625,-0.2604522705078125,0.218292236328125
1772790168332639000,3.125638916015625,-0.9884185791015625,-0.2607574462890625,0.2224884033203125
1772790168342703900,3.135703857421875,-0.99578857421875,-0.26123046875,0.2266845703125
1772790168352769800,3.145769775390625,-1.001495361328125,-0.2528533935546875,0.23382568359375
1772790168362836000,3.1558359375,-0.9942474365234375,-0.2406158447265625,0.2368927001953125
1772790168372900900,3.16590087890625,-0.9847412109375,-0.225189208984375,0.2390594482421875
1772790168382967000,3.175967041015625,-0.98504638671875,-0.2152252197265625,0.23858642578125
1772790168393033000,3.186032958984375,-0.9815673828125,-0.20831298828125,0.2333526611328125
1772790168403099000,3.196098876953125,-0.9739532470703125,-0.198699951171875,0.2333221435546875
1772790168413163800,3.206163818359375,-0.9719390869140625,-0.188934326171875,0.242218017578125
1772790168423230000,3.21622998046875,-0.9745635986328125,-0.1856536865234375,0.251556396484375
1772790168433296000,3.2262958984375,-0.9788818359375,-0.1813812255859375,0.255645751953125
1772790168443360800,3.23636083984375,-0.98114013671875,-0.1722564697265625,0.2530059814453125
1772790168453427000,3.246427001953125,-0.9803924560546875,-0.1591339111328125,0.24420166015625
1772790168463492900,3.256492919921875,-0.9786529541015625,-0.1496734619140625,0.233184814453125
1772790168473558800,3.266558837890625,-0.982147216796875,-0.1399688720703125,0.22515869140625
1772790168483624000,3.2766240234375,-0.9884033203125,-0.1275634765625,0.2122802734375
1772790168493690000,3.286690185546875,-0.981689453125,-0.11602783203125,0.1996307373046875
1772790168503755800,3.296755859375,-0.9734344482421875,-0.1021270751953125,0.1898956298828125
1772790168513822000,3.306822021484375,-0.968231201171875,-0.0890960693359375,0.179443359375
1772790168523886800,3.316886962890625,-0.96832275390625,-0.079498291015625,0.1707000732421875
1772790168533953000,3.326953125,-0.97186279296875,-0.07867431640625,0.162506103515625
1772790168544019000,3.33701904296875,-0.973358154296875,-0.0792083740234375,0.155548095703125
1772790168554083800,3.347083740234375,-0.9674224853515625,-0.074310302734375,0.151702880859375
1772790168564149800,3.357149658203125,-0.9654083251953125,-0.0699005126953125,0.147216796875
1772790168574216000,3.3672158203125,-0.968963623046875,-0.072784423828125,0.1405029296875
1772790168584281900,3.37728173828125,-0.973663330078125,-0.076141357421875,0.13531494140625
1772790168594347000,3.387346923828125,-0.982879638671875,-0.0802459716796875,0.1299285888671875
1772790168604413000,3.397412841796875,-0.9935302734375,-0.087188720703125,0.12158203125
1772790168614478800,3.407478759765625,-0.9900665283203125,-0.0894622802734375,0.1085968017578125
1772790168624544000,3.4175439453125,-0.986968994140625,-0.0908966064453125,0.0900421142578125
1772790168634610000,3.42760986328125,-0.991851806640625,-0.09869384765625,0.07244873046875
1772790168644676000,3.437676025390625,-1.0077056884765625,-0.111602783203125,0.0621795654296875
1772790168654742000,3.447741943359375,-1.033233642578125,-0.1323699951171875,0.0604095458984375
1772790168664807000,3.457806884765625,-1.0529327392578125,-0.1557159423828125,0.0576324462890625
1772790168674872800,3.467872802734375,-1.05584716796875,-0.1653594970703125,0.054046630859375
1772790168684939000,3.47793896484375,-1.0632781982421875,-0.169403076171875,0.0559234619140625
1772790168695004000,3.48800390625,-1.0839691162109375,-0.1803131103515625,0.0576171875
1772790168705070000,3.498070068359375,-1.0993804931640625,-0.187957763671875,0.051666259765625
1772790168715135700,3.5081357421875,-1.10137939453125,-0.1826629638671875,0.0450286865234375
1772790168725202000,3.518201904296875,-1.101898193359375,-0.1808013916015625,0.037200927734375
1772790168735266800,3.528266845703125,-1.107513427734375,-0.18896484375,0.0336151123046875
1772790168745333000,3.5383330078125,-1.1104888916015625,-0.1947479248046875,0.03497314453125
1772790168755399000,3.54839892578125,-1.1060028076171875,-0.19537353515625,0.0395965576171875
1772790168765465000,3.558465087890625,-1.1055755615234375,-0.202239990234375,0.038116455078125
1772790168775530000,3.568530029296875,-1.115936279296875,-0.2209014892578125,0.03216552734375
1772790168785596000,3.578595947265625,-1.1205902099609375,-0.23553466796875,0.0241241455078125
1772790168795661800,3.588661865234375,-1.106475830078125,-0.2377777099609375,0.01727294921875
1772790168805727000,3.59872705078125,-1.0866546630859375,-0.23736572265625,0.0113677978515625
1772790168815793000,3.60879296875,-1.0735321044921875,-0.2412872314453125,0.0103302001953125
1772790168825858800,3.61885888671875,-1.0712127685546875,-0.255157470703125,0.0109405517578125
1772790168835924700,3.6289248046875,-1.0689697265625,-0.2761077880859375,0.015716552734375
1772790168845990000,3.638989990234375,-1.0601806640625,-0.290283203125,0.024932861328125
1772790168856056000,3.64905615234375,-1.0467681884765625,-0.2975616455078125,0.028167724609375
1772790168866122000,3.6591220703125,-1.0370941162109375,-0.2993621826171875,0.0302276611328125
1772790168876187000,3.669186767578125,-1.024261474609375,-0.29998779296875,0.037109375
1772790168886252800,3.679252685546875,-1.0124053955078125,-0.2984161376953125,0.04443359375
1772790168896319000,3.689319091796875,-1.004974365234375,-0.2967987060546875,0.0548248291015625
1772790168906385000,3.699385009765625,-0.996490478515625,-0.293426513671875,0.0664520263671875
1772790168916450000,3.709449951171875,-0.9916534423828125,-0.290863037109375,0.0758819580078125
1772790168926515700,3.719515625,-0.9864654541015625,-0.2852325439453125,0.0811004638671875
1772790168936582100,3.72958203125,-0.9841156005859375,-0.27764892578125,0.086639404296875
1772790168946647000,3.73964697265625,-0.987884521484375,-0.277069091796875,0.087127685546875
1772790168956713200,3.749713134765625,-0.9878082275390625,-0.2793426513671875,0.0831756591796875
1772790168966779100,3.759779052734375,-0.985626220703125,-0.2856903076171875,0.074798583984375
1772790168976845300,3.76984521484375,-0.981597900390625,-0.289642333984375,0.0713653564453125
1772790168986910200,3.77991015625,-0.9620819091796875,-0.292510986328125,0.0707550048828125
1772790168996976000,3.78997607421875,-0.9508819580078125,-0.306060791015625,0.0702972412109375
1772790169007042000,3.8000419921875,-0.9577178955078125,-0.318603515625,0.0726165771484375
1772790169017107200,3.810107177734375,-0.9689788818359375,-0.3255767822265625,0.0787506103515625
1772790169027173400,3.82017333984375,-0.9617462158203125,-0.3394317626953125,0.08038330078125
1772790169037239000,3.830239013671875,-0.9465789794921875,-0.341583251953125,0.075653076171875
1772790169047305200,3.84030517578125,-0.94622802734375,-0.3289794921875,0.06732177734375
1772790169057370000,3.8503701171875,-0.956573486328125,-0.317352294921875,0.0562744140625
1772790169067436300,3.860436279296875,-0.962493896484375,-0.308624267578125,0.0488128662109375
1772790169077502200,3.870502197265625,-0.9692535400390625,-0.2984619140625,0.04620361328125
1772790169087568400,3.880568359375,-0.97735595703125,-0.282135009765625,0.044219970703125
1772790169097633000,3.890633056640625,-0.9684600830078125,-0.2592010498046875,0.045379638671875
1772790169107699200,3.90069921875,-0.952239990234375,-0.2445068359375,0.04144287109375
1772790169117765000,3.91076513671875,-0.94476318359375,-0.26055908203125,0.019195556640625
1772790169127830300,3.920830322265625,-0.924041748046875,-0.2259674072265625,0.0421295166015625
1772790169137896000,3.93089599609375,-0.9003753662109375,-0.1988677978515625,0.0469512939453125
1772790169147962000,3.940962158203125,-0.890167236328125,-0.182647705078125,0.0559539794921875
1772790169158027300,3.95102734375,-0.8673095703125,-0.168212890625,0.066925048828125
1772790169168093200,3.96109326171875,-0.8422393798828125,-0.1764678955078125,0.0652618408203125
1772790169178159400,3.971159423828125,-0.82110595703125,-0.1830291748046875,0.0631866455078125
1772790169188225300,3.981225341796875,-0.820831298828125,-0.18408203125,0.0680084228515625
1772790169198290200,3.991290283203125,-0.8256378173828125,-0.20013427734375,0.0666351318359375
1772790169208355000,4.00135498046875,-0.807647705078125,-0.2285308837890625,0.0703887939453125
1772790169218421200,4.011421142578125,-0.79022216796875,-0.2464141845703125,0.078033447265625
1772790169228487200,4.021487060546875,-0.7930908203125,-0.2584228515625,0.0810699462890625
1772790169238553300,4.03155322265625,-0.80072021484375,-0.2564697265625,0.0888214111328125
1772790169248618200,4.0416181640625,-0.794769287109375,-0.2442474365234375,0.1031646728515625
1772790169258684200,4.05168408203125,-0.7848968505859375,-0.2484588623046875,0.1099853515625
1772790169268750000,4.06175,-0.7848663330078125,-0.2585906982421875,0.1166839599609375
1772790169278816300,4.071816162109375,-0.814697265625,-0.2422332763671875,0.1251068115234375
1772790169288881200,4.081881103515625,-0.83990478515625,-0.2453460693359375,0.133331298828125
1772790169298947000,4.091947021484375,-0.8359375,-0.31695556640625,0.120941162109375
1772790169309013200,4.10201318359375,-0.8651275634765625,-0.3079071044921875,0.12042236328125
1772790169319078100,4.112078125,-0.88861083984375,-0.253143310546875,0.12774658203125
1772790169329144300,4.122144287109375,-0.882537841796875,-0.2588348388671875,0.1183319091796875
1772790169339210200,4.132210205078125,-0.8775787353515625,-0.2654266357421875,0.1068267822265625
1772790169349276200,4.142276123046875,-0.8933563232421875,-0.2589111328125,0.1038665771484375
1772790169359341000,4.152341064453125,-0.904022216796875,-0.26385498046875,0.1037445068359375
1772790169369407200,4.1624072265625,-0.8986968994140625,-0.2717132568359375,0.1079254150390625
1772790169379473200,4.17247314453125,-0.89886474609375,-0.27886962890625,0.1151580810546875
1772790169389538000,4.1825380859375,-0.9121856689453125,-0.28814697265625,0.1255035400390625
1772790169399604000,4.19260400390625,-0.9288177490234375,-0.30126953125,0.1343994140625
1772790169409670100,4.202670166015625,-0.9344329833984375,-0.3100128173828125,0.14691162109375
1772790169419736000,4.212736083984375,-0.94482421875,-0.3151702880859375,0.15985107421875
1772790169429801200,4.22280126953125,-0.963836669921875,-0.3210296630859375,0.172119140625
1772790169439867100,4.2328671875,-0.9799652099609375,-0.32403564453125,0.1832733154296875
1772790169449933000,4.24293310546875,-0.9924468994140625,-0.32110595703125,0.18853759765625
1772790169459998200,4.252998291015625,-1.0151214599609375,-0.3163604736328125,0.196014404296875
1772790169470064000,4.263064208984375,-1.0475616455078125,-0.318115234375,0.20361328125
1772790169480130300,4.27313037109375,-1.0897674560546875,-0.32086181640625,0.20672607421875
1772790169490196200,4.2831962890625,-1.1277313232421875,-0.3196563720703125,0.2097930908203125
1772790169500261000,4.29326123046875,-1.1518402099609375,-0.3083648681640625,0.207061767578125
1772790169510327000,4.3033271484375,-1.1686553955078125,-0.28826904296875,0.195068359375
1772790169520393200,4.313393310546875,-1.186187744140625,-0.2718353271484375,0.182098388671875
1772790169530458000,4.3234580078125,-1.2070465087890625,-0.26171875,0.173858642578125
1772790169540524300,4.333524169921875,-1.2177276611328125,-0.2599029541015625,0.164581298828125
1772790169550590200,4.343590087890625,-1.222991943359375,-0.261444091796875,0.1646728515625
1772790169560656100,4.35365625,-1.2389068603515625,-0.26080322265625,0.1663360595703125
1772790169570721000,4.363720947265625,-1.2639007568359375,-0.260833740234375,0.1622467041015625
1772790169580787200,4.373787109375,-1.2867431640625,-0.261383056640625,0.1533355712890625
1772790169590853000,4.38385302734375,-1.2941131591796875,-0.2546539306640625,0.1460723876953125
1772790169600918000,4.39391796875,-1.2932891845703125,-0.248138427734375,0.13653564453125
1772790169610984200,4.403984130859375,-1.2730712890625,-0.2365875244140625,0.1301727294921875
1772790169621050000,4.414050048828125,-1.2378387451171875,-0.2236480712890625,0.1239013671875
1772790169631116000,4.424115966796875,-1.2015228271484375,-0.2163543701171875,0.1136016845703125
1772790169641181200,4.43418115234375,-1.1611328125,-0.209930419921875,0.1079254150390625
1772790169651247400,4.444247314453125,-1.1107635498046875,-0.204986572265625,0.1079559326171875
1772790169661313000,4.45431298828125,-1.0674896240234375,-0.2003631591796875,0.1112518310546875
1772790169671378200,4.464378173828125,-1.0441741943359375,-0.2005767822265625,0.116790771484375
1772790169681444000,4.474444091796875,-1.0282135009765625,-0.2042083740234375,0.12152099609375
1772790169691510300,4.48451025390625,-1.0075531005859375,-0.20556640625,0.1262664794921875
1772790169701576200,4.494576171875,-0.979766845703125,-0.206695556640625,0.1313323974609375
1772790169711641000,4.50464111328125,-0.9564666748046875,-0.2086334228515625,0.13720703125
1772790169721707000,4.51470703125,-0.946563720703125,-0.211639404296875,0.14068603515625
1772790169731773200,4.524773193359375,-0.9425048828125,-0.2150726318359375,0.1414642333984375
1772790169741838300,4.53483837890625,-0.933258056640625,-0.215484619140625,0.139556884765625
1772790169751904300,4.544904296875,-0.9241485595703125,-0.212066650390625,0.142974853515625
1772790169761970200,4.55497021484375,-0.919769287109375,-0.2097625732421875,0.1497802734375
1772790169772036000,4.5650361328125,-0.9204559326171875,-0.2142791748046875,0.1610260009765625
1772790169782101200,4.575101318359375,-0.921600341796875,-0.220550537109375,0.1708526611328125
1772790169792167200,4.585167236328125,-0.925079345703125,-0.2287139892578125,0.1780853271484375
1772790169802233300,4.5952333984375,-0.9395751953125,-0.2357025146484375,0.187652587890625
1772790169812298000,4.605298095703125,-0.9586639404296875,-0.237701416015625,0.201690673828125
1772790169822364200,4.6153642578125,-0.9866790771484375,-0.237823486328125,0.2102508544921875
1772790169832430000,4.62543017578125,-1.0267181396484375,-0.22930908203125,0.2139129638671875
1772790169842496300,4.635496337890625,-1.0680694580078125,-0.21441650390625,0.2162628173828125
1772790169852562200,4.645562255859375,-1.08502197265625,-0.200836181640625,0.2111053466796875
1772790169862627300,4.65562744140625,-1.09967041015625,-0.18157958984375,0.19757080078125
1772790169872693000,4.66569287109375,-1.1119384765625,-0.1607513427734375,0.1883392333984375
1772790169882759200,4.67575927734375,-1.105316162109375,-0.143707275390625,0.1828765869140625
1772790169892825000,4.6858251953125,-1.0833740234375,-0.1511077880859375,0.1643524169921875
1772790169902890200,4.69589013671875,-1.0679931640625,-0.16204833984375,0.1465911865234375
1772790169912956200,4.7059560546875,-1.025848388671875,-0.11871337890625,0.16119384765625
1772790169923022300,4.716022216796875,-0.979949951171875,-0.11199951171875,0.1378173828125
1772790169933087200,4.726087158203125,-0.950836181640625,-0.1241302490234375,0.1085205078125
1772790169943153200,4.736153076171875,-0.9496917724609375,-0.14453125,0.0953216552734375
1772790169953219000,4.746218994140625,-0.9740142822265625,-0.16845703125,0.07928466796875
1772790169963285000,4.756284912109375,-0.977386474609375,-0.18902587890625,0.0744476318359375
1772790169973350100,4.76635009765625,-0.951141357421875,-0.20611572265625,0.0811614990234375
1772790169983416000,4.776416015625,-0.9166412353515625,-0.21722412109375,0.0863494873046875
1772790169993482200,4.786482177734375,-0.894744873046875,-0.2243194580078125,0.0878753662109375
1772790170003547100,4.796547119140625,-0.89361572265625,-0.213134765625,0.0983428955078125
1772790170013613000,4.806613037109375,-0.883026123046875,-0.224151611328125,0.1002655029296875
1772790170023679000,4.816678955078125,-0.8525848388671875,-0.2699737548828125,0.07568359375
1772790170033745200,4.8267451171875,-0.8433685302734375,-0.283203125,0.067718505859375
1772790170043810000,4.83681005859375,-0.861541748046875,-0.2907562255859375,0.0652313232421875
1772790170053876200,4.846876220703125,-0.8692169189453125,-0.299224853515625,0.062042236328125
1772790170063942100,4.856942138671875,-0.8676605224609375,-0.3032379150390625,0.0625
1772790170074007000,4.867007080078125,-0.8647918701171875,-0.298583984375,0.0550537109375
1772790170084073000,4.877072998046875,-0.8598785400390625,-0.2904815673828125,0.0433197021484375
1772790170094139100,4.88713916015625,-0.8703765869140625,-0.2804718017578125,0.0233917236328125
1772790170104205000,4.897205078125,-0.871826171875,-0.274993896484375,0.0104827880859375
1772790170114270000,4.90727001953125,-0.8769073486328125,-0.2724456787109375,-0.0007171630859375
1772790170124336000,4.917336181640625,-0.897979736328125,-0.2660064697265625,-0.017578125
1772790170134402000,4.927402099609375,-0.922821044921875,-0.2579803466796875,-0.0238494873046875
1772790170144467200,4.93746728515625,-0.9346923828125,-0.250396728515625,-0.024810791015625
1772790170154533000,4.947533203125,-0.927947998046875,-0.252105712890625,-0.0231170654296875
1772790170164599300,4.957599365234375,-0.9076080322265625,-0.2555084228515625,-0.026275634765625
1772790170174665000,4.9676650390625,-0.902618408203125,-0.2519073486328125,-0.0269317626953125
1772790170184730000,4.977730224609375,-0.9053802490234375,-0.251617431640625,-0.0237884521484375
1772790170194796000,4.987796142578125,-0.9132232666015625,-0.25958251953125,-0.0167236328125
1772790170204862200,4.9978623046875,-0.9258880615234375,-0.2771759033203125,0.0033721923828125
1772790170214927000,5.007927001953125,-0.933837890625,-0.296234130859375,0.01824951171875
1772790170224993000,5.017992919921875,-0.930419921875,-0.3192138671875,0.0250701904296875
1772790170235059000,5.028058837890625,-0.921051025390625,-0.3365020751953125,0.0291290283203125
1772790170245125000,5.038125,-0.9188385009765625,-0.3514862060546875,0.0299530029296875
1772790170255190000,5.04818994140625,-0.9259033203125,-0.3678436279296875,0.0361785888671875
1772790170265256200,5.058256103515625,-0.9459991455078125,-0.3818206787109375,0.0448760986328125
1772790170275322000,5.068322021484375,-0.9650726318359375,-0.3978271484375,0.0598907470703125
1772790170285387000,5.078386962890625,-0.987274169921875,-0.4113616943359375,0.0728302001953125
1772790170295453200,5.088453125,-1.0139923095703125,-0.413238525390625,0.07025146484375
1772790170305519000,5.09851904296875,-1.034515380859375,-0.41424560546875,0.0625152587890625
1772790170315585000,5.1085849609375,-1.0390472412109375,-0.416900634765625,0.060760498046875
1772790170325650000,5.11864990234375,-1.04132080078125,-0.416839599609375,0.068359375
1772790170335716000,5.128716064453125,-1.0592041015625,-0.4091796875,0.0681610107421875
1772790170345782000,5.138781982421875,-1.0761871337890625,-0.3969573974609375,0.0641021728515625
1772790170355847200,5.14884716796875,-1.078826904296875,-0.3798980712890625,0.0546875
1772790170365913000,5.1589130859375,-1.071380615234375,-0.3656463623046875,0.046630859375
1772790170375979300,5.168979248046875,-1.0623626708984375,-0.349853515625,0.0447998046875
1772790170386045000,5.179044921875,-1.0435028076171875,-0.3329620361328125,0.0439453125
1772790170396110000,5.189110107421875,-1.0298614501953125,-0.3223724365234375,0.0445556640625
1772790170406176000,5.199176025390625,-1.0186004638671875,-0.3137664794921875,0.0487213134765625
1772790170416242200,5.2092421875,-1.0040283203125,-0.30670166015625,0.06103515625
1772790170426307300,5.219307373046875,-0.9968109130859375,-0.310943603515625,0.0618743896484375
1772790170436373000,5.229373046875,-0.994903564453125,-0.3104248046875,0.067718505859375
1772790170446439000,5.23943896484375,-0.9820709228515625,-0.301422119140625,0.0769195556640625
1772790170456504000,5.249504150390625,-0.9756622314453125,-0.2986297607421875,0.0833892822265625
1772790170466570200,5.2595703125,-0.968048095703125,-0.289581298828125,0.082672119140625
1772790170476636200,5.26963623046875,-0.947174072265625,-0.279449462890625,0.0692138671875
1772790170486702000,5.2797021484375,-0.932861328125,-0.2713470458984375,0.0593109130859375
1772790170496767000,5.28976708984375,-0.921051025390625,-0.266143798828125,0.0525970458984375
1772790170506833200,5.299833251953125,-0.9077606201171875,-0.2560577392578125,0.0467681884765625
1772790170516899000,5.309899169921875,-0.8961029052734375,-0.2424163818359375,0.0403289794921875
1772790170526964200,5.319964111328125,-0.8859710693359375,-0.23095703125,0.032073974609375
1772790170537030000,5.33002978515625,-0.8788604736328125,-0.2249603271484375,0.0200347900390625
1772790170547096000,5.340095947265625,-0.870025634765625,-0.2252044677734375,0.00927734375
1772790170557162000,5.350161865234375,-0.859161376953125,-0.2348175048828125,0.0146331787109375
1772790170567227100,5.36022705078125,-0.857879638671875,-0.2454071044921875,0.023284912109375
1772790170577293000,5.37029296875,-0.86871337890625,-0.253326416015625,0.0268096923828125
1772790170587359200,5.380359130859375,-0.8743896484375,-0.2651214599609375,0.026031494140625
1772790170597424000,5.390424072265625,-0.8758087158203125,-0.276611328125,0.0277557373046875
1772790170607490000,5.400489990234375,-0.8775482177734375,-0.28369140625,0.0321197509765625
1772790170617556000,5.410555908203125,-0.86865234375,-0.286834716796875,0.03729248046875
1772790170627622100,5.4206220703125,-0.860595703125,-0.29254150390625,0.0456390380859375
1772790170637687000,5.43068701171875,-0.8569183349609375,-0.2920379638671875,0.05352783203125
1772790170647753000,5.4407529296875,-0.848419189453125,-0.2887420654296875,0.0576019287109375
1772790170657819100,5.450819091796875,-0.838775634765625,-0.28875732421875,0.0619049072265625
1772790170667884000,5.460884033203125,-0.837066650390625,-0.2896575927734375,0.0652313232421875
1772790170677950200,5.4709501953125,-0.843841552734375,-0.2897186279296875,0.0659637451171875
1772790170688016100,5.48101611328125,-0.8407745361328125,-0.2916107177734375,0.063385009765625
1772790170698081000,5.4910810546875,-0.8384857177734375,-0.2926025390625,0.063751220703125
1772790170708147000,5.50114697265625,-0.8421478271484375,-0.294036865234375,0.0610809326171875
1772790170718213000,5.511213134765625,-0.844146728515625,-0.299591064453125,0.0598297119140625
1772790170728279000,5.521279052734375,-0.8372955322265625,-0.2974700927734375,0.0569915771484375
1772790170738344200,5.53134423828125,-0.8333892822265625,-0.2957000732421875,0.054901123046875
1772790170748410000,5.54141015625,-0.8333587646484375,-0.2962799072265625,0.059173583984375
1772790170758476000,5.55147607421875,-0.8391571044921875,-0.296417236328125,0.0585479736328125
1772790170768541200,5.561541259765625,-0.8369903564453125,-0.2934722900390625,0.0555877685546875
1772790170778607000,5.571607177734375,-0.834228515625,-0.2922821044921875,0.0603790283203125
1772790170788673300,5.58167333984375,-0.84381103515625,-0.296539306640625,0.0679779052734375
1772790170798739200,5.5917392578125,-0.861328125,-0.296630859375,0.070556640625
1772790170808804000,5.60180419921875,-0.861724853515625,-0.3007659912109375,0.0714569091796875
1772790170818870000,5.6118701171875,-0.858001708984375,-0.3022613525390625,0.080780029296875
1772790170828936200,5.621936279296875,-0.8591461181640625,-0.3004150390625,0.0833282470703125
1772790170839001000,5.6320009765625,-0.8551177978515625,-0.3019561767578125,0.080108642578125
1772790170849067000,5.64206689453125,-0.8631744384765625,-0.3040618896484375,0.080078125
1772790170859133000,5.6521328125,-0.87725830078125,-0.307708740234375,0.0834197998046875
1772790170869199000,5.66219921875,-0.8860321044921875,-0.31085205078125,0.0901641845703125
1772790170879264000,5.672263916015625,-0.8918914794921875,-0.316070556640625,0.0982818603515625
1772790170889330200,5.682330078125,-0.9015045166015625,-0.3224639892578125,0.1016998291015625
1772790170899396000,5.69239599609375,-0.906829833984375,-0.3260498046875,0.100982666015625
1772790170909461000,5.7024609375,-0.9079132080078125,-0.329986572265625,0.100860595703125
1772790170919527200,5.712527099609375,-0.91510009765625,-0.3358001708984375,0.0997314453125
1772790170929593000,5.722593017578125,-0.9329071044921875,-0.3452301025390625,0.0999298095703125
1772790170939658800,5.73265869140625,-0.95062255859375,-0.354705810546875,0.100738525390625
1772790170949723400,5.742723388671875,-0.968048095703125,-0.362030029296875,0.0990753173828125
1772790170959789600,5.75278955078125,-0.9783477783203125,-0.370574951171875,0.10028076171875
1772790170969855500,5.76285546875,-0.98944091796875,-0.3768463134765625,0.1060638427734375
1772790170979920600,5.772920654296875,-1.0049896240234375,-0.3821563720703125,0.1110076904296875
1772790170989986600,5.782986572265625,-1.0115814208984375,-0.3838348388671875,0.11016845703125
1772790171000052500,5.793052490234375,-1.0230865478515625,-0.378448486328125,0.1105194091796875
1772790171010117600,5.80311767578125,-1.0307769775390625,-0.3683624267578125,0.11077880859375
1772790171020183600,5.81318359375,-1.04437255859375,-0.3564605712890625,0.1061859130859375
1772790171030249500,5.82324951171875,-1.068328857421875,-0.344329833984375,0.10430908203125
1772790171040315600,5.833315673828125,-1.09405517578125,-0.3376312255859375,0.1033782958984375
1772790171050380500,5.843380615234375,-1.1114654541015625,-0.3304443359375,0.09130859375
1772790171060446500,5.853446533203125,-1.12457275390625,-0.31793212890625,0.082061767578125
1772790171070512600,5.8635126953125,-1.1327362060546875,-0.3138580322265625,0.0754547119140625
1772790171080577500,5.87357763671875,-1.1445465087890625,-0.316497802734375,0.07379150390625
1772790171090643700,5.883643798828125,-1.170745849609375,-0.322235107421875,0.0824432373046875
1772790171100709400,5.89370947265625,-1.208587646484375,-0.321990966796875,0.1003875732421875
1772790171110774500,5.9037744140625,-1.2481231689453125,-0.3070220947265625,0.11456298828125
1772790171120840400,5.91384033203125,-1.2785186767578125,-0.2874298095703125,0.1083984375
1772790171130906600,5.92390673828125,-1.2823638916015625,-0.2663116455078125,0.0837554931640625
1772790171140972500,5.93397265625,-1.2667388916015625,-0.2397003173828125,0.0539703369140625
1772790171151037400,5.944037353515625,-1.2492218017578125,-0.2130126953125,0.026123046875
1772790171161103400,5.954103271484375,-1.22796630859375,-0.192230224609375,-0.0040435791015625
1772790171171169500,5.96416943359375,-1.1921844482421875,-0.1782989501953125,-0.0259246826171875
1772790171181234700,5.974234619140625,-1.156463623046875,-0.1666259765625,-0.040679931640625
1772790171191300600,5.984300537109375,-1.1165008544921875,-0.1654052734375,-0.044647216796875
1772790171201366500,5.994366455078125,-1.072784423828125,-0.168243408203125,-0.0426788330078125
1772790171211432400,6.004432373046875,-1.029327392578125,-0.169189453125,-0.038299560546875
1772790171221497600,6.01449755859375,-0.9840087890625,-0.1634674072265625,-0.0297698974609375
1772790171231563500,6.0245634765625,-0.9523773193359375,-0.1710205078125,-0.0168609619140625
1772790171241629700,6.034629638671875,-0.944580078125,-0.1916046142578125,-0.0022735595703125
1772790171251694300,6.0446943359375,-0.9412689208984375,-0.2079315185546875,0.0073699951171875
1772790171261760500,6.054760498046875,-0.9203643798828125,-0.228057861328125,0.0272216796875
1772790171271826400,6.064826416015625,-0.9170074462890625,-0.2445831298828125,0.0574951171875
1772790171281892600,6.074892578125,-0.92510986328125,-0.260833740234375,0.08660888671875
1772790171291957500,6.08495751953125,-0.942474365234375,-0.27374267578125,0.1092071533203125
1772790171302023700,6.095023681640625,-0.9649505615234375,-0.28143310546875,0.12945556640625
1772790171312089300,6.10508935546875,-0.9921875,-0.2818450927734375,0.1459197998046875
1772790171322154500,6.115154541015625,-1.0238189697265625,-0.275665283203125,0.1585693359375
1772790171332220700,6.125220703125,-1.0633392333984375,-0.268280029296875,0.1688690185546875
1772790171342286600,6.13528662109375,-1.0947723388671875,-0.2618408203125,0.165802001953125
1772790171352351500,6.1453515625,-1.11334228515625,-0.2509613037109375,0.1412506103515625
1772790171362417400,6.15541748046875,-1.116455078125,-0.229888916015625,0.1107635498046875
1772790171372483600,6.165483642578125,-1.0921173095703125,-0.2022247314453125,0.07696533203125
1772790171382549500,6.175549560546875,-1.0549163818359375,-0.181732177734375,0.0440673828125
1772790171392614700,6.18561474609375,-1.0187225341796875,-0.1621246337890625,0.007781982421875
1772790171402680600,6.1956806640625,-1.0026702880859375,-0.1409454345703125,-0.01922607421875
1772790171412746500,6.20574658203125,-1.01708984375,-0.13812255859375,-0.0271453857421875
1772790171422811400,6.215811279296875,-1.0485992431640625,-0.154296875,-0.0213623046875
1772790171432877600,6.225877685546875,-1.0661163330078125,-0.1766357421875,-0.0069427490234375
1772790171442943500,6.235943603515625,-1.0679779052734375,-0.197845458984375,0.00738525390625
1772790171453008600,6.246008544921875,-1.0343780517578125,-0.20709228515625,0.0175628662109375
1772790171463074600,6.256074462890625,-0.972320556640625,-0.2017822265625,0.0075531005859375
1772790171473140500,6.266140380859375,-0.9221649169921875,-0.20294189453125,-0.010101318359375
1772790171483206400,6.276206298828125,-0.8989105224609375,-0.2244720458984375,-0.02001953125
1772790171493271600,6.286271484375,-0.8978424072265625,-0.2437896728515625,-0.028350830078125
1772790171503337700,6.296337646484375,-0.9059600830078125,-0.25970458984375,-0.0258941650390625
1772790171513403600,6.306403564453125,-0.904541015625,-0.274169921875,-0.021026611328125
1772790171523468500,6.316468505859375,-0.9101104736328125,-0.2913970947265625,-0.0176849365234375
1772790171533534500,6.326534423828125,-0.927734375,-0.3109893798828125,-0.014678955078125
1772790171543600600,6.3366005859375,-0.92864990234375,-0.3215484619140625,-0.0125579833984375
1772790171553666600,6.34666650390625,-0.919342041015625,-0.3296966552734375,-0.0103759765625
1772790171563731500,6.3567314453125,-0.909637451171875,-0.336700439453125,-0.0067291259765625
1772790171573797400,6.36679736328125,-0.89935302734375,-0.3441009521484375,-0.0063934326171875
1772790171583863600,6.376863525390625,-0.89404296875,-0.3488616943359375,-0.0068511962890625
1772790171593928400,6.386928466796875,-0.9010009765625,-0.3573455810546875,0.009429931640625
1772790171603994600,6.39699462890625,-0.9134368896484375,-0.3673553466796875,0.02532958984375
1772790171614060500,6.407060546875,-0.904083251953125,-0.360321044921875,0.02728271484375
1772790171624125400,6.41712548828125,-0.8746337890625,-0.3509368896484375,0.02679443359375
1772790171634191600,6.427191650390625,-0.8553009033203125,-0.3523712158203125,0.026885986328125
1772790171644257500,6.437257568359375,-0.853546142578125,-0.3627471923828125,0.0359649658203125
1772790171654323500,6.447323486328125,-0.8697357177734375,-0.38031005859375,0.049774169921875
1772790171664388600,6.457388671875,-0.8865509033203125,-0.39349365234375,0.0626373291015625
1772790171674454500,6.46745458984375,-0.87274169921875,-0.397705078125,0.0728607177734375
1772790171684520400,6.4775205078125,-0.8518829345703125,-0.4049224853515625,0.0811614990234375
1772790171694585600,6.487585693359375,-0.854583740234375,-0.4145050048828125,0.0847320556640625
1772790171704651500,6.497651611328125,-0.8699798583984375,-0.4262542724609375,0.0959014892578125
1772790171714717700,6.5077177734375,-0.87957763671875,-0.4318389892578125,0.1042327880859375
1772790171724782600,6.517782470703125,-0.876556396484375,-0.4298553466796875,0.1093902587890625
1772790171734848500,6.5278486328125,-0.8690032958984375,-0.425323486328125,0.1087188720703125
1772790171744914400,6.53791455078125,-0.8710784912109375,-0.422576904296875,0.1081390380859375
1772790171754980600,6.547980712890625,-0.89044189453125,-0.4205780029296875,0.109466552734375
1772790171765045800,6.558045654296875,-0.9181365966796875,-0.427215576171875,0.1163177490234375
1772790171775111400,6.568111328125,-0.938323974609375,-0.4453887939453125,0.1320953369140625
1772790171785177300,6.57817724609375,-0.949249267578125,-0.4608306884765625,0.1415863037109375
1772790171795242500,6.588242431640625,-0.9532470703125,-0.465087890625,0.14666748046875
1772790171805308700,6.59830859375,-0.952362060546875,-0.4715118408203125,0.1528778076171875
1772790171815374600,6.60837451171875,-0.9593048095703125,-0.468170166015625,0.150238037109375
1772790171825439500,6.618439453125,-0.9810638427734375,-0.4511260986328125,0.143096923828125
1772790171835505400,6.62850537109375,-1.006195068359375,-0.4359588623046875,0.1297149658203125
1772790171845571600,6.638571533203125,-1.0322113037109375,-0.4177093505859375,0.1129913330078125
1772790171855637500,6.648637451171875,-1.0462188720703125,-0.3979644775390625,0.0938720703125
1772790171865702700,6.65870263671875,-1.0465850830078125,-0.3804168701171875,0.0760955810546875
1772790171875768600,6.6687685546875,-1.0305938720703125,-0.3590545654296875,0.05755615234375
1772790171885834500,6.67883447265625,-1.0161590576171875,-0.334716796875,0.037353515625
1772790171895899600,6.688899658203125,-1.008880615234375,-0.3063201904296875,0.0173187255859375
1772790171905965600,6.698965576171875,-0.996246337890625,-0.2825775146484375,-0.005828857421875
1772790171916031500,6.709031494140625,-0.9738922119140625,-0.2621307373046875,-0.0260772705078125
1772790171926096400,6.719096435546875,-0.955718994140625,-0.24481201171875,-0.0355987548828125
1772790171936163300,6.729163330078125,-0.944366455078125,-0.236358642578125,-0.0396881103515625
1772790171946229200,6.739229248046875,-0.9393310546875,-0.2388916015625,-0.044097900390625
1772790171956295200,6.749295166015625,-0.9395904541015625,-0.2504425048828125,-0.0426788330078125
1772790171966360300,6.7593603515625,-0.9368896484375,-0.2587127685546875,-0.038543701171875
1772790171976426200,6.76942626953125,-0.93218994140625,-0.2629852294921875,-0.0424041748046875
1772790171986492400,6.779492431640625,-0.927581787109375,-0.263580322265625,-0.050048828125
1772790171996557300,6.789557373046875,-0.9285430908203125,-0.2616119384765625,-0.0514984130859375
1772790172006623200,6.799623291015625,-0.9344024658203125,-0.2611846923828125,-0.05230712890625
1772790172016689400,6.809689453125,-0.926971435546875,-0.255584716796875,-0.0520477294921875
1772790172026755300,6.81975537109375,-0.9136810302734375,-0.248443603515625,-0.050537109375
1772790172036820500,6.829820556640625,-0.9100341796875,-0.2483367919921875,-0.0531158447265625
1772790172046886400,6.839886474609375,-0.911651611328125,-0.251251220703125,-0.057830810546875
1772790172056952300,6.849952392578125,-0.916778564453125,-0.251068115234375,-0.0571136474609375
1772790172067017200,6.860017333984375,-0.914794921875,-0.2534332275390625,-0.058258056640625
1772790172077083400,6.87008349609375,-0.9229736328125,-0.2578125,-0.0485687255859375
1772790172087149300,6.8801494140625,-0.93634033203125,-0.2711181640625,-0.0317535400390625
1772790172097214200,6.890214111328125,-0.9353485107421875,-0.2836761474609375,-0.019927978515625
1772790172107280100,6.900280029296875,-0.913116455078125,-0.2866363525390625,-0.0142364501953125
1772790172117346300,6.91034619140625,-0.8900604248046875,-0.29010009765625,-0.012908935546875
1772790172127411500,6.920411376953125,-0.8837432861328125,-0.2938232421875,-0.0115966796875
1772790172137477400,6.930477294921875,-0.879608154296875,-0.298004150390625,-0.005157470703125
1772790172147543600,6.94054345703125,-0.8778839111328125,-0.3092803955078125,0.006103515625
1772790172157609200,6.950609130859375,-0.881378173828125,-0.3219451904296875,0.0185394287109375
1772790172167674400,6.96067431640625,-0.88604736328125,-0.333404541015625,0.0264739990234375
1772790172177740300,6.970740234375,-0.8934173583984375,-0.344207763671875,0.0324249267578125
1772790172187806500,6.980806396484375,-0.9041748046875,-0.35211181640625,0.027191162109375
1772790172197871400,6.990871337890625,-0.9058837890625,-0.3531646728515625,0.017608642578125
1772790172207937300,7.000937255859375,-0.9112701416015625,-0.35443115234375,0.01318359375
1772790172218003200,7.011003173828125,-0.926971435546875,-0.358642578125,0.013336181640625
1772790172228069400,7.0210693359375,-0.9359893798828125,-0.3589019775390625,0.010498046875
1772790172238134300,7.03113427734375,-0.93609619140625,-0.352203369140625,0.007049560546875
1772790172248200400,7.041200439453125,-0.9334869384765625,-0.347015380859375,0.0042572021484375
1772790172258266400,7.051266357421875,-0.932159423828125,-0.34246826171875,-0.00244140625
1772790172268331300,7.061331298828125,-0.93255615234375,-0.33880615234375,-0.015838623046875
1772790172278397400,7.0713974609375,-0.9407958984375,-0.3333587646484375,-0.0149993896484375
1772790172288463400,7.08146337890625,-0.960723876953125,-0.336639404296875,-0.0153045654296875
1772790172298528500,7.091528564453125,-0.97528076171875,-0.3475494384765625,-0.0240325927734375
1772790172308594200,7.10159423828125,-0.9695587158203125,-0.3390350341796875,-0.022705078125
1772790172318660400,7.111660400390625,-0.956939697265625,-0.330352783203125,-0.028167724609375
1772790172328725200,7.121725341796875,-0.9518280029296875,-0.3361358642578125,-0.0323486328125
1772790172338791400,7.13179150390625,-0.956787109375,-0.346038818359375,-0.0286407470703125
1772790172348857300,7.141857421875,-0.9618682861328125,-0.3559722900390625,-0.024932861328125
1772790172358923500,7.151923583984375,-0.965789794921875,-0.36846923828125,-0.01953125
1772790172368988200,7.16198828125,-0.9669189453125,-0.3746185302734375,-0.0160675048828125
1772790172379054300,7.172054443359375,-0.96044921875,-0.375946044921875,-0.0180816650390625
1772790172389120300,7.182120361328125,-0.9453582763671875,-0.375,-0.022857666015625
1772790172399185400,7.192185302734375,-0.9379119873046875,-0.379302978515625,-0.0219879150390625
1772790172409251300,7.202251220703125,-0.9408721923828125,-0.3851165771484375,-0.0171051025390625
1772790172419317200,7.212317138671875,-0.940887451171875,-0.397857666015625,-0.0108489990234375
1772790172429382400,7.22238232421875,-0.9469146728515625,-0.4066314697265625,-0.00457763671875
1772790172439448300,7.2324482421875,-0.9613800048828125,-0.4137115478515625,-0.0004425048828125
1772790172449514500,7.242514404296875,-0.95684814453125,-0.4138031005859375,0.002410888671875
1772790172459580400,7.252580322265625,-0.9439697265625,-0.4110565185546875,0.0004119873046875
1772790172469645300,7.262645263671875,-0.94189453125,-0.4144439697265625,-0.006622314453125
1772790172479711200,7.272711181640625,-0.950347900390625,-0.4120941162109375,-0.0093994140625
1772790172489777400,7.28277734375,-0.962310791015625,-0.4170379638671875,-0.0056304931640625
1772790172499842300,7.29284228515625,-0.9769439697265625,-0.4240264892578125,0.000701904296875
1772790172509908500,7.302908447265625,-0.9862518310546875,-0.424774169921875,0.005218505859375
1772790172519974100,7.31297412109375,-0.986236572265625,-0.423309326171875,0.0113983154296875
1772790172530039300,7.323039306640625,-0.9932708740234375,-0.42303466796875,0.013519287109375
1772790172540105200,7.333105224609375,-1.00732421875,-0.4205780029296875,0.012237548828125
1772790172550171400,7.34317138671875,-1.01153564453125,-0.416229248046875,0.008392333984375
1772790172560237300,7.3532373046875,-1.0138092041015625,-0.4091949462890625,0.0095977783203125
1772790172570302200,7.36330224609375,-1.012451171875,-0.4061431884765625,0.0135040283203125
1772790172580368400,7.373368408203125,-1.017333984375,-0.405181884765625,0.0146484375
1772790172590434300,7.383434326171875,-1.0114593505859375,-0.4045257568359375,0.0177154541015625
1772790172600499500,7.39349951171875,-1.003753662109375,-0.4066162109375,0.020751953125
1772790172610565400,7.4035654296875,-1.006011962890625,-0.406219482421875,0.0227813720703125
1772790172620631300,7.41363134765625,-1.0233612060546875,-0.4058685302734375,0.0227813720703125
1772790172630696200,7.4236962890625,-1.0512847900390625,-0.4076995849609375,0.02099609375
1772790172640762400,7.433762451171875,-1.0678863525390625,-0.405426025390625,0.01641845703125
1772790172650828300,7.443828369140625,-1.06866455078125,-0.395355224609375,0.0072174072265625
1772790172660893400,7.4538935546875,-1.0744781494140625,-0.3826446533203125,-0.0020751953125
1772790172670959400,7.46395947265625,-1.0845947265625,-0.3707275390625,-0.009979248046875
1772790172681025300,7.474025390625,-1.085845947265625,-0.3507537841796875,-0.023590087890625
1772790172691091200,7.48409130859375,-1.074798583984375,-0.32763671875,-0.032257080078125
1772790172701156400,7.49415625,-1.0467071533203125,-0.3076629638671875,-0.0379638671875
1772790172711222500,7.504222412109375,-1.02215576171875,-0.289520263671875,-0.0417938232421875
1772790172721288400,7.514288330078125,-0.996826171875,-0.274871826171875,-0.0388946533203125
1772790172731353300,7.524353271484375,-0.9737548828125,-0.2643585205078125,-0.041015625
1772790172741419300,7.534419189453125,-0.9489898681640625,-0.257415771484375,-0.035186767578125
1772790172751485400,7.5444853515625,-0.9281768798828125,-0.2470550537109375,-0.0220184326171875
1772790172761550300,7.55455029296875,-0.91595458984375,-0.2523345947265625,-0.00518798828125
1772790172771616300,7.5646162109375,-0.9063568115234375,-0.2616424560546875,0.0151824951171875
1772790172781682200,7.57468212890625,-0.8995208740234375,-0.277099609375,0.0350494384765625
1772790172791748400,7.584748291015625,-0.8974456787109375,-0.290069580078125,0.0474700927734375
1772790172801813200,7.594813232421875,-0.8919830322265625,-0.29498291015625,0.0552825927734375
1772790172811879400,7.60487939453125,-0.8882598876953125,-0.298614501953125,0.0620574951171875
1772790172821945300,7.6149453125,-0.88751220703125,-0.30010986328125,0.065887451171875
1772790172832010200,7.62501025390625,-0.8823089599609375,-0.300384521484375,0.0745391845703125
1772790172842076400,7.635076416015625,-0.872772216796875,-0.30426025390625,0.076446533203125
1772790172852142300,7.645142333984375,-0.880828857421875,-0.3062286376953125,0.0692901611328125
1772790172862207500,7.65520751953125,-0.9102325439453125,-0.3087310791015625,0.0607757568359375
1772790172872273400,7.6652734375,-0.9407501220703125,-0.3144989013671875,0.0549774169921875
1772790172882339300,7.67533935546875,-0.9554901123046875,-0.3123626708984375,0.04559326171875
1772790172892404200,7.685404296875,-0.9647369384765625,-0.3050384521484375,0.0255584716796875
1772790172902470400,7.695470458984375,-0.970428466796875,-0.3009490966796875,0.0008544921875
1772790172912536300,7.705536376953125,-0.9677886962890625,-0.30316162109375,-0.0096435546875
1772790172922602500,7.7156025390625,-0.9618072509765625,-0.3038482666015625,-0.0127410888671875
1772790172932667100,7.725667236328125,-0.9423980712890625,-0.3039703369140625,-0.0184326171875
1772790172942732800,7.73573291015625,-0.925933837890625,-0.303314208984375,-0.0172119140625
1772790172952798700,7.745798828125,-0.936920166015625,-0.3094482421875,-0.0115509033203125
1772790172962863900,7.75586376953125,-0.9461669921875,-0.3134613037109375,-0.011260986328125
1772790172972930000,7.765929931640625,-0.9305419921875,-0.3210906982421875,-0.011260986328125
1772790172982996000,7.775995849609375,-0.912109375,-0.3351593017578125,-0.005828857421875
1772790172993060900,7.786060791015625,-0.909942626953125,-0.351715087890625,0.0019378662109375
1772790173003126800,7.796126708984375,-0.909576416015625,-0.3679962158203125,0.00787353515625
1772790173013193000,7.80619287109375,-0.903564453125,-0.3813018798828125,0.013580322265625
1772790173023257900,7.8162578125,-0.8943634033203125,-0.3917694091796875,0.022552490234375
1772790173033324000,7.826323974609375,-0.890655517578125,-0.3944091796875,0.032318115234375
1772790173043390000,7.836389892578125,-0.887237548828125,-0.3962860107421875,0.0293121337890625
1772790173053456000,7.846455810546875,-0.8746490478515625,-0.3969268798828125,0.0279388427734375
1772790173063521000,7.85652099609375,-0.85980224609375,-0.3978271484375,0.0328826904296875
1772790173073587000,7.8665869140625,-0.8524322509765625,-0.398834228515625,0.0367584228515625
1772790173083652900,7.87665283203125,-0.8614654541015625,-0.4096832275390625,0.041717529296875
1772790173093717800,7.8867177734375,-0.87384033203125,-0.4185791015625,0.043426513671875
1772790173103784000,7.896783935546875,-0.880279541015625,-0.425506591796875,0.0418701171875
1772790173113849900,7.906849853515625,-0.8826904296875,-0.4280853271484375,0.0338287353515625
1772790173123915000,7.9169150390625,-0.8750457763671875,-0.4318084716796875,0.029052734375
1772790173133981000,7.92698095703125,-0.8644256591796875,-0.4405975341796875,0.02947998046875
1772790173144047000,7.937047119140625,-0.8608551025390625,-0.4515380859375,0.0289459228515625
1772790173154112800,7.94711279296875,-0.8634033203125,-0.456695556640625,0.0274810791015625
1772790173164178000,7.957177978515625,-0.8596343994140625,-0.463470458984375,0.027801513671875
1772790173174243800,7.967243896484375,-0.8633575439453125,-0.4708709716796875,0.02783203125
1772790173184310000,7.97731005859375,-0.8679962158203125,-0.46746826171875,0.0286865234375
1772790173194375000,7.987375,-0.847198486328125,-0.4676055908203125,0.0263519287109375
1772790173204440800,7.99744091796875,-0.82843017578125,-0.4667205810546875,0.0239105224609375
1772790173214506000,8.007506103515626,-0.839691162109375,-0.4700775146484375,0.024749755859375
1772790173224572000,8.017572021484375,-0.8610992431640625,-0.4770050048828125,0.0251312255859375
1772790173234638000,8.02763818359375,-0.86956787109375,-0.480804443359375,0.029693603515625
1772790173244702700,8.03770263671875,-0.8726806640625,-0.48187255859375,0.03692626953125
1772790173254769000,8.047768798828125,-0.8848114013671875,-0.480682373046875,0.0377044677734375
1772790173264834800,8.057834716796876,-0.8927459716796875,-0.47760009765625,0.036773681640625
1772790173274900000,8.06789990234375,-0.8957672119140625,-0.47760009765625,0.03570556640625
1772790173284966000,8.0779658203125,-0.90185546875,-0.4775543212890625,0.0389862060546875
1772790173295032000,8.088031982421874,-0.925567626953125,-0.48358154296875,0.0447845458984375
1772790173305097700,8.09809765625,-0.941741943359375,-0.4959259033203125,0.0533905029296875
1772790173315163000,8.108162841796876,-0.93914794921875,-0.504791259765625,0.060455322265625
1772790173325229000,8.11822900390625,-0.942718505859375,-0.50555419921875,0.060272216796875
1772790173335295000,8.128294921875,-0.952667236328125,-0.5120849609375,0.0640869140625
1772790173345360000,8.13835986328125,-0.9613037109375,-0.5242767333984375,0.072662353515625
1772790173355425800,8.14842578125,-0.9795379638671875,-0.52001953125,0.074066162109375
1772790173365492000,8.158491943359374,-1.001800537109375,-0.5125732421875,0.06878662109375
1772790173375556900,8.168556884765625,-1.0216522216796875,-0.5022125244140625,0.0571441650390625
1772790173385623000,8.178623046875,-1.03143310546875,-0.480865478515625,0.03851318359375
1772790173395689000,8.18868896484375,-1.032501220703125,-0.4556121826171875,0.0258636474609375
1772790173405753900,8.19875390625,-1.0403594970703125,-0.4349365234375,0.01171875
1772790173415819800,8.20881982421875,-1.057159423828125,-0.4178314208984375,0.0015411376953125
1772790173425886000,8.218885986328125,-1.0668182373046875,-0.397186279296875,-0.009796142578125
1772790173435951900,8.228951904296874,-1.06396484375,-0.37408447265625,-0.0240478515625
1772790173446017000,8.23901708984375,-1.055084228515625,-0.352203369140625,-0.035858154296875
1772790173456083000,8.2490830078125,-1.0438995361328125,-0.3342437744140625,-0.0434722900390625
1772790173466148900,8.25914892578125,-1.0394287109375,-0.3199462890625,-0.0535125732421875
1772790173476214000,8.269214111328125,-1.0309295654296875,-0.3114471435546875,-0.0660247802734375
1772790173486280000,8.279280029296874,-1.027008056640625,-0.308319091796875,-0.071990966796875
1772790173496346000,8.28934619140625,-1.019622802734375,-0.30084228515625,-0.0839996337890625
1772790173506410800,8.29941064453125,-1.0054473876953125,-0.295928955078125,-0.090667724609375
1772790173516477000,8.309476806640625,-0.996673583984375,-0.2955474853515625,-0.0910491943359375
1772790173526542800,8.31954296875,-0.9921112060546875,-0.3018035888671875,-0.092132568359375
1772790173536608000,8.32960791015625,-0.9832000732421875,-0.30487060546875,-0.0891265869140625
1772790173546674000,8.339673828125,-0.9724578857421875,-0.301727294921875,-0.0888671875
1772790173556739800,8.34973974609375,-0.9557037353515625,-0.3023834228515625,-0.09271240234375
1772790173566805800,8.3598056640625,-0.931549072265625,-0.30615234375,-0.098297119140625
1772790173576871000,8.369870849609375,-0.915557861328125,-0.3111419677734375,-0.099273681640625
1772790173586936800,8.379936767578124,-0.916290283203125,-0.3153228759765625,-0.091064453125
1772790173597003000,8.3900029296875,-0.921142578125,-0.3251495361328125,-0.07781982421875
1772790173607068000,8.40006787109375,-0.9228057861328125,-0.3349761962890625,-0.0716094970703125
1772790173617133800,8.4101337890625,-0.9213104248046875,-0.3389739990234375,-0.067779541015625
1772790173627200000,8.420199951171876,-0.918670654296875,-0.34576416015625,-0.060394287109375
1772790173637265000,8.430264892578125,-0.9183807373046875,-0.355377197265625,-0.0474090576171875
1772790173647331000,8.4403310546875,-0.916473388671875,-0.361480712890625,-0.0326080322265625
1772790173657397000,8.45039697265625,-0.9146575927734375,-0.367828369140625,-0.01959228515625
1772790173667462000,8.4604619140625,-0.903228759765625,-0.3724822998046875,-0.0109100341796875
1772790173677527800,8.47052783203125,-0.8882598876953125,-0.3751068115234375,-0.0035247802734375
1772790173687594000,8.480593994140625,-0.8812713623046875,-0.384918212890625,0.011627197265625
1772790173697659100,8.4906591796875,-0.87939453125,-0.3910064697265625,0.02288818359375
1772790173707724800,8.500724853515624,-0.869171142578125,-0.39520263671875,0.0285186767578125
1772790173717790700,8.510790771484375,-0.8563385009765625,-0.404022216796875,0.03411865234375
1772790173727857000,8.52085693359375,-0.850128173828125,-0.414459228515625,0.0435028076171875
1772790173737922000,8.530922119140625,-0.8493804931640625,-0.4267425537109375,0.054107666015625
1772790173747988000,8.540988037109376,-0.8544464111328125,-0.44012451171875,0.05889892578125
1772790173758054100,8.55105419921875,-0.85760498046875,-0.4477386474609375,0.059722900390625
1772790173768118800,8.561118896484375,-0.859527587890625,-0.4498748779296875,0.05816650390625
1772790173778185000,8.57118505859375,-0.8624114990234375,-0.44805908203125,0.056976318359375
1772790173788251000,8.5812509765625,-0.8700714111328125,-0.4392242431640625,0.053680419921875
1772790173798316000,8.59131591796875,-0.87158203125,-0.42498779296875,0.0446929931640625
1772790173808382000,8.6013818359375,-0.868408203125,-0.4134979248046875,0.0310211181640625
1772790173818448000,8.61144775390625,-0.86639404296875,-0.4067840576171875,0.02191162109375
1772790173828513800,8.621513671875,-0.8732757568359375,-0.4060516357421875,0.017425537109375
1772790173838580000,8.631580078125,-0.8743896484375,-0.407257080078125,0.01495361328125
1772790173848644900,8.641644775390626,-0.8749237060546875,-0.4110565185546875,0.0139617919921875
1772790173858711000,8.6517109375,-0.88055419921875,-0.41815185546875,0.009307861328125
1772790173868777000,8.66177685546875,-0.88189697265625,-0.42083740234375,0.00048828125
1772790173878841900,8.671841796875,-0.8669586181640625,-0.4232177734375,-0.0039520263671875
1772790173888908000,8.681907958984375,-0.8544464111328125,-0.43194580078125,-0.007598876953125
1772790173898974000,8.691973876953124,-0.8487548828125,-0.4409942626953125,-0.008514404296875
1772790173909039000,8.7020390625,-0.8487701416015625,-0.4548492431640625,-0.010345458984375
1772790173919104800,8.712104736328126,-0.85791015625,-0.472015380859375,-0.0121307373046875
1772790173929171000,8.7221708984375,-0.874420166015625,-0.4819183349609375,-0.00933837890625
1772790173939240000,8.732239990234374,-0.8745574951171875,-0.4820709228515625,-0.012664794921875
1772790173949306000,8.74230615234375,-0.8593902587890625,-0.4795684814453125,-0.0206451416015625
1772790173959372000,8.7523720703125,-0.852630615234375,-0.47955322265625,-0.0296478271484375
1772790173969438000,8.76243798828125,-0.86083984375,-0.48248291015625,-0.0336151123046875
1772790173979503000,8.772503173828126,-0.870849609375,-0.489227294921875,-0.0376739501953125
1772790173989569000,8.782569091796875,-0.8851165771484375,-0.493621826171875,-0.0349273681640625
1772790173999635000,8.792635009765625,-0.904510498046875,-0.4970550537109375,-0.0326385498046875
1772790174009700000,8.8027001953125,-0.90936279296875,-0.492218017578125,-0.037841796875
1772790174019766000,8.81276611328125,-0.9091949462890625,-0.483673095703125,-0.0465087890625
1772790174029832200,8.822832275390626,-0.9154052734375,-0.4765167236328125,-0.0543365478515625
1772790174039897000,8.83289697265625,-0.9330291748046875,-0.4741363525390625,-0.059112548828125
1772790174049963000,8.842962890625,-0.9443511962890625,-0.4666290283203125,-0.062469482421875
1772790174060029000,8.85302880859375,-0.94647216796875,-0.4638671875,-0.068878173828125
1772790174070094000,8.863093994140625,-0.9538421630859375,-0.47039794921875,-0.06878662109375
1772790174080160300,8.87316015625,-0.95916748046875,-0.4771881103515625,-0.06231689453125
1772790174090226000,8.883225830078125,-0.9586181640625,-0.4850311279296875,-0.0594482421875
1772790174100291000,8.893291015625,-0.9528045654296875,-0.4904327392578125,-0.0569305419921875
1772790174110357000,8.90335693359375,-0.9498138427734375,-0.4987335205078125,-0.04718017578125
1772790174120423200,8.913423095703125,-0.96282958984375,-0.5162506103515625,-0.0260009765625
1772790174130489000,8.923489013671874,-0.9892578125,-0.537689208984375,-0.0042266845703125
1772790174140554000,8.933553955078125,-1.005218505859375,-0.5432281494140625,0.009063720703125
1772790174150620000,8.943619873046876,-1.00830078125,-0.534759521484375,0.011322021484375
1772790174160686000,8.95368603515625,-1.0068206787109375,-0.52081298828125,0.0081939697265625
1772790174170751000,8.9637509765625,-1.0041961669921875,-0.503021240234375,0.0059356689453125
1772790174180817200,8.973817138671874,-0.999664306640625,-0.4776458740234375,0.0035858154296875
1772790174190883000,8.983883056640625,-0.98480224609375,-0.446014404296875,-0.0006866455078125
1772790174200948000,8.993947998046876,-0.96966552734375,-0.418365478515625,-0.0031890869140625
1772790174211014100,9.00401416015625,-0.9503631591796875,-0.3953704833984375,-0.007476806640625
1772790174221080000,9.014080078125,-0.91546630859375,-0.378448486328125,-0.0124969482421875
1772790174231145200,9.024145263671874,-0.8826751708984375,-0.3675689697265625,-0.010650634765625
1772790174241211000,9.0342109375,-0.8795013427734375,-0.3678436279296875,0.00634765625
1772790174251277000,9.044277099609374,-0.88671875,-0.3794708251953125,0.02716064453125
1772790174261342000,9.054342041015625,-0.886444091796875,-0.3840484619140625,0.0432891845703125
1772790174271408000,9.064408203125,-0.9011077880859375,-0.390777587890625,0.0638427734375
1772790174281474000,9.07447412109375,-0.907684326171875,-0.3896331787109375,0.079071044921875
1772790174291540200,9.084540283203125,-0.9029388427734375,-0.3899383544921875,0.091339111328125
1772790174301604900,9.09460498046875,-0.8995361328125,-0.3895721435546875,0.1019287109375
1772790174311671000,9.104671142578125,-0.89019775390625,-0.386322021484375,0.10626220703125
1772790174321737000,9.114737060546876,-0.890228271484375,-0.38397216796875,0.10467529296875
1772790174331802000,9.124802001953125,-0.9027862548828125,-0.37921142578125,0.10186767578125
1772790174341868000,9.134867919921875,-0.914764404296875,-0.36871337890625,0.09710693359375
1772790174351934000,9.144933837890624,-0.9270477294921875,-0.3498687744140625,0.0891571044921875
1772790174361999000,9.1549990234375,-0.94720458984375,-0.32745361328125,0.0765533447265625
1772790174372065000,9.16506494140625,-0.9862518310546875,-0.3090667724609375,0.0616455078125
1772790174382131200,9.175131103515625,-1.0324859619140625,-0.3007354736328125,0.046051025390625
1772790174392195800,9.18519580078125,-1.0508880615234375,-0.2941131591796875,0.0294952392578125
1772790174402262000,9.195261962890624,-1.0481109619140625,-0.280303955078125,0.0206451416015625
1772790174412328000,9.205327880859375,-1.0660552978515625,-0.269195556640625,0.008758544921875
1772790174422393000,9.21539306640625,-1.0765380859375,-0.2633056640625,-0.004730224609375
1772790174432459000,9.225458984375,-1.0590057373046875,-0.24957275390625,-0.01995849609375
1772790174442525200,9.235525146484376,-1.0355987548828125,-0.242431640625,-0.0301666259765625
1772790174452590800,9.2455908203125,-1.0186614990234375,-0.241424560546875,-0.038360595703125
1772790174462656000,9.255656005859375,-1.00982666015625,-0.242950439453125,-0.0449981689453125
1772790174472722200,9.26572216796875,-1.0008697509765625,-0.254364013671875,-0.0382843017578125
1772790174482788000,9.2757880859375,-0.9894866943359375,-0.268402099609375,-0.0174102783203125
1772790174492853000,9.28585302734375,-0.980224609375,-0.2896270751953125,0.004730224609375
1772790174502919000,9.2959189453125,-0.96234130859375,-0.312713623046875,0.0230712890625
1772790174512985000,9.305985107421876,-0.951904296875,-0.3321533203125,0.038421630859375
1772790174523050000,9.316050048828124,-0.94580078125,-0.341888427734375,0.0473785400390625
1772790174533116200,9.3261162109375,-0.9206390380859375,-0.346893310546875,0.0530853271484375
1772790174543182000,9.33618212890625,-0.9037933349609375,-0.3555755615234375,0.0558013916015625
1772790174553247000,9.3462470703125,-0.9019622802734375,-0.3621368408203125,0.05712890625
1772790174563313000,9.35631298828125,-0.9037628173828125,-0.3646087646484375,0.059234619140625
1772790174573379000,9.366379150390625,-0.9012451171875,-0.3679046630859375,0.0572509765625
1772790174583444200,9.3764443359375,-0.910858154296875,-0.3668975830078125,0.04833984375
1772790174593510100,9.38651025390625,-0.929229736328125,-0.3665924072265625,0.037078857421875
1772790174603576000,9.396576171875,-0.93157958984375,-0.3640289306640625,0.0285186767578125
1772790174613642000,9.40664208984375,-0.9132843017578125,-0.3595428466796875,0.0266876220703125
1772790174623707100,9.41670703125,-0.906097412109375,-0.35906982421875,0.022369384765625
1772790174633773000,9.42677294921875,-0.917327880859375,-0.36083984375,0.0236663818359375
1772790174643839200,9.436839111328124,-0.919036865234375,-0.3628082275390625,0.0305023193359375
1772790174653904000,9.44690380859375,-0.9064483642578125,-0.3627777099609375,0.0389251708984375
1772790174663970000,9.456969970703126,-0.9039764404296875,-0.3620758056640625,0.045501708984375
1772790174674036000,9.467035888671875,-0.9055938720703125,-0.3583526611328125,0.04791259765625
1772790174684101000,9.47710107421875,-0.9131011962890625,-0.353363037109375,0.049652099609375
1772790174694167000,9.4871669921875,-0.9242706298828125,-0.354522705078125,0.059661865234375
1772790174704233000,9.49723291015625,-0.928009033203125,-0.3610687255859375,0.072479248046875
1772790174714298000,9.507298095703124,-0.93231201171875,-0.35968017578125,0.0774383544921875
1772790174724364000,9.517364013671875,-0.93975830078125,-0.3603515625,0.0816497802734375
1772790174734430000,9.527429931640626,-0.9459991455078125,-0.3673553466796875,0.0948333740234375
1772790174744495000,9.5374951171875,-0.9387359619140625,-0.3672027587890625,0.104827880859375
1772790174754561000,9.54756103515625,-0.9354400634765625,-0.3614959716796875,0.1095123291015625
1772790174764627000,9.557626953125,-0.9586029052734375,-0.3588714599609375,0.1098175048828125
1772790174774693000,9.567693115234375,-0.98358154296875,-0.3592681884765625,0.1109161376953125
1772790174784758000,9.577758056640626,-0.9941864013671875,-0.3580322265625,0.105499267578125
1772790174794824200,9.58782421875,-1.0006103515625,-0.35302734375,0.0938262939453125
1772790174804890000,9.59789013671875,-1.00091552734375,-0.3515625,0.0828704833984375
1772790174814955000,9.607955078125,-0.9933013916015625,-0.3521270751953125,0.073516845703125
1772790174825021000,9.61802099609375,-0.9811248779296875,-0.3494720458984375,0.06817626953125
1772790174835087000,9.628087158203124,-0.971405029296875,-0.3498077392578125,0.063812255859375
1772790174845152300,9.63815234375,-0.9686279296875,-0.3558502197265625,0.062957763671875
1772790174855218000,9.648218017578126,-0.966094970703125,-0.3635406494140625,0.066925048828125
1772790174865283800,9.658283935546875,-0.952362060546875,-0.375640869140625,0.075714111328125
1772790174875349000,9.668348876953125,-0.9312286376953125,-0.384124755859375,0.0811614990234375
1772790174885415200,9.678415283203124,-0.9140777587890625,-0.3925933837890625,0.0843658447265625
1772790174895481000,9.688481201171875,-0.8993377685546875,-0.3958587646484375,0.0868988037109375
1772790174905546000,9.6985458984375,-0.889129638671875,-0.3974151611328125,0.089508056640625
1772790174915612000,9.70861181640625,-0.8867034912109375,-0.3972930908203125,0.09051513671875
1772790174925678000,9.718677978515625,-0.8947601318359375,-0.39385986328125,0.0943756103515625
1772790174935744000,9.728743896484374,-0.9052734375,-0.3847808837890625,0.09039306640625
1772790174945806000,9.73880615234375,-0.9104461669921875,-0.373321533203125,0.072021484375
1772790174955872000,9.7488720703125,-0.9181671142578125,-0.365325927734375,0.05023193359375
1772790174965938000,9.75893798828125,-0.9271392822265625,-0.3588104248046875,0.0290985107421875
1772790174976002800,9.7690029296875,-0.923919677734375,-0.356658935546875,0.01348876953125
1772790174986069000,9.779069091796876,-0.91607666015625,-0.3585052490234375,0.001617431640625
1772790174996135000,9.789135009765625,-0.9077301025390625,-0.3657989501953125,-0.0032501220703125
1772790175006200000,9.799199951171875,-0.90936279296875,-0.3834381103515625,-0.0047607421875
1772790175016266000,9.809265869140624,-0.9253082275390625,-0.3993988037109375,-0.0072479248046875
1772790175026332000,9.819331787109375,-0.9386444091796875,-0.4124603271484375,-0.009918212890625
1772790175036397000,9.82939697265625,-0.945770263671875,-0.4221954345703125,-0.0157623291015625
1772790175046463000,9.839462890625,-0.9461669921875,-0.429473876953125,-0.0203399658203125
1772790175056529200,9.849529052734376,-0.9465484619140625,-0.4311370849609375,-0.034454345703125
1772790175066593800,9.85959375,-0.9499053955078125,-0.43536376953125,-0.0439605712890625
1772790175076660000,9.869659912109375,-0.9559478759765625,-0.4333343505859375,-0.0453338623046875
1772790175086726000,9.879725830078126,-0.9561920166015625,-0.4423370361328125,-0.045440673828125
1772790175096791000,9.889791015625,-0.9528045654296875,-0.4451141357421875,-0.0418548583984375
1772790175106857000,9.89985693359375,-0.94390869140625,-0.438690185546875,-0.0375823974609375
1772790175116923000,9.9099228515625,-0.9353179931640625,-0.4215240478515625,-0.0257568359375
1772790175126988800,9.91998876953125,-0.9217987060546875,-0.4205780029296875,-0.0089263916015625
1772790175137054000,9.930053955078124,-0.9288330078125,-0.427154541015625,0.0170440673828125
1772790175147119900,9.940119873046875,-0.94293212890625,-0.43017578125,0.0407867431640625
1772790175157186000,9.95018603515625,-0.930328369140625,-0.429840087890625,0.053802490234375
1772790175167251000,9.9602509765625,-0.9167327880859375,-0.4230804443359375,0.068572998046875
1772790175177316900,9.97031689453125,-0.916412353515625,-0.42047119140625,0.087799072265625
1772790175187383000,9.980383056640624,-0.9167022705078125,-0.4213104248046875,0.106903076171875
1772790175197448000,9.990447998046875,-0.907379150390625,-0.419586181640625,0.1219482421875
1772790175207514000,10.00051416015625,-0.887847900390625,-0.415283203125,0.1315460205078125
1772790175217579800,10.010579833984375,-0.8820343017578125,-0.4106292724609375,0.1393280029296875
1772790175227645000,10.02064501953125,-0.886749267578125,-0.40557861328125,0.15234375
1772790175237710800,10.0307109375,-0.8919525146484375,-0.40899658203125,0.1745758056640625
1772790175247777000,10.040777099609375,-0.89349365234375,-0.40753173828125,0.1895751953125
1772790175257842200,10.05084228515625,-0.8839111328125,-0.397064208984375,0.1925811767578125
1772790175267907800,10.060907958984375,-0.881317138671875,-0.3934326171875,0.1949005126953125
1772790175277974000,10.07097412109375,-0.8898773193359375,-0.398101806640625,0.2043914794921875
1772790175288040000,10.0810400390625,-0.8991851806640625,-0.400146484375,0.215576171875
1772790175298105000,10.09110498046875,-0.9058685302734375,-0.3972015380859375,0.2233123779296875
1772790175308171000,10.1011708984375,-0.91851806640625,-0.3953399658203125,0.2243194580078125
1772790175318237200,10.1112373046875,-0.9241790771484375,-0.38836669921875,0.21856689453125
1772790175328301800,10.1213017578125,-0.912841796875,-0.381927490234375,0.21405029296875
1772790175338368000,10.131367919921875,-0.901153564453125,-0.3762359619140625,0.2166900634765625
1772790175348434000,10.141433837890625,-0.8970947265625,-0.37158203125,0.2234344482421875
1772790175358499000,10.1514990234375,-0.910186767578125,-0.3751068115234375,0.2277679443359375
1772790175368564700,10.161564697265625,-0.92156982421875,-0.3777618408203125,0.2273406982421875
1772790175378631000,10.171630859375,-0.9152984619140625,-0.382904052734375,0.224609375
1772790175388696000,10.181696044921875,-0.905120849609375,-0.382171630859375,0.2270965576171875
1772790175398762000,10.191761962890626,-0.906585693359375,-0.3830413818359375,0.22882080078125
1772790175408828000,10.201827880859375,-0.912109375,-0.388336181640625,0.2301177978515625
1772790175418892800,10.211892822265625,-0.9132080078125,-0.3887786865234375,0.2283935546875
1772790175428959000,10.221958984375,-0.90545654296875,-0.3913421630859375,0.2239227294921875
1772790175439025000,10.23202490234375,-0.8997344970703125,-0.4011383056640625,0.2279205322265625
1772790175449090000,10.242090087890626,-0.9038543701171875,-0.4077606201171875,0.2303619384765625
1772790175459156000,10.252156005859375,-0.905364990234375,-0.415924072265625,0.22613525390625
1772790175469222100,10.26222216796875,-0.905029296875,-0.42425537109375,0.2237548828125
1772790175479287800,10.272287841796874,-0.9105072021484375,-0.4344024658203125,0.2254486083984375
1772790175489353000,10.28235302734375,-0.915435791015625,-0.43939208984375,0.2224578857421875
1772790175499419000,10.2924189453125,-0.909423828125,-0.4456787109375,0.2191162109375
1772790175509485000,10.302485107421875,-0.89947509765625,-0.4555511474609375,0.2214508056640625
1772790175519550000,10.312550048828125,-0.9007720947265625,-0.4654541015625,0.2238311767578125
1772790175529616000,10.322615966796874,-0.9054718017578125,-0.4744720458984375,0.227935791015625
1772790175539681800,10.332681884765625,-0.901641845703125,-0.4831695556640625,0.22796630859375
1772790175549747000,10.342746826171876,-0.8883056640625,-0.493377685546875,0.230682373046875
1772790175559813000,10.352813232421875,-0.879302978515625,-0.5012969970703125,0.23773193359375
1772790175569879000,10.362879150390626,-0.892425537109375,-0.5063934326171875,0.2498016357421875
1772790175579944000,10.37294384765625,-0.8942108154296875,-0.506439208984375,0.2555999755859375
1772790175590009900,10.383009765625,-0.8888397216796875,-0.501007080078125,0.25323486328125
1772790175600076000,10.393075927734374,-0.894561767578125,-0.4953765869140625,0.25372314453125
1772790175610141000,10.403140869140625,-0.905487060546875,-0.4873504638671875,0.2571563720703125
1772790175620207000,10.41320703125,-0.9056549072265625,-0.477691650390625,0.2578125
1772790175630272800,10.423272705078125,-0.9048614501953125,-0.4679107666015625,0.249176025390625
1772790175640338000,10.433337890625,-0.91351318359375,-0.4567718505859375,0.236297607421875
1772790175650404000,10.443404052734374,-0.9199981689453125,-0.4456329345703125,0.222991943359375
1772790175660470000,10.453469970703125,-0.9275360107421875,-0.439361572265625,0.2160186767578125
1772790175670535000,10.463534912109376,-0.9342041015625,-0.4324951171875,0.2085113525390625
1772790175680600800,10.473600830078125,-0.9324798583984375,-0.42840576171875,0.1943817138671875
1772790175690667000,10.4836669921875,-0.9251251220703125,-0.4231719970703125,0.187469482421875
1772790175700733000,10.49373291015625,-0.9159698486328125,-0.4189300537109375,0.1856842041015625
1772790175710798000,10.503798095703125,-0.9148101806640625,-0.416412353515625,0.1847991943359375
1772790175720864000,10.513864013671874,-0.93560791015625,-0.41546630859375,0.186798095703125
1772790175730930000,10.523929931640625,-0.951202392578125,-0.420013427734375,0.18450927734375
1772790175740994800,10.533994873046876,-0.9439239501953125,-0.41290283203125,0.176361083984375
1772790175751061000,10.54406103515625,-0.936187744140625,-0.4075927734375,0.168914794921875
1772790175761127000,10.554126953125,-0.9374237060546875,-0.405853271484375,0.1639251708984375
1772790175771192000,10.564192138671874,-0.9432373046875,-0.400665283203125,0.1606597900390625
1772790175781258000,10.574258056640625,-0.933807373046875,-0.3890380859375,0.1503448486328125
1772790175791324000,10.584323974609376,-0.9245452880859375,-0.375213623046875,0.1399078369140625
1772790175801389000,10.59438916015625,-0.9219970703125,-0.3632354736328125,0.1346435546875
1772790175811455000,10.604455078125,-0.9191741943359375,-0.356658935546875,0.137969970703125
1772790175821521200,10.614521240234374,-0.9073028564453125,-0.352630615234375,0.141876220703125
1772790175831585800,10.624585693359375,-0.8819122314453125,-0.3464202880859375,0.1457061767578125
1772790175841652000,10.63465185546875,-0.868499755859375,-0.3489227294921875,0.148284912109375
1772790175851718000,10.6447177734375,-0.86865234375,-0.3565521240234375,0.1531982421875
1772790175861783000,10.654782958984375,-0.8620758056640625,-0.3615570068359375,0.1602630615234375
1772790175871849000,10.664848876953124,-0.8520965576171875,-0.362030029296875,0.1667022705078125
1772790175881915000,10.674914794921875,-0.849761962890625,-0.3614959716796875,0.173614501953125
1772790175891980800,10.684980712890624,-0.858428955078125,-0.3617706298828125,0.175994873046875
1772790175902046000,10.6950458984375,-0.8684539794921875,-0.3612518310546875,0.176177978515625
1772790175912111900,10.70511181640625,-0.875701904296875,-0.3570709228515625,0.1776580810546875
1772790175922178000,10.715177978515625,-0.8858184814453125,-0.348846435546875,0.174896240234375
1772790175932243000,10.725242919921875,-0.8946990966796875,-0.34088134765625,0.1640777587890625
1772790175942308400,10.735308349609374,-0.9035186767578125,-0.3338775634765625,0.1538543701171875
1772790175952374300,10.745374267578125,-0.910003662109375,-0.327117919921875,0.1515960693359375
1772790175962439400,10.755439453125,-0.9122467041015625,-0.3197784423828125,0.1490936279296875
1772790175972505300,10.76550537109375,-0.9157867431640625,-0.31854248046875,0.1454620361328125
1772790175982571300,10.7755712890625,-0.917724609375,-0.321258544921875,0.147674560546875
1772790175992636400,10.785636474609374,-0.915557861328125,-0.3265533447265625,0.151214599609375
1772790176002702300,10.795702392578125,-0.90557861328125,-0.33856201171875,0.161376953125
1772790176012768300,10.805768310546876,-0.898895263671875,-0.3492431640625,0.17138671875
1772790176022833400,10.81583349609375,-0.8967437744140625,-0.3591461181640625,0.182647705078125
1772790176032899300,10.8258994140625,-0.898529052734375,-0.37030029296875,0.1891632080078125
1772790176042965500,10.835965576171875,-0.9008636474609375,-0.380706787109375,0.1952056884765625
1772790176053030100,10.846030029296875,-0.9011688232421875,-0.3830718994140625,0.19769287109375
1772790176063096300,10.856096435546876,-0.8920135498046875,-0.3823699951171875,0.2019195556640625
1772790176073162200,10.866162353515625,-0.889251708984375,-0.3886260986328125,0.198516845703125
1772790176083227400,10.876227294921875,-0.9000091552734375,-0.3828582763671875,0.20941162109375
1772790176093293300,10.886293212890624,-0.9129638671875,-0.386016845703125,0.2184600830078125
1772790176103359200,10.896359130859375,-0.9173736572265625,-0.38824462890625,0.2223052978515625
1772790176113425200,10.906425048828124,-0.9125823974609375,-0.3792266845703125,0.2188262939453125
1772790176123490300,10.916490234375,-0.8947906494140625,-0.367218017578125,0.2112579345703125
1772790176133556500,10.926556396484376,-0.8886871337890625,-0.3639984130859375,0.2015838623046875
1772790176143622400,10.936622314453125,-0.9013824462890625,-0.364593505859375,0.1927490234375
1772790176153687300,10.946687255859375,-0.90435791015625,-0.360992431640625,0.1884002685546875
1772790176163753200,10.956753173828124,-0.9104156494140625,-0.35888671875,0.1881561279296875
1772790176173819400,10.9668193359375,-0.9107513427734375,-0.355255126953125,0.18218994140625
1772790176183884300,10.97688427734375,-0.895263671875,-0.348175048828125,0.17431640625
1772790176193950500,10.986950439453125,-0.881439208984375,-0.337615966796875,0.16900634765625
1772790176204016400,10.997016357421876,-0.8893585205078125,-0.3338623046875,0.1690673828125
1772790176214081300,11.007081298828124,-0.90606689453125,-0.3377532958984375,0.167236328125
1772790176224147200,11.017147216796875,-0.9091033935546875,-0.3385467529296875,0.152587890625
1772790176234213400,11.02721337890625,-0.88970947265625,-0.333984375,0.13671875
1772790176244278500,11.037278564453125,-0.8858795166015625,-0.339202880859375,0.126129150390625
1772790176254344200,11.04734423828125,-0.895263671875,-0.344268798828125,0.120269775390625
1772790176264410400,11.057410400390625,-0.8985748291015625,-0.3448486328125,0.1214599609375
1772790176274475300,11.067475341796875,-0.887603759765625,-0.3410797119140625,0.126617431640625
1772790176284541400,11.07754150390625,-0.8845367431640625,-0.3377838134765625,0.132415771484375
1772790176294607400,11.087607421875,-0.8980712890625,-0.338623046875,0.1389617919921875
1772790176304672300,11.09767236328125,-0.9178009033203125,-0.3455963134765625,0.1378021240234375
1772790176314738200,11.10773828125,-0.9322357177734375,-0.35406494140625,0.139190673828125
1772790176324804400,11.117804443359375,-0.9434356689453125,-0.356048583984375,0.139495849609375
1772790176334870300,11.127870361328124,-0.94366455078125,-0.351898193359375,0.13226318359375
1772790176344935400,11.137935302734375,-0.9522247314453125,-0.34283447265625,0.12237548828125
1772790176355001300,11.14800146484375,-0.962677001953125,-0.334259033203125,0.109527587890625
1772790176365067300,11.1580673828125,-0.9717254638671875,-0.3275146484375,0.0979461669921875
1772790176375132400,11.16813232421875,-0.9740142822265625,-0.3262176513671875,0.1004180908203125
1772790176385198300,11.1781982421875,-0.9664459228515625,-0.321014404296875,0.1092987060546875
1772790176395264500,11.188264404296875,-0.9526214599609375,-0.3055419921875,0.1136932373046875
1772790176405329200,11.1983291015625,-0.9429779052734375,-0.2899017333984375,0.1109161376953125
1772790176415395300,11.208395263671875,-0.9461669921875,-0.2779693603515625,0.1095428466796875
1772790176425461200,11.218461181640626,-0.9656219482421875,-0.27490234375,0.1116485595703125
1772790176435526400,11.2285263671875,-0.9821319580078125,-0.291046142578125,0.1187744140625
1772790176445592300,11.23859228515625,-0.9791259765625,-0.30621337890625,0.1291046142578125
1772790176455658500,11.248658447265624,-0.97113037109375,-0.309417724609375,0.1396942138671875
1772790176465723400,11.258723388671875,-0.968841552734375,-0.309326171875,0.1421356201171875
1772790176475789300,11.268789306640626,-0.965118408203125,-0.305908203125,0.1436004638671875
1772790176485855200,11.278855224609375,-0.9774932861328125,-0.310089111328125,0.1453704833984375
1772790176495920400,11.28892041015625,-0.992401123046875,-0.3138885498046875,0.1427154541015625
1772790176505986600,11.298986572265624,-0.991912841796875,-0.31011962890625,0.143646240234375
1772790176516052200,11.30905224609375,-0.9893951416015625,-0.3055267333984375,0.145538330078125
1772790176526117400,11.319117431640626,-1.00390625,-0.30718994140625,0.1461944580078125
1772790176536183300,11.329183349609375,-1.017364501953125,-0.3087615966796875,0.1470794677734375
1772790176546249500,11.33924951171875,-1.0177154541015625,-0.301910400390625,0.1473236083984375
1772790176556314000,11.349314208984374,-1.0106201171875,-0.295074462890625,0.136444091796875
1772790176566380300,11.35938037109375,-1.0044708251953125,-0.285491943359375,0.1172943115234375
1772790176576446200,11.3694462890625,-1.0057525634765625,-0.2799224853515625,0.10150146484375
1772790176586512400,11.379512451171875,-1.007110595703125,-0.27899169921875,0.0867156982421875
1772790176596577300,11.389577392578126,-1.0066070556640625,-0.273406982421875,0.0767822265625
1772790176606643500,11.3996435546875,-1.0091705322265625,-0.27642822265625,0.0770111083984375
1772790176616709000,11.409709228515625,-1.0175018310546875,-0.2812957763671875,0.07415771484375
1772790176626774300,11.419774169921874,-1.02630615234375,-0.2850494384765625,0.070556640625
1772790176636840400,11.42984033203125,-1.0274810791015625,-0.2935791015625,0.0672760009765625
1772790176646906400,11.43990625,-1.0135345458984375,-0.2928619384765625,0.063018798828125
1772790176656971300,11.44997119140625,-1.0023040771484375,-0.283294677734375,0.0555267333984375
1772790176667037200,11.460037109375,-1.0039215087890625,-0.274200439453125,0.049957275390625
1772790176677103400,11.470103271484374,-0.9928131103515625,-0.27178955078125,0.05035400390625
1772790176687168300,11.480168212890625,-0.974090576171875,-0.267822265625,0.0539398193359375
1772790176697234400,11.490234375,-0.9512176513671875,-0.262481689453125,0.066009521484375
1772790176707300400,11.50030029296875,-0.9402923583984375,-0.26409912109375,0.0764923095703125
1772790176717365200,11.510365234375,-0.952362060546875,-0.2677764892578125,0.0819854736328125
1772790176727431400,11.520431396484375,-0.9585723876953125,-0.2686920166015625,0.085906982421875
1772790176737497300,11.530497314453125,-0.94207763671875,-0.26568603515625,0.0906219482421875
1772790176747562500,11.5405625,-0.92822265625,-0.26885986328125,0.0934295654296875
1772790176757628400,11.55062841796875,-0.9276580810546875,-0.275238037109375,0.0960235595703125
1772790176767694300,11.5606943359375,-0.9324951171875,-0.2832183837890625,0.103424072265625
1772790176777759200,11.57075927734375,-0.945037841796875,-0.2892913818359375,0.10565185546875
1772790176787825400,11.580825439453125,-0.9530181884765625,-0.2943878173828125,0.1076812744140625
1772790176797891300,11.590891357421874,-0.953765869140625,-0.29461669921875,0.1087493896484375
1772790176807956200,11.600956298828125,-0.9501800537109375,-0.2936248779296875,0.1066436767578125
1772790176818022100,11.611022216796876,-0.953521728515625,-0.29443359375,0.107574462890625
1772790176828088300,11.62108837890625,-0.9612274169921875,-0.2917022705078125,0.1076507568359375
1772790176838154200,11.631154296875,-0.9628143310546875,-0.2901611328125,0.107330322265625
1772790176848219400,11.641219482421874,-0.9574127197265625,-0.288970947265625,0.106719970703125
1772790176858285300,11.651285400390625,-0.96038818359375,-0.2892913818359375,0.109619140625
1772790176868351200,11.661351318359374,-0.9740447998046875,-0.293426513671875,0.1090850830078125
1772790176878416400,11.67141650390625,-0.984100341796875,-0.2978973388671875,0.1102752685546875
1772790176888482300,11.681482421875,-0.989776611328125,-0.2996978759765625,0.1099700927734375
1772790176898548500,11.691548583984375,-0.98016357421875,-0.29913330078125,0.110504150390625
1772790176908613400,11.70161328125,-0.9722442626953125,-0.294647216796875,0.1053924560546875
1772790176918679300,11.71167919921875,-0.9789581298828125,-0.289947509765625,0.101531982421875
1772790176928745200,11.7217451171875,-0.99267578125,-0.2899932861328125,0.1024932861328125
1772790176938810000,11.73181005859375,-0.991302490234375,-0.2864837646484375,0.1005401611328125
1772790176948876000,11.7418759765625,-0.9766387939453125,-0.2765655517578125,0.0977783203125
1772790176958942200,11.751942138671875,-0.9750823974609375,-0.2695465087890625,0.0917205810546875
1772790176969007400,11.76200732421875,-0.9867095947265625,-0.270416259765625,0.085113525390625
1772790176979073300,11.7720732421875,-0.9990692138671875,-0.268035888671875,0.0841217041015625
1772790176989139200,11.78213916015625,-1.01104736328125,-0.26385498046875,0.0897064208984375
1772790176999204000,11.7922041015625,-1.01214599609375,-0.2599945068359375,0.09222412109375
1772790177009270300,11.802270263671875,-1.0070343017578125,-0.252716064453125,0.0910797119140625
1772790177019336200,11.812336181640624,-0.988128662109375,-0.259674072265625,0.091064453125
1772790177029401000,11.822401123046875,-0.9466400146484375,-0.27001953125,0.09783935546875
1772790177039467000,11.832467041015626,-0.9167327880859375,-0.263885498046875,0.11932373046875
1772790177049533200,11.842533203125,-0.9302978515625,-0.25164794921875,0.148193359375
1772790177059598000,11.85259814453125,-0.97186279296875,-0.2528076171875,0.157806396484375
1772790177069664300,11.862664306640625,-0.980224609375,-0.254364013671875,0.1569671630859375
1772790177079730200,11.872730224609375,-1.01495361328125,-0.252044677734375,0.1771240234375
1772790177089795000,11.882795166015624,-1.0495452880859375,-0.2524871826171875,0.192291259765625
1772790177099861200,11.892861328125,-1.0502471923828125,-0.24481201171875,0.1824798583984375
1772790177109927200,11.90292724609375,-1.0372161865234375,-0.23931884765625,0.1534271240234375
1772790177119993000,11.9129931640625,-1.033355712890625,-0.23626708984375,0.118408203125
1772790177130058000,11.92305810546875,-1.028839111328125,-0.2337646484375,0.1052703857421875
1772790177140124200,11.933124267578124,-1.0221099853515625,-0.2448272705078125,0.0958404541015625
1772790177150190000,11.943190185546875,-1.00885009765625,-0.2619171142578125,0.088287353515625
1772790177160255200,11.953255126953126,-1.0041046142578125,-0.2755584716796875,0.080535888671875
1772790177170321200,11.963321044921875,-1.00872802734375,-0.2899627685546875,0.0697479248046875
1772790177180387300,11.97338720703125,-1.0019073486328125,-0.304473876953125,0.067840576171875
1772790177190452200,11.9834521484375,-0.988677978515625,-0.31878662109375,0.068939208984375
1772790177200518100,11.99351806640625,-0.9734344482421875,-0.326141357421875,0.06622314453125
1772790177210583300,12.003583251953126,-0.9697265625,-0.3330841064453125,0.0625152587890625
1772790177220649200,12.013649169921875,-0.9732818603515625,-0.3424835205078125,0.057525634765625
1772790177230715400,12.02371533203125,-0.9526519775390625,-0.3449554443359375,0.054962158203125
1772790177240780000,12.033780029296874,-0.9308319091796875,-0.35302734375,0.050689697265625
1772790177250846200,12.04384619140625,-0.9140167236328125,-0.3625030517578125,0.05389404296875
1772790177260912000,12.053912109375,-0.91058349609375,-0.372100830078125,0.0587158203125
1772790177270977300,12.063977294921875,-0.9142608642578125,-0.3733673095703125,0.0627593994140625
1772790177281043000,12.07404296875,-0.9001922607421875,-0.370361328125,0.0735931396484375
1772790177291109000,12.084109130859375,-0.891326904296875,-0.360809326171875,0.0737457275390625
1772790177301174300,12.09417431640625,-0.892669677734375,-0.35369873046875,0.0694580078125
1772790177311240200,12.104240234375,-0.8977813720703125,-0.3468475341796875,0.0654144287109375
1772790177321306000,12.11430615234375,-0.9018402099609375,-0.3383941650390625,0.0678558349609375
1772790177331371000,12.12437109375,-0.91302490234375,-0.3343963623046875,0.0705718994140625
1772790177341437200,12.134437255859375,-0.921112060546875,-0.3264617919921875,0.0669708251953125
1772790177351503000,12.144503173828125,-0.9132080078125,-0.31414794921875,0.0641632080078125
1772790177361568300,12.154568359375,-0.91802978515625,-0.30859375,0.065582275390625
1772790177371634200,12.16463427734375,-0.9332427978515625,-0.3031158447265625,0.058685302734375
1772790177381700400,12.174700439453124,-0.9400482177734375,-0.292938232421875,0.044403076171875
1772790177391765000,12.184764892578125,-0.9502410888671875,-0.285614013671875,0.0401458740234375
1772790177401831200,12.1948310546875,-0.96087646484375,-0.2826995849609375,0.029754638671875
1772790177411897000,12.20489697265625,-0.9587554931640625,-0.2828216552734375,0.02734375
1772790177421962200,12.214962158203125,-0.9600372314453125,-0.2790985107421875,0.03094482421875
1772790177432028200,12.225028076171874,-0.9534759521484375,-0.2714385986328125,0.0218505859375
1772790177442094000,12.235093994140625,-0.93731689453125,-0.2662200927734375,0.011871337890625
1772790177452159200,12.2451591796875,-0.928375244140625,-0.263946533203125,0.0022125244140625
1772790177462225200,12.25522509765625,-0.9390106201171875,-0.2683563232421875,0.0024566650390625
1772790177472291300,12.265291259765625,-0.95391845703125,-0.27642822265625,0.0077667236328125
1772790177482356000,12.27535595703125,-0.9587249755859375,-0.2852325439453125,0.013885498046875
1772790177492422100,12.285422119140625,-0.9594268798828125,-0.2912139892578125,0.0176239013671875
1772790177502488000,12.295488037109376,-0.9608001708984375,-0.29193115234375,0.0213623046875
1772790177512554200,12.30555419921875,-0.9560546875,-0.2897491455078125,0.0150909423828125
1772790177522619100,12.315619140625,-0.945098876953125,-0.2865447998046875,0.0059356689453125
1772790177532685300,12.325685302734374,-0.9529571533203125,-0.283782958984375,-0.0024871826171875
1772790177542751000,12.3357509765625,-0.97412109375,-0.284393310546875,-0.015167236328125
1772790177552816000,12.345816162109376,-0.988494873046875,-0.2893829345703125,-0.0200042724609375
1772790177562882300,12.35588232421875,-0.9952850341796875,-0.2868804931640625,-0.0275421142578125
1772790177572948200,12.3659482421875,-0.9918670654296875,-0.276153564453125,-0.0375213623046875
1772790177583013000,12.37601318359375,-0.9990386962890625,-0.2751007080078125,-0.0459442138671875
1772790177593079000,12.3860791015625,-1.016510009765625,-0.27508544921875,-0.051422119140625
1772790177603145200,12.396145263671874,-1.024658203125,-0.2685089111328125,-0.061553955078125
1772790177613210000,12.406210205078125,-1.0152130126953125,-0.26593017578125,-0.069732666015625
1772790177623276300,12.4162763671875,-1.011749267578125,-0.270904541015625,-0.0770416259765625
1772790177633342200,12.42634228515625,-1.0045318603515625,-0.271636962890625,-0.078033447265625
1772790177643407000,12.436406982421875,-0.9947967529296875,-0.2717742919921875,-0.080108642578125
1772790177653473000,12.44647314453125,-1.0024871826171875,-0.2764892578125,-0.0765380859375
1772790177663539200,12.456539306640625,-1.010009765625,-0.2769775390625,-0.0700836181640625
1772790177673604400,12.466604248046876,-1.004180908203125,-0.2761077880859375,-0.058837890625
1772790177683670300,12.476670166015625,-0.988494873046875,-0.2756805419921875,-0.0542144775390625
1772790177693736200,12.486736083984376,-0.9777069091796875,-0.278411865234375,-0.0539703369140625
1772790177703801000,12.496801025390624,-0.980224609375,-0.283660888671875,-0.0509490966796875
1772790177713867300,12.5068671875,-0.994598388671875,-0.29083251953125,-0.0457916259765625
1772790177723933200,12.51693310546875,-1.0076141357421875,-0.2996368408203125,-0.03692626953125
1772790177733998000,12.526998046875,-1.009979248046875,-0.3049468994140625,-0.0275726318359375
1772790177744064000,12.53706396484375,-0.984771728515625,-0.299468994140625,-0.0228424072265625
1772790177754130200,12.547130126953125,-0.960784912109375,-0.2884521484375,-0.0185546875
1772790177764195300,12.5571953125,-0.957000732421875,-0.284393310546875,-0.009765625
1772790177774261200,12.56726123046875,-0.9705352783203125,-0.2862091064453125,-0.0022125244140625
1772790177784327200,12.5773271484375,-0.9798126220703125,-0.2879791259765625,0.00341796875
1772790177794392000,12.58739208984375,-0.974090576171875,-0.289520263671875,0.0052490234375
1772790177804458200,12.597458251953125,-0.9661712646484375,-0.293121337890625,0.0078582763671875
1772790177814524200,12.607524169921875,-0.9672393798828125,-0.3006591796875,0.015533447265625
1772790177824590000,12.617590087890624,-0.96478271484375,-0.302398681640625,0.0109710693359375
1772790177834656300,12.62765625,-0.9609375,-0.309234619140625,0.008209228515625
1772790177844721200,12.63772119140625,-0.9845428466796875,-0.313812255859375,0.0084228515625
1772790177854787000,12.647787109375,-0.990478515625,-0.313873291015625,0.0083465576171875
1772790177864853200,12.657853271484376,-0.96923828125,-0.3155364990234375,0.0134429931640625
1772790177874918100,12.667918212890624,-0.9619598388671875,-0.3105316162109375,0.011932373046875
1772790177884984300,12.677984375,-0.9648284912109375,-0.297149658203125,0.0155181884765625
1772790177895050000,12.688050048828124,-0.9622344970703125,-0.298309326171875,0.0222320556640625
1772790177905115100,12.698115234375,-0.970428466796875,-0.3016204833984375,0.025665283203125
1772790177915181000,12.70818115234375,-0.978851318359375,-0.3041839599609375,0.0301666259765625
1772790177925247200,12.718247314453125,-0.97271728515625,-0.3035430908203125,0.0326385498046875
1772790177935313200,12.728313232421876,-0.9600677490234375,-0.30621337890625,0.03985595703125
1772790177945377500,12.73837744140625,-0.9664459228515625,-0.314727783203125,0.0454864501953125
1772790177955443700,12.748443603515625,-0.9636383056640625,-0.3246307373046875,0.041656494140625
1772790177965509600,12.758509521484376,-0.9389190673828125,-0.326019287109375,0.054718017578125
1772790177975574500,12.768574462890625,-0.9239654541015625,-0.3182373046875,0.0735626220703125
1772790177985640400,12.778640380859375,-0.9258575439453125,-0.3186798095703125,0.081451416015625
1772790177995706600,12.78870654296875,-0.9268646240234375,-0.3240203857421875,0.08831787109375
1772790178005771500,12.798771484375,-0.925018310546875,-0.3264007568359375,0.09228515625
1772790178015837400,12.80883740234375,-0.9127197265625,-0.32720947265625,0.1011199951171875
1772790178025903400,12.8189033203125,-0.91552734375,-0.3293304443359375,0.1065673828125
1772790178035968500,12.828968505859375,-0.9211578369140625,-0.336273193359375,0.08905029296875
1772790178046034700,12.83903466796875,-0.919342041015625,-0.3336029052734375,0.0897064208984375
1772790178056100600,12.8491005859375,-0.9110107421875,-0.317230224609375,0.081573486328125
1772790178066165500,12.85916552734375,-0.78997802734375,-0.2951202392578125,0.0898895263671875
1772790178076231400,12.8692314453125,-0.7901458740234375,-0.2976226806640625,0.124176025390625
1772790178086297600,12.879297607421876,-0.994384765625,-0.3214874267578125,0.0948638916015625
1772790178096362500,12.889362548828124,-1.0111236572265625,-0.346832275390625,0.10003662109375
1772790178106428700,12.8994287109375,-0.950439453125,-0.327789306640625,0.1258087158203125
1772790178116494600,12.90949462890625,-0.9611358642578125,-0.323699951171875,0.116485595703125
1772790178126559500,12.9195595703125,-0.9920501708984375,-0.3434295654296875,0.117706298828125
1772790178136625400,12.92962548828125,-1.0025634765625,-0.3371734619140625,0.11773681640625
1772790178146691600,12.939691650390625,-0.9613037109375,-0.3176727294921875,0.12506103515625
1772790178156756700,12.9497568359375,-0.891448974609375,-0.3183441162109375,0.124267578125
1772790178166822400,12.959822509765624,-0.895355224609375,-0.315673828125,0.122039794921875
