time,seconds_elapsed,z,y,x
1772790165280206600,0.07320654296875,-0.4571547210216522,0.5184038281440735,-0.22507046163082123
1772790165290271700,0.083271728515625,-0.460101455450058,0.41704505681991577,-0.15773706138134003
1772790165300337700,0.093337646484375,-0.4728691875934601,0.3332100808620453,-0.1107405349612236
1772790165310403800,0.10340380859375,-0.4888785481452942,0.25090619921684265,-0.11398790776729584
1772790165320469500,0.113469482421875,-0.4959804117679596,0.1551045924425125,-0.15372014045715332
1772790165330534700,0.12353466796875,-0.5172910690307617,0.05890090763568878,-0.18143366277217865
1772790165340600800,0.133600830078125,-0.5490689873695374,-0.01835978589951992,-0.17038607597351074
1772790165350666800,0.143666748046875,-0.5810088515281677,-0.1030278205871582,-0.12114939838647842
1772790165360732700,0.153732666015625,-0.6140621304512024,-0.19710345566272736,-0.055866535753011703
1772790165370797600,0.163797607421875,-0.6498809456825256,-0.26753464341163635,-0.001332850893959403
1772790165380863700,0.17386376953125,-0.6942252516746521,-0.32852503657341003,0.021017994731664658
1772790165390929700,0.1839296875,-0.7343879342079163,-0.4003027081489563,0.025585481896996498
1772790165400994800,0.193994873046875,-0.7726951241493225,-0.42856815457344055,0.03167666494846344
1772790165411060700,0.204060791015625,-0.7972406148910522,-0.422235906124115,0.029579855501651764
1772790165421126700,0.214126708984375,-0.8006023168563843,-0.4103512763977051,0.023133939132094383
1772790165431192600,0.224192626953125,-0.7910670638084412,-0.3985280394554138,0.027388693764805794
1772790165441257700,0.2342578125,-0.779729425907135,-0.39711788296699524,0.05216461047530174
1772790165451323600,0.24432373046875,-0.7814795970916748,-0.4071573317050934,0.09201519191265106
1772790165461389800,0.254389892578125,-0.7976327538490295,-0.44947683811187744,0.13323958218097687
1772790165471455700,0.264455810546875,-0.8151319622993469,-0.4955718219280243,0.16658371686935425
1772790165481520600,0.274520751953125,-0.8289766311645508,-0.47869694232940674,0.18629670143127441
1772790165491586600,0.284586669921875,-0.8340247869491577,-0.41442519426345825,0.20116285979747772
1772790165501652700,0.29465283203125,-0.8412211537361145,-0.3559570908546448,0.21767392754554749
1772790165511718700,0.30471875,-0.854055643081665,-0.3158472180366516,0.24265098571777344
1772790165521783600,0.314783447265625,-0.8706998825073242,-0.28879085183143616,0.2737726867198944
1772790165531849700,0.324849609375,-0.8760726451873779,-0.2747501730918884,0.29778698086738586
1772790165541915600,0.33491552734375,-0.8673279285430908,-0.24600401520729065,0.30351704359054565
1772790165551980800,0.344980712890625,-0.854839563369751,-0.21353527903556824,0.29532861709594727
1772790165562046700,0.355046630859375,-0.854541540145874,-0.19163665175437927,0.28063035011291504
1772790165572113000,0.36511279296875,-0.8729059100151062,-0.20364856719970703,0.25428396463394165
1772790165582178600,0.375178466796875,-0.9074687361717224,-0.2402791827917099,0.22903627157211304
1772790165592243700,0.38524365234375,-0.9529760479927063,-0.28594765067100525,0.2083105742931366
1772790165602309600,0.3953095703125,-0.988552451133728,-0.3084582984447479,0.19171082973480225
1772790165612375800,0.405375732421875,-1.0128772258758545,-0.28715038299560547,0.1837732046842575
1772790165622441700,0.415441650390625,-1.027105450630188,-0.23994427919387817,0.17578664422035217
1772790165632506600,0.425506591796875,-1.0336863994598389,-0.1553623080253601,0.15919770300388336
1772790165642572500,0.435572509765625,-1.029794692993164,-0.07745925337076187,0.1190851628780365
1772790165652638700,0.445638671875,-1.017142415046692,-0.02535315975546837,0.06922804564237595
1772790165662704600,0.45570458984375,-0.9771137237548828,-0.013001952320337296,0.04988817498087883
1772790165672769800,0.465769775390625,-1.0129977464675903,-0.011072558350861073,0.016674747690558434
1772790165682835700,0.475835693359375,-1.0431915521621704,-0.08871036767959595,0.002590886550024152
1772790165692901600,0.485901611328125,-1.017280101776123,-0.17589592933654785,0.03649356588721275
1772790165702966800,0.495966796875,-0.9847596883773804,-0.28399601578712463,0.12869885563850403
1772790165713032700,0.50603271484375,-0.963034987449646,-0.3926891088485718,0.2545940577983856
1772790165723099000,0.516098876953125,-0.924919843673706,-0.4597669541835785,0.387525737285614
1772790165733164800,0.526164794921875,-0.896669328212738,-0.5164843201637268,0.4990871250629425
1772790165743229700,0.536229736328125,-0.8846738934516907,-0.5797184109687805,0.5695106983184814
1772790165753295600,0.546295654296875,-0.8957188129425049,-0.6334622502326965,0.6148392558097839
1772790165763361800,0.55636181640625,-0.9401326179504395,-0.6573603749275208,0.6179953813552856
1772790165773427700,0.566427734375,-0.9949389100074768,-0.6613583564758301,0.5813841819763184
1772790165783492900,0.576492919921875,-1.0398694276809692,-0.6363017559051514,0.5060883164405823
1772790165793558500,0.58655859375,-1.0559521913528442,-0.572104811668396,0.4049209654331207
1772790165803624700,0.596624755859375,-1.0385360717773438,-0.47326773405075073,0.2858438491821289
1772790165813689600,0.606689697265625,-0.9974682927131653,-0.3593265116214752,0.16227781772613525
1772790165823755800,0.616755859375,-0.9505071640014648,-0.24219879508018494,0.04929453879594803
1772790165833821700,0.62682177734375,-0.8932808041572571,-0.1176220253109932,-0.04658348485827446
1772790165843887900,0.636887939453125,-0.8404295444488525,-0.02065926045179367,-0.116287462413311
1772790165853952800,0.646952880859375,-0.8032801747322083,0.05741063132882118,-0.1624326854944229
1772790165864018700,0.657018798828125,-0.7610496282577515,0.1448315531015396,-0.1809493750333786
1772790165874084600,0.667084716796875,-0.7032984495162964,0.23856553435325623,-0.18493476510047913
1772790165884150800,0.67715087890625,-0.6534776091575623,0.2940239906311035,-0.17062613368034363
1772790165894216000,0.6872158203125,-0.6447579860687256,0.2876057028770447,-0.15994103252887726
1772790165904281600,0.697281494140625,-0.6567813754081726,0.27357667684555054,-0.15726695954799652
1772790165914347800,0.70734765625,-0.6606553792953491,0.24328520894050598,-0.15877795219421387
1772790165924413700,0.71741357421875,-0.6641976833343506,0.19901122152805328,-0.17094886302947998
1772790165934479600,0.727479736328125,-0.6722056269645691,0.16065941751003265,-0.20346751809120178
1772790165944545800,0.7375458984375,-0.6838220357894897,0.11908294260501862,-0.2540814280509949
1772790165954611700,0.74761181640625,-0.7030573487281799,0.07314881682395935,-0.3398301601409912
1772790165964676900,0.7576767578125,-0.724352240562439,0.01239518541842699,-0.45828330516815186
1772790165974742800,0.76774267578125,-0.7464599609375,-0.0713484063744545,-0.5887025594711304
1772790165984808700,0.77780859375,-0.7715789079666138,-0.1954445242881775,-0.7041958570480347
1772790165994874600,0.78787451171875,-0.8025427460670471,-0.3342289924621582,-0.7763839364051819
1772790166004939800,0.797939697265625,-0.8453352451324463,-0.46021273732185364,-0.7914371490478516
1772790166015006000,0.808005859375,-0.8815762400627136,-0.5559748411178589,-0.7538036704063416
1772790166025071900,0.81807177734375,-0.897988498210907,-0.6049684286117554,-0.6745293140411377
1772790166035137800,0.8281376953125,-0.8968983888626099,-0.5910438895225525,-0.5744118094444275
1772790166045202700,0.83820263671875,-0.8916548490524292,-0.5274779796600342,-0.46481841802597046
1772790166055268900,0.848268798828125,-0.8891276121139526,-0.41634079813957214,-0.37130188941955566
1772790166065334800,0.858334716796875,-0.8894570469856262,-0.2801986634731293,-0.317480206489563
1772790166075400000,0.86839990234375,-0.8783149123191833,-0.1881559044122696,-0.29005780816078186
1772790166085465900,0.8784658203125,-0.8534417748451233,-0.14246244728565216,-0.2756924629211426
1772790166095531800,0.88853173828125,-0.8319829106330872,-0.1130695715546608,-0.2508586347103119
1772790166105597700,0.89859765625,-0.8218958973884583,-0.12165560573339462,-0.21017511188983917
1772790166115662800,0.908662841796875,-0.8161665797233582,-0.12835483253002167,-0.1599406749010086
1772790166125728800,0.918728759765625,-0.8036907315254211,-0.12876255810260773,-0.10132183134555817
1772790166135795000,0.928794921875,-0.7688845992088318,-0.1482563614845276,-0.03288373351097107
1772790166145860900,0.93886083984375,-0.7283622026443481,-0.1904461532831192,0.03746659681200981
1772790166155925800,0.94892578125,-0.6915230751037598,-0.26399457454681396,0.12083383649587631
1772790166165991700,0.95899169921875,-0.6571994423866272,-0.3636167645454407,0.22007574141025543
1772790166176057900,0.969057861328125,-0.6216865181922913,-0.475953608751297,0.3420685827732086
1772790166186123000,0.979123046875,-0.603918194770813,-0.5637092590332031,0.4790876805782318
1772790166196188700,0.989188720703125,-0.6175801753997803,-0.6098683476448059,0.6019117832183838
1772790166206254800,0.9992548828125,-0.6482810974121094,-0.6418552994728088,0.6959482431411743
1772790166216320800,1.00932080078125,-0.6986923813819885,-0.6544634103775024,0.7301328182220459
1772790166226386000,1.019385986328125,-0.761779248714447,-0.6555718183517456,0.7055542469024658
1772790166236451800,1.029451904296875,-0.8433700203895569,-0.6264503002166748,0.6434240937232971
1772790166246518000,1.03951806640625,-0.9306144118309021,-0.5687326788902283,0.5440114736557007
1772790166256583700,1.049583740234375,-1.0152359008789062,-0.4807799756526947,0.43684348464012146
1772790166266648800,1.05964892578125,-1.086548089981079,-0.36555272340774536,0.33019694685935974
1772790166276714800,1.06971484375,-1.145859718322754,-0.25747808814048767,0.23225165903568268
1772790166286781000,1.079781005859375,-1.1972792148590088,-0.16350498795509338,0.1528732180595398
1772790166296845600,1.089845458984375,-1.253694772720337,-0.08137846738100052,0.07819068431854248
1772790166306911700,1.099911865234375,-1.2864876985549927,-0.015232469886541367,0.002526546362787485
1772790166316977700,1.109977783203125,-1.3015210628509521,0.01733047142624855,-0.08100837469100952
1772790166327043800,1.1200439453125,-1.292234182357788,0.055203020572662354,-0.1549486517906189
1772790166337108700,1.130108642578125,-1.2721505165100098,0.10858920216560364,-0.2089564949274063
1772790166347175000,1.1401748046875,-1.251481294631958,0.15512660145759583,-0.23551620543003082
1772790166357240600,1.150240478515625,-1.2260987758636475,0.20206385850906372,-0.2378293126821518
1772790166367306800,1.160306640625,-1.1922858953475952,0.24639618396759033,-0.22453001141548157
1772790166377372000,1.170371826171875,-1.1533745527267456,0.28819739818573,-0.20614579319953918
1772790166387437800,1.180437744140625,-1.1061183214187622,0.3127911388874054,-0.18766477704048157
1772790166397503700,1.190503662109375,-1.052445888519287,0.32792702317237854,-0.18097814917564392
1772790166407570000,1.20056982421875,-0.9840465784072876,0.3074169456958771,-0.18162901699543
1772790166417634800,1.210634765625,-0.9178542494773865,0.2656204402446747,-0.17915073037147522
1772790166427700700,1.22070068359375,-0.8499329686164856,0.22927336394786835,-0.16882725059986115
1772790166437767000,1.230766845703125,-0.7883628010749817,0.17852333188056946,-0.1499289721250534
1772790166447831800,1.240831787109375,-0.7246551513671875,0.11056612432003021,-0.13283014297485352
1772790166457898000,1.25089794921875,-0.6605084538459778,0.0224783755838871,-0.10714978724718094
1772790166467963600,1.260963623046875,-0.6087802648544312,-0.06484614312648773,-0.0793921947479248
1772790166478029800,1.27102978515625,-0.5744134783744812,-0.12824343144893646,-0.04277435317635536
1772790166488094700,1.2810947265625,-0.5587173104286194,-0.17081592977046967,-0.0016242543933913112
1772790166498161000,1.291160888671875,-0.5508345365524292,-0.19849112629890442,0.04036612808704376
1772790166508226800,1.301226806640625,-0.5449643731117249,-0.1969424933195114,0.07096052169799805
1772790166518291700,1.311291748046875,-0.5394487380981445,-0.19209536910057068,0.0988372191786766
1772790166528357600,1.321357666015625,-0.5321876406669617,-0.1962866485118866,0.11500926315784454
1772790166538423800,1.331423828125,-0.5306742787361145,-0.1963217407464981,0.12291540205478668
1772790166548489700,1.34148974609375,-0.5210219025611877,-0.19177278876304626,0.11969244480133057
1772790166558555000,1.351554931640625,-0.5070854425430298,-0.18800705671310425,0.11562519520521164
1772790166568620800,1.361620849609375,-0.48900604248046875,-0.18261735141277313,0.10023771971464157
1772790166578686700,1.371686767578125,-0.4711426794528961,-0.15858930349349976,0.08517418056726456
1772790166588752600,1.381752685546875,-0.46141308546066284,-0.12503667175769806,0.06725110858678818
1772790166598817800,1.39181787109375,-0.45467138290405273,-0.09082706272602081,0.06477611511945724
1772790166608884000,1.401884033203125,-0.44417744874954224,-0.057383887469768524,0.06490740925073624
1772790166618950000,1.411949951171875,-0.4272608458995819,-0.033882491290569305,0.07002342492341995
1772790166629014800,1.422014892578125,-0.4009847640991211,-0.013187599368393421,0.0899614468216896
1772790166639080700,1.432080810546875,-0.3752397298812866,-0.008262315765023232,0.10797617584466934
1772790166649147000,1.44214697265625,-0.35009416937828064,-0.0391954630613327,0.11407774686813354
1772790166659212800,1.452212890625,-0.32789456844329834,-0.07284175604581833,0.1234661191701889
1772790166669278000,1.46227783203125,-0.31452682614326477,-0.09441202878952026,0.12761932611465454
1772790166679343600,1.472343505859375,-0.29632246494293213,-0.10686106979846954,0.1303665041923523
1772790166689409800,1.482409912109375,-0.2667379379272461,-0.09930248558521271,0.13535434007644653
1772790166699475700,1.492475830078125,-0.21468602120876312,-0.09552406519651413,0.12722370028495789
1772790166709540900,1.502540771484375,-0.153854638338089,-0.09425000846385956,0.11980360001325607
1772790166719606800,1.512606689453125,-0.09775999933481216,-0.08526961505413055,0.11014096438884735
1772790166729673000,1.5226728515625,-0.04006953909993172,-0.08437585830688477,0.09874024242162704
1772790166739738600,1.532738525390625,0.014747615903615952,-0.08653180301189423,0.09188076108694077
1772790166749803800,1.5428037109375,0.06560120731592178,-0.1076490730047226,0.08136127144098282
1772790166759869700,1.55286962890625,0.10480964928865433,-0.13846617937088013,0.0855008065700531
1772790166769936000,1.562935791015625,0.1412382423877716,-0.13291774690151215,0.1039314791560173
1772790166780000800,1.573000732421875,0.1747816652059555,-0.09869111329317093,0.13270056247711182
1772790166790066700,1.583066650390625,0.2114720344543457,-0.05795646458864212,0.14829017221927643
1772790166800132900,1.5931328125,0.2582739293575287,-0.021297965198755264,0.1701679825782776
1772790166810198800,1.60319873046875,0.30903562903404236,0.027572104707360268,0.19458411633968353
1772790166820264000,1.613263916015625,0.3591884672641754,0.06740513443946838,0.2160530984401703
1772790166830329900,1.623329833984375,0.4092359244823456,0.07910386472940445,0.2302331030368805
1772790166840395800,1.633395751953125,0.4643617868423462,0.06593501567840576,0.24761439859867096
1772790166850460700,1.643460693359375,0.5121466517448425,0.030273154377937317,0.26554998755455017
1772790166860526800,1.65352685546875,0.5525096654891968,-0.05047083646059036,0.2955351769924164
1772790166870592800,1.6635927734375,0.5695490837097168,-0.1638900637626648,0.3140004575252533
1772790166880659000,1.673658935546875,0.5685868263244629,-0.3202706277370453,0.33312779664993286
1772790166890723600,1.6837236328125,0.5518640875816345,-0.47918781638145447,0.3371446430683136
1772790166900789800,1.693789794921875,0.5327678322792053,-0.6128161549568176,0.3418635427951813
1772790166910855700,1.703855712890625,0.5145736336708069,-0.7216355800628662,0.3509678244590759
1772790166920920800,1.7139208984375,0.5147071480751038,-0.7928411960601807,0.378935843706131
1772790166930986000,1.723986083984375,0.5339335799217224,-0.7808979749679565,0.42954444885253906
1772790166941052000,1.734052001953125,0.5686897039413452,-0.6808876991271973,0.4995860755443573
1772790166951118000,1.7441181640625,0.612185537815094,-0.522287905216217,0.5583143830299377
1772790166961183000,1.754182861328125,0.6539250016212463,-0.34974488615989685,0.606997549533844
1772790166971249200,1.764249267578125,0.6791192889213562,-0.1778876632452011,0.6589019894599915
1772790166981315000,1.774315185546875,0.6918633580207825,0.015314501710236073,0.6864384412765503
1772790166991381000,1.784381103515625,0.7134461402893066,0.1968235820531845,0.6872981190681458
1772790167001446000,1.79444580078125,0.7518700361251831,0.3545791506767273,0.6607012748718262
1772790167011512000,1.804511962890625,0.7983840107917786,0.4762168824672699,0.605876088142395
1772790167021578000,1.814577880859375,0.8520654439926147,0.5486535429954529,0.5365661978721619
1772790167031643100,1.82464306640625,0.9149829149246216,0.6042478680610657,0.45462071895599365
1772790167041709000,1.834708984375,0.9866713285446167,0.6397643089294434,0.37023991346359253
1772790167051775000,1.84477490234375,1.0489603281021118,0.6404109597206116,0.2801656723022461
1772790167061841000,1.8548408203125,1.0961554050445557,0.5871596336364746,0.20007839798927307
1772790167071906000,1.864906005859375,1.1327235698699951,0.4998740255832672,0.11190485954284668
1772790167081972200,1.87497216796875,1.1531145572662354,0.39071038365364075,0.03166356310248375
1772790167092038100,1.8850380859375,1.1584906578063965,0.26172152161598206,-0.049108512699604034
1772790167102104000,1.89510400390625,1.151767373085022,0.11760029941797256,-0.12761865556240082
1772790167112169000,1.9051689453125,1.134837031364441,-0.03785453736782074,-0.19569596648216248
1772790167122235100,1.915235107421875,1.1017035245895386,-0.18203680217266083,-0.25706592202186584
1772790167132301000,1.925301025390625,1.0639386177062988,-0.3332787752151489,-0.3027005195617676
1772790167142366000,1.935365966796875,1.025004506111145,-0.48223721981048584,-0.34787750244140625
1772790167152431900,1.945431884765625,0.9931288361549377,-0.6080034375190735,-0.3583924472332001
1772790167162498000,1.955498046875,0.9677004218101501,-0.6542355418205261,-0.32709869742393494
1772790167172564000,1.96556396484375,0.9527673125267029,-0.6213542819023132,-0.25766876339912415
1772790167182629000,1.975629150390625,0.9550122618675232,-0.5445806384086609,-0.16427527368068695
1772790167192695000,1.985695068359375,0.9858202338218689,-0.4115898311138153,-0.06199738383293152
1772790167202761000,1.995760986328125,1.0253994464874268,-0.23291164636611938,0.03991590440273285
1772790167212827000,2.005826904296875,1.086646318435669,-0.009796282276511192,0.12181796133518219
1772790167222892000,2.01589208984375,1.122165322303772,0.2298457771539688,0.16125452518463135
1772790167232958000,2.0259580078125,1.1337584257125854,0.4462236166000366,0.14702925086021423
1772790167243024100,2.036024169921875,1.1569037437438965,0.6422924995422363,0.0906628891825676
1772790167253089000,2.046089111328125,1.1787089109420776,0.7937805652618408,-0.007407748606055975
1772790167263155000,2.056155029296875,1.1833842992782593,0.8762909173965454,-0.1176990270614624
1772790167273221000,2.06622119140625,1.1639951467514038,0.9278750419616699,-0.2159169316291809
1772790167283287000,2.076287109375,1.122212529182434,0.9446401000022888,-0.2986067235469818
1772790167293352200,2.086352294921875,1.0741807222366333,0.9049946665763855,-0.36114227771759033
1772790167303418000,2.096418212890625,1.0275590419769287,0.8278583288192749,-0.39879900217056274
1772790167313484000,2.106484130859375,0.9842012524604797,0.7236363291740417,-0.40797996520996094
1772790167323549000,2.116548828125,0.9607940316200256,0.5997220277786255,-0.38611724972724915
1772790167333615000,2.126614990234375,0.9458239078521729,0.469112366437912,-0.32728031277656555
1772790167343681000,2.136680908203125,0.9322785139083862,0.3766673505306244,-0.23080095648765564
1772790167353747200,2.146747314453125,0.9215949773788452,0.3235759139060974,-0.1213357076048851
1772790167363812000,2.15681201171875,0.9116957187652588,0.3015652000904083,-0.0206375103443861
1772790167373878000,2.1668779296875,0.8984667658805847,0.28758442401885986,0.054677221924066544
1772790167383944000,2.17694384765625,0.8792936205863953,0.28393611311912537,0.09664113819599152
1772790167394010000,2.187010009765625,0.8618898987770081,0.26036155223846436,0.11926894634962082
1772790167404075300,2.1970751953125,0.8475040793418884,0.263444185256958,0.13896554708480835
1772790167414141000,2.207140869140625,0.838360071182251,0.3069405257701874,0.16383014619350433
1772790167424206800,2.217206787109375,0.8233869075775146,0.39859408140182495,0.186287522315979
1772790167434272000,2.22727197265625,0.8108782768249512,0.5223322510719299,0.20337888598442078
1772790167444338200,2.237338134765625,0.8113061785697937,0.6365722417831421,0.19372956454753876
1772790167454404000,2.247404052734375,0.8216160535812378,0.7346554398536682,0.17244398593902588
1772790167464470300,2.25747021484375,0.831637442111969,0.8004065752029419,0.12929071485996246
1772790167474535000,2.267534912109375,0.8377816081047058,0.8356431126594543,0.07469085603952408
1772790167484601000,2.27760107421875,0.834489107131958,0.8269003629684448,-0.00501209357753396
1772790167494667000,2.2876669921875,0.8318217396736145,0.7649861574172974,-0.11305680871009827
1772790167504733200,2.297733154296875,0.8304499983787537,0.6544630527496338,-0.24860326945781708
1772790167514797800,2.3077978515625,0.8284433484077454,0.5150873064994812,-0.3973006010055542
1772790167524864000,2.317864013671875,0.8283447623252869,0.3519063889980316,-0.5520182251930237
1772790167534930000,2.327929931640625,0.8454539775848389,0.1659945547580719,-0.6999691128730774
1772790167544995000,2.3379951171875,0.8798198699951172,0.0004638181999325752,-0.8109694719314575
1772790167555061000,2.34806103515625,0.9347071051597595,-0.12666882574558258,-0.8631698489189148
1772790167565127200,2.358127197265625,1.0014656782150269,-0.19272689521312714,-0.8352213501930237
1772790167575192800,2.36819287109375,1.0705432891845703,-0.1781250387430191,-0.7132076025009155
1772790167585258000,2.378258056640625,1.1413745880126953,-0.06867525726556778,-0.4963735342025757
1772790167595324200,2.38832421875,1.2224159240722656,0.11237495392560959,-0.22916847467422485
1772790167605390000,2.39839013671875,1.3262712955474854,0.28240135312080383,0.04960905760526657
1772790167615455200,2.408455322265625,1.432768702507019,0.4414810240268707,0.30802756547927856
1772790167625521000,2.41852099609375,1.5700229406356812,0.5598474740982056,0.5197490453720093
1772790167635587000,2.428587158203125,1.7310229539871216,0.6187211275100708,0.6680951118469238
1772790167645653000,2.438653076171875,1.8747557401657104,0.6295568943023682,0.7630603909492493
1772790167655718100,2.44871826171875,2.0079851150512695,0.6069695949554443,0.8049543499946594
1772790167665784000,2.4587841796875,2.108908176422119,0.5946019291877747,0.7976815104484558
1772790167675850200,2.468850341796875,2.1613330841064453,0.5720763802528381,0.7483395338058472
1772790167685916000,2.478916015625,2.1776609420776367,0.5158964991569519,0.6681972146034241
1772790167695981000,2.48898095703125,2.1490321159362793,0.43574944138526917,0.5722179412841797
1772790167706047000,2.499046875,2.082179307937622,0.34859150648117065,0.46944400668144226
1772790167716113200,2.509113037109375,1.990620732307434,0.27123892307281494,0.3625340759754181
1772790167726178000,2.519177978515625,1.867047905921936,0.20324291288852692,0.24477943778038025
1772790167736244000,2.529243896484375,1.728891134262085,0.11610881239175797,0.11986147612333298
1772790167746310000,2.539309814453125,1.5969663858413696,0.006823725998401642,-0.012041262350976467
1772790167756376000,2.5493759765625,1.4613847732543945,-0.13212643563747406,-0.15047849714756012
1772790167766441200,2.559441162109375,1.3394019603729248,-0.2660243809223175,-0.28080177307128906
1772790167776507100,2.569507080078125,1.253557562828064,-0.3730584383010864,-0.40005677938461304
1772790167786573000,2.579572998046875,1.1987987756729126,-0.4304150938987732,-0.4959811270236969
1772790167796638000,2.589637939453125,1.1849613189697266,-0.43010324239730835,-0.5440415740013123
1772790167806704000,2.5997041015625,1.194858193397522,-0.3800027370452881,-0.5312641859054565
1772790167816770000,2.60977001953125,1.2229050397872925,-0.2464398741722107,-0.44537511467933655
1772790167826836200,2.619836181640625,1.269295573234558,-0.001037856563925743,-0.31610140204429626
1772790167836900900,2.62990087890625,1.3464734554290771,0.30718550086021423,-0.1874651163816452
1772790167846967000,2.639967041015625,1.4598582983016968,0.6122690439224243,-0.09087739139795303
1772790167857033000,2.650032958984375,1.5989261865615845,0.8836126923561096,-0.05337848886847496
1772790167867099100,2.66009912109375,1.7391139268875122,1.0927379131317139,-0.06856227666139603
1772790167877164000,2.6701640625,1.8751364946365356,1.217495322227478,-0.12615260481834412
1772790167887230200,2.680230224609375,2.0015196800231934,1.2914965152740479,-0.20440609753131866
1772790167897296000,2.6902958984375,2.1014065742492676,1.3386437892913818,-0.27407410740852356
1772790167907361000,2.700361083984375,2.1800310611724854,1.3493707180023193,-0.3082227110862732
1772790167917427000,2.710427001953125,2.2366998195648193,1.3339811563491821,-0.32164478302001953
1772790167927493000,2.7204931640625,2.2771246433258057,1.3123843669891357,-0.30329716205596924
1772790167937558800,2.730558837890625,2.307530641555786,1.268884301185608,-0.2660922706127167
1772790167947624000,2.7406240234375,2.3268136978149414,1.1990870237350464,-0.2191064953804016
1772790167957690000,2.750690185546875,2.3421378135681152,1.1110754013061523,-0.16133694350719452
1772790167967756000,2.760756103515625,2.3573124408721924,1.0254929065704346,-0.10850401222705841
1772790167977821000,2.770821044921875,2.3735880851745605,0.9536370635032654,-0.05679420754313469
1772790167987886800,2.780886962890625,2.3949952125549316,0.8750894069671631,-0.02707541547715664
1772790167997953000,2.790953125,2.4226598739624023,0.7860527038574219,-0.01864917390048504
1772790168008019000,2.80101904296875,2.458906888961792,0.6589773893356323,-0.023491661995649338
1772790168018083800,2.811083740234375,2.477665901184082,0.5160133242607117,-0.0382532961666584
1772790168028149800,2.821149658203125,2.4876935482025146,0.3753131628036499,-0.05664186179637909
1772790168038216000,2.8312158203125,2.5229101181030273,0.23072054982185364,-0.08330969512462616
1772790168048281900,2.84128173828125,2.592226505279541,0.04910849779844284,-0.10857824236154556
1772790168058347000,2.851346923828125,2.662287473678589,-0.15166962146759033,-0.10964963585138321
1772790168068413000,2.861412841796875,2.6967451572418213,-0.29978206753730774,-0.0583404004573822
1772790168078478800,2.871478759765625,2.6930134296417236,-0.3749156892299652,0.058375827968120575
1772790168088544000,2.8815439453125,2.6535983085632324,-0.3601427376270294,0.22163230180740356
1772790168098610000,2.89160986328125,2.6143362522125244,-0.31258296966552734,0.393592894077301
1772790168108675800,2.90167578125,2.5398974418640137,-0.10592985153198242,0.5626806616783142
1772790168118742000,2.911741943359375,2.430774211883545,0.17685231566429138,0.7081134915351868
1772790168128807000,2.921806884765625,2.3165223598480225,0.37318944931030273,0.7669768929481506
1772790168138872800,2.931872802734375,2.226776123046875,0.4461459517478943,0.7026362419128418
1772790168148939000,2.94193896484375,2.1515462398529053,0.4385117292404175,0.5283747315406799
1772790168159004000,2.95200390625,2.0876691341400146,0.39243635535240173,0.282987505197525
1772790168169070000,2.962070068359375,2.022526741027832,0.3439733684062958,0.020934199914336205
1772790168179135700,2.9721357421875,1.9470611810684204,0.3096691966056824,-0.18515345454216003
1772790168189202000,2.982201904296875,1.8725799322128296,0.2956594228744507,-0.2871410548686981
1772790168199266800,2.992266845703125,1.7954814434051514,0.32202205061912537,-0.2773917615413666
1772790168209333000,3.0023330078125,1.7296857833862305,0.3904873728752136,-0.16634111106395721
1772790168219399000,3.01239892578125,1.6804065704345703,0.4806518852710724,0.002031925367191434
1772790168229465000,3.022465087890625,1.6602394580841064,0.5934098958969116,0.1947423815727234
1772790168239529700,3.03252978515625,1.6668859720230103,0.7130572199821472,0.3710918426513672
1772790168249596000,3.042595947265625,1.6882256269454956,0.7814188003540039,0.4928014278411865
1772790168259661800,3.052661865234375,1.7179657220840454,0.7986134886741638,0.5501371622085571
1772790168269727000,3.06272705078125,1.7500076293945312,0.785403847694397,0.55832439661026
1772790168279793200,3.072793212890625,1.7489988803863525,0.7560802698135376,0.5378606915473938
1772790168289858800,3.08285888671875,1.7131712436676025,0.7453576326370239,0.49745988845825195
1772790168299924700,3.0929248046875,1.6516064405441284,0.768896758556366,0.4415558874607086
1772790168309990000,3.102989990234375,1.5841100215911865,0.7965068817138672,0.36748015880584717
1772790168320056000,3.11305615234375,1.5115689039230347,0.8312848210334778,0.2829633951187134
1772790168330122000,3.1231220703125,1.4526114463806152,0.8677213788032532,0.1995154619216919
1772790168340187000,3.133186767578125,1.4040344953536987,0.8874162435531616,0.11832179129123688
1772790168350252800,3.143252685546875,1.3622666597366333,0.9005857706069946,0.05665578693151474
1772790168360319000,3.153319091796875,1.3303803205490112,0.9349892735481262,0.007711946964263916
1772790168370385000,3.163385009765625,1.3171637058258057,0.9943578839302063,-0.044011618942022324
1772790168380450000,3.173449951171875,1.3331611156463623,1.065821886062622,-0.10368373245000839
1772790168390515700,3.183515625,1.3760219812393188,1.1440118551254272,-0.17645657062530518
1772790168400582000,3.193581787109375,1.430328130722046,1.226365327835083,-0.25385788083076477
1772790168410647000,3.20364697265625,1.4826141595840454,1.298972725868225,-0.3314047157764435
1772790168420713000,3.213712890625,1.5254327058792114,1.3477387428283691,-0.41063109040260315
1772790168430779000,3.22377880859375,1.5656640529632568,1.3705923557281494,-0.48732906579971313
1772790168440845000,3.233844970703125,1.6127371788024902,1.3728018999099731,-0.5658497214317322
1772790168450910000,3.243909912109375,1.664881944656372,1.362932801246643,-0.6396216750144958
1772790168460975900,3.253975830078125,1.7165610790252686,1.3560514450073242,-0.700567901134491
1772790168471041800,3.264041748046875,1.770827293395996,1.3349664211273193,-0.7586736679077148
1772790168481108000,3.27410791015625,1.833508849143982,1.3004176616668701,-0.7929099798202515
1772790168491173000,3.284173095703125,1.9043400287628174,1.2771364450454712,-0.8035234808921814
1772790168501238800,3.29423876953125,1.9791351556777954,1.258034348487854,-0.7869666218757629
1772790168511305000,3.304304931640625,2.0476112365722656,1.2587677240371704,-0.7597672939300537
1772790168521369900,3.314369873046875,2.1076128482818604,1.2741914987564087,-0.737255871295929
1772790168531436000,3.32443603515625,2.1702942848205566,1.2889584302902222,-0.7310537695884705
1772790168541502000,3.334501953125,2.231165885925293,1.307776927947998,-0.7359590530395508
1772790168551568100,3.344568115234375,2.286425828933716,1.3425583839416504,-0.7535117268562317
1772790168561632800,3.3546328125,2.340536594390869,1.3713088035583496,-0.7911638021469116
1772790168571699000,3.364698974609375,2.4042246341705322,1.392276644706726,-0.842681348323822
1772790168581764900,3.374764892578125,2.473891258239746,1.392861247062683,-0.9058733582496643
1772790168591830000,3.384830078125,2.549790382385254,1.3440576791763306,-0.9598127603530884
1772790168601896000,3.39489599609375,2.6390507221221924,1.262602686882019,-0.9961206912994385
1772790168611961900,3.4049619140625,2.716313123703003,1.1767821311950684,-1.0026063919067383
1772790168622027800,3.41502783203125,2.771416425704956,1.1078827381134033,-0.9927285313606262
1772790168632093000,3.425093017578125,2.79547381401062,1.0384583473205566,-0.9738097190856934
1772790168642159000,3.4351591796875,2.782092332839966,0.9406466484069824,-0.9584105610847473
1772790168652225000,3.44522509765625,2.720964193344116,0.8176941871643066,-0.9346175789833069
1772790168662290000,3.4552900390625,2.6265859603881836,0.6998415589332581,-0.8924967646598816
1772790168672355800,3.46535595703125,2.492540121078491,0.6154288649559021,-0.8306139707565308
1772790168682422000,3.475422119140625,2.341912031173706,0.5356221795082092,-0.7579829096794128
1772790168692488000,3.485488037109375,2.2082221508026123,0.4236111044883728,-0.6712220907211304
1772790168702553000,3.495552978515625,2.0877792835235596,0.3193076252937317,-0.5767880082130432
1772790168712618800,3.50561865234375,1.9779307842254639,0.24901559948921204,-0.47776973247528076
1772790168722685000,3.515684814453125,1.8840223550796509,0.20986075699329376,-0.37972280383110046
1772790168732750800,3.525750732421875,1.797428846359253,0.18811798095703125,-0.28234559297561646
1772790168742816000,3.53581591796875,1.7008931636810303,0.19077154994010925,-0.1956985741853714
1772790168752882000,3.5458818359375,1.5898582935333252,0.2177334576845169,-0.12075360864400864
1772790168762948000,3.555947998046875,1.486979603767395,0.25719884037971497,-0.07231896370649338
1772790168773013000,3.566012939453125,1.4063149690628052,0.27810975909233093,-0.04368814826011658
1772790168783079000,3.576078857421875,1.3357361555099487,0.30290138721466064,-0.02022702991962433
1772790168793144800,3.586144775390625,1.2603260278701782,0.35497650504112244,0.012957011349499226
1772790168803211000,3.5962109375,1.181831955909729,0.4341943562030792,0.03852468729019165
1772790168813276000,3.60627587890625,1.0964144468307495,0.5260169506072998,0.05073869973421097
1772790168823341800,3.616341796875,1.0100703239440918,0.6070383191108704,0.0441841259598732
1772790168833408000,3.626407958984375,0.9100856781005859,0.6633022427558899,0.029841113835573196
1772790168843473000,3.636472900390625,0.7970526218414307,0.7113805413246155,0.017921870574355125
1772790168853539000,3.6465390625,0.6814903616905212,0.7289531826972961,0.003232391783967614
1772790168863605000,3.65660498046875,0.5707896947860718,0.7331937551498413,-0.007758473977446556
1772790168873671000,3.6666708984375,0.4607197642326355,0.726281464099884,-0.011290148831903934
1772790168883735800,3.67673583984375,0.3530452251434326,0.7107523083686829,-0.016941377893090248
1772790168893802000,3.686802001953125,0.2506565451622009,0.6797146201133728,-0.023526016622781754
1772790168903868000,3.696867919921875,0.16670386493206024,0.6425457000732422,-0.03223029151558876
1772790168913932800,3.706932861328125,0.09817696362733841,0.5978516340255737,-0.03299109265208244
1772790168923998700,3.716998779296875,0.04860515147447586,0.5684546232223511,-0.04378302022814751
1772790168934065200,3.727065185546875,0.00478321872651577,0.5498587489128113,-0.05317947268486023
1772790168944131000,3.737131103515625,-0.018698139116168022,0.5332382321357727,-0.07097204774618149
1772790168954196200,3.7471962890625,-0.008649707771837711,0.5263818502426147,-0.07753997296094894
1772790168964262100,3.75726220703125,0.019404830411076546,0.5062606334686279,-0.0680476650595665
1772790168974328300,3.767328369140625,0.05312424153089523,0.48720240592956543,-0.034900274127721786
1772790168984393200,3.777393310546875,0.08367948234081268,0.4910687804222107,0.013452079147100449
1772790168994459100,3.787459228515625,0.11175968497991562,0.4963390529155731,0.05399693548679352
1772790169004525300,3.797525390625,0.1272805780172348,0.44854220747947693,0.07327902317047119
1772790169014591200,3.80759130859375,0.13211877644062042,0.34646812081336975,0.09648787975311279
1772790169024656100,3.81765625,0.13721686601638794,0.2440091371536255,0.13106103241443634
1772790169034722000,3.82772216796875,0.12752148509025574,0.15660294890403748,0.16637860238552094
1772790169044788200,3.837788330078125,0.09027610719203949,0.06659849733114243,0.17887282371520996
1772790169054854100,3.847854248046875,0.052880819886922836,-0.05058847367763519,0.16873440146446228
1772790169064919300,3.857919189453125,-0.0008569762576371431,-0.17867295444011688,0.14661924540996552
1772790169074985200,3.867985107421875,-0.05631010979413986,-0.33062028884887695,0.11257759481668472
1772790169085051100,3.878051025390625,-0.11053766310214996,-0.5107517242431641,0.09482496231794357
1772790169095116000,3.888115966796875,-0.15927791595458984,-0.658576250076294,0.09909539669752121
1772790169105182200,3.89818212890625,-0.1691710203886032,-0.7715302109718323,0.12189818173646927
1772790169115248000,3.908248046875,-0.11742100864648819,-0.8571122288703918,0.13134388625621796
1772790169125314300,3.918314208984375,-0.10307056456804276,-0.8589754104614258,0.12816593050956726
1772790169135379200,3.928379150390625,-0.08079005777835846,-0.8479244112968445,0.12126228213310242
1772790169145445000,3.938445068359375,-0.0670500099658966,-0.8122345805168152,0.111504465341568
1772790169155511000,3.948510986328125,-0.04615077003836632,-0.7425206303596497,0.10754416882991791
1772790169165576200,3.958576171875,-0.007268618326634169,-0.6134984493255615,0.10665521025657654
1772790169175642400,3.968642333984375,0.03266560286283493,-0.4593127965927124,0.0872034952044487
1772790169185708300,3.978708251953125,0.047266118228435516,-0.33788570761680603,0.05324898660182953
1772790169195774000,3.98877392578125,0.05955349653959274,-0.2447139471769333,0.025306373834609985
1772790169205839000,3.998839111328125,0.06935925036668777,-0.14627578854560852,0.004633852280676365
1772790169215905300,4.0089052734375,0.07520975172519684,-0.0687805563211441,-0.009477036073803902
1772790169225970200,4.01897021484375,0.09334587305784225,-0.0644846111536026,-0.020459113642573357
1772790169236036000,4.0290361328125,0.09542219340801239,-0.12178056687116623,-0.04150814935564995
1772790169246102000,4.03910205078125,0.07720910012722015,-0.1783631443977356,-0.05734650045633316
1772790169256168200,4.049168212890625,0.05236334726214409,-0.21753910183906555,-0.08209967613220215
1772790169266233000,4.059233154296875,0.020699959248304367,-0.25663989782333374,-0.1250024139881134
1772790169276299300,4.06929931640625,-0.06752601265907288,-0.35661858320236206,-0.19587558507919312
1772790169286365200,4.079365234375,-0.11141970008611679,-0.4400511682033539,-0.2559359669685364
1772790169296430000,4.08943017578125,-0.07597974687814713,-0.4885670840740204,-0.2879529297351837
1772790169306496300,4.099496337890625,-0.08090419322252274,-0.5461084246635437,-0.32970306277275085
1772790169316562200,4.109562255859375,-0.1220838874578476,-0.572734534740448,-0.35784807801246643
1772790169326628000,4.119628173828125,-0.131692573428154,-0.5350648760795593,-0.3635275363922119
1772790169336693200,4.129693359375,-0.12815991044044495,-0.45322951674461365,-0.3551661968231201
1772790169346759200,4.13975927734375,-0.11487127095460892,-0.3840824067592621,-0.3516026437282562
1772790169356825000,4.1498251953125,-0.09884028136730194,-0.29900118708610535,-0.3330583870410919
1772790169366891300,4.159891357421875,-0.09205321967601776,-0.18798573315143585,-0.3226821720600128
1772790169376956200,4.1699560546875,-0.09167558699846268,-0.07673630118370056,-0.319851815700531
1772790169387022300,4.180022216796875,-0.09508496522903442,-0.009959940798580647,-0.33435750007629395
1772790169397088000,4.190087890625,-0.09945420175790787,0.03195125237107277,-0.3540027141571045
1772790169407153200,4.200153076171875,-0.10556243360042572,0.05568188428878784,-0.3710043132305145
1772790169417219000,4.210218994140625,-0.11560589075088501,0.06409462541341782,-0.3892001211643219
1772790169427285200,4.22028515625,-0.12259508669376373,0.04280371591448784,-0.3964710831642151
1772790169437351200,4.23035107421875,-0.12617287039756775,0.01670527458190918,-0.40435436367988586
1772790169447416000,4.240416015625,-0.12969544529914856,-0.012546086683869362,-0.41689997911453247
1772790169457482000,4.25048193359375,-0.13637466728687286,-0.0536053329706192,-0.44519177079200745
1772790169467548200,4.260548095703125,-0.14401768147945404,-0.1369718611240387,-0.4971274137496948
1772790169477613300,4.27061328125,-0.15572278201580048,-0.27003568410873413,-0.56174635887146
1772790169487679200,4.28067919921875,-0.17543283104896545,-0.43993523716926575,-0.6030921936035156
1772790169497745200,4.2907451171875,-0.19331368803977966,-0.5993240475654602,-0.6143819689750671
1772790169507811000,4.30081103515625,-0.20036333799362183,-0.7205591201782227,-0.5803765654563904
1772790169517876200,4.310876220703125,-0.1838502585887909,-0.7835540175437927,-0.5146780610084534
1772790169527942100,4.320942138671875,-0.13828888535499573,-0.7909557223320007,-0.42297130823135376
1772790169538008300,4.33100830078125,-0.06913941353559494,-0.7201963663101196,-0.32398152351379395
1772790169548073000,4.341072998046875,0.010164463892579079,-0.5843570232391357,-0.22803553938865662
1772790169558139100,4.35113916015625,0.09448444098234177,-0.44546598196029663,-0.1562090665102005
1772790169568205000,4.361205078125,0.18896059691905975,-0.3496912717819214,-0.1096748486161232
1772790169578271200,4.371271240234375,0.2735840678215027,-0.299060195684433,-0.08561860769987106
1772790169588336000,4.381336181640625,0.33825361728668213,-0.284564346075058,-0.06682441383600235
1772790169598402300,4.39140234375,0.38727453351020813,-0.28979843854904175,-0.033877596259117126
1772790169608468000,4.401468017578125,0.4227696657180786,-0.2718612253665924,0.02639959380030632
1772790169618533000,4.411533203125,0.4560968577861786,-0.21046969294548035,0.1055745854973793
1772790169628599000,4.42159912109375,0.5072934627532959,-0.12364185601472855,0.20286543667316437
1772790169638665200,4.431665283203125,0.5648310780525208,-0.015516931191086769,0.30706390738487244
1772790169648731100,4.441731201171875,0.6302646994590759,0.11378512531518936,0.4042578339576721
1772790169658796000,4.451796142578125,0.6966415643692017,0.22323329746723175,0.4874178469181061
1772790169668862200,4.4618623046875,0.7633995413780212,0.27414947748184204,0.5298095345497131
1772790169678928100,4.47192822265625,0.8301441073417664,0.2662383019924164,0.5426240563392639
1772790169688993300,4.4819931640625,0.8841540813446045,0.2458515167236328,0.5256826281547546
1772790169699059200,4.49205908203125,0.9215571880340576,0.24602702260017395,0.4931412637233734
1772790169709125400,4.50212548828125,0.9467991590499878,0.265183687210083,0.44148099422454834
1772790169719191000,4.51219091796875,0.9653817415237427,0.28669947385787964,0.3740159869194031
1772790169729256200,4.522256103515625,0.9931864738464355,0.29623574018478394,0.30522653460502625
1772790169739322000,4.532322021484375,1.019526720046997,0.29737982153892517,0.24214237928390503
1772790169749388300,4.54238818359375,1.0525730848312378,0.2948375642299652,0.19764761626720428
1772790169759453200,4.552453125,1.0731189250946045,0.2869265675544739,0.1771591752767563
1772790169769519000,4.56251904296875,1.078904628753662,0.2895822525024414,0.17848357558250427
1772790169779585000,4.5725849609375,1.087867021560669,0.3152145743370056,0.18551072478294373
1772790169789651200,4.582651123046875,1.1003023386001587,0.35234755277633667,0.18782873451709747
1772790169799716400,4.59271630859375,1.1013550758361816,0.36895808577537537,0.164573535323143
1772790169809782300,4.6027822265625,1.0935957431793213,0.35364463925361633,0.11467601358890533
1772790169819848000,4.612847900390625,1.0668561458587646,0.28317973017692566,0.03759876638650894
1772790169829913000,4.6229130859375,1.0196588039398193,0.1358475536108017,-0.04824423789978027
1772790169839979300,4.632979248046875,0.9464622735977173,-0.045827217400074005,-0.10168518126010895
1772790169850045200,4.643045166015625,0.8736972808837891,-0.20843210816383362,-0.11030663549900055
1772790169860111400,4.653111328125,0.8121242523193359,-0.36898404359817505,-0.06785272806882858
1772790169870176000,4.663176025390625,0.7553123831748962,-0.5275031328201294,0.028932670131325722
1772790169880242200,4.6732421875,0.7213221788406372,-0.6329401731491089,0.17760348320007324
1772790169890308000,4.68330810546875,0.7478562593460083,-0.6765334606170654,0.35078272223472595
1772790169900373200,4.693373291015625,0.7771347761154175,-0.6337578296661377,0.5155754089355469
1772790169910439200,4.703439208984375,0.7549453377723694,-0.4604097604751587,0.6427751779556274
1772790169920505300,4.71350537109375,0.7304242253303528,-0.1911812424659729,0.7355526685714722
1772790169930571000,4.723571044921875,0.715000569820404,0.1237143725156784,0.7895873785018921
1772790169940636200,4.73363623046875,0.7265060544013977,0.36737915873527527,0.8031923770904541
1772790169950702000,4.7437021484375,0.7653836607933044,0.4806489944458008,0.7747508883476257
1772790169960768000,4.75376806640625,0.7937929034233093,0.5141395330429077,0.7301195859909058
1772790169970833200,4.763833251953125,0.7917489409446716,0.5456601977348328,0.6870242953300476
1772790169980899000,4.773899169921875,0.7531245946884155,0.5986314415931702,0.6549094319343567
1772790169990965200,4.78396533203125,0.6770005226135254,0.6486812829971313,0.6188819408416748
1772790170001031200,4.79403125,0.5359650254249573,0.6807674765586853,0.5796828269958496
1772790170011096000,4.804095947265625,0.4141696095466614,0.7219870686531067,0.5586369037628174
1772790170021162000,4.814161865234375,0.3313499391078949,0.7913331985473633,0.539306640625
1772790170031228200,4.824228271484375,0.25424981117248535,0.8191903829574585,0.49246883392333984
1772790170041293000,4.83429296875,0.1867842674255371,0.7505584359169006,0.41676363348960876
1772790170051359200,4.844359130859375,0.11523738503456116,0.6271613836288452,0.33681127429008484
1772790170061425000,4.8544248046875,0.048410169780254364,0.47719234228134155,0.2654009163379669
1772790170071491000,4.864490966796875,-0.029308326542377472,0.3520088791847229,0.21621312201023102
1772790170081556000,4.874555908203125,-0.11668986082077026,0.27666011452674866,0.18068797886371613
1772790170091622100,4.8846220703125,-0.21176950633525848,0.2510969638824463,0.15742313861846924
1772790170101688000,4.89468798828125,-0.3002910912036896,0.25304967164993286,0.13379396498203278
1772790170111753000,4.9047529296875,-0.3774662911891937,0.2389964610338211,0.11084043979644775
1772790170121819100,4.914819091796875,-0.44968217611312866,0.18417048454284668,0.07587499916553497
1772790170131885000,4.924885009765625,-0.5112872123718262,0.09562596678733826,0.049173612147569656
1772790170141951000,4.934950927734375,-0.5616099834442139,0.007322998717427254,0.043400898575782776
1772790170152016100,4.94501611328125,-0.582362711429596,0.007649768143892288,0.07512021064758301
1772790170162082300,4.955082275390625,-0.5718977451324463,0.056249018758535385,0.13574670255184174
1772790170172148000,4.96514794921875,-0.5491971969604492,0.11463776230812073,0.19615544378757477
1772790170182213000,4.975213134765625,-0.515110969543457,0.14763137698173523,0.23398922383785248
1772790170192279000,4.985279052734375,-0.4742772579193115,0.129939466714859,0.23869796097278595
1772790170202345200,4.99534521484375,-0.4364897310733795,0.0692724883556366,0.21542076766490936
1772790170212411100,5.0054111328125,-0.40248221158981323,-0.006173002067953348,0.17518946528434753
1772790170222476000,5.01547607421875,-0.3629390001296997,-0.040852829813957214,0.1386570781469345
1772790170232542000,5.0255419921875,-0.3161691129207611,-0.03806609660387039,0.11333201080560684
1772790170242608000,5.035608154296875,-0.2609100341796875,-0.030994292348623276,0.09913245588541031
1772790170252673000,5.045673095703125,-0.204328253865242,-0.05438483878970146,0.08289836347103119
1772790170262739200,5.0557392578125,-0.16588319838047028,-0.12047676742076874,0.07435540109872818
1772790170272804900,5.065804931640625,-0.1526843160390854,-0.19323059916496277,0.07342036068439484
1772790170282871000,5.07587109375,-0.1569698452949524,-0.27518224716186523,0.06650777906179428
1772790170292936200,5.085936279296875,-0.16644564270973206,-0.3773733377456665,0.03473759442567825
1772790170303002000,5.096002197265625,-0.17345616221427917,-0.48682281374931335,-0.004499467089772224
1772790170313068000,5.106068115234375,-0.18376420438289642,-0.5566295981407166,-0.04052191600203514
1772790170323133000,5.1161328125,-0.2060783952474594,-0.5995088815689087,-0.0818127989768982
1772790170333199000,5.12619921875,-0.22646541893482208,-0.6473730802536011,-0.13668085634708405
1772790170343265000,5.13626513671875,-0.23572419583797455,-0.6742619276046753,-0.1931626796722412
1772790170353330200,5.146330078125,-0.21802109479904175,-0.6659752130508423,-0.24161037802696228
1772790170363396000,5.15639599609375,-0.17850399017333984,-0.6342806220054626,-0.2615172863006592
1772790170373462300,5.166462158203125,-0.13088533282279968,-0.5796485543251038,-0.23898588120937347
1772790170383528000,5.17652783203125,-0.0802483856678009,-0.4996049106121063,-0.19118517637252808
1772790170393593000,5.186593017578125,-0.03876272588968277,-0.4017215073108673,-0.13170933723449707
1772790170403659000,5.196658935546875,-0.008477012626826763,-0.302752822637558,-0.06865410506725311
1772790170413725200,5.20672509765625,-0.0032116768416017294,-0.2009156495332718,0.011860177852213383
1772790170423790000,5.2167900390625,0.016752976924180984,-0.1374352127313614,0.0839892327785492
1772790170433856000,5.22685595703125,0.023900900036096573,-0.08127233386039734,0.13941679894924164
1772790170443922000,5.236921875,0.011416683904826641,-0.04761991649866104,0.1838468462228775
1772790170453988000,5.246988037109375,-0.014981101267039776,-0.053722552955150604,0.22483715415000916
1772790170464053200,5.25705322265625,-0.04600048065185547,-0.07485802471637726,0.26115989685058594
1772790170474119200,5.267119140625,-0.07277297228574753,-0.0874800756573677,0.3028503358364105
1772790170484185000,5.27718505859375,-0.09770891815423965,-0.11455142498016357,0.34997621178627014
1772790170494250000,5.28725,-0.1252332180738449,-0.15244074165821075,0.4035515785217285
1772790170504316200,5.297316162109375,-0.16192778944969177,-0.2122298628091812,0.4772190451622009
1772790170514382000,5.307382080078125,-0.20609205961227417,-0.2667085528373718,0.5549582839012146
1772790170524448300,5.3174482421875,-0.2483261376619339,-0.3023289144039154,0.6055826544761658
1772790170534513000,5.327512939453125,-0.2764211595058441,-0.3199707567691803,0.6218580603599548
1772790170544579000,5.3375791015625,-0.28653571009635925,-0.30387747287750244,0.611530601978302
1772790170554645000,5.34764501953125,-0.3011777698993683,-0.25445982813835144,0.5614205598831177
1772790170564710100,5.357710205078125,-0.323775976896286,-0.20703235268592834,0.47180110216140747
1772790170574776000,5.367776123046875,-0.34317630529403687,-0.17316599190235138,0.3504142165184021
1772790170584842000,5.377842041015625,-0.3526116907596588,-0.1509520411491394,0.2106115072965622
1772790170594908000,5.387907958984375,-0.3636837601661682,-0.12349830567836761,0.07351598143577576
1772790170604973000,5.39797314453125,-0.3822350800037384,-0.08862106502056122,-0.04385600984096527
1772790170615039200,5.408039306640625,-0.4022553861141205,-0.018325064331293106,-0.1328175812959671
1772790170625105200,5.418105224609375,-0.40919792652130127,0.05270428583025932,-0.18777789175510406
1772790170635170000,5.428170166015625,-0.402308851480484,0.10130190849304199,-0.20565807819366455
1772790170645236000,5.438236083984375,-0.37483665347099304,0.13923345506191254,-0.20512722432613373
1772790170655302100,5.44830224609375,-0.3155198097229004,0.15727770328521729,-0.19444049894809723
1772790170665367000,5.458366943359375,-0.24358762800693512,0.1570412963628769,-0.189638152718544
1772790170675433200,5.46843310546875,-0.16911019384860992,0.13949532806873322,-0.20106524229049683
1772790170685499100,5.4784990234375,-0.09221195429563522,0.1620255410671234,-0.22602814435958862
1772790170695565000,5.48856494140625,-0.031319305300712585,0.2043341100215912,-0.2673385739326477
1772790170705630000,5.4986298828125,0.02273683436214924,0.267964631319046,-0.3202937841415405
1772790170715696000,5.508696044921875,0.07410787791013718,0.3498869240283966,-0.3780340254306793
1772790170725762000,5.518761962890625,0.11854618787765503,0.451138436794281,-0.4292769730091095
1772790170735827000,5.528826904296875,0.1620972603559494,0.5554696917533875,-0.4741821587085724
1772790170745893000,5.53889306640625,0.20423518121242523,0.6295403242111206,-0.5201565027236938
1772790170755959000,5.548958984375,0.24849238991737366,0.6648565530776978,-0.5713605880737305
1772790170766025000,5.55902490234375,0.28662681579589844,0.6856693625450134,-0.625685453414917
1772790170776090000,5.569090087890625,0.3148645758628845,0.7058971524238586,-0.6760655045509338
1772790170786156300,5.57915625,0.33239156007766724,0.6769769787788391,-0.7234218120574951
1772790170796222000,5.589221923828125,0.34111103415489197,0.5951398611068726,-0.7544260621070862
1772790170806287000,5.599287109375,0.3443690240383148,0.5153917670249939,-0.7581108808517456
1772790170816353000,5.60935302734375,0.33110302686691284,0.4370101988315582,-0.7343648076057434
1772790170826419200,5.619419189453125,0.3177625834941864,0.3825697898864746,-0.7019923329353333
1772790170836485000,5.629485107421875,0.31544774770736694,0.35060572624206543,-0.6727769374847412
1772790170846550000,5.639550048828125,0.3294600546360016,0.3124847114086151,-0.649939775466919
1772790170856616000,5.649615966796875,0.3424554765224457,0.24485217034816742,-0.6359081268310547
1772790170866682000,5.65968212890625,0.3511740267276764,0.16646844148635864,-0.6200399398803711
1772790170876747000,5.6697470703125,0.3518049418926239,0.09648856520652771,-0.6000416874885559
1772790170886813200,5.679813232421875,0.3535412847995758,0.02958054468035698,-0.5689277052879333
1772790170896879000,5.689879150390625,0.35017213225364685,-0.021837105974555016,-0.5348754525184631
1772790170906945000,5.699945068359375,0.34919944405555725,-0.05053573101758957,-0.49266788363456726
1772790170917010200,5.71001025390625,0.34662362933158875,-0.07830344885587692,-0.4573751389980316
1772790170927076000,5.720076171875,0.3406025171279907,-0.11686668545007706,-0.43257179856300354
1772790170937141800,5.730141845703125,0.3357449173927307,-0.15830999612808228,-0.41811054944992065
1772790170947206400,5.740206298828125,0.327311635017395,-0.20422261953353882,-0.4015692472457886
1772790170957272600,5.7502724609375,0.3072702884674072,-0.22501204907894135,-0.38185545802116394
1772790170967338500,5.76033837890625,0.2666085660457611,-0.2540660500526428,-0.3513614237308502
1772790170977403600,5.770403564453125,0.2133280485868454,-0.2809751629829407,-0.310249388217926
1772790170987469300,5.78046923828125,0.16438445448875427,-0.3237972557544708,-0.25447016954421997
1772790170997535500,5.790535400390625,0.12021272629499435,-0.37253043055534363,-0.19092263281345367
1772790171007601400,5.800601318359375,0.08649741113185883,-0.42403560876846313,-0.11691956967115402
1772790171017666600,5.81066650390625,0.06739269196987152,-0.5006060600280762,-0.051362935453653336
1772790171027732700,5.820732666015625,0.04356151819229126,-0.6076846718788147,-0.0007190469768829644
1772790171037798700,5.830798583984375,0.026641657575964928,-0.7210021615028381,0.0337129645049572
1772790171047863600,5.840863525390625,0.0136995455250144,-0.8143080472946167,0.05409577488899231
1772790171057929500,5.850929443359375,-0.005323946475982666,-0.8640726804733276,0.06610823422670364
1772790171067995600,5.86099560546875,-0.002633475698530674,-0.8461300134658813,0.06979931145906448
1772790171078061600,5.8710615234375,0.013276249170303345,-0.7897292971611023,0.06511880457401276
1772790171088126700,5.881126708984375,0.021802477538585663,-0.7582708597183228,0.06369674205780029
1772790171098192400,5.8911923828125,0.004383008927106857,-0.7895025610923767,0.05716266855597496
1772790171108258600,5.901258544921875,-0.0436176098883152,-0.8817315697669983,0.042586978524923325
1772790171118323500,5.911323486328125,-0.08666228502988815,-1.0039712190628052,0.01481020636856556
1772790171128389600,5.9213896484375,-0.11208200454711914,-1.0967597961425781,-0.010155868716537952
1772790171138455600,5.93145556640625,-0.11831912398338318,-1.1216473579406738,-0.02166418731212616
1772790171148520400,5.9415205078125,-0.11290772259235382,-1.0903007984161377,-0.02164388820528984
1772790171158586600,5.951586669921875,-0.08761541545391083,-0.9900553822517395,0.004348828922957182
1772790171168652500,5.961652587890625,-0.05311490222811699,-0.8181113004684448,0.05066748708486557
1772790171178718500,5.971718505859375,-0.015154738910496235,-0.5889225602149963,0.11975041776895523
1772790171188783600,5.98178369140625,0.03380821645259857,-0.3153700530529022,0.20707346498966217
1772790171198849500,5.991849609375,0.10587707906961441,-0.0254367608577013,0.29894107580184937
1772790171208915500,6.00191552734375,0.18626701831817627,0.27156877517700195,0.3785526752471924
1772790171218980600,6.011980712890625,0.2622890770435333,0.5813772082328796,0.4237361252307892
1772790171229046500,6.022046630859375,0.34904465079307556,0.8705970048904419,0.4052392542362213
1772790171239112700,6.03211279296875,0.43504852056503296,1.069549560546875,0.3335222005844116
1772790171249178600,6.0421787109375,0.5099985599517822,1.1940529346466064,0.2239914834499359
1772790171259243500,6.052243408203125,0.5522232055664062,1.2908953428268433,0.10625766217708588
1772790171269309400,6.062309326171875,0.5643791556358337,1.3344694375991821,-0.009909320622682571
1772790171279375600,6.072375732421875,0.5489967465400696,1.307071566581726,-0.11852474510669708
1772790171289440500,6.0824404296875,0.5154349207878113,1.2082730531692505,-0.21794068813323975
1772790171299506400,6.09250634765625,0.4616779088973999,1.0453232526779175,-0.29526209831237793
1772790171309572400,6.102572265625,0.38261306285858154,0.7962659001350403,-0.3516583740711212
1772790171319637500,6.112637451171875,0.26769793033599854,0.47648972272872925,-0.37929052114486694
1772790171329703700,6.12270361328125,0.13009029626846313,0.10786398500204086,-0.38625311851501465
1772790171339769600,6.13276953125,-0.00036891084164381027,-0.26622065901756287,-0.361347496509552
1772790171349835500,6.14283544921875,-0.10358957201242447,-0.5829067826271057,-0.278674453496933
1772790171359900400,6.152900390625,-0.18290942907333374,-0.7728735208511353,-0.12738561630249023
1772790171369966600,6.162966552734375,-0.23469683527946472,-0.7804787755012512,0.06733006983995438
1772790171380032500,6.173032470703125,-0.24623417854309082,-0.6279177069664001,0.27470773458480835
1772790171390097700,6.18309765625,-0.2156350314617157,-0.35934677720069885,0.449840247631073
1772790171400163600,6.19316357421875,-0.17696619033813477,-0.07285350561141968,0.5647484660148621
1772790171410229500,6.2032294921875,-0.11646787077188492,0.15481135249137878,0.5785818099975586
1772790171420294400,6.21329443359375,-0.048294417560100555,0.2719736695289612,0.5150800347328186
1772790171430360600,6.223360595703125,0.032292261719703674,0.2705988585948944,0.4074012339115143
1772790171440426500,6.233426513671875,0.09148873388767242,0.1947919726371765,0.34611815214157104
1772790171450492700,6.24349267578125,0.1019575223326683,0.15075571835041046,0.3760867118835449
1772790171460557600,6.2535576171875,0.07334212213754654,0.19469840824604034,0.4782295823097229
1772790171470623500,6.26362353515625,0.03933718428015709,0.2826801538467407,0.6107780933380127
1772790171480689400,6.273689453125,0.030465394258499146,0.34516191482543945,0.7216920852661133
1772790171490754600,6.283754638671875,0.026968400925397873,0.3419300615787506,0.7929400205612183
1772790171500820700,6.29382080078125,0.0026585333980619907,0.28159135580062866,0.8141166567802429
1772790171510886400,6.303886474609375,-0.04917890951037407,0.1972888559103012,0.7957059741020203
1772790171520952600,6.31395263671875,-0.1296580284833908,0.0829865112900734,0.7329661846160889
1772790171531017500,6.324017578125,-0.24259033799171448,-0.0368344709277153,0.6488677263259888
1772790171541083600,6.334083740234375,-0.37667810916900635,-0.12067877501249313,0.5603147149085999
1772790171551149600,6.344149658203125,-0.5043375492095947,-0.1509435921907425,0.47951310873031616
1772790171561214500,6.35421435546875,-0.5937667489051819,-0.13239015638828278,0.408206969499588
1772790171571280400,6.3642802734375,-0.6343041062355042,-0.07856491953134537,0.3423040509223938
1772790171581346600,6.3743466796875,-0.6394474506378174,-0.01895698346197605,0.29113060235977173
1772790171591411700,6.38441162109375,-0.635660707950592,0.015090599656105042,0.2640722692012787
1772790171601477600,6.3944775390625,-0.6186873316764832,0.005542900413274765,0.2729991674423218
1772790171611543600,6.40454345703125,-0.5918738842010498,0.0018183337524533272,0.3300459384918213
1772790171621609500,6.414609375,-0.5534961223602295,0.045709092170000076,0.4113551676273346
1772790171631674600,6.424674560546875,-0.5062910914421082,0.11858224123716354,0.48838678002357483
1772790171641740500,6.434740478515625,-0.45586439967155457,0.1791590303182602,0.5242691040039062
1772790171651806700,6.444806640625,-0.4081079661846161,0.1861276924610138,0.5210999846458435
1772790171661871400,6.454871337890625,-0.3764248788356781,0.14793209731578827,0.5033808946609497
1772790171671937500,6.4649375,-0.37375912070274353,0.12809686362743378,0.497749924659729
1772790171682003500,6.47500341796875,-0.38461923599243164,0.14293493330478668,0.4866522550582886
1772790171692068600,6.485068603515625,-0.39365023374557495,0.12885552644729614,0.4733642339706421
1772790171702134500,6.495134521484375,-0.3995709717273712,0.08246937394142151,0.45549362897872925
1772790171712200700,6.50520068359375,-0.41328519582748413,0.026901762932538986,0.4428149461746216
1772790171722266400,6.515266357421875,-0.420206218957901,0.014859211631119251,0.44999268651008606
1772790171732331500,6.52533154296875,-0.4248586893081665,0.04322267696261406,0.46158072352409363
1772790171742397400,6.5353974609375,-0.4100182354450226,0.07238295674324036,0.4581652283668518
1772790171752463600,6.545463623046875,-0.39160624146461487,0.05944261699914932,0.410608172416687
1772790171762528800,6.55552880859375,-0.36704471707344055,0.009691571816802025,0.3436797261238098
1772790171772594400,6.565594482421875,-0.3415735363960266,-0.051583994179964066,0.2723081111907959
1772790171782660600,6.57566064453125,-0.31677764654159546,-0.11160126328468323,0.23169811069965363
1772790171792726500,6.5857265625,-0.294895201921463,-0.1319255232810974,0.22272758185863495
1772790171802791700,6.595791748046875,-0.26826944947242737,-0.1113683208823204,0.22443121671676636
1772790171812857600,6.605857666015625,-0.26531001925468445,-0.09018664062023163,0.19799409806728363
1772790171822923800,6.615923828125,-0.2787123918533325,-0.1056138128042221,0.10925810784101486
1772790171832988400,6.625988525390625,-0.31376054883003235,-0.15809009969234467,-0.050977922976017
1772790171843054600,6.6360546875,-0.36324578523635864,-0.2405785769224167,-0.2535315454006195
1772790171853120500,6.64612060546875,-0.4053157567977905,-0.3114042580127716,-0.4487430453300476
1772790171863185700,6.656185546875,-0.43531787395477295,-0.35493549704551697,-0.5830920338630676
1772790171873251300,6.666251220703125,-0.4423457980155945,-0.35686933994293213,-0.6344720125198364
1772790171883317500,6.6763173828125,-0.4273436963558197,-0.35603734850883484,-0.6111246347427368
1772790171893383400,6.686383544921875,-0.39131200313568115,-0.3875138759613037,-0.5422490835189819
1772790171903448600,6.696448486328125,-0.34272637963294983,-0.43101420998573303,-0.433928519487381
1772790171913514500,6.706514404296875,-0.29913923144340515,-0.4525691270828247,-0.2965676486492157
1772790171923580700,6.71658056640625,-0.26215431094169617,-0.4520237147808075,-0.16952235996723175
1772790171933645600,6.7266455078125,-0.2260994017124176,-0.4457746148109436,-0.07006160914897919
1772790171943712300,6.736712158203125,-0.18226057291030884,-0.44561776518821716,-0.010694416239857674
1772790171953778200,6.746778076171875,-0.1543060839176178,-0.441382497549057,0.01396747212857008
1772790171963843300,6.75684326171875,-0.15776605904102325,-0.42306554317474365,0.005474385805428028
1772790171973909500,6.766909423828125,-0.16995280981063843,-0.3898790776729584,-0.02111319825053215
1772790171983975400,6.776975341796875,-0.1870225965976715,-0.36054089665412903,-0.05636785924434662
1772790171994041300,6.787041259765625,-0.20205800235271454,-0.36703622341156006,-0.08205161988735199
1772790172004106200,6.797106201171875,-0.2273806780576706,-0.4166618287563324,-0.0879950001835823
1772790172014172400,6.80717236328125,-0.2508695721626282,-0.4706264138221741,-0.06821601092815399
1772790172024238300,6.81723828125,-0.2823105752468109,-0.5152127742767334,-0.04562947526574135
1772790172034303500,6.827303466796875,-0.3065705895423889,-0.5343936085700989,-0.03652827814221382
1772790172044369200,6.837369140625,-0.3288570046424866,-0.530862033367157,-0.05708974599838257
1772790172054435300,6.847435302734375,-0.3378153443336487,-0.5133755207061768,-0.10089676082134247
1772790172064500200,6.857500244140625,-0.34179091453552246,-0.4842303991317749,-0.16687124967575073
1772790172074566400,6.86756640625,-0.35319891571998596,-0.4637719988822937,-0.23881693184375763
1772790172084632300,6.87763232421875,-0.36546435952186584,-0.4600851237773895,-0.2912423312664032
1772790172094698500,6.887698486328125,-0.3748832643032074,-0.43445777893066406,-0.307195782661438
1772790172104763400,6.897763427734375,-0.3681417405605316,-0.3383469581604004,-0.2801346182823181
1772790172114829300,6.907829345703125,-0.3369380831718445,-0.2184371054172516,-0.23793034255504608
1772790172124895200,6.917895263671875,-0.2799408435821533,-0.11914248764514923,-0.19546383619308472
1772790172134960400,6.92796044921875,-0.2133149951696396,-0.05526847764849663,-0.15847909450531006
1772790172145026600,6.938026611328125,-0.14951790869235992,-0.03368568792939186,-0.13602091372013092
1772790172155092200,6.94809228515625,-0.10475519299507141,-0.04288499429821968,-0.13177013397216797
1772790172165157400,6.958157470703125,-0.0835721418261528,-0.05278556048870087,-0.16143961250782013
1772790172175223300,6.968223388671875,-0.07772009819746017,-0.05493700131773949,-0.21993540227413177
1772790172185289500,6.97828955078125,-0.07725537568330765,-0.053411807864904404,-0.302011102437973
1772790172195355400,6.98835546875,-0.08069170266389847,-0.023575566709041595,-0.3960922658443451
1772790172205420300,6.998420166015625,-0.09479047358036041,-0.012069113552570343,-0.4796667695045471
1772790172215486200,7.008486328125,-0.10442095249891281,-0.03890157490968704,-0.5453622341156006
1772790172225552400,7.018552490234375,-0.12292671948671341,-0.08815940469503403,-0.5576173067092896
1772790172235617300,7.0286171875,-0.1564108431339264,-0.14638124406337738,-0.5253978967666626
1772790172245683500,7.038683349609375,-0.19080504775047302,-0.18987013399600983,-0.45809662342071533
1772790172255749000,7.0487490234375,-0.2098814696073532,-0.21092717349529266,-0.3831058442592621
1772790172265814300,7.058814208984375,-0.21642325818538666,-0.20681259036064148,-0.31163886189460754
1772790172275880400,7.06888037109375,-0.22549287974834442,-0.18327538669109344,-0.2582003176212311
1772790172285946400,7.0789462890625,-0.21267934143543243,-0.20054200291633606,-0.2205839604139328
1772790172296012300,7.08901220703125,-0.18384259939193726,-0.22823478281497955,-0.1735914945602417
1772790172306077200,7.0990771484375,-0.15974977612495422,-0.2221153825521469,-0.1175450012087822
1772790172316143400,7.109143310546875,-0.12827938795089722,-0.18036340177059174,-0.06937441229820251
1772790172326209300,7.119209228515625,-0.08449780941009521,-0.11439691483974457,-0.023903600871562958
1772790172336274400,7.1292744140625,-0.04137025773525238,-0.053217265754938126,0.012235363014042377
1772790172346340400,7.13934033203125,-0.007127067539840937,0.016392704099416733,0.038605716079473495
1772790172356406500,7.149406494140625,0.011020857840776443,0.07240495085716248,0.05914688855409622
1772790172366471200,7.15947119140625,0.026445355266332626,0.11097444593906403,0.08147615939378738
1772790172376537300,7.169537353515625,0.03806929662823677,0.14627406001091003,0.11249236762523651
1772790172386603300,7.179603271484375,0.051581643521785736,0.191030353307724,0.13591167330741882
1772790172396669400,7.18966943359375,0.05491532012820244,0.22335831820964813,0.14661088585853577
1772790172406734300,7.199734375,0.04411114379763603,0.22687982022762299,0.14358553290367126
1772790172416800300,7.20980029296875,0.025187287479639053,0.22868593037128448,0.12932534515857697
1772790172426866200,7.2198662109375,0.000504844356328249,0.19675835967063904,0.1091926321387291
1772790172436931300,7.229931396484375,-0.02683333121240139,0.13053610920906067,0.10543497651815414
1772790172446997500,7.23999755859375,-0.051544539630413055,0.08450841903686523,0.12899303436279297
1772790172457063400,7.2500634765625,-0.06054063141345978,0.07454851269721985,0.16496610641479492
1772790172467128300,7.26012841796875,-0.057642314583063126,0.08825473487377167,0.19690699875354767
1772790172477194200,7.2701943359375,-0.051333874464035034,0.0982445701956749,0.21194638311862946
1772790172487260400,7.280260498046875,-0.04750451445579529,0.09498060494661331,0.20932289958000183
1772790172497325300,7.2903251953125,-0.05113162845373154,0.06313490867614746,0.19554439187049866
1772790172507391500,7.3003916015625,-0.06284847110509872,0.03356663137674332,0.19070063531398773
1772790172517457200,7.31045703125,-0.07994109392166138,0.024340780451893806,0.19275744259357452
1772790172527523300,7.3205234375,-0.09732940793037415,0.0142561886459589,0.19633911550045013
1772790172537588500,7.33058837890625,-0.10624700039625168,-0.0014916164800524712,0.20976145565509796
1772790172547654400,7.340654296875,-0.10946650058031082,-0.010501090437173843,0.22582031786441803
1772790172557720300,7.35072021484375,-0.11275704950094223,-0.010440189391374588,0.25852859020233154
1772790172567785200,7.36078515625,-0.11591129750013351,0.00910421647131443,0.2870262861251831
1772790172577851400,7.370851318359375,-0.11220622807741165,0.026515334844589233,0.3219650387763977
1772790172587917300,7.380917236328125,-0.09422989189624786,0.08167046308517456,0.3586476743221283
1772790172597982500,7.390982421875,-0.07147910445928574,0.16440606117248535,0.380648672580719
1772790172608048400,7.40104833984375,-0.04370366409420967,0.23532523214817047,0.36902424693107605
1772790172618114300,7.4111142578125,-0.015519781038165092,0.2503909766674042,0.3094543218612671
1772790172628180200,7.42118017578125,0.0007262998260557652,0.19312185049057007,0.21851588785648346
1772790172638245400,7.431245361328125,-0.0025311685167253017,0.10982145369052887,0.11343209445476532
1772790172648311300,7.441311279296875,-0.02426123060286045,0.027799027040600777,0.030854923650622368
1772790172658377500,7.45137744140625,-0.06339059770107269,-0.06812577694654465,-0.025185750797390938
1772790172668442400,7.4614423828125,-0.11201699078083038,-0.18057215213775635,-0.03893698379397392
1772790172678508300,7.47150830078125,-0.16896477341651917,-0.31118881702423096,-0.0025256669614464045
1772790172688574200,7.48157421875,-0.22750291228294373,-0.39444294571876526,0.0896732360124588
1772790172698639400,7.491639404296875,-0.2730306088924408,-0.4084266722202301,0.20539069175720215
1772790172708705500,7.50170556640625,-0.2979769706726074,-0.37225934863090515,0.3342821002006531
1772790172718771200,7.511771240234375,-0.3161826431751251,-0.29248589277267456,0.4671032428741455
1772790172728837400,7.52183740234375,-0.2994596064090729,-0.2006521224975586,0.5963440537452698
1772790172738902300,7.53190234375,-0.2626142203807831,-0.08244109898805618,0.6913424134254456
1772790172748968400,7.541968505859375,-0.23029305040836334,0.04118843376636505,0.7354936003684998
1772790172759034400,7.552034423828125,-0.19631311297416687,0.1462169736623764,0.7318627834320068
1772790172769099300,7.562099365234375,-0.16664204001426697,0.21912473440170288,0.6795343160629272
1772790172779165200,7.572165283203125,-0.13719359040260315,0.2685278058052063,0.5815392136573792
1772790172789231400,7.5822314453125,-0.10686366260051727,0.2811024487018585,0.4492778480052948
1772790172799296300,7.592296142578125,-0.08117228001356125,0.2789837718009949,0.30328088998794556
1772790172809362400,7.602362548828125,-0.05304211378097534,0.24360711872577667,0.17267869412899017
1772790172819428400,7.612428466796875,-0.042324814945459366,0.17186973989009857,0.07056611776351929
1772790172829493200,7.6224931640625,-0.048508673906326294,0.1014254093170166,0.008963742293417454
1772790172839559400,7.632559326171875,-0.05761248990893364,0.025520212948322296,-0.029004843905568123
1772790172849625300,7.642625244140625,-0.0655985102057457,-0.09199496358633041,-0.06405950337648392
1772790172859691300,7.652691162109375,-0.08207815140485764,-0.2622431218624115,-0.09453751891851425
1772790172869756200,7.662756103515625,-0.1181032657623291,-0.4432046711444855,-0.11645453423261642
1772790172879822300,7.672822265625,-0.16529057919979095,-0.5867173075675964,-0.12045084685087204
1772790172889888300,7.68288818359375,-0.215493306517601,-0.6680750250816345,-0.11334819346666336
1772790172899953400,7.692953369140625,-0.2521553039550781,-0.6800663471221924,-0.08673948049545288
1772790172910019300,7.703019287109375,-0.2804173231124878,-0.6323243379592896,-0.04436459392309189
1772790172920085500,7.71308544921875,-0.305430144071579,-0.5278945565223694,0.014376218430697918
1772790172930150100,7.723150146484375,-0.3116989731788635,-0.36061209440231323,0.07192100584506989
1772790172940215800,7.7332158203125,-0.30912694334983826,-0.168278768658638,0.11789555102586746
1772790172950282000,7.743281982421875,-0.2867899537086487,-0.035221658647060394,0.13422605395317078
1772790172960348000,7.753347900390625,-0.2476552426815033,0.07013298571109772,0.11845441162586212
1772790172970413000,7.7634130859375,-0.2000264674425125,0.18677997589111328,0.08659341186285019
1772790172980479000,7.77347900390625,-0.16561071574687958,0.2911040186882019,0.042024288326501846
1772790172990545200,7.783545166015625,-0.15252874791622162,0.3520192801952362,-0.010924942791461945
1772790173000609800,7.79360986328125,-0.16210776567459106,0.3711582124233246,-0.0577155202627182
1772790173010676000,7.803676025390625,-0.18947067856788635,0.3514289855957031,-0.08964948356151581
1772790173020742000,7.813741943359375,-0.23337560892105103,0.29797303676605225,-0.09350959956645966
1772790173030807000,7.82380712890625,-0.28692618012428284,0.21275082230567932,-0.07448158413171768
1772790173040872700,7.833872802734375,-0.32921266555786133,0.12151263654232025,-0.03699612617492676
1772790173050939000,7.84393896484375,-0.357924222946167,0.045751288533210754,0.016020487993955612
1772790173061004000,7.854004150390625,-0.3813311755657196,-0.0024956325069069862,0.07737211883068085
1772790173071070000,7.864070068359375,-0.4048128128051758,-0.027897130697965622,0.122433602809906
1772790173081135900,7.874135986328125,-0.41661596298217773,-0.06225283443927765,0.1409185826778412
1772790173091202000,7.8842021484375,-0.4291629195213318,-0.09493541717529297,0.139251708984375
1772790173101267000,7.894266845703125,-0.43313974142074585,-0.12911522388458252,0.13433131575584412
1772790173111332900,7.904332763671875,-0.4354124963283539,-0.1585833579301834,0.13946856558322906
1772790173121399000,7.91439892578125,-0.4354099929332733,-0.14601589739322662,0.14898568391799927
1772790173131464000,7.9244638671875,-0.440961092710495,-0.10876892507076263,0.17138074338436127
1772790173141529900,7.93452978515625,-0.4540790021419525,-0.0758950486779213,0.18574923276901245
1772790173151595800,7.944595703125,-0.4803164601325989,-0.05725931003689766,0.19281166791915894
1772790173161661000,7.954660888671875,-0.49578261375427246,-0.06040498986840248,0.19404815137386322
1772790173171726800,7.964726806640625,-0.5006359815597534,-0.1224457249045372,0.20252259075641632
1772790173181793000,7.97479296875,-0.5102967619895935,-0.20852650701999664,0.23150300979614258
1772790173191858000,7.98485791015625,-0.5199062824249268,-0.2337125539779663,0.27638980746269226
1772790173201923800,7.994923828125,-0.5366201400756836,-0.2100898176431656,0.3112300932407379
1772790173211989800,8.00498974609375,-0.5533194541931152,-0.20367373526096344,0.3056339919567108
1772790173222056000,8.015055908203125,-0.5637040734291077,-0.23940172791481018,0.2738315165042877
1772790173232121000,8.02512109375,-0.5832658410072327,-0.27281561493873596,0.22381016612052917
1772790173242187000,8.03518701171875,-0.6135374307632446,-0.30434611439704895,0.17421412467956543
1772790173252253000,8.0452529296875,-0.6375373005867004,-0.3266391456127167,0.11930186301469803
1772790173262317800,8.05531787109375,-0.6514424681663513,-0.3337040841579437,0.07218535244464874
1772790173272384000,8.065384033203125,-0.6626583933830261,-0.3099188506603241,0.031870950013399124
1772790173282450000,8.075449951171874,-0.6672378778457642,-0.29874929785728455,0.0002714861184358597
1772790173292514800,8.085514892578125,-0.6724965572357178,-0.3328428268432617,-0.002086743013933301
1772790173302580700,8.095580810546876,-0.6776273846626282,-0.36474162340164185,0.03660525754094124
1772790173312647000,8.10564697265625,-0.6828747987747192,-0.37328749895095825,0.10760293900966644
1772790173322712000,8.115712158203126,-0.6950256824493408,-0.35596901178359985,0.18479371070861816
1772790173332778000,8.125778076171875,-0.7043669819831848,-0.3052573502063751,0.2390926331281662
1772790173342844000,8.135843994140625,-0.7194597125053406,-0.25617751479148865,0.2463388442993164
1772790173352909800,8.145909912109374,-0.7558821439743042,-0.23616145551204681,0.19381438195705414
1772790173362975000,8.15597509765625,-0.7965973019599915,-0.23767834901809692,0.07387775927782059
1772790173373041000,8.166041015625,-0.8425983190536499,-0.2636420726776123,-0.08260931819677353
1772790173383107000,8.176107177734375,-0.8921477794647217,-0.29305827617645264,-0.24079656600952148
1772790173393172000,8.186171875,-0.9473745226860046,-0.3149353265762329,-0.374688059091568
1772790173403238000,8.19623779296875,-0.9887653589248657,-0.34270671010017395,-0.46625804901123047
1772790173413303800,8.2063037109375,-1.0180989503860474,-0.4066694676876068,-0.5105022192001343
1772790173423369000,8.216368896484376,-1.0307422876358032,-0.48273006081581116,-0.4932285249233246
1772790173433435000,8.226434814453125,-1.0233818292617798,-0.5429893732070923,-0.41754040122032166
1772790173443501000,8.2365009765625,-1.010311245918274,-0.5871297717094421,-0.30736497044563293
1772790173453566000,8.24656591796875,-0.9953299164772034,-0.6027630567550659,-0.18693388998508453
1772790173463632000,8.2566318359375,-0.9733760952949524,-0.5912184715270996,-0.07777497917413712
1772790173473697800,8.26669775390625,-0.9564727544784546,-0.5363823771476746,0.015805037692189217
1772790173483764000,8.276763916015625,-0.9380631446838379,-0.46347576379776,0.07928038388490677
1772790173493829000,8.2868291015625,-0.9224101305007935,-0.38593465089797974,0.1120029091835022
1772790173503894800,8.296894775390625,-0.9028214812278748,-0.30242353677749634,0.11859489232301712
1772790173513961000,8.3069609375,-0.8838949203491211,-0.23899608850479126,0.10128514468669891
1772790173524025900,8.31702587890625,-0.8593925833702087,-0.20909975469112396,0.08571011573076248
1772790173534092000,8.327092041015625,-0.844868004322052,-0.2309832125902176,0.08934133499860764
1772790173544158000,8.337157958984376,-0.8507631421089172,-0.28954172134399414,0.11507506668567657
1772790173554222800,8.347222900390625,-0.8645527362823486,-0.3406333923339844,0.16650763154029846
1772790173564288800,8.357288818359375,-0.877940833568573,-0.3507246673107147,0.22729948163032532
1772790173574355000,8.36735498046875,-0.8957406282424927,-0.35776448249816895,0.2849944531917572
1772790173584419800,8.377419921875,-0.9173624515533447,-0.3886772096157074,0.314871221780777
1772790173594486000,8.387486083984374,-0.9392701387405396,-0.43342629075050354,0.31376680731773376
1772790173604552000,8.397552001953125,-0.9448626637458801,-0.4796197712421417,0.27727043628692627
1772790173614617900,8.407617919921876,-0.9539458751678467,-0.5094708800315857,0.21498017013072968
1772790173624683000,8.41768310546875,-0.9489046335220337,-0.5252902507781982,0.14647626876831055
1772790173634749000,8.4277490234375,-0.9376434683799744,-0.52374267578125,0.08898447453975677
1772790173644814800,8.43781494140625,-0.9242377281188965,-0.5070388317108154,0.04716309532523155
1772790173654879700,8.447879638671875,-0.9093751311302185,-0.4777565896511078,0.022969607263803482
1772790173664946000,8.45794580078125,-0.880667507648468,-0.41320228576660156,0.03568609803915024
1772790173675011800,8.46801171875,-0.8440520167350769,-0.33044347167015076,0.061423685401678085
1772790173685077000,8.478076904296875,-0.8041800856590271,-0.270010769367218,0.10535942018032074
1772790173695143000,8.488142822265624,-0.7667334079742432,-0.23055896162986755,0.14899611473083496
1772790173705209000,8.498208984375,-0.7249919772148132,-0.19904017448425293,0.18388545513153076
1772790173715274000,8.50827392578125,-0.6779067516326904,-0.17536680400371552,0.20440536737442017
1772790173725340000,8.51833984375,-0.646600067615509,-0.17224662005901337,0.20448850095272064
1772790173735405800,8.52840576171875,-0.6338581442832947,-0.18981629610061646,0.1764874905347824
1772790173745472000,8.538471923828125,-0.6301741600036621,-0.22337211668491364,0.12753848731517792
1772790173755537200,8.548537109375,-0.639153242111206,-0.2696722447872162,0.054711420089006424
1772790173765602800,8.558602783203124,-0.6600464582443237,-0.31219446659088135,-0.007386267185211182
1772790173775668700,8.568668701171875,-0.6806196570396423,-0.3535560369491577,-0.05382007732987404
1772790173785734000,8.57873388671875,-0.7018201947212219,-0.39233291149139404,-0.07290156185626984
1772790173795800000,8.588800048828125,-0.6996989846229553,-0.41393277049064636,-0.06981948763132095
1772790173805866000,8.598865966796875,-0.6765727996826172,-0.38984379172325134,-0.044953249394893646
1772790173815931000,8.608930908203124,-0.6319699287414551,-0.3469996452331543,-0.024236520752310753
1772790173825996800,8.618996826171875,-0.5806215405464172,-0.2952726483345032,-0.0033038421534001827
1772790173836063000,8.62906298828125,-0.5279412865638733,-0.24032019078731537,0.012358208186924458
1772790173846127900,8.6391279296875,-0.4858960211277008,-0.18851056694984436,0.031194182112812996
1772790173856194000,8.649194091796875,-0.4388747215270996,-0.1653517186641693,0.04841630905866623
1772790173866259700,8.659259765625,-0.40196090936660767,-0.15732751786708832,0.08371564745903015
1772790173876324900,8.669324951171875,-0.38008570671081543,-0.13879138231277466,0.13405631482601166
1772790173886391000,8.67939111328125,-0.37022507190704346,-0.10635486245155334,0.1784137487411499
1772790173896457000,8.68945703125,-0.37747180461883545,-0.06779415160417557,0.20357343554496765
1772790173906523000,8.69952294921875,-0.3793985843658447,-0.04930133372545242,0.1961735188961029
1772790173916587800,8.709587890625,-0.39606812596321106,-0.07380907237529755,0.17582882940769196
1772790173926654000,8.719654052734375,-0.4283362329006195,-0.14366428554058075,0.15247786045074463
1772790173936720000,8.729719970703124,-0.46567854285240173,-0.20424586534500122,0.16221970319747925
1772790173946789000,8.7397890625,-0.49776792526245117,-0.23503853380680084,0.1894836574792862
1772790173956855000,8.74985498046875,-0.5300987362861633,-0.24919350445270538,0.22343416512012482
1772790173966921200,8.759921142578126,-0.5687980651855469,-0.25582337379455566,0.2281688004732132
1772790173976985900,8.76998583984375,-0.6079105734825134,-0.2533152103424072,0.20714819431304932
1772790173987052000,8.780052001953125,-0.655013382434845,-0.2632773816585541,0.16733640432357788
1772790173997118000,8.790117919921874,-0.7045326828956604,-0.28096717596054077,0.11661890149116516
1772790174007183000,8.80018310546875,-0.751238226890564,-0.271781861782074,0.08217647671699524
1772790174017249000,8.8102490234375,-0.7915539741516113,-0.24989251792430878,0.0669514462351799
1772790174027315200,8.820315185546875,-0.8171239495277405,-0.23395505547523499,0.07285351306200027
1772790174037380900,8.830380859375,-0.833742082118988,-0.25056466460227966,0.086380235850811
1772790174047446000,8.840446044921874,-0.8472058176994324,-0.28600820899009705,0.11795977503061295
1772790174057512000,8.850511962890625,-0.8631421327590942,-0.3116171658039093,0.15501286089420319
1772790174067578000,8.860578125,-0.8841594457626343,-0.3246753215789795,0.20061832666397095
1772790174077643300,8.870643310546875,-0.9112073183059692,-0.3137824535369873,0.25283998250961304
1772790174087709000,8.880708984375,-0.9335359334945679,-0.2735448181629181,0.2942317724227905
1772790174097775000,8.890775146484375,-0.9473041892051697,-0.20615032315254211,0.3214801847934723
1772790174107840000,8.900840087890625,-0.9655418992042542,-0.13281330466270447,0.3151914179325104
1772790174117906200,8.91090625,-0.9865214824676514,-0.0799759179353714,0.25452888011932373
1772790174127972000,8.92097216796875,-1.019854187965393,-0.07803284376859665,0.14145788550376892
1772790174138037000,8.931037109375,-1.0659582614898682,-0.09989180415868759,0.001773475669324398
1772790174148103000,8.94110302734375,-1.1274957656860352,-0.13778428733348846,-0.15063047409057617
1772790174158169000,8.951169189453125,-1.2021466493606567,-0.18295709788799286,-0.2870924472808838
1772790174168234000,8.96123388671875,-1.2757893800735474,-0.24983260035514832,-0.38116446137428284
1772790174178300200,8.971300048828125,-1.348223328590393,-0.32740381360054016,-0.41372188925743103
1772790174188365800,8.98136572265625,-1.3940714597702026,-0.4044918119907379,-0.37820255756378174
1772790174198432000,8.991431884765625,-1.4121613502502441,-0.47075313329696655,-0.284035861492157
1772790174208497200,9.0014970703125,-1.39976167678833,-0.5038869976997375,-0.14392191171646118
1772790174218563000,9.01156298828125,-1.3646275997161865,-0.4718981683254242,0.018347691744565964
1772790174228629000,9.02162890625,-1.3252569437026978,-0.3951062858104706,0.1729706972837448
1772790174238694000,9.03169384765625,-1.3058254718780518,-0.33749330043792725,0.29052209854125977
1772790174248760000,9.041760009765625,-1.2862640619277954,-0.29994916915893555,0.36716997623443604
1772790174258826000,9.051825927734376,-1.2712044715881348,-0.29558423161506653,0.40325793623924255
1772790174268891100,9.06189111328125,-1.2643969058990479,-0.35442259907722473,0.4100770354270935
1772790174278957000,9.07195703125,-1.2555639743804932,-0.42804673314094543,0.41470029950141907
1772790174289023200,9.082023193359374,-1.2423598766326904,-0.4884245991706848,0.4429675042629242
1772790174299088100,9.092088134765625,-1.2238916158676147,-0.5171736478805542,0.49145302176475525
1772790174309154000,9.102154052734376,-1.199497103691101,-0.4994369149208069,0.5342159271240234
1772790174319220000,9.112219970703125,-1.1689215898513794,-0.48354265093803406,0.5492672920227051
1772790174329285000,9.12228515625,-1.1419881582260132,-0.5007524490356445,0.5204006433486938
1772790174339351000,9.13235107421875,-1.1283565759658813,-0.5696513056755066,0.4613402187824249
1772790174349417000,9.1424169921875,-1.1381688117980957,-0.697568416595459,0.3858051598072052
1772790174359483000,9.15248291015625,-1.1773375272750854,-0.8755238056182861,0.28169021010398865
1772790174369548000,9.162548095703125,-1.225535273551941,-1.1032313108444214,0.17158770561218262
1772790174379614200,9.1726142578125,-1.2807672023773193,-1.3451646566390991,0.08548744767904282
1772790174389680000,9.18268017578125,-1.3497122526168823,-1.520584225654602,0.05631028488278389
1772790174399745000,9.1927451171875,-1.4246337413787842,-1.6185139417648315,0.07311642915010452
1772790174409811000,9.20281103515625,-1.4947696924209595,-1.6801568269729614,0.13347481191158295
1772790174419877000,9.212877197265625,-1.5421854257583618,-1.665787696838379,0.22078362107276917
1772790174429942000,9.22294189453125,-1.5782599449157715,-1.5389517545700073,0.3113928437232971
1772790174440008000,9.233008056640625,-1.5899107456207275,-1.2964229583740234,0.3832094967365265
1772790174450073900,9.243073974609375,-1.5692793130874634,-0.9966270327568054,0.4128832519054413
1772790174460139000,9.253138916015626,-1.5150952339172363,-0.6906144022941589,0.3947162330150604
1772790174470205200,9.263205078125,-1.433748722076416,-0.4073353409767151,0.3247773349285126
1772790174480271000,9.27327099609375,-1.3634947538375854,-0.19111515581607819,0.21731078624725342
1772790174490336000,9.2833359375,-1.3122518062591553,-0.05440438538789749,0.09388842433691025
1772790174500402000,9.29340185546875,-1.2872010469436646,0.008355136029422283,-0.015425551682710648
1772790174510468000,9.303468017578124,-1.282705307006836,-0.03596621751785278,-0.07862912118434906
1772790174520534000,9.313533935546875,-1.3062609434127808,-0.15323852002620697,-0.07490362226963043
1772790174530599200,9.32359912109375,-1.348859429359436,-0.277644544839859,-0.017308609560132027
1772790174540665000,9.3336650390625,-1.39741849899292,-0.4096103012561798,0.07620163261890411
1772790174550731000,9.34373095703125,-1.4534012079238892,-0.5580364465713501,0.17226964235305786
1772790174560796000,9.3537958984375,-1.5142499208450317,-0.6998481750488281,0.2562934458255768
1772790174570862000,9.363862060546875,-1.565571665763855,-0.8094485998153687,0.29596853256225586
1772790174580928000,9.373927978515624,-1.6078217029571533,-0.9073684811592102,0.2989952266216278
1772790174590993000,9.383992919921875,-1.6287256479263306,-0.9870469570159912,0.27512189745903015
1772790174601059000,9.39405908203125,-1.6459813117980957,-1.0105863809585571,0.2577325105667114
1772790174611125000,9.404125,-1.6617687940597534,-0.9666017889976501,0.24607263505458832
1772790174621190100,9.414190185546875,-1.6659798622131348,-0.9133742451667786,0.23814226686954498
1772790174631256000,9.424256103515624,-1.6760635375976562,-0.8980656266212463,0.232004314661026
1772790174641322200,9.434322265625,-1.697684645652771,-0.8798405528068542,0.23640145361423492
1772790174651387000,9.444386962890626,-1.7319281101226807,-0.8486829996109009,0.2450859248638153
1772790174661453000,9.454453125,-1.765764832496643,-0.826335608959198,0.25295183062553406
1772790174671519000,9.46451904296875,-1.7958356142044067,-0.826653242111206,0.2527453601360321
1772790174681585200,9.474585205078125,-1.8180068731307983,-0.8710601329803467,0.24817323684692383
1772790174691650000,9.484650146484375,-1.8385894298553467,-0.9297703504562378,0.2395179569721222
1772790174701716000,9.494716064453126,-1.8478140830993652,-0.9801301956176758,0.22638536989688873
1772790174711782000,9.504781982421875,-1.8651628494262695,-1.0182774066925049,0.21657410264015198
1772790174721847000,9.514846923828125,-1.878146767616272,-1.037407398223877,0.19374467432498932
1772790174731913200,9.524913330078125,-1.8800830841064453,-1.0284173488616943,0.1783618927001953
1772790174741979100,9.534979248046875,-1.8903216123580933,-0.9864078760147095,0.1693050116300583
1772790174752044000,9.5450439453125,-1.8982677459716797,-0.96244877576828,0.1447782665491104
1772790174762110000,9.55510986328125,-1.8912173509597778,-1.0115982294082642,0.11082615703344345
1772790174772176100,9.565176025390626,-1.8748152256011963,-1.101117730140686,0.06742285192012787
1772790174782241000,9.575240966796875,-1.8594101667404175,-1.189895749092102,0.03596559539437294
1772790174792307200,9.58530712890625,-1.8503049612045288,-1.2350741624832153,0.02110772393643856
1772790174802372900,9.595372802734374,-1.8391304016113281,-1.2058342695236206,0.018619267269968987
1772790174812438000,9.60543798828125,-1.824881911277771,-1.103156566619873,0.03768859803676605
1772790174822504000,9.61550390625,-1.7976607084274292,-0.9544093608856201,0.05066751316189766
1772790174832570000,9.625570068359375,-1.7605700492858887,-0.8006564378738403,0.05678512901067734
1772790174842635300,9.63563525390625,-1.7056210041046143,-0.6913613677024841,0.05379147082567215
1772790174852701000,9.645700927734374,-1.655576229095459,-0.6257615089416504,0.04913153499364853
1772790174862767000,9.65576708984375,-1.620456576347351,-0.5791431665420532,0.04817119985818863
1772790174872833000,9.6658330078125,-1.6054474115371704,-0.5349711179733276,0.051610637456178665
1772790174882898200,9.675898193359375,-1.6020488739013672,-0.49234509468078613,0.059310901910066605
1772790174892964000,9.685964111328126,-1.605875015258789,-0.46316230297088623,0.06735718250274658
1772790174903030300,9.6960302734375,-1.6104674339294434,-0.4493306279182434,0.05291299149394035
1772790174913095000,9.706094970703125,-1.6167385578155518,-0.4823305904865265,0.028181513771414757
1772790174923161000,9.7161611328125,-1.6268366575241089,-0.5816827416419983,-0.0020381740760058165
1772790174933227000,9.72622705078125,-1.630200743675232,-0.7220499515533447,-0.03017776645720005
1772790174943289000,9.7362890625,-1.6175693273544312,-0.8547371625900269,-0.051655363291502
1772790174953355000,9.74635498046875,-1.5901899337768555,-0.9665939807891846,-0.05678161233663559
1772790174963421000,9.7564208984375,-1.5547720193862915,-1.0325483083724976,-0.039373595267534256
1772790174973485800,9.76648583984375,-1.5197341442108154,-1.0321029424667358,0.004627651534974575
1772790174983552000,9.776552001953124,-1.4897706508636475,-0.9815801978111267,0.06312078982591629
1772790174993618000,9.786617919921875,-1.4584555625915527,-0.9037250280380249,0.11616992950439453
1772790175003682800,9.796682861328126,-1.432115077972412,-0.8384307026863098,0.13745176792144775
1772790175013749000,9.8067490234375,-1.4142179489135742,-0.8178427815437317,0.11617694795131683
1772790175023815000,9.81681494140625,-1.4168622493743896,-0.843450665473938,0.062278300523757935
1772790175033880800,9.826880859375,-1.424386739730835,-0.8939030170440674,-0.0007232724456116557
1772790175043946000,9.836946044921875,-1.4362719058990479,-0.934428870677948,-0.0528663694858551
1772790175054012200,9.84701220703125,-1.4532179832458496,-0.9684452414512634,-0.09251558035612106
1772790175064077800,9.857077880859375,-1.478291630744934,-0.9909172654151917,-0.11890217661857605
1772790175074143000,9.86714306640625,-1.5227761268615723,-0.9999905228614807,-0.12113124132156372
1772790175084209000,9.877208984375,-1.5698301792144775,-0.9694722890853882,-0.10217832773923874
1772790175094275000,9.887275146484376,-1.6184940338134766,-0.9178878664970398,-0.06126970425248146
1772790175104340000,9.897340087890624,-1.6614036560058594,-0.8502569198608398,-0.006761989090591669
1772790175114406000,9.907406005859375,-1.7206696271896362,-0.7806468605995178,0.03950813412666321
1772790175124471800,9.917471923828124,-1.7707191705703735,-0.7111111879348755,0.06386833637952805
1772790175134537000,9.927536865234375,-1.8102176189422607,-0.6838801503181458,0.05289953574538231
1772790175144603100,9.93760302734375,-1.832995057106018,-0.6785426139831543,0.010939037427306175
1772790175154669000,9.9476689453125,-1.8355001211166382,-0.6510286331176758,-0.046356942504644394
1772790175164734000,9.95773388671875,-1.8363981246948242,-0.6133289337158203,-0.1017104759812355
1772790175174800000,9.9677998046875,-1.8410378694534302,-0.5919674634933472,-0.14384344220161438
1772790175184866000,9.977865966796875,-1.8525019884109497,-0.5722952485084534,-0.16880019009113312
1772790175194931000,9.987930908203126,-1.8585714101791382,-0.5435311794281006,-0.159142404794693
1772790175204997000,9.9979970703125,-1.8557554483413696,-0.49894824624061584,-0.12784706056118011
1772790175215062800,10.008062744140625,-1.8414355516433716,-0.4850649833679199,-0.09124504774808884
1772790175225129000,10.01812890625,-1.8338743448257446,-0.517936646938324,-0.04993303120136261
1772790175235193900,10.02819384765625,-1.8240160942077637,-0.5991062521934509,0.007489751558750868
1772790175245260000,10.038260009765626,-1.819423794746399,-0.6731631755828857,0.06735894083976746
1772790175255326000,10.048325927734375,-1.814340353012085,-0.7079988121986389,0.11649339646100998
1772790175265390800,10.058390869140625,-1.7977488040924072,-0.7222163677215576,0.14061763882637024
1772790175275457000,10.06845703125,-1.774544358253479,-0.7270501255989075,0.13274447619915009
1772790175285523000,10.07852294921875,-1.7609827518463135,-0.727464497089386,0.10586945712566376
1772790175295588000,10.088588134765626,-1.7421940565109253,-0.7113244533538818,0.06200112774968147
1772790175305654000,10.098654052734375,-1.7138077020645142,-0.6868159174919128,0.019132224842905998
1772790175315720000,10.108719970703126,-1.668268084526062,-0.6390883922576904,-0.0036414305213838816
1772790175325784800,10.118784912109374,-1.5927985906600952,-0.5666778087615967,0.008569428697228432
1772790175335851000,10.12885107421875,-1.522713541984558,-0.4920230209827423,0.04377395287156105
1772790175345917000,10.1389169921875,-1.4541726112365723,-0.43851879239082336,0.07212996482849121
1772790175355982000,10.148982177734375,-1.3832463026046753,-0.41401034593582153,0.08343382179737091
1772790175366047700,10.1590478515625,-1.3185346126556396,-0.4007840156555176,0.07534074038267136
1772790175376114000,10.169114013671875,-1.2549657821655273,-0.3697839081287384,0.07680223882198334
1772790175386179800,10.179179931640626,-1.201870083808899,-0.3371703028678894,0.07755351811647415
1772790175396245000,10.189244873046874,-1.1538563966751099,-0.3208567798137665,0.07468173652887344
1772790175406311000,10.199310791015625,-1.102494478225708,-0.3321453928947449,0.07026142627000809
1772790175416377000,10.209377197265624,-1.048421025276184,-0.34017735719680786,0.06783398240804672
1772790175426442000,10.21944189453125,-0.9859400987625122,-0.32353395223617554,0.06964094191789627
1772790175436508000,10.2295078125,-0.9211053848266602,-0.2861001193523407,0.0849006175994873
1772790175446574000,10.239573974609375,-0.8563793897628784,-0.25442421436309814,0.09891177713871002
1772790175456639000,10.249638916015625,-0.782976508140564,-0.21955294907093048,0.1198306679725647
1772790175466705000,10.259704833984374,-0.7219318151473999,-0.18650232255458832,0.13960623741149902
1772790175476770800,10.269770751953125,-0.6684786677360535,-0.16526591777801514,0.1623985767364502
1772790175486836000,10.2798359375,-0.6147331595420837,-0.14698092639446259,0.1828090399503708
1772790175496902000,10.28990185546875,-0.558638870716095,-0.10627756267786026,0.20275914669036865
1772790175506968000,10.299968017578125,-0.5099648237228394,-0.05887676030397415,0.2185487598180771
1772790175517033000,10.310032958984374,-0.4593215584754944,-0.023929327726364136,0.22450357675552368
1772790175527099000,10.320098876953125,-0.42853301763534546,-0.004207287915050983,0.2225850373506546
1772790175537164800,10.330164794921876,-0.4010087251663208,0.01849863864481449,0.21648040413856506
1772790175547230000,10.34022998046875,-0.3804784417152405,0.07501651346683502,0.21358315646648407
1772790175557296000,10.350296142578125,-0.3776140809059143,0.1089029461145401,0.21107836067676544
1772790175567362000,10.360362060546874,-0.3841326832771301,0.10056804865598679,0.20942427217960358
1772790175577427000,10.370427001953125,-0.3971136212348938,0.10102523118257523,0.20355913043022156
1772790175587492900,10.380492919921876,-0.4030335545539856,0.12290576845407486,0.18649812042713165
1772790175597559000,10.39055908203125,-0.39549991488456726,0.13062503933906555,0.15916982293128967
1772790175607625000,10.400625,-0.3818615972995758,0.10958366841077805,0.13640804588794708
1772790175617689900,10.41068994140625,-0.3642207384109497,0.08672049641609192,0.11549345403909683
1772790175627755800,10.420755859375,-0.33453235030174255,0.05881376564502716,0.09418097138404846
1772790175637822000,10.430822021484374,-0.2967018485069275,0.02730674110352993,0.07303813099861145
1772790175647887000,10.44088720703125,-0.2589978873729706,0.005463495850563049,0.058487419039011
1772790175657953000,10.450953125,-0.2337775081396103,-0.0008397670462727547,0.04835628718137741
1772790175668019000,10.46101904296875,-0.20570805668830872,0.010216878727078438,0.04041287675499916
1772790175678083800,10.471083740234375,-0.17059239745140076,0.052361227571964264,0.04434496536850929
1772790175688150000,10.48114990234375,-0.13479551672935486,0.11249540746212006,0.06070103496313095
1772790175698216000,10.4912158203125,-0.10409993678331375,0.185067817568779,0.07414857298135757
1772790175708281000,10.501281005859376,-0.0839800238609314,0.21035213768482208,0.05889531597495079
1772790175718347000,10.511346923828125,-0.07003363221883774,0.15492886304855347,0.015975046902894974
1772790175728413000,10.521412841796876,-0.04825776070356369,0.0656282901763916,-0.028434760868549347
1772790175738477800,10.531477783203124,-0.025463050231337547,-0.0061875577084720135,-0.06268297880887985
1772790175748544000,10.5415439453125,0.00424637645483017,-0.04860825091600418,-0.07832612097263336
1772790175758610000,10.55160986328125,0.03179251775145531,-0.079750195145607,-0.07787498086690903
1772790175768674800,10.5616748046875,0.06226307526230812,-0.10230796784162521,-0.06831689924001694
1772790175778741000,10.571740966796876,0.09210159629583359,-0.07165427505970001,-0.055023565888404846
1772790175788807000,10.581806884765625,0.12074416130781174,-0.021894972771406174,-0.04866979643702507
1772790175798872800,10.591872802734375,0.15178057551383972,0.01293993927538395,-0.04696900397539139
1772790175808938000,10.60193798828125,0.18086682260036469,0.03518851846456528,-0.03621675819158554
1772790175819004200,10.612004150390625,0.21775084733963013,0.05649137496948242,-0.009629547595977783
1772790175829069800,10.62206982421875,0.24793004989624023,0.09188026189804077,0.0310188140720129
1772790175839135000,10.632135009765625,0.27928540110588074,0.11821389943361282,0.0653708279132843
1772790175849201000,10.642200927734375,0.30177125334739685,0.10887818783521652,0.09354174137115479
1772790175859267000,10.65226708984375,0.30157947540283203,0.08392147719860077,0.12139567732810974
1772790175869332000,10.66233203125,0.28513097763061523,0.04028956964612007,0.13653121888637543
1772790175879398000,10.67239794921875,0.25529852509498596,-0.029368069022893906,0.14730343222618103
1772790175889463800,10.6824638671875,0.21779780089855194,-0.1292777955532074,0.1364828646183014
1772790175899529000,10.692529052734375,0.168595090508461,-0.22419454157352448,0.10788962244987488
1772790175909595100,10.70259521484375,0.10448107123374939,-0.3036869764328003,0.06089415028691292
1772790175919661000,10.7126611328125,0.05093318596482277,-0.34520477056503296,0.003682994982227683
1772790175929726000,10.722725830078126,0.014991698786616325,-0.3509627878665924,-0.05305458605289459
1772790175939791400,10.732791259765625,-0.009495839476585388,-0.32059499621391296,-0.09349821507930756
1772790175949857300,10.742857177734376,-0.019467778503894806,-0.25983017683029175,-0.12108883261680603
1772790175959922400,10.75292236328125,-0.017006777226924896,-0.17778098583221436,-0.13361957669258118
1772790175969988400,10.76298828125,-0.009254314936697483,-0.09095366299152374,-0.14242824912071228
1772790175980054300,10.77305419921875,-0.0001260959543287754,-0.009498795494437218,-0.13929450511932373
1772790175990120400,10.783120361328125,0.013468808494508266,0.062117863446474075,-0.13253885507583618
1772790176000185300,10.793185302734376,0.024350613355636597,0.12353640794754028,-0.12402985990047455
1772790176010251300,10.803251220703125,0.03685707971453667,0.18919984996318817,-0.11510427296161652
1772790176020317400,10.8133173828125,0.04385114833712578,0.23246213793754578,-0.12144189327955246
1772790176030382300,10.82338232421875,0.05347288399934769,0.25880131125450134,-0.1357518583536148
1772790176040448500,10.833448486328125,0.06182146072387695,0.2728823721408844,-0.16315925121307373
1772790176050514200,10.84351416015625,0.06499887257814407,0.2908792197704315,-0.1911538690328598
1772790176060579300,10.853579345703125,0.06895313411951065,0.3068113327026367,-0.22355884313583374
1772790176070645200,10.863645263671875,0.07335853576660156,0.3069532811641693,-0.2579011023044586
1772790176080711400,10.87371142578125,0.04649748653173447,0.28707537055015564,-0.2980608344078064
1772790176090776300,10.8837763671875,0.014346739277243614,0.22530041635036469,-0.3203469514846802
1772790176100842200,10.89384228515625,-0.028306329622864723,0.14839281141757965,-0.3218761086463928
1772790176110908200,10.903908203125,-0.07293345034122467,0.0693347379565239,-0.2909317910671234
1772790176120973300,10.913973388671875,-0.10945826768875122,0.019806981086730957,-0.2430475652217865
1772790176131039500,10.92403955078125,-0.13098007440567017,-0.01711987890303135,-0.19424140453338623
1772790176141105400,10.93410546875,-0.1403486132621765,-0.057074520736932755,-0.15058811008930206
1772790176151170300,10.94417041015625,-0.14228419959545135,-0.0853293240070343,-0.11399467289447784
1772790176161236200,10.954236328125,-0.1441771239042282,-0.11198123544454575,-0.08594682067632675
1772790176171302400,10.964302490234376,-0.1312970221042633,-0.13179142773151398,-0.049942754209041595
1772790176181367300,10.9743671875,-0.11674812436103821,-0.1226634755730629,-0.007291891612112522
1772790176191433500,10.98443359375,-0.10358944535255432,-0.1026543453335762,0.02728925459086895
1772790176201499100,10.9944990234375,-0.0901605635881424,-0.10537261515855789,0.04746975377202034
1772790176211565300,11.0045654296875,-0.07296373695135117,-0.13711854815483093,0.06008914113044739
1772790176221630200,11.014630126953126,-0.037329744547605515,-0.15793825685977936,0.06978065520524979
1772790176231696400,11.0246962890625,-0.003565124934539199,-0.12878702580928802,0.0930047482252121
1772790176241762300,11.03476220703125,0.03369041532278061,-0.10770626366138458,0.11019712686538696
1772790176251827200,11.0448271484375,0.06371995061635971,-0.12346871197223663,0.13576719164848328
1772790176261893400,11.054893310546875,0.07633455097675323,-0.1562355011701584,0.17384593188762665
1772790176271959300,11.064959228515624,0.05951268970966339,-0.16928711533546448,0.21035973727703094
1772790176282024400,11.0750244140625,0.016999078914523125,-0.17808182537555695,0.23861724138259888
1772790176292090400,11.08509033203125,-0.04305919632315636,-0.2075611650943756,0.23405231535434723
1772790176302156500,11.095156494140625,-0.1080029234290123,-0.25500622391700745,0.19414940476417542
1772790176312221200,11.10522119140625,-0.1766754686832428,-0.3208046853542328,0.13213929533958435
1772790176322287400,11.115287353515624,-0.25339868664741516,-0.3746396005153656,0.06191450357437134
1772790176332353300,11.125353271484375,-0.3356078267097473,-0.3971576988697052,0.0046799746342003345
1772790176342418400,11.13541845703125,-0.4085365831851959,-0.41339102387428284,-0.04915628582239151
1772790176352484400,11.145484375,-0.4556654691696167,-0.40445399284362793,-0.08998547494411469
1772790176362550300,11.15555029296875,-0.47558653354644775,-0.38656002283096313,-0.11147772520780563
1772790176372615400,11.165615478515624,-0.4765985310077667,-0.34112781286239624,-0.10421368479728699
1772790176382681300,11.175681396484375,-0.47239845991134644,-0.25123411417007446,-0.07308149337768555
1772790176392747500,11.18574755859375,-0.4624459743499756,-0.14304693043231964,-0.030147075653076172
1772790176402812200,11.195812255859375,-0.4415709674358368,-0.041399478912353516,-0.01557572465389967
1772790176412878300,11.20587841796875,-0.420068621635437,0.016733866184949875,-0.04117828980088234
1772790176422944300,11.2159443359375,-0.39624693989753723,0.005225721746683121,-0.11274854093790054
1772790176433009400,11.226009521484375,-0.36097657680511475,-0.046734146773815155,-0.19999688863754272
1772790176443075300,11.236075439453124,-0.34036558866500854,-0.08001017570495605,-0.2823508083820343
1772790176453141500,11.2461416015625,-0.344628244638443,-0.11411914229393005,-0.33916082978248596
1772790176463207200,11.256207275390626,-0.3699318468570709,-0.14791277050971985,-0.37115779519081116
1772790176473272300,11.266272216796875,-0.4082070589065552,-0.16836850345134735,-0.39504581689834595
1772790176483338200,11.276338134765625,-0.43573060631752014,-0.22241011261940002,-0.4108586609363556
1772790176493404400,11.286404296875,-0.4560752809047699,-0.2974044978618622,-0.4240040183067322
1772790176503469300,11.29646923828125,-0.4760742485523224,-0.3414914011955261,-0.4230104684829712
1772790176513535200,11.30653515625,-0.4933762848377228,-0.36012953519821167,-0.4127495586872101
1772790176523601400,11.316601318359375,-0.49600949883461,-0.3952694833278656,-0.4047369956970215
1772790176533666300,11.326666259765625,-0.49087944626808167,-0.4392148554325104,-0.37238386273384094
1772790176543732500,11.336732421875,-0.48808932304382324,-0.47904258966445923,-0.31710848212242126
1772790176553798400,11.34679833984375,-0.4768824577331543,-0.4871103763580322,-0.23259012401103973
1772790176563863300,11.35686328125,-0.4707758128643036,-0.4618697762489319,-0.14660927653312683
1772790176573929200,11.36692919921875,-0.45785894989967346,-0.41364285349845886,-0.05657152831554413
1772790176583995400,11.376995361328126,-0.4368220567703247,-0.349500834941864,0.015657665207982063
1772790176594060500,11.387060546875,-0.423425555229187,-0.2821614742279053,0.07525841146707535
1772790176604126500,11.39712646484375,-0.4159224331378937,-0.2273566722869873,0.09860970824956894
1772790176614192000,11.407192138671874,-0.42114782333374023,-0.19497956335544586,0.08348854631185532
1772790176624257300,11.41725732421875,-0.42184922099113464,-0.1788841187953949,0.036018919199705124
1772790176634323500,11.427323486328126,-0.4318925440311432,-0.1507057398557663,-0.022357836365699768
1772790176644389400,11.437389404296875,-0.44908052682876587,-0.09307441860437393,-0.06599115580320358
1772790176654454300,11.447454345703125,-0.4846353232860565,-0.04560410976409912,-0.09433464705944061
1772790176664520200,11.457520263671874,-0.5160042643547058,-0.024739988148212433,-0.10758497565984726
1772790176674586400,11.46758642578125,-0.5316146016120911,-0.011983713135123253,-0.08676012605428696
1772790176684651300,11.4776513671875,-0.5395737290382385,0.0035814642906188965,-0.044853754341602325
1772790176694717400,11.487717529296875,-0.5428637862205505,0.03543446958065033,0.010192185640335083
1772790176704783400,11.497783447265626,-0.5408249497413635,0.041424378752708435,0.04666461423039436
1772790176714849300,11.507849365234375,-0.5241066813468933,-0.0032208533957600594,0.05777851864695549
1772790176724914400,11.51791455078125,-0.4940633475780487,-0.06008230522274971,0.043186891824007034
1772790176734980400,11.52798046875,-0.4540919363498688,-0.08362437784671783,0.026586608961224556
1772790176745046300,11.53804638671875,-0.4037056565284729,-0.08464530855417252,0.010071116499602795
1772790176755111200,11.548111083984375,-0.35656052827835083,-0.07733946293592453,-0.01321369968354702
1772790176765177300,11.55817724609375,-0.3148179352283478,-0.0818902775645256,-0.04170985519886017
1772790176775243300,11.5682431640625,-0.2897906005382538,-0.1216302365064621,-0.06791456043720245
1772790176785308400,11.578308349609374,-0.27764612436294556,-0.16609540581703186,-0.08535461127758026
1772790176795374300,11.588374267578125,-0.27698859572410583,-0.2060321718454361,-0.08365418761968613
1772790176805440500,11.5984404296875,-0.2756844460964203,-0.21863219141960144,-0.06492426246404648
1772790176815505200,11.608505126953125,-0.2763318717479706,-0.2272736132144928,-0.04105355590581894
1772790176825571300,11.6185712890625,-0.27915751934051514,-0.21953964233398438,-0.021903064101934433
1772790176835637200,11.62863720703125,-0.27229106426239014,-0.204850971698761,-0.004446044098585844
1772790176845702400,11.638702392578125,-0.2589764893054962,-0.17312166094779968,-0.002086011925712228
1772790176855768300,11.648768310546876,-0.24435415863990784,-0.16130602359771729,-0.02096729166805744
1772790176865834200,11.658834228515625,-0.22442559897899628,-0.17117975652217865,-0.06700941920280457
1772790176875899400,11.6688994140625,-0.20040468871593475,-0.20096534490585327,-0.11050575971603394
1772790176885965300,11.67896533203125,-0.18201008439064026,-0.22886750102043152,-0.13844448328018188
1772790176896031500,11.689031494140625,-0.1684708446264267,-0.22519820928573608,-0.13988551497459412
1772790176906096000,11.69909619140625,-0.15430741012096405,-0.2138064205646515,-0.12474947422742844
1772790176916162300,11.709162353515625,-0.14442521333694458,-0.22544310986995697,-0.09567974507808685
1772790176926228200,11.719228271484376,-0.13026398420333862,-0.2587009370326996,-0.06402645260095596
1772790176936293400,11.72929345703125,-0.11967764049768448,-0.25929614901542664,-0.0176208708435297
1772790176946359000,11.739359130859375,-0.11068738996982574,-0.20720914006233215,0.024248788133263588
1772790176956425200,11.74942529296875,-0.09254167228937149,-0.13676400482654572,0.04772002249956131
1772790176966491100,11.7594912109375,-0.06295756250619888,-0.10206279158592224,0.046627361327409744
1772790176976556000,11.76955615234375,-0.03383456543087959,-0.11925722658634186,0.028168994933366776
1772790176986622200,11.779622314453125,-0.014486509375274181,-0.16263191401958466,0.012129034847021103
1772790176996688100,11.789688232421875,-0.008849662728607655,-0.194492906332016,0.006686066277325153
1772790177006753300,11.799753173828124,-0.010785874910652637,-0.16278940439224243,0.015177825465798378
1772790177016819200,11.809819091796875,0.01817919686436653,-0.031063877046108246,0.03731774911284447
1772790177026885400,11.819885498046874,0.07026404142379761,0.18140311539173126,0.07305530458688736
1772790177036950000,11.829949951171875,0.10084032267332077,0.3652088940143585,0.08758018165826797
1772790177047016200,11.84001611328125,0.11997683346271515,0.39802423119544983,0.06001550331711769
1772790177057082000,11.85008203125,0.17480413615703583,0.31028664112091064,0.0017849538708105683
1772790177067147300,11.860147216796875,0.23570367693901062,0.19117994606494904,-0.04510238766670227
1772790177077213000,11.870212890625,0.28842946887016296,-0.018849991261959076,-0.07819482684135437
1772790177087279000,11.880279052734375,0.33400940895080566,-0.2589948773384094,-0.09628564864397049
1772790177097344300,11.89034423828125,0.38342010974884033,-0.4056650400161743,-0.08401913195848465
1772790177107410200,11.90041015625,0.4620375335216522,-0.44210124015808105,-0.05018366873264313
1772790177117476400,11.910476318359375,0.5565246343612671,-0.4034270942211151,0.0038356250151991844
1772790177127541000,11.920541015625,0.6290643811225891,-0.3088252544403076,0.0661766305565834
1772790177137607200,11.930607177734375,0.6874022483825684,-0.16999416053295135,0.13097932934761047
1772790177147673000,11.940673095703126,0.7282548546791077,0.003943664953112602,0.17812050879001617
1772790177157738200,11.95073828125,0.7586133480072021,0.13960668444633484,0.18818938732147217
1772790177167804200,11.96080419921875,0.7765345573425293,0.21952223777770996,0.16277188062667847
1772790177177870300,11.970870361328124,0.7800843119621277,0.26575392484664917,0.10517356544733047
1772790177187935200,11.980935302734375,0.7735670804977417,0.2970584034919739,0.03669137880206108
1772790177198001200,11.991001220703126,0.7568567991256714,0.3132999539375305,-0.03199128061532974
1772790177208067000,12.001067138671875,0.7326427102088928,0.3001713156700134,-0.09055712819099426
1772790177218132200,12.01113232421875,0.700726330280304,0.2711481750011444,-0.1273537427186966
1772790177228198100,12.0211982421875,0.6723067760467529,0.26155975461006165,-0.13030900061130524
1772790177238264000,12.03126416015625,0.6383093595504761,0.2726752460002899,-0.1073208600282669
1772790177248330200,12.041330322265624,0.5955880880355835,0.2868863344192505,-0.07891082018613815
1772790177258395100,12.05139501953125,0.5511540174484253,0.2672463357448578,-0.05049702525138855
1772790177268461300,12.06146142578125,0.5078079700469971,0.21256530284881592,-0.024466749280691147
1772790177278527200,12.07152734375,0.4610646665096283,0.16067920625209808,0.004263964015990496
1772790177288592100,12.081592041015625,0.4190317988395691,0.11929839849472046,0.01940949261188507
1772790177298658000,12.091657958984374,0.4052414000034332,0.08067190647125244,0.00313598127104342
1772790177308724200,12.10172412109375,0.4027321934700012,0.047649070620536804,-0.03164470195770264
1772790177318789000,12.1117890625,0.39951562881469727,0.016845881938934326,-0.08807415515184402
1772790177328855300,12.121855224609375,0.3962479531764984,-0.035633839666843414,-0.1474514752626419
1772790177338921000,12.1319208984375,0.3957903981208801,-0.08781261742115021,-0.19549623131752014
1772790177348986000,12.141986083984374,0.3892418444156647,-0.11905539780855179,-0.2286560833454132
1772790177359052300,12.15205224609375,0.3789322078227997,-0.16696059703826904,-0.2423119693994522
1772790177369118200,12.1621181640625,0.36469221115112305,-0.22631320357322693,-0.2435930073261261
1772790177379183000,12.17218310546875,0.3482722043991089,-0.298145055770874,-0.22917011380195618
1772790177389249000,12.1822490234375,0.32888615131378174,-0.3597394526004791,-0.21614335477352142
1772790177399315200,12.192315185546875,0.3241625130176544,-0.4081919491291046,-0.1892491579055786
1772790177409380000,12.202380126953125,0.32513850927352905,-0.4322441518306732,-0.15059559047222137
1772790177419446300,12.2124462890625,0.3148147761821747,-0.4165229797363281,-0.09922214597463608
1772790177429512200,12.22251220703125,0.31895625591278076,-0.35269227623939514,-0.048351094126701355
1772790177439577000,12.2325771484375,0.33300283551216125,-0.2252592295408249,-0.0211825892329216
1772790177449643000,12.24264306640625,0.3565504848957062,-0.08048590272665024,-0.023930637165904045
1772790177459709200,12.252709228515625,0.3672707676887512,0.023894302546977997,-0.05285416170954704
1772790177469774300,12.2627744140625,0.36137163639068604,0.08615035563707352,-0.11067604273557663
1772790177479840300,12.27284033203125,0.34392765164375305,0.10690010339021683,-0.1758907288312912
1772790177489906200,12.28290625,0.3191014230251312,0.09320065379142761,-0.23690664768218994
1772790177499971000,12.29297119140625,0.2932021915912628,0.046993743628263474,-0.28419026732444763
1772790177510037200,12.303037353515625,0.2725514769554138,0.004861088469624519,-0.30604737997055054
1772790177520103200,12.313103271484374,0.2531743347644806,-0.023755375295877457,-0.31556978821754456
1772790177530168000,12.32316796875,0.23157761991024017,-0.06411721557378769,-0.31003057956695557
1772790177540234000,12.33323388671875,0.2014807015657425,-0.10637332499027252,-0.30161765217781067
1772790177550300200,12.343300048828125,0.17601938545703888,-0.14913158118724823,-0.27319100499153137
1772790177560366000,12.353365966796876,0.14198365807533264,-0.17491364479064941,-0.23222410678863525
1772790177570431200,12.36343115234375,0.10676945745944977,-0.16866803169250488,-0.1885780394077301
1772790177580497200,12.3734970703125,0.08841868489980698,-0.16606906056404114,-0.15406453609466553
1772790177590563000,12.38356298828125,0.0780036672949791,-0.1856088787317276,-0.12707552313804626
1772790177600628200,12.393628173828125,0.06480957567691803,-0.18522858619689941,-0.10271425545215607
1772790177610694100,12.403694091796876,0.057368773967027664,-0.12869605422019958,-0.09071478992700577
1772790177620760300,12.41376025390625,0.05889556184411049,-0.04850934073328972,-0.08049090951681137
1772790177630825200,12.4238251953125,0.055220235139131546,0.061275094747543335,-0.08731772005558014
1772790177640891100,12.43389111328125,0.05434565246105194,0.16187015175819397,-0.10969280451536179
1772790177650957000,12.44395703125,0.05054621025919914,0.2186698615550995,-0.1444825828075409
1772790177661022200,12.454022216796876,0.04097108170390129,0.20499666035175323,-0.17538323998451233
1772790177671088000,12.464088134765625,0.02592848800122738,0.18672101199626923,-0.18033021688461304
