time,seconds_elapsed,z,y,x
1772798016092003300,0.08700341796875,-1.050384521484375,0.7607652544975281,1.6996078491210938
1772798016102030600,0.097030517578125,-1.1154024600982666,0.8093445301055908,1.5399891138076782
1772798016112057300,0.107057373046875,-1.1445757150650024,0.7555963397026062,1.2989342212677002
1772798016122083300,0.117083251953125,-1.106170892715454,0.6189450025558472,1.0392471551895142
1772798016132110300,0.1271103515625,-1.0123039484024048,0.49545368552207947,0.8235660195350647
1772798016142136300,0.13713623046875,-0.922538697719574,0.4422759413719177,0.6424375176429749
1772798016152163600,0.14716357421875,-0.8720616698265076,0.49778077006340027,0.4902504086494446
1772798016162189600,0.157189453125,-0.85544753074646,0.6284428834915161,0.3388260006904602
1772798016172216300,0.16721630859375,-0.8563695549964905,0.7933428883552551,0.17970824241638184
1772798016182243300,0.177243408203125,-0.8708707094192505,0.9532867670059204,-0.018636800348758698
1772798016192268800,0.187268798828125,-0.8934149146080017,1.1017478704452515,-0.23190806806087494
1772798016202296000,0.197296142578125,-0.896454930305481,1.15818452835083,-0.45177918672561646
1772798016212322000,0.207322021484375,-0.8847492337226868,1.1235862970352173,-0.6333463191986084
1772798016222349000,0.21734912109375,-0.8639976382255554,1.038351058959961,-0.7984452247619629
1772798016232375800,0.227375732421875,-0.8615291714668274,0.9372673034667969,-0.9607334733009338
1772798016242401800,0.23740185546875,-0.9023095965385437,0.8273927569389343,-1.0978788137435913
1772798016252429000,0.247428955078125,-0.9394494891166687,0.7847656607627869,-1.163406491279602
1772798016262455000,0.257455078125,-0.9793838858604431,0.7785618305206299,-1.1761445999145508
1772798016272481800,0.267481689453125,-1.0189390182495117,0.7937386631965637,-1.0987690687179565
1772798016282507800,0.2775078125,-1.0479512214660645,0.8495779633522034,-0.9604911208152771
1772798016292534800,0.28753466796875,-1.0512242317199707,0.8967406749725342,-0.819719135761261
1772798016302562000,0.29756201171875,-0.9718590974807739,0.9277398586273193,-0.7430214285850525
1772798016312588000,0.307588134765625,-0.8686128854751587,0.8868643045425415,-0.6695189476013184
1772798016322614800,0.31761474609375,-0.7856506109237671,0.7229837775230408,-0.5546096563339233
1772798016332640800,0.327640869140625,-0.7790158987045288,0.45855557918548584,-0.41967397928237915
1772798016342667800,0.337667724609375,-0.8110039234161377,0.14306394755840302,-0.2642050087451935
1772798016352695000,0.347695068359375,-0.9133238792419434,-0.27483421564102173,-0.13697968423366547
1772798016362721000,0.357720947265625,-1.0745517015457153,-0.7962878346443176,-0.15974678099155426
1772798016372747800,0.367747802734375,-1.1025798320770264,-1.2904586791992188,-0.200632706284523
1772798016382773800,0.377773681640625,-0.960043728351593,-1.669104814529419,-0.20973432064056396
1772798016392801000,0.387801025390625,-0.9077533483505249,-2.151587724685669,-0.5615214109420776
1772798016402828000,0.397828125,-1.091537356376648,-2.6871156692504883,-1.3265732526779175
1772798016412854000,0.40785400390625,-1.3297754526138306,-2.936245918273926,-1.9596329927444458
1772798016422880800,0.417880859375,-1.6011323928833008,-2.7892487049102783,-1.6506335735321045
1772798016432906800,0.42790673828125,-1.8098323345184326,-2.116547107696533,-0.20609430968761444
1772798016442934000,0.43793408203125,-1.9285736083984375,-1.0792697668075562,1.5356545448303223
1772798016452960000,0.4479599609375,-2.004570484161377,-0.2782007157802582,2.6314432621002197
1772798016462987000,0.457987060546875,-1.9810786247253418,-0.06015947833657265,2.9251842498779297
1772798016473013800,0.468013671875,-1.9122951030731201,-0.38766011595726013,2.656719207763672
1772798016483039700,0.478039794921875,-1.8857649564743042,-0.9645718932151794,2.198499917984009
1772798016493067000,0.48806689453125,-1.8798151016235352,-1.4922086000442505,1.8455647230148315
1772798016503093000,0.498093017578125,-1.8557971715927124,-1.8399460315704346,1.6788830757141113
1772798016513120000,0.5081201171875,-1.7556992769241333,-1.8885455131530762,1.642639398574829
1772798016523146800,0.518146728515625,-1.5613194704055786,-1.6979196071624756,1.707675576210022
1772798016533172700,0.5281728515625,-1.3378077745437622,-1.4814187288284302,1.8561502695083618
1772798016543200000,0.538199951171875,-1.115289568901062,-1.249269962310791,1.9814422130584717
1772798016553226000,0.54822607421875,-0.9305151104927063,-0.9719118475914001,2.0637691020965576
1772798016563253000,0.5582529296875,-0.8679547905921936,-0.6491135358810425,2.1112306118011475
1772798016573279700,0.56827978515625,-0.9476975798606873,-0.3626359701156616,2.0856893062591553
1772798016583305700,0.5783056640625,-1.0952681303024292,-0.14034432172775269,1.96120023727417
1772798016593333000,0.5883330078125,-1.2393323183059692,-0.012952283956110477,1.7877267599105835
1772798016603359000,0.59835888671875,-1.3355883359909058,-0.011305385269224644,1.527736783027649
1772798016613386000,0.608385986328125,-1.3215582370758057,-0.0777997225522995,1.1567625999450684
1772798016623412700,0.618412841796875,-1.211408019065857,-0.17806321382522583,0.6784296035766602
1772798016633438700,0.628438720703125,-1.0744422674179077,-0.2272789627313614,0.17346100509166718
1772798016643466000,0.638466064453125,-0.9662526249885559,-0.20405299961566925,-0.325806587934494
1772798016653492000,0.648491943359375,-0.9031194448471069,-0.18729212880134583,-0.8222581744194031
1772798016663519000,0.65851904296875,-0.8737969994544983,-0.2492995709180832,-1.2903857231140137
1772798016673545000,0.668544921875,-0.8617584705352783,-0.35544732213020325,-1.7384082078933716
1772798016683571700,0.67857177734375,-0.9115765690803528,-0.45716115832328796,-2.125122547149658
1772798016693599000,0.688598876953125,-1.034909963607788,-0.5088517665863037,-2.4069902896881104
1772798016703625000,0.698625,-1.1915960311889648,-0.5026295781135559,-2.5723471641540527
1772798016713652000,0.70865185546875,-1.354699730873108,-0.44687044620513916,-2.6403915882110596
1772798016723678000,0.718677978515625,-1.4998449087142944,-0.36847710609436035,-2.6302835941314697
1772798016733705000,0.728705078125,-1.63063645362854,-0.26752039790153503,-2.55283260345459
1772798016743732000,0.73873193359375,-1.7388052940368652,-0.1547996997833252,-2.4102275371551514
1772798016753758000,0.748758056640625,-1.7854561805725098,-0.05945001170039177,-2.2177367210388184
1772798016763785000,0.758784912109375,-1.7238364219665527,0.05781962350010872,-2.0044639110565186
1772798016773811000,0.76881103515625,-1.6237964630126953,0.14912237226963043,-1.7924394607543945
1772798016783838000,0.778837890625,-1.538819432258606,0.18590755760669708,-1.5997611284255981
1772798016793865000,0.788864990234375,-1.5023770332336426,0.17873752117156982,-1.4710731506347656
1772798016803891000,0.798890869140625,-1.5445716381072998,0.15268194675445557,-1.3775608539581299
1772798016813918000,0.80891796875,-1.6801600456237793,0.07046271115541458,-1.2709720134735107
1772798016823944000,0.81894384765625,-1.8878957033157349,-0.06622562557458878,-1.1084073781967163
1772798016833971000,0.828970947265625,-2.065156936645508,-0.18044327199459076,-0.9215394854545593
1772798016843998000,0.838998046875,-2.1383273601531982,-0.30205732583999634,-0.7409249544143677
1772798016854024000,0.84902392578125,-2.095015048980713,-0.5700509548187256,-0.608429491519928
1772798016864051000,0.859051025390625,-1.9697157144546509,-0.8074134588241577,-0.5217201709747314
1772798016874077000,0.869076904296875,-1.845898151397705,-0.8709160089492798,-0.6494603157043457
1772798016884104000,0.87910400390625,-1.714390754699707,-0.592505693435669,-0.9494896531105042
1772798016894131000,0.889130859375,-1.6418968439102173,0.10163474828004837,-1.1296285390853882
1772798016904157000,0.899156982421875,-1.952661395072937,0.9716708064079285,-1.3909176588058472
1772798016914184000,0.909183837890625,-2.349498748779297,1.1177701950073242,-1.571813941001892
1772798016924210000,0.9192099609375,-1.525794506072998,0.6741129159927368,-1.1818184852600098
1772798016934237000,0.92923681640625,-0.04645351693034172,-0.21376048028469086,0.4550202488899231
1772798016944264000,0.939263916015625,0.9648030400276184,-1.123064398765564,2.9182450771331787
1772798016954290000,0.9492900390625,1.153778076171875,-1.2798649072647095,4.219189167022705
1772798016964317000,0.95931689453125,0.9896594285964966,-0.20992900431156158,3.971449375152588
1772798016974343000,0.969343017578125,0.25012168288230896,0.8690866827964783,4.0562639236450195
1772798016984370000,0.979369873046875,-0.2582477927207947,1.1621531248092651,3.470341920852661
1772798016994397000,0.98939697265625,-0.4552854895591736,1.2050968408584595,3.145702362060547
1772798017004423000,0.9994228515625,-0.6212451457977295,1.2040990591049194,3.222184896469116
1772798017014450000,1.009449951171875,-0.6218723654747009,1.0045340061187744,3.166814088821411
1772798017024477000,1.019476806640625,-0.4458821415901184,0.6102790832519531,2.876103162765503
1772798017034503000,1.0295029296875,-0.23778432607650757,0.037154026329517365,2.3183131217956543
1772798017044530000,1.039530029296875,-0.16746249794960022,-0.5992202758789062,1.7094959020614624
1772798017054556000,1.049555908203125,-0.2832660675048828,-1.1517246961593628,1.184116005897522
1772798017064583000,1.0595830078125,-0.4704364836215973,-1.532440423965454,0.8864257335662842
1772798017074610000,1.06960986328125,-0.6094359159469604,-1.6992861032485962,0.7978481650352478
1772798017084636000,1.079635986328125,-0.6022200584411621,-1.6343600749969482,0.7891920804977417
1772798017094663000,1.089662841796875,-0.4243435561656952,-1.3468250036239624,0.8218962550163269
1772798017104689000,1.09968896484375,-0.1568058580160141,-0.9315117001533508,0.8502565026283264
1772798017114716000,1.1097158203125,0.11094249784946442,-0.48364388942718506,0.8434361815452576
1772798017124743000,1.119742919921875,0.2915210723876953,-0.06383437663316727,0.7531321048736572
1772798017134769000,1.129768798828125,0.3440242111682892,0.3018735647201538,0.5778404474258423
1772798017144796000,1.1397958984375,0.2462928593158722,0.5431674122810364,0.30755382776260376
1772798017154822000,1.14982177734375,0.039079759269952774,0.6502299308776855,-0.04784262180328369
1772798017164849200,1.15984912109375,-0.20946401357650757,0.6820411682128906,-0.46406248211860657
1772798017174876000,1.1698759765625,-0.43632379174232483,0.605355978012085,-0.939716100692749
1772798017184902000,1.17990185546875,-0.6100265979766846,0.44525521993637085,-1.4333151578903198
1772798017194929000,1.189928955078125,-0.6974509954452515,0.2852919399738312,-1.866809606552124
1772798017204955000,1.199954833984375,-0.7382146716117859,0.1577017456293106,-2.1378421783447266
1772798017214982100,1.209982177734375,-0.7106882333755493,0.0384584441781044,-2.2043862342834473
1772798017225009000,1.2200087890625,-0.6674776673316956,-0.08612237125635147,-2.0888261795043945
1772798017235035000,1.230034912109375,-0.641970694065094,-0.19025222957134247,-1.9039851427078247
1772798017245062000,1.240061767578125,-0.6066627502441406,-0.30629628896713257,-1.7462509870529175
1772798017255089200,1.250089111328125,-0.5717697739601135,-0.3910822868347168,-1.662388801574707
1772798017265115100,1.260115234375,-0.5442137718200684,-0.48971882462501526,-1.6620495319366455
1772798017275142000,1.270141845703125,-0.5177174210548401,-0.6067962050437927,-1.7040246725082397
1772798017285167900,1.28016796875,-0.47024738788604736,-0.7111103534698486,-1.7598674297332764
1772798017295195000,1.29019482421875,-0.4126594662666321,-0.7577380537986755,-1.843205213546753
1772798017305222100,1.30022216796875,-0.36639371514320374,-0.729608952999115,-1.928236484527588
1772798017315248000,1.310248046875,-0.37195730209350586,-0.6845408082008362,-1.9827839136123657
1772798017325275000,1.32027490234375,-0.3879077732563019,-0.6193860173225403,-1.9762881994247437
1772798017335300900,1.33030078125,-0.4123353660106659,-0.5252805352210999,-1.8213672637939453
1772798017345327900,1.340327880859375,-0.47883209586143494,-0.4103774130344391,-1.5568578243255615
1772798017355355100,1.350355224609375,-0.5717157125473022,-0.28462907671928406,-1.2969563007354736
1772798017365381000,1.360381103515625,-0.6792379021644592,-0.11486373841762543,-1.0353938341140747
1772798017375407900,1.370407958984375,-0.7955453395843506,0.12211951613426208,-0.7880629301071167
1772798017385433900,1.380433837890625,-0.9118993878364563,0.43849238753318787,-0.6367082595825195
1772798017395460900,1.3904609375,-1.0074824094772339,0.7567721009254456,-0.8069686889648438
1772798017405488000,1.400488037109375,-1.1213992834091187,1.0538873672485352,-1.374352216720581
1772798017415514000,1.41051416015625,-1.3431074619293213,1.2521743774414062,-2.3567233085632324
1772798017425540900,1.420540771484375,-1.6692640781402588,1.4112740755081177,-3.5944883823394775
1772798017435566800,1.43056689453125,-1.6453959941864014,1.6757900714874268,-4.172502040863037
1772798017445593900,1.44059375,-0.5028258562088013,1.317564606666565,-2.42934513092041
1772798017455621000,1.45062109375,1.0734150409698486,0.0638362392783165,1.0323197841644287
1772798017465647000,1.460647216796875,1.9473841190338135,-0.9272788763046265,3.710467576980591
1772798017475673900,1.470673828125,2.0243136882781982,-1.3635145425796509,4.7191033363342285
1772798017485700900,1.480700927734375,1.6784247159957886,-1.3781821727752686,4.44965124130249
1772798017495726800,1.490726806640625,1.0980924367904663,-0.6158024668693542,3.8168132305145264
1772798017505754000,1.500754150390625,0.3076440989971161,0.049741458147764206,3.346658229827881
1772798017515780000,1.510780029296875,-0.2743348777294159,0.5886390209197998,3.0625133514404297
1772798017525806800,1.520806884765625,-0.6464975476264954,1.1267746686935425,3.143160581588745
1772798017535833900,1.530833740234375,-0.8236760497093201,1.4182614088058472,3.183393955230713
1772798017545859800,1.54085986328125,-0.8450814485549927,1.3852938413619995,2.894545793533325
1772798017555887000,1.55088720703125,-0.7220841646194458,1.0202447175979614,2.428187131881714
1772798017565913000,1.5609130859375,-0.5388847589492798,0.48429611325263977,2.0349414348602295
1772798017575939800,1.57093994140625,-0.3526187837123871,0.02959517575800419,1.7502987384796143
1772798017585966800,1.580966796875,-0.23829326033592224,-0.2572435140609741,1.5020593404769897
1772798017595993000,1.5909931640625,-0.2165336310863495,-0.482303261756897,1.5585204362869263
1772798017606020000,1.60102001953125,-0.15060415863990784,-0.41346800327301025,1.6535364389419556
1772798017616045800,1.6110458984375,-0.08674528449773788,-0.41234442591667175,1.670389175415039
1772798017626072800,1.62107275390625,0.036232840269804,-0.41816794872283936,1.6729825735092163
1772798017636099800,1.631099853515625,0.2481091469526291,-0.4849027693271637,1.6452522277832031
1772798017646126000,1.6411259765625,0.5437633991241455,-0.5413671135902405,1.5415737628936768
1772798017656153000,1.651153076171875,0.8612188696861267,-0.49976852536201477,1.3477072715759277
1772798017666178800,1.6611787109375,1.0096105337142944,-0.4049037992954254,1.1304775476455688
1772798017676205800,1.671205810546875,0.9898980259895325,-0.2605612874031067,0.954960823059082
1772798017686233000,1.681233154296875,0.8062030673027039,-0.21940718591213226,0.7588850855827332
1772798017696259000,1.691259033203125,0.5305432081222534,-0.2632627785205841,0.4749598503112793
1772798017706286000,1.7012861328125,0.2252701371908188,-0.3204195499420166,0.08280060440301895
1772798017716312800,1.711312744140625,-0.017424263060092926,-0.348520964384079,-0.39551830291748047
1772798017726338800,1.7213388671875,-0.15847858786582947,-0.32944634556770325,-0.8365920782089233
1772798017736366000,1.731365966796875,-0.22638386487960815,-0.3132740259170532,-1.192117691040039
1772798017746392000,1.74139208984375,-0.21295274794101715,-0.2892850637435913,-1.4190722703933716
1772798017756418800,1.751418701171875,-0.16181179881095886,-0.22539344429969788,-1.5161341428756714
1772798017766445800,1.76144580078125,-0.10422467440366745,-0.13398149609565735,-1.5272482633590698
1772798017776471800,1.771471923828125,-0.052014730870723724,-0.023133814334869385,-1.508410930633545
1772798017786499000,1.7814990234375,0.01113094761967659,0.0736108347773552,-1.509526252746582
1772798017796525000,1.791525146484375,0.06327750533819199,0.12202204763889313,-1.5625580549240112
1772798017806551800,1.8015517578125,0.1082143560051918,0.1264713853597641,-1.6557834148406982
1772798017816578800,1.811578857421875,0.12083028256893158,0.06866827607154846,-1.7928131818771362
1772798017826604800,1.821604736328125,0.11762463301420212,-0.03796841949224472,-1.9384931325912476
1772798017836632000,1.831632080078125,0.12735848128795624,-0.19720788300037384,-2.0545365810394287
1772798017846658000,1.841657958984375,0.1181412860751152,-0.37305694818496704,-2.1183133125305176
1772798017856684800,1.851684814453125,0.05325816199183464,-0.518609881401062,-2.110513687133789
1772798017866711800,1.8617119140625,-0.014840997755527496,-0.6533114910125732,-2.028209686279297
1772798017876737800,1.87173779296875,0.02761884406208992,-0.8122153878211975,-1.952292799949646
1772798017886765000,1.88176513671875,0.20106945931911469,-0.9829605221748352,-1.9118257761001587
1772798017896791800,1.891791748046875,0.4071049094200134,-1.0869654417037964,-1.9070405960083008
1772798017906817800,1.90181787109375,0.5274672508239746,-1.102295994758606,-2.007052183151245
1772798017916844800,1.9118447265625,0.5396877527236938,-1.1099562644958496,-2.2592127323150635
1772798017926870800,1.921870849609375,0.3853572905063629,-0.8610582947731018,-2.5685932636260986
1772798017936898000,1.93189794921875,0.06543679535388947,-0.36236539483070374,-2.7847254276275635
1772798017946924800,1.9419248046875,-0.1632152944803238,0.011572499759495258,-2.626340627670288
1772798017956950800,1.95195068359375,-0.014092116616666317,0.1321796029806137,-2.0394973754882812
1772798017966977800,1.961977783203125,0.3815998136997223,0.20120607316493988,-1.330730676651001
1772798017977003800,1.972003662109375,1.2443526983261108,0.29465001821517944,-0.6157872676849365
1772798017987031000,1.982031005859375,2.6146297454833984,0.8340029716491699,-0.16667206585407257
1772798017997057800,1.992057861328125,3.843299388885498,0.9551368355751038,0.35524436831474304
1772798018007083800,2.002083740234375,4.104772567749023,0.9025974869728088,1.31613290309906
1772798018017110800,2.01211083984375,3.5068306922912598,1.1116883754730225,2.263840675354004
1772798018027137000,2.022136962890625,2.6991159915924072,1.1933342218399048,2.724304676055908
1772798018037164000,2.0321640625,2.0483429431915283,1.1532195806503296,2.7341816425323486
1772798018047190800,2.042190673828125,1.713552713394165,1.3294316530227661,2.5430452823638916
1772798018057216800,2.052216796875,1.6254584789276123,1.518187403678894,2.5288453102111816
1772798018067243800,2.062243896484375,1.6845495700836182,1.6369916200637817,2.6050050258636475
1772798018077270000,2.07227001953125,1.8561683893203735,1.6249079704284668,2.5078775882720947
1772798018087297000,2.082297119140625,2.134164333343506,1.3817377090454102,2.1820850372314453
1772798018097323800,2.09232373046875,2.440626382827759,0.9144781231880188,1.7174036502838135
1772798018107349800,2.102349853515625,2.6816513538360596,0.371124267578125,1.1874535083770752
1772798018117377000,2.112376953125,2.8082222938537598,-0.14039918780326843,0.7771146893501282
1772798018127404000,2.122404052734375,2.836658239364624,-0.5062088370323181,0.586911141872406
1772798018137430000,2.132429931640625,2.7450108528137207,-0.661476731300354,0.6212656497955322
1772798018147456800,2.142456787109375,2.6704368591308594,-0.6981931924819946,0.8623432517051697
1772798018157482800,2.152482666015625,2.6187052726745605,-0.6731494069099426,1.1805922985076904
1772798018167510000,2.162510009765625,2.619215965270996,-0.5634066462516785,1.5551313161849976
1772798018177537000,2.172537109375,2.6450133323669434,-0.36003273725509644,1.9224773645401
1772798018187562200,2.182562255859375,2.689620018005371,-0.09067770838737488,2.160590171813965
1772798018197589500,2.192589599609375,2.7339980602264404,0.14160986244678497,2.2672412395477295
1772798018207615500,2.202615478515625,2.794868230819702,0.32234901189804077,2.250129461288452
1772798018217642200,2.212642333984375,2.8410027027130127,0.41996052861213684,2.074986219406128
1772798018227669200,2.222669189453125,2.8046886920928955,0.4390000104904175,1.7534164190292358
1772798018237695200,2.2326953125,2.7053284645080566,0.454357385635376,1.3567365407943726
1772798018247722500,2.242722412109375,2.5532214641571045,0.4571007192134857,0.9549453854560852
1772798018257748500,2.25274853515625,2.384129285812378,0.4757801294326782,0.6389003396034241
1772798018267775200,2.262775146484375,2.2416586875915527,0.47846245765686035,0.35766440629959106
1772798018277802200,2.27280224609375,2.159181594848633,0.5119144320487976,0.08304428309202194
1772798018287828200,2.282828125,2.1371676921844482,0.5614465475082397,-0.20158956944942474
1772798018297855500,2.29285546875,2.131756067276001,0.5744640827178955,-0.4902477264404297
1772798018307881500,2.302881591796875,2.137944221496582,0.5854658484458923,-0.7739958167076111
1772798018317908200,2.312908203125,2.1509335041046143,0.5765759944915771,-1.049573302268982
1772798018327935200,2.322935302734375,2.2011187076568604,0.5307546854019165,-1.306431770324707
1772798018337961200,2.332961181640625,2.25532865524292,0.4468805491924286,-1.554413914680481
1772798018347988500,2.342988525390625,2.275292158126831,0.33964651823043823,-1.7826383113861084
1772798018358015200,2.35301513671875,2.272433042526245,0.25660622119903564,-1.9873179197311401
1772798018368041200,2.363041259765625,2.251023054122925,0.2138020396232605,-2.1628825664520264
1772798018378068200,2.373068115234375,2.223367929458618,0.2207118719816208,-2.271418571472168
1772798018388094500,2.383094482421875,2.19757342338562,0.2923189401626587,-2.2907397747039795
1772798018398121500,2.39312158203125,2.144709348678589,0.40270963311195374,-2.239495277404785
1772798018408148200,2.403148193359375,2.086883068084717,0.5050229430198669,-2.14321231842041
1772798018418174200,2.41317431640625,2.0491943359375,0.6266511082649231,-2.036212921142578
1772798018428201200,2.423201171875,2.0392520427703857,0.7244522571563721,-1.9348632097244263
1772798018438227500,2.4332275390625,1.9945305585861206,0.6990073323249817,-1.9191728830337524
1772798018448254500,2.44325439453125,1.8975536823272705,0.4586631953716278,-2.037874221801758
1772798018458281200,2.45328125,1.9285483360290527,-0.04314693808555603,-2.320796012878418
1772798018468307200,2.46330712890625,1.9998369216918945,-0.7175527811050415,-2.819993257522583
1772798018478334200,2.473334228515625,2.081423282623291,-1.2953133583068848,-3.5044808387756348
1772798018488360400,2.4833603515625,2.169053792953491,-1.67044198513031,-4.084249973297119
1772798018498387500,2.493387451171875,2.4527416229248047,-1.8728989362716675,-4.227700710296631
1772798018508414200,2.503414306640625,3.1286253929138184,-1.8230607509613037,-3.876338481903076
1772798018518440200,2.513440185546875,4.0160231590271,-1.0646828413009644,-3.2132694721221924
1772798018528467500,2.523467529296875,4.917685508728027,0.48890283703804016,-2.1142592430114746
1772798018538493400,2.533493408203125,5.52072811126709,1.6621123552322388,-0.5073537826538086
1772798018548520400,2.5435205078125,5.0894036293029785,1.6009587049484253,1.318844199180603
1772798018558547200,2.553547119140625,4.065061092376709,1.0761346817016602,2.7182772159576416
1772798018568573200,2.5635732421875,3.2750213146209717,0.805456280708313,3.2542920112609863
1772798018578600400,2.573600341796875,2.8483927249908447,0.7137066721916199,3.4110846519470215
1772798018588626400,2.58362646484375,2.6477015018463135,1.0347504615783691,3.2218174934387207
1772798018598653400,2.5936533203125,2.7689497470855713,1.5122586488723755,3.028395652770996
1772798018608680200,2.60368017578125,3.212639093399048,1.618520975112915,2.783295154571533
1772798018618706200,2.6137060546875,3.6993818283081055,1.4010940790176392,2.46018648147583
1772798018628733400,2.6237333984375,4.130417823791504,1.071001648902893,1.9231562614440918
1772798018638759400,2.633759521484375,4.357992172241211,0.5448122024536133,1.3172322511672974
1772798018648786400,2.643786376953125,4.381414413452148,0.029016470536589622,0.8226304650306702
1772798018658813200,2.653813232421875,4.224380970001221,-0.4370367228984833,0.4354308247566223
1772798018668839200,2.663839111328125,3.988816022872925,-0.7962063550949097,0.20591534674167633
1772798018678866400,2.673866455078125,3.6703763008117676,-0.9755563735961914,0.2423953264951706
1772798018688892400,2.683892333984375,3.333800792694092,-1.0139050483703613,0.4845522940158844
1772798018698919400,2.69391943359375,3.059164524078369,-0.9592554569244385,0.8913499116897583
1772798018708946200,2.7039462890625,2.857605457305908,-0.8840610980987549,1.4053887128829956
1772798018718972200,2.71397216796875,2.6996755599975586,-0.7857363820075989,1.9011335372924805
1772798018728999400,2.72399951171875,2.712846040725708,-0.6276007890701294,2.2446329593658447
1772798018739025400,2.734025390625,2.7678334712982178,-0.4303756058216095,2.3293557167053223
1772798018749052200,2.74405224609375,2.7885873317718506,-0.16246187686920166,2.2638981342315674
1772798018759079200,2.7540791015625,2.744657278060913,0.08833944797515869,2.1184985637664795
1772798018769105200,2.764105224609375,2.6529088020324707,0.2742805480957031,1.9451014995574951
1772798018779132400,2.77413232421875,2.5192134380340576,0.4099028408527374,1.7763118743896484
1772798018789158400,2.784158447265625,2.3874216079711914,0.5061960816383362,1.6089122295379639
1772798018799185200,2.79418505859375,2.2994062900543213,0.6401400566101074,1.4187036752700806
1772798018809212200,2.804212158203125,2.224350929260254,0.7480167150497437,1.2039687633514404
1772798018819238400,2.81423828125,2.188109874725342,0.7832931876182556,0.9421480894088745
1772798018829265400,2.824265380859375,2.2100532054901123,0.7725396156311035,0.6779651641845703
1772798018839291400,2.83429150390625,2.230989933013916,0.7267846465110779,0.3164341449737549
1772798018849318100,2.844318115234375,2.223855972290039,0.6619971394538879,-0.12169154733419418
1772798018859345200,2.85434521484375,2.173999547958374,0.605879008769989,-0.6071264147758484
1772798018869371400,2.864371337890625,2.0501158237457275,0.5266523361206055,-1.1049619913101196
1772798018879398400,2.8743984375,1.885582447052002,0.43616026639938354,-1.5489360094070435
1772798018889425200,2.884425048828125,1.737261176109314,0.3463800549507141,-1.9087258577346802
1772798018899451100,2.894451171875,1.6281988620758057,0.2651515007019043,-2.1852431297302246
1772798018909478100,2.90447802734375,1.5621488094329834,0.19673463702201843,-2.360569715499878
1772798018919504400,2.91450439453125,1.5477464199066162,0.13579830527305603,-2.4505462646484375
1772798018929531400,2.924531494140625,1.569503664970398,0.11473963409662247,-2.4617788791656494
1772798018939557400,2.934557373046875,1.6248078346252441,0.13096600770950317,-2.426586151123047
1772798018949584100,2.944584228515625,1.702581763267517,0.17482800781726837,-2.3544859886169434
1772798018959611400,2.954611328125,1.7673271894454956,0.24095243215560913,-2.253215789794922
1772798018969637400,2.964637451171875,1.8092706203460693,0.31001830101013184,-2.140505075454712
1772798018979664400,2.974664306640625,1.8197225332260132,0.34824320673942566,-2.0832998752593994
1772798018989690400,2.9846904296875,1.825358271598816,0.3366456627845764,-2.1069223880767822
1772798018999717000,2.994717041015625,1.8421846628189087,0.25003406405448914,-2.2051570415496826
1772798019009744400,3.004744384765625,1.8872051239013672,0.21905910968780518,-2.3212409019470215
1772798019019770400,3.014770263671875,1.9423741102218628,0.17914898693561554,-2.4119818210601807
1772798019029797400,3.02479736328125,2.0555741786956787,0.18111039698123932,-2.4197638034820557
1772798019039824100,3.03482421875,2.196945905685425,0.19185411930084229,-2.408055543899536
1772798019049850000,3.04485009765625,2.33003830909729,0.003632818115875125,-2.4655258655548096
1772798019059877400,3.05487744140625,2.623866558074951,-0.34793800115585327,-2.418912649154663
1772798019069903400,3.0649033203125,3.0233607292175293,-0.46528512239456177,-2.0924878120422363
1772798019079930400,3.074930419921875,3.3445827960968018,-0.07190987467765808,-1.8740307092666626
1772798019089956400,3.084956298828125,3.369288682937622,0.28594785928726196,-2.2308616638183594
1772798019099983000,3.094983154296875,3.2174205780029297,0.046181079000234604,-3.0939130783081055
1772798019110010400,3.10501025390625,3.0389556884765625,-0.12732413411140442,-3.398310422897339
1772798019120036400,3.115036376953125,3.0108070373535156,-0.20418988168239594,-2.2435951232910156
1772798019130063400,3.1250634765625,3.0344555377960205,-0.17441228032112122,0.018989669159054756
1772798019140089300,3.13508935546875,2.8757200241088867,0.27398812770843506,2.2447848320007324
1772798019150116000,3.1451162109375,2.678657293319702,1.0510947704315186,3.4389474391937256
1772798019160143400,3.155143310546875,2.3549885749816895,1.5804600715637207,3.453564405441284
1772798019170169300,3.16516943359375,2.0980746746063232,1.719539761543274,2.8639111518859863
1772798019180196400,3.1751962890625,1.9604021310806274,1.4760136604309082,2.25669264793396
1772798019190221800,3.185221923828125,1.9448106288909912,1.0566067695617676,1.9372520446777344
1772798019200248800,3.195248779296875,2.0099825859069824,0.6170157790184021,1.8571466207504272
1772798019210275800,3.20527587890625,2.0837461948394775,0.3473920524120331,1.8838050365447998
1772798019220301800,3.2153017578125,2.1292099952697754,0.21223929524421692,1.9317654371261597
1772798019230328800,3.225328857421875,2.1081771850585938,0.08072653412818909,1.9848177433013916
1772798019240354800,3.235354736328125,2.056236505508423,-0.03345276415348053,2.105755090713501
1772798019250381800,3.2453818359375,1.9378126859664917,-0.14026495814323425,2.323270320892334
1772798019260408800,3.255408935546875,1.7654541730880737,-0.2092384397983551,2.5452325344085693
1772798019270434800,3.265434814453125,1.621520757675171,-0.26211896538734436,2.746898889541626
1772798019280461800,3.2754619140625,1.5310320854187012,-0.3271573483943939,2.8593828678131104
1772798019290487800,3.28548779296875,1.4955036640167236,-0.3927432894706726,2.790280342102051
1772798019300514800,3.295514892578125,1.5089606046676636,-0.4334355890750885,2.5452628135681152
1772798019310541800,3.305541748046875,1.539189338684082,-0.43533068895339966,2.158508062362671
1772798019320567800,3.31556787109375,1.5413603782653809,-0.39296698570251465,1.6487387418746948
1772798019330594800,3.3255947265625,1.4760862588882446,-0.3302399516105652,1.1082209348678589
1772798019340620800,3.335620849609375,1.3469866514205933,-0.23915399610996246,0.6025567054748535
1772798019350647800,3.345647705078125,1.1794381141662598,-0.1325705647468567,0.16678738594055176
1772798019360674800,3.3556748046875,1.0125346183776855,-0.03229295834898949,-0.2034282237291336
1772798019370700800,3.36570068359375,0.8769866824150085,0.06714387983083725,-0.5551638603210449
1772798019380727800,3.375727783203125,0.7906283140182495,0.18226274847984314,-0.9090697765350342
1772798019390753800,3.38575390625,0.7233933806419373,0.2831587493419647,-1.263403058052063
1772798019400780800,3.39578076171875,0.6583376526832581,0.3358888030052185,-1.564278483390808
1772798019410806800,3.405806884765625,0.5690328478813171,0.35553598403930664,-1.8214282989501953
1772798019420833800,3.415833740234375,0.4591132700443268,0.4069339334964752,-2.048617362976074
1772798019430860800,3.42586083984375,0.3693878948688507,0.43628570437431335,-2.273434638977051
1772798019440886800,3.43588671875,0.299172580242157,0.45286813378334045,-2.4718217849731445
1772798019450913800,3.445913818359375,0.23728099465370178,0.44299474358558655,-2.598536491394043
1772798019460940800,3.45594091796875,0.1962595283985138,0.4176079034805298,-2.6561827659606934
1772798019470966800,3.465966796875,0.15679866075515747,0.3530541956424713,-2.6241815090179443
1772798019480993800,3.475993896484375,0.12081137299537659,0.30226370692253113,-2.507983922958374
1772798019491020000,3.48602001953125,0.10477008670568466,0.26046222448349,-2.3074452877044678
1772798019501046800,3.496046875,0.07289710640907288,0.22279925644397736,-2.035696029663086
1772798019511072800,3.50607275390625,0.047767523676157,0.225625142455101,-1.8004220724105835
1772798019521099800,3.516099853515625,0.05476684123277664,0.31487858295440674,-1.6523278951644897
1772798019531126800,3.526126708984375,0.09913137555122375,0.42405885457992554,-1.5805107355117798
1772798019541153000,3.536153076171875,0.06794656068086624,0.546403706073761,-1.5369377136230469
1772798019551179800,3.5461796875,0.02299133501946926,0.6962515115737915,-1.3974871635437012
1772798019561205800,3.556205810546875,-0.04313841462135315,0.8508056402206421,-1.2582958936691284
1772798019571232800,3.566232666015625,-0.12513181567192078,0.8850813508033752,-1.1763168573379517
1772798019581260000,3.576260009765625,-0.22754020988941193,0.6056550145149231,-1.0908472537994385
1772798019591286000,3.5862861328125,-0.2192694991827011,0.05811070650815964,-1.0464427471160889
1772798019601312800,3.596312744140625,0.01780482940375805,-0.7372271418571472,-1.1868432760238647
1772798019611338800,3.6063388671875,0.45563384890556335,-1.5366334915161133,-1.4577631950378418
1772798019621365800,3.61636572265625,1.0540629625320435,-1.9720007181167603,-1.4889720678329468
1772798019631393000,3.62639306640625,1.4036190509796143,-1.8556793928146362,-1.4628605842590332
1772798019641419000,3.6364189453125,1.5126501321792603,-1.5623961687088013,-1.5574182271957397
1772798019651445800,3.64644580078125,1.5164023637771606,-1.4346166849136353,-1.361343264579773
1772798019661471700,3.6564716796875,1.7183159589767456,-1.2450307607650757,-0.5040636658668518
1772798019671498800,3.666498779296875,1.9644453525543213,-1.0055712461471558,1.174164056777954
1772798019681526000,3.676526123046875,1.8207513093948364,-0.5731663107872009,2.810307264328003
1772798019691552000,3.686552001953125,1.457118272781372,0.04049496352672577,3.7507004737854004
1772798019701578800,3.696578857421875,1.0344254970550537,0.4991118013858795,3.9199776649475098
1772798019711604700,3.706604736328125,0.6920764446258545,0.7170771360397339,3.5291197299957275
1772798019721631700,3.7166318359375,0.4717925786972046,0.6818594932556152,3.09021258354187
1772798019731657700,3.72665771484375,0.3574548065662384,0.5710035562515259,2.9316108226776123
1772798019741685000,3.73668505859375,0.31060048937797546,0.3947126865386963,2.915144920349121
1772798019751711700,3.746711669921875,0.3677915930747986,0.1491423398256302,2.727950096130371
1772798019761737700,3.75673779296875,0.5358719229698181,-0.16792242228984833,2.3093180656433105
1772798019771764700,3.7667646484375,0.757193922996521,-0.5842517614364624,1.85822331905365
1772798019781790700,3.776790771484375,0.9424506425857544,-0.9148368239402771,1.5267492532730103
1772798019791818000,3.78681787109375,0.8783019781112671,-0.939943253993988,1.4331202507019043
1772798019801844700,3.7968447265625,0.5101178288459778,-0.655053973197937,1.6831164360046387
1772798019811870700,3.80687060546875,0.0676134005188942,-0.28421175479888916,2.231971263885498
1772798019821897700,3.816897705078125,-0.2417556345462799,0.04500369355082512,2.7759337425231934
1772798019831924000,3.826924072265625,-0.3538789749145508,0.18929935991764069,3.1549267768859863
1772798019841951000,3.836950927734375,-0.2865918278694153,0.227307990193367,3.3271965980529785
1772798019851977000,3.84697705078125,-0.0872827097773552,0.2920534312725067,3.1121397018432617
1772798019862003700,3.857003662109375,0.18283586204051971,0.37627190351486206,2.582775354385376
1772798019872030700,3.86703076171875,0.528851330280304,0.5875146389007568,1.8903162479400635
1772798019882057000,3.877056884765625,0.801052987575531,0.7912009358406067,1.0345221757888794
1772798019892084000,3.887083984375,0.9573451280593872,0.8644852638244629,0.1831836700439453
1772798019902110000,3.89710986328125,1.0091742277145386,0.7994641661643982,-0.5371798276901245
1772798019912136700,3.90713671875,0.8734782338142395,0.5667095184326172,-1.0676194429397583
1772798019922164000,3.9171640625,0.5864996910095215,0.2797488272190094,-1.4642081260681152
1772798019932190000,3.92718994140625,0.21730010211467743,0.000499875342939049,-1.8063724040985107
1772798019942217000,3.937217041015625,-0.1372598558664322,-0.19258436560630798,-2.093430995941162
1772798019952243000,3.947242919921875,-0.436647891998291,-0.2712877094745636,-2.3679022789001465
1772798019962269700,3.957269775390625,-0.6755752563476562,-0.31063055992126465,-2.5864450931549072
1772798019972297000,3.967296875,-0.8035036325454712,-0.30048367381095886,-2.693164825439453
1772798019982323000,3.977322998046875,-0.8162546157836914,-0.23820483684539795,-2.656000852584839
1772798019992350000,3.987349853515625,-0.7769431471824646,-0.1343681961297989,-2.5058329105377197
1772798020002376000,3.9973759765625,-0.7275756001472473,-0.022413961589336395,-2.3061137199401855
1772798020012402700,4.007402587890625,-0.6748660802841187,0.08369676023721695,-2.1039371490478516
1772798020022428700,4.0174287109375,-0.6363407373428345,0.16356362402439117,-1.9408278465270996
1772798020032456000,4.0274560546875,-0.5843406915664673,0.18274983763694763,-1.846253752708435
1772798020042483000,4.03748291015625,-0.5293144583702087,0.14600567519664764,-1.7997705936431885
1772798020052509000,4.047509033203125,-0.47160428762435913,0.0193081833422184,-1.8263460397720337
1772798020062535700,4.05753564453125,-0.3911682963371277,-0.1235983669757843,-1.896261215209961
1772798020072561700,4.067561767578125,-0.30054357647895813,-0.20625357329845428,-1.9733655452728271
1772798020082589000,4.0775888671875,-0.2559574842453003,-0.3022964894771576,-2.0342795848846436
1772798020092616000,4.087615966796875,-0.2607085406780243,-0.37970098853111267,-1.9932208061218262
1772798020102642000,4.097641845703125,-0.26152241230010986,-0.45210009813308716,-1.8359163999557495
1772798020112668700,4.107668701171875,-0.27485448122024536,-0.5798463225364685,-1.6464303731918335
1772798020122694700,4.117694580078125,-0.2586885392665863,-0.7845752239227295,-1.4846915006637573
1772798020132722000,4.127721923828125,-0.1331932097673416,-0.9439342617988586,-1.4256048202514648
1772798020142748000,4.137747802734375,0.060272928327322006,-0.8238368630409241,-1.5917210578918457
1772798020152775000,4.14777490234375,0.2859276235103607,-0.5288196206092834,-1.6953067779541016
1772798020162801700,4.1578017578125,0.42296749353408813,-0.3743445873260498,-1.3511617183685303
1772798020172828000,4.167827880859375,0.3402414619922638,-0.09783042222261429,-0.6929180026054382
1772798020182855000,4.17785498046875,0.023147130385041237,0.21424677968025208,-0.30500996112823486
1772798020192882200,4.187882080078125,-0.48178449273109436,0.25407835841178894,-0.26744556427001953
1772798020202909200,4.1979091796875,-0.5607040524482727,0.03915299475193024,-0.22191481292247772
1772798020212936200,4.207936279296875,-0.32248616218566895,-0.20514222979545593,0.39725440740585327
1772798020222962200,4.217962158203125,0.2265830785036087,-0.29335838556289673,1.4689154624938965
1772798020232989200,4.2279892578125,1.17994225025177,-0.463701069355011,2.7681288719177246
1772798020243015200,4.23801513671875,1.477372407913208,0.38458070158958435,3.4118564128875732
1772798020253042200,4.248042236328125,1.489961862564087,0.9883400797843933,3.1061649322509766
1772798020263068200,4.258068115234375,1.2868261337280273,1.2015063762664795,2.4081170558929443
1772798020273095200,4.26809521484375,0.9936205744743347,1.0977230072021484,1.7183899879455566
1772798020283122200,4.2781220703125,0.6792805194854736,0.7606800198554993,1.2979607582092285
1772798020293148200,4.288148193359375,0.32366302609443665,0.36212119460105896,1.2494035959243774
1772798020303175200,4.298175048828125,-0.004884770140051842,0.056049685925245285,1.3809001445770264
1772798020313201200,4.308201171875,-0.22631622850894928,-0.22523897886276245,1.534091830253601
1772798020323228200,4.318228271484375,-0.3266867697238922,-0.4894014000892639,1.7313324213027954
1772798020333254100,4.328254150390625,-0.31579816341400146,-0.7105768918991089,1.9674733877182007
1772798020343281200,4.33828125,-0.2260291427373886,-0.9179777503013611,2.2656185626983643
1772798020353308200,4.34830810546875,-0.19738204777240753,-1.0277372598648071,2.6615939140319824
1772798020363334100,4.358334228515625,-0.1954994648694992,-1.069947361946106,3.0830724239349365
1772798020373361200,4.368361083984375,-0.09372835606336594,-0.9594908356666565,3.3228342533111572
1772798020383387100,4.37838720703125,0.018396850675344467,-0.7905154228210449,3.3029944896698
1772798020393414100,4.3884140625,0.06747517734766006,-0.6193553805351257,2.900831460952759
1772798020403441200,4.398441162109375,0.08392952382564545,-0.42008036375045776,2.2939391136169434
1772798020413467100,4.408467041015625,0.12362953275442123,-0.3216312825679779,1.541184663772583
1772798020423494100,4.418494140625,0.1731898933649063,-0.2389819473028183,0.7320371866226196
1772798020433520000,4.42852001953125,0.2923929691314697,-0.1051810160279274,-0.1369037926197052
1772798020443547100,4.438547119140625,0.46314555406570435,0.07107790559530258,-0.8441110253334045
1772798020453573000,4.448572998046875,0.5855955481529236,0.25442641973495483,-1.336246132850647
1772798020463600000,4.45860009765625,0.6398319005966187,0.3375186622142792,-1.6007771492004395
1772798020473627100,4.468627197265625,0.5772758722305298,0.3783358633518219,-1.678739309310913
1772798020483653000,4.478653076171875,0.39476943016052246,0.3996523320674896,-1.6009997129440308
1772798020493680000,4.48868017578125,0.14881956577301025,0.4007604718208313,-1.4506890773773193
1772798020503706000,4.4987060546875,-0.07462656497955322,0.3705120086669922,-1.3662282228469849
1772798020513733000,4.508733154296875,-0.24422332644462585,0.33706697821617126,-1.3766348361968994
1772798020523760000,4.518760009765625,-0.3287893235683441,0.3004048466682434,-1.4843841791152954
1772798020533786400,4.528786376953125,-0.36465945839881897,0.22749760746955872,-1.6318724155426025
1772798020543813000,4.538813232421875,-0.35634586215019226,0.1028805747628212,-1.7500896453857422
1772798020553839000,4.548839111328125,-0.32715922594070435,-0.028611138463020325,-1.8281311988830566
1772798020563866000,4.5588662109375,-0.311682790517807,-0.12250487506389618,-1.8218746185302734
1772798020573892000,4.56889208984375,-0.2887926399707794,-0.17904165387153625,-1.776859998703003
1772798020583919400,4.57891943359375,-0.25412070751190186,-0.17450176179409027,-1.7267459630966187
1772798020593946000,4.588946044921875,-0.20458988845348358,-0.1455252468585968,-1.6465712785720825
1772798020603972000,4.59897216796875,-0.13578365743160248,-0.06781979650259018,-1.5728216171264648
1772798020613999000,4.6089990234375,-0.018629077821969986,0.03003513067960739,-1.5016881227493286
1772798020624025000,4.619025146484375,-0.045046303421258926,0.07616933435201645,-1.409788727760315
1772798020634052400,4.62905224609375,-0.09049687534570694,0.16335217654705048,-1.2810441255569458
1772798020644078300,4.639078369140625,-0.19859884679317474,0.22348394989967346,-1.1144990921020508
1772798020654105000,4.64910498046875,-0.33686137199401855,0.32374584674835205,-1.0249303579330444
1772798020664132000,4.659132080078125,-0.44270551204681396,0.4164872467517853,-1.086775302886963
1772798020674158000,4.669157958984375,-0.3978954255580902,0.42343807220458984,-1.2050257921218872
1772798020684185300,4.679185302734375,-0.14861130714416504,0.24989531934261322,-1.3240150213241577
1772798020694211300,4.68921142578125,0.31742429733276367,-0.16636288166046143,-1.5097262859344482
1772798020704238000,4.699238037109375,0.9532798528671265,-0.49949610233306885,-1.6008574962615967
1772798020714264000,4.70926416015625,1.5236750841140747,-0.38454315066337585,-1.4555344581604004
1772798020724291000,4.719291015625,1.9581464529037476,-0.010949852876365185,-1.2898328304290771
1772798020734318300,4.729318359375,2.1709656715393066,0.09345138818025589,-1.3242435455322266
1772798020744344300,4.73934423828125,2.2558400630950928,-0.0377148874104023,-1.3348532915115356
1772798020754371000,4.74937109375,2.4292004108428955,-0.29485028982162476,-1.0440435409545898
1772798020764397000,4.75939697265625,2.7431318759918213,-0.5375185608863831,-0.25114619731903076
1772798020774424000,4.769424072265625,2.973480701446533,-0.5495217442512512,0.9927923679351807
1772798020784450300,4.7794501953125,2.898343563079834,-0.11564324051141739,2.1682589054107666
1772798020794477300,4.789477294921875,2.549445152282715,0.5604449510574341,2.8550305366516113
1772798020804504000,4.799504150390625,2.0598275661468506,0.9389933347702026,2.985966920852661
1772798020814530000,4.809530029296875,1.6753435134887695,0.9669581055641174,2.806007146835327
1772798020824557000,4.81955712890625,1.4995958805084229,0.8623664379119873,2.6148841381073
1772798020834583300,4.829583251953125,1.4348134994506836,0.788727879524231,2.5905447006225586
1772798020844610300,4.8396103515625,1.4332706928253174,0.8251585960388184,2.603060483932495
1772798020854637000,4.849636962890625,1.4755939245224,0.8905163407325745,2.425222635269165
1772798020864663000,4.8596630859375,1.5753947496414185,0.8282604217529297,2.0601820945739746
1772798020874690300,4.869690185546875,1.6705080270767212,0.5906198620796204,1.7518292665481567
1772798020884716300,4.87971630859375,1.7560076713562012,0.38875865936279297,1.630192518234253
1772798020894743300,4.889743408203125,1.695030689239502,0.22147034108638763,1.6994149684906006
1772798020904769300,4.899769287109375,1.5707305669784546,0.09775931388139725,1.893715739250183
1772798020914796000,4.909796142578125,1.4024819135665894,-0.030359769240021706,2.165923833847046
1772798020924823300,4.9198232421875,1.2458832263946533,-0.21748784184455872,2.421025037765503
1772798020934849300,4.929849365234375,1.2187058925628662,-0.28789302706718445,2.505697250366211
1772798020944876300,4.939876220703125,1.295234203338623,-0.35049861669540405,2.410611391067505
1772798020954902300,4.94990234375,1.5184465646743774,-0.3792724907398224,2.1745119094848633
1772798020964929000,4.959928955078125,1.7352073192596436,-0.33875489234924316,1.8524138927459717
1772798020974955000,4.969955078125,1.908507227897644,-0.23174427449703217,1.5249552726745605
1772798020984982300,4.979982177734375,1.979347586631775,-0.04857712239027023,1.2337552309036255
1772798020995009300,4.99000927734375,1.9636231660842896,0.1568620502948761,0.9354180097579956
1772798021005035300,5.00003515625,1.8429501056671143,0.26415228843688965,0.6056217551231384
1772798021015062000,5.01006201171875,1.6977251768112183,0.3691293001174927,0.27681589126586914
1772798021025088000,5.020087890625,1.5589731931686401,0.4533911943435669,-0.052565205842256546
1772798021035115300,5.030115234375,1.4374308586120605,0.5025196075439453,-0.40556055307388306
1772798021045141200,5.040141357421875,1.3153350353240967,0.5797656178474426,-0.7702117562294006
1772798021055168300,5.050168212890625,1.1876494884490967,0.6858931183815002,-1.1356794834136963
1772798021065195000,5.060195068359375,1.0452967882156372,0.788116455078125,-1.4562156200408936
1772798021075221200,5.07022119140625,0.9244607090950012,0.8812099099159241,-1.6811766624450684
1772798021085248300,5.080248291015625,0.808806836605072,0.9176126718521118,-1.7834800481796265
1772798021095274200,5.090274169921875,0.7341874241828918,0.8723961710929871,-1.8176734447479248
1772798021105301200,5.10030126953125,0.7170952558517456,0.7436562776565552,-1.8268229961395264
1772798021115327200,5.1103271484375,0.7327328324317932,0.585625946521759,-1.8366458415985107
1772798021125354200,5.120354248046875,0.788040816783905,0.43777281045913696,-1.8838796615600586
1772798021135381200,5.13038134765625,0.842597246170044,0.31033602356910706,-1.9933481216430664
1772798021145407200,5.1404072265625,0.8910548090934753,0.20590975880622864,-2.1289710998535156
1772798021155434200,5.150434326171875,0.920594334602356,0.11058083921670914,-2.264056921005249
1772798021165460200,5.160460205078125,0.9191567301750183,0.013303820975124836,-2.39742374420166
1772798021175487200,5.1704873046875,0.9107643365859985,-0.06129984185099602,-2.512579917907715
1772798021185513200,5.18051318359375,0.8553966879844666,-0.11608292907476425,-2.5621745586395264
1772798021195538700,5.19053857421875,0.815466582775116,-0.16305284202098846,-2.5443103313446045
1772798021205565700,5.200565673828125,0.787371814250946,-0.23905332386493683,-2.453584671020508
1772798021215591700,5.210591796875,0.7655022144317627,-0.3169848620891571,-2.2239205837249756
1772798021225619000,5.220618896484375,0.8167747259140015,-0.3217087984085083,-1.9462757110595703
1772798021235645000,5.23064501953125,0.9409134387969971,-0.22706350684165955,-1.8040857315063477
1772798021245671700,5.240671630859375,1.0587221384048462,-0.08066501468420029,-1.8044791221618652
1772798021255697700,5.25069775390625,1.136586308479309,0.17586450278759003,-1.9116990566253662
1772798021265724700,5.260724609375,1.2519738674163818,0.611630380153656,-2.043001890182495
1772798021275752000,5.270751953125,1.4804493188858032,0.8669577240943909,-1.8386298418045044
1772798021285778000,5.28077783203125,1.873758316040039,0.9416314363479614,-1.313458800315857
1772798021295804700,5.2908046875,2.3986334800720215,0.8963097333908081,-1.0409218072891235
1772798021305830700,5.30083056640625,2.9638609886169434,0.6852960586547852,-1.3291975259780884
1772798021315857700,5.310857666015625,3.5644376277923584,0.12660402059555054,-1.8234535455703735
1772798021325883600,5.320883544921875,3.9229588508605957,-0.5325523018836975,-1.9881837368011475
1772798021335911000,5.330910888671875,4.054910182952881,-1.2029436826705933,-1.2766025066375732
1772798021345937000,5.34093701171875,3.8854191303253174,-1.1455563306808472,0.27700790762901306
1772798021355963600,5.350963623046875,3.4540398120880127,-0.3110028803348541,2.170673131942749
1772798021365990700,5.36099072265625,2.8454596996307373,0.7669054269790649,3.2769582271575928
1772798021376016600,5.3710166015625,2.5231118202209473,1.3289070129394531,3.453498363494873
1772798021386044000,5.3810439453125,2.335068702697754,1.3947807550430298,3.132840156555176
1772798021396070000,5.39106982421875,2.327942132949829,1.0566024780273438,2.570857524871826
1772798021406096600,5.4010966796875,2.4394898414611816,0.6078659892082214,2.0051474571228027
1772798021416122600,5.41112255859375,2.553157329559326,0.10717812180519104,1.5134294033050537
1772798021426149600,5.421149658203125,2.6302833557128906,-0.3298516869544983,1.1407389640808105
1772798021436177000,5.431177001953125,2.638719320297241,-0.6530033946037292,0.9682528972625732
1772798021446203000,5.441202880859375,2.498603582382202,-0.912217915058136,0.9930258989334106
1772798021456229600,5.451229736328125,2.2094552516937256,-0.9481372833251953,1.209614634513855
1772798021466255600,5.461255615234375,1.8000625371932983,-0.8018061518669128,1.615382194519043
1772798021476283000,5.471282958984375,1.437413215637207,-0.5886683464050293,2.1483724117279053
1772798021486308900,5.481308837890625,1.2372673749923706,-0.37272509932518005,2.6224026679992676
1772798021496336000,5.4913359375,1.1845884323120117,-0.2279554009437561,2.933177947998047
1772798021506362600,5.501362548828125,1.2743524312973022,-0.15209046006202698,3.0258593559265137
1772798021516388600,5.511388671875,1.4667534828186035,-0.14448793232440948,2.8777215480804443
1772798021526416000,5.521415771484375,1.6784814596176147,-0.1509796679019928,2.518888473510742
1772798021536441900,5.53144189453125,1.8491290807724,-0.1672039031982422,2.0092873573303223
1772798021546468600,5.541468505859375,1.9349372386932373,-0.1992875337600708,1.4195218086242676
1772798021556494600,5.55149462890625,1.949078917503357,-0.2155032604932785,0.8151398301124573
1772798021566521600,5.561521484375,1.893182635307312,-0.17875829339027405,0.24646224081516266
1772798021576548900,5.571548828125,1.784993052482605,-0.05715543031692505,-0.25258246064186096
1772798021586574800,5.581574951171875,1.6856422424316406,0.17308522760868073,-0.6498552560806274
1772798021596601600,5.5916015625,1.6206378936767578,0.39983341097831726,-0.9269603490829468
1772798021606627600,5.601627685546875,1.5714935064315796,0.6224976778030396,-1.086988091468811
1772798021616654600,5.611654541015625,1.514534592628479,0.823755145072937,-1.1828376054763794
1772798021626680600,5.6216806640625,1.422621488571167,0.9725227952003479,-1.2695778608322144
1772798021636707800,5.631707763671875,1.2916985750198364,1.0643621683120728,-1.3749639987945557
1772798021646733800,5.64173388671875,1.146317958831787,1.0892912149429321,-1.5159578323364258
1772798021656760600,5.651760498046875,0.9895139932632446,1.0339778661727905,-1.6807340383529663
1772798021666787600,5.66178759765625,0.8495819568634033,0.9346747398376465,-1.8110743761062622
1772798021676813800,5.671813720703125,0.744706392288208,0.7667936086654663,-1.9008623361587524
1772798021686840800,5.6818408203125,0.6796379089355469,0.5795384645462036,-1.9700976610183716
1772798021696866800,5.69186669921875,0.6640512347221375,0.40852490067481995,-2.059990167617798
1772798021706893600,5.7018935546875,0.7198018431663513,0.29033568501472473,-2.1432158946990967
1772798021716919600,5.71191943359375,0.8119663596153259,0.25744298100471497,-2.190617561340332
1772798021726946800,5.72194677734375,0.9019820094108582,0.32163500785827637,-2.1565046310424805
1772798021736973800,5.731973876953125,0.968941867351532,0.43770331144332886,-2.1066527366638184
1772798021746999800,5.741999755859375,0.9896572828292847,0.5802386403083801,-2.0349669456481934
1772798021757026600,5.752026611328125,0.9787226319313049,0.7012404203414917,-1.9353727102279663
1772798021767052500,5.762052490234375,0.9516840577125549,0.7501136660575867,-1.742937684059143
1772798021777079800,5.772079833984375,0.9342451691627502,0.7964431047439575,-1.4826453924179077
1772798021787105800,5.782105712890625,0.9153367280960083,0.7640175223350525,-1.2557235956192017
1772798021797132800,5.7921328125,0.9329380989074707,0.6576641798019409,-1.103566288948059
1772798021807158800,5.80215869140625,0.9756019115447998,0.5066035389900208,-1.0902032852172852
1772798021817185500,5.812185546875,1.0087393522262573,0.2306838035583496,-1.3853164911270142
1772798021827212800,5.822212890625,1.1018203496932983,-0.23850178718566895,-2.020519733428955
1772798021837238800,5.83223876953125,1.1798956394195557,-0.8378421664237976,-2.753767251968384
1772798021847265800,5.842265869140625,1.2956942319869995,-1.242103099822998,-3.473653554916382
1772798021857291800,5.852291748046875,1.5244333744049072,-0.9521524906158447,-3.9488747119903564
1772798021867318500,5.862318603515625,1.6163963079452515,-0.05724145099520683,-3.364650011062622
1772798021877344500,5.872344482421875,1.6360546350479126,0.773632824420929,-1.479246735572815
1772798021887371800,5.882371826171875,1.6785504817962646,1.13130784034729,0.8021342754364014
1772798021897398800,5.892398681640625,1.622109055519104,1.1196110248565674,2.278585433959961
1772798021907424800,5.9024248046875,1.859114170074463,0.709966242313385,2.7487130165100098
1772798021917451500,5.912451416015625,2.2422585487365723,0.17185990512371063,2.520862340927124
1772798021927477800,5.922477783203125,2.829860210418701,-0.07556186616420746,2.537548542022705
1772798021937504800,5.9325048828125,3.1733803749084473,0.10539539903402328,2.6178417205810547
1772798021947530800,5.94253076171875,3.3749287128448486,0.22906380891799927,2.4045920372009277
1772798021957557800,5.952557861328125,3.5178370475769043,0.030291592702269554,1.9022597074508667
1772798021967583700,5.962583740234375,3.510056495666504,-0.3660150170326233,1.3526109457015991
1772798021977610800,5.97261083984375,3.2578558921813965,-0.7002379894256592,0.8916449546813965
1772798021987637800,5.9826376953125,2.8001413345336914,-0.7222002744674683,0.5915256142616272
1772798021997663700,5.992663818359375,2.2753307819366455,-0.5242480635643005,0.4683949053287506
1772798022007690800,6.002690673828125,1.7906498908996582,-0.28227829933166504,0.5821409225463867
1772798022017716700,6.012716796875,1.3442922830581665,-0.14927390217781067,0.8839555978775024
1772798022027743700,6.02274365234375,1.0006723403930664,-0.09212273359298706,1.2564541101455688
1772798022037769700,6.032769775390625,0.7493847608566284,-0.12711428105831146,1.599772334098816
1772798022047796700,6.042796630859375,0.599465548992157,-0.14080478250980377,1.9161936044692993
1772798022057823700,6.05282373046875,0.5636071562767029,-0.02803296595811844,2.1590559482574463
1772798022067849700,6.062849609375,0.594967246055603,0.13818930089473724,2.264385223388672
1772798022077876700,6.072876708984375,0.6301822066307068,0.21605560183525085,2.165318250656128
1772798022087902700,6.08290283203125,0.7048537731170654,0.19491729140281677,1.9107160568237305
1772798022097929700,6.0929296875,0.8108867406845093,0.10506117343902588,1.534406304359436
1772798022107955700,6.102955810546875,0.9405598044395447,0.00024740767548792064,1.1121432781219482
1772798022117982700,6.112982666015625,1.0681414604187012,-0.058933090418577194,0.6824845671653748
1772798022128008700,6.1230087890625,1.202055811882019,-0.08476575464010239,0.2487131506204605
1772798022138035700,6.13303564453125,1.325552225112915,-0.042215097695589066,-0.1810624599456787
1772798022148062700,6.143062744140625,1.4122178554534912,0.06191183626651764,-0.5891783237457275
1772798022158088700,6.153088623046875,1.454357624053955,0.1631511002779007,-0.9748138785362244
1772798022168115700,6.16311572265625,1.421800136566162,0.22029748558998108,-1.286791443824768
1772798022178142000,6.173141845703125,1.3212493658065796,0.20644985139369965,-1.5485471487045288
1772798022188168700,6.183168701171875,1.1903626918792725,0.15017378330230713,-1.777970552444458
1772798022198195500,6.193195556640625,1.049576759338379,0.10364623367786407,-1.9508376121520996
1772798022208222700,6.20322265625,0.9195327758789062,0.05633624270558357,-2.0886576175689697
1772798022218248700,6.213248779296875,0.8074281215667725,0.00920122116804123,-2.162635564804077
1772798022228275500,6.223275390625,0.7097641229629517,-0.014240721240639687,-2.1724464893341064
1772798022238302500,6.233302490234375,0.6370816826820374,-0.038772694766521454,-2.1319663524627686
1772798022248328400,6.243328369140625,0.5978484749794006,-0.04715526103973389,-2.0764129161834717
1772798022258355700,6.253355712890625,0.5704863667488098,-0.07232958823442459,-2.0132627487182617
1772798022268381700,6.263381591796875,0.5594222545623779,-0.11376465111970901,-1.9533202648162842
1772798022278408400,6.273408447265625,0.5631728172302246,-0.15365028381347656,-1.8891700506210327
1772798022288434400,6.283434326171875,0.6034813523292542,-0.16899675130844116,-1.8174265623092651
1772798022298461700,6.293461669921875,0.7056260704994202,-0.13105203211307526,-1.7463135719299316
1772798022308487700,6.30348779296875,0.8223915696144104,-0.06173260509967804,-1.5932878255844116
1772798022318514700,6.3135146484375,0.9197437167167664,0.033188577741384506,-1.3405815362930298
1772798022328541400,6.32354150390625,0.9778986573219299,0.14658863842487335,-1.0625810623168945
1772798022338567400,6.3335673828125,0.978572428226471,0.23132403194904327,-0.8198075294494629
1772798022348594700,6.3435947265625,0.9260694980621338,0.24235698580741882,-0.6852039098739624
1772798022358620700,6.35362060546875,0.8446239233016968,0.2557004690170288,-0.7225422263145447
1772798022368647700,6.363647705078125,0.7671613693237305,0.3007984459400177,-0.819802463054657
1772798022378673700,6.373673583984375,0.7377907037734985,0.2819592356681824,-0.8880448937416077
1772798022388700400,6.383700439453125,0.8119876980781555,0.21728570759296417,-0.8949142694473267
1772798022398726400,6.393726318359375,1.0609115362167358,0.25439339876174927,-0.6507612466812134
1772798022408753700,6.403753662109375,1.4221104383468628,0.4268469214439392,-0.1145220547914505
1772798022418780700,6.41378076171875,1.6951448917388916,0.6522930860519409,0.16061177849769592
1772798022428806700,6.423806640625,1.8078813552856445,0.7298943996429443,-0.22439421713352203
1772798022438833400,6.43383349609375,1.921800971031189,0.35799461603164673,-0.7979751825332642
1772798022448859400,6.443859375,1.9603999853134155,-0.2286379635334015,-1.0469647645950317
1772798022458886700,6.45388671875,1.874751091003418,-0.8323009610176086,-0.732598066329956
1772798022468912600,6.46391259765625,1.8180580139160156,-1.0394163131713867,0.13588327169418335
1772798022478939600,6.473939697265625,1.7175143957138062,-0.645411491394043,1.2025935649871826
1772798022488965600,6.483965576171875,1.4596093893051147,-0.07243478298187256,2.010869264602661
1772798022498992400,6.493992431640625,1.1851884126663208,0.4780651032924652,2.4202542304992676
1772798022509019600,6.50401953125,1.0381547212600708,0.9767318964004517,2.534803628921509
1772798022519045600,6.514045654296875,0.9973125457763672,1.2834696769714355,2.4505233764648438
1772798022529072600,6.52407275390625,1.0385262966156006,1.37420654296875,2.260413885116577
1772798022539098600,6.5340986328125,1.1201121807098389,1.2506611347198486,1.9829257726669312
1772798022549125600,6.544125732421875,1.2054625749588013,0.9446312189102173,1.5257787704467773
1772798022559151600,6.554151611328125,1.2634539604187012,0.4189900755882263,0.8570643663406372
1772798022569178600,6.5641787109375,1.2910277843475342,-0.15842506289482117,0.22177261114120483
1772798022579204600,6.57420458984375,1.1998003721237183,-0.6282735466957092,-0.17229481041431427
1772798022589231600,6.584231689453125,1.0489115715026855,-0.8635028004646301,-0.2594129145145416
1772798022599258600,6.594258544921875,0.8361673355102539,-0.8642040491104126,-0.0597112663090229
1772798022609284600,6.60428466796875,0.6160219311714172,-0.6925143003463745,0.28248709440231323
1772798022619311600,6.6143115234375,0.4538918733596802,-0.4781695008277893,0.6249906420707703
1772798022629337600,6.624337646484375,0.3863309323787689,-0.24209731817245483,0.8432702422142029
1772798022639364600,6.634364501953125,0.3605331480503082,-0.026995930820703506,0.9057496190071106
1772798022649390300,6.644390380859375,0.3848598003387451,0.16430479288101196,0.8616082668304443
1772798022659417600,6.65441748046875,0.41101205348968506,0.23776888847351074,0.7255209684371948
1772798022669443600,6.664443603515625,0.416962593793869,0.2491605579853058,0.514805793762207
1772798022679470600,6.674470703125,0.4002701938152313,0.19379423558712006,0.22924171388149261
1772798022689497300,6.684497314453125,0.3840984106063843,0.13130635023117065,-0.09645463526248932
1772798022699523300,6.6945234375,0.37117886543273926,0.07001610100269318,-0.39269667863845825
1772798022709550600,6.704550537109375,0.3603571057319641,0.013342970050871372,-0.5757783651351929
1772798022719576600,6.71457666015625,0.35170823335647583,0.0054626758210361,-0.6777140498161316
1772798022729603600,6.724603515625,0.31808051466941833,0.03577983379364014,-0.7383075952529907
1772798022739629600,6.734629638671875,0.29259830713272095,0.07506439089775085,-0.7938249111175537
1772798022749656300,6.74465625,0.29861652851104736,0.11248020827770233,-0.8671340346336365
1772798022759682600,6.7546826171875,0.3273237943649292,0.1567869484424591,-0.9256623387336731
1772798022769709600,6.76470947265625,0.35006800293922424,0.209040567278862,-0.9555072784423828
1772798022779735600,6.774735595703125,0.36351829767227173,0.2699577212333679,-0.9761103391647339
1772798022789762600,6.784762451171875,0.3530818819999695,0.31387004256248474,-0.9685000777244568
1772798022799789600,6.79478955078125,0.3294878900051117,0.3325984477996826,-0.9359421133995056
1772798022809815600,6.804815673828125,0.30437347292900085,0.346244752407074,-0.8975590467453003
1772798022819842600,6.814842529296875,0.2731519043445587,0.3742143511772156,-0.850433349609375
1772798022829868500,6.82486865234375,0.22837059199810028,0.3909267485141754,-0.7941405177116394
1772798022839895600,6.8348955078125,0.17723576724529266,0.34448280930519104,-0.718933641910553
1772798022849921500,6.844921630859375,0.14303119480609894,0.2601924240589142,-0.6375751495361328
1772798022859948500,6.854948486328125,0.1273457109928131,0.16374312341213226,-0.5427213311195374
1772798022869974500,6.864974609375,0.13636210560798645,0.09794893115758896,-0.43931424617767334
1772798022880001500,6.87500146484375,0.1525392085313797,0.06856707483530045,-0.3434585630893707
1772798022890028500,6.885028564453125,0.16550374031066895,0.04610251262784004,-0.27058330178260803
1772798022900054500,6.895054443359375,0.16955414414405823,0.044791173189878464,-0.2087196558713913
1772798022910081500,6.90508154296875,0.14496810734272003,0.04896434769034386,-0.15465588867664337
1772798022920107500,6.915107421875,0.13017557561397552,0.1127326712012291,-0.14919614791870117
1772798022930134500,6.925134521484375,0.13780207931995392,0.14824406802654266,-0.15554112195968628
1772798022940160500,6.935160400390625,0.18690437078475952,0.1680731624364853,-0.1981479674577713
1772798022950187500,6.9451875,0.3363676369190216,0.19130711257457733,-0.3541412949562073
1772798022960213800,6.9552138671875,0.4940299689769745,0.15445029735565186,-0.691882312297821
1772798022970240500,6.965240478515625,0.5446057915687561,-0.09460480511188507,-1.1557689905166626
1772798022980267500,6.975267578125,0.48340821266174316,-0.55171138048172,-1.6993255615234375
1772798022990293500,6.98529345703125,0.41659483313560486,-1.1949769258499146,-2.105369806289673
1772798023000320800,6.99532080078125,0.4396684467792511,-1.8254704475402832,-1.944976568222046
1772798023010346800,7.0053466796875,0.517420768737793,-1.8369462490081787,-0.9936091303825378
1772798023020373500,7.01537353515625,0.4350667893886566,-1.2117247581481934,0.4788360893726349
1772798023030399500,7.0253994140625,0.19567149877548218,-0.20276455581188202,1.9068247079849243
1772798023040426500,7.035426513671875,-0.00618146313354373,0.6300679445266724,2.7964789867401123
1772798023050452500,7.045452392578125,-0.1292908787727356,1.0330772399902344,3.0304067134857178
1772798023060479700,7.055479736328125,-0.22875328361988068,1.003969669342041,2.6775851249694824
1772798023070505700,7.065505615234375,-0.222490593791008,0.6979172825813293,1.9665873050689697
1772798023080532500,7.075532470703125,-0.14659076929092407,0.29134076833724976,1.1999729871749878
1772798023090559500,7.0855595703125,-0.06269773840904236,-0.09116745740175247,0.6099517941474915
1772798023100585500,7.09558544921875,-0.018082065507769585,-0.3335854113101959,0.2725748121738434
1772798023110612700,7.10561279296875,-0.01667884550988674,-0.4105529189109802,0.13058730959892273
1772798023120638700,7.115638671875,-0.042999133467674255,-0.39988428354263306,0.09266255795955658
1772798023130665500,7.12566552734375,-0.06732524186372757,-0.34194427728652954,0.12731879949569702
1772798023140691500,7.13569140625,-0.10898960381746292,-0.24091701209545135,0.24365819990634918
1772798023150718500,7.145718505859375,-0.13267841935157776,-0.12258929759263992,0.4385736286640167
1772798023160744700,7.15574462890625,-0.18655869364738464,-0.010476609691977501,0.664536714553833
1772798023170771700,7.165771728515625,-0.23361702263355255,0.1110471561551094,0.925896167755127
1772798023180797700,7.175797607421875,-0.31182047724723816,0.18163371086120605,1.1534345149993896
1772798023190825000,7.185824951171875,-0.3353375196456909,0.2572445869445801,1.3119850158691406
1772798023200852000,7.19585205078125,-0.29121133685112,0.2544463872909546,1.3025726079940796
1772798023210878000,7.2058779296875,-0.223910853266716,0.18290910124778748,1.149088740348816
1772798023220904700,7.21590478515625,-0.16368213295936584,0.11626642197370529,0.889362633228302
1772798023230931000,7.225930908203125,-0.09985682368278503,0.02243846282362938,0.5923299193382263
1772798023240958000,7.2359580078125,-0.0744641125202179,-0.0546528585255146,0.3303067982196808
1772798023250984000,7.24598388671875,-0.0773744136095047,-0.07014739513397217,0.09021724760532379
1772798023261011000,7.256010986328125,-0.09027689695358276,-0.0779629722237587,-0.1479111611843109
1772798023271037000,7.266036865234375,-0.11032410711050034,-0.0829838290810585,-0.35245606303215027
1772798023281064000,7.27606396484375,-0.13534024357795715,-0.08177289366722107,-0.4935620427131653
1772798023291090000,7.28608984375,-0.15166036784648895,-0.10390429198741913,-0.6112870573997498
1772798023301117000,7.296116943359375,-0.1544681340456009,-0.11633140593767166,-0.7411513328552246
1772798023311144000,7.30614404296875,-0.1570655107498169,-0.12486416846513748,-0.9003157019615173
1772798023321170000,7.316169921875,-0.1661335825920105,-0.16668644547462463,-1.0672210454940796
1772798023331197000,7.326197021484375,-0.18414294719696045,-0.2167525440454483,-1.1788605451583862
1772798023341223000,7.336222900390625,-0.19927050173282623,-0.24998506903648376,-1.2253938913345337
1772798023351250000,7.34625,-0.22672928869724274,-0.25614097714424133,-1.2121540307998657
1772798023361276000,7.35627587890625,-0.2453807294368744,-0.24813151359558105,-1.1586705446243286
1772798023371303000,7.366302978515625,-0.2537555694580078,-0.23992978036403656,-1.0912954807281494
1772798023381329000,7.376328857421875,-0.2559979557991028,-0.2536160349845886,-1.0221585035324097
1772798023391356000,7.38635595703125,-0.26632222533226013,-0.26874491572380066,-0.9482544660568237
1772798023401382000,7.3963818359375,-0.3092673122882843,-0.23528122901916504,-0.8675734400749207
1772798023411409000,7.406408935546875,-0.38314366340637207,-0.11829575151205063,-0.7841704487800598
1772798023421436000,7.416435791015625,-0.46839383244514465,-0.035833898931741714,-0.7086428999900818
1772798023431462100,7.426462158203125,-0.5398488640785217,-0.031984563916921616,-0.6406630873680115
1772798023441489000,7.436489013671875,-0.5881404876708984,-0.061231665313243866,-0.5701614618301392
1772798023451515000,7.446514892578125,-0.628597617149353,-0.15264546871185303,-0.5079196691513062
1772798023461542000,7.4565419921875,-0.6506432890892029,-0.27750831842422485,-0.4170973598957062
1772798023471568000,7.46656787109375,-0.6322280168533325,-0.32157376408576965,-0.34266868233680725
1772798023481595100,7.47659521484375,-0.5421990752220154,-0.29484787583351135,-0.31677448749542236
1772798023491621000,7.48662109375,-0.4002896249294281,-0.21101662516593933,-0.3087945878505707
1772798023501648000,7.49664794921875,-0.3104478716850281,0.04782424867153168,-0.47452524304389954
1772798023511673900,7.506673828125,-0.37659093737602234,0.2599104046821594,-1.0449293851852417
1772798023521700900,7.516700927734375,-0.4276943504810333,0.10465583950281143,-1.7345186471939087
1772798023531728100,7.52672802734375,-0.5042479634284973,-0.28022927045822144,-2.214735984802246
1772798023541754000,7.536754150390625,-0.6476235389709473,-0.6524832248687744,-2.202089786529541
1772798023551780900,7.54678076171875,-0.7749833464622498,-0.7216598987579346,-1.4020861387252808
1772798023561806800,7.556806884765625,-0.87486332654953,-0.37174052000045776,0.02665318176150322
1772798023571833900,7.566833740234375,-1.020646095275879,0.14214861392974854,1.4585819244384766
1772798023581859800,7.57685986328125,-1.1050845384597778,0.5663039088249207,2.3656153678894043
1772798023591887000,7.58688720703125,-1.1162269115447998,0.7752094268798828,2.728480577468872
1772798023601913000,7.5969130859375,-1.149734616279602,0.7615114450454712,2.5594892501831055
1772798023611939800,7.60693994140625,-1.2250183820724487,0.5891705751419067,2.0472748279571533
1772798023621965800,7.6169658203125,-1.2263678312301636,0.3394286632537842,1.4919127225875854
1772798023631992800,7.626992919921875,-1.158118486404419,0.08699322491884232,1.0894871950149536
1772798023642019000,7.63701904296875,-1.0614137649536133,-0.06671964377164841,0.8584675788879395
1772798023652046000,7.647046142578125,-0.9568876028060913,-0.056826796382665634,0.7714775204658508
1772798023662072800,7.65707275390625,-0.9119353294372559,-0.006452572997659445,0.6952664256095886
1772798023672098800,7.667098876953125,-0.8575847148895264,0.05112709850072861,0.5905833840370178
1772798023682126000,7.6771259765625,-0.8417900800704956,0.10317352414131165,0.5255258083343506
1772798023692152000,7.687152099609375,-0.8459429740905762,0.19465070962905884,0.5554613471031189
1772798023702179000,7.697178955078125,-0.8437983393669128,0.26680558919906616,0.6720220446586609
1772798023712205000,7.707205078125,-0.8373252749443054,0.2536541223526001,0.8275836706161499
1772798023722231800,7.717231689453125,-0.8512629270553589,0.19465257227420807,0.9605260491371155
1772798023732257800,7.7272578125,-0.7684149146080017,0.09610283374786377,1.0040048360824585
1772798023742285000,7.73728515625,-0.6680030822753906,0.006221144460141659,0.9508270621299744
1772798023752311000,7.74731103515625,-0.6229711771011353,-0.010331999510526657,0.8969241380691528
1772798023762338000,7.757338134765625,-0.6484876871109009,0.018393654376268387,0.877413809299469
1772798023772364800,7.76736474609375,-0.6883389949798584,0.08007672429084778,0.8847324848175049
1772798023782390800,7.777390869140625,-0.7198430895805359,0.17152142524719238,0.8530669212341309
1772798023792418000,7.78741796875,-0.7573734521865845,0.21265047788619995,0.7284978628158569
1772798023802444000,7.797444091796875,-0.8149040937423706,0.19335880875587463,0.5603442788124084
1772798023812471000,7.807470947265625,-0.8597898483276367,0.15214373171329498,0.3778897821903229
1772798023822496800,7.817496826171875,-0.8819481134414673,0.08104265481233597,0.16902203857898712
1772798023832523800,7.827523681640625,-0.8802343606948853,0.02899410016834736,-0.06094297766685486
1772798023842550000,7.837550048828125,-0.8591676950454712,0.006416886579245329,-0.27996399998664856
1772798023852577000,7.847576904296875,-0.816512942314148,-0.015164571814239025,-0.4917963743209839
1772798023862603000,7.85760302734375,-0.7722005844116211,-0.029646042734384537,-0.692111611366272
1772798023872629800,7.867629638671875,-0.7252117991447449,-0.07212132960557938,-0.892509400844574
1772798023882655700,7.87765576171875,-0.6973868012428284,-0.11714206635951996,-1.0695444345474243
1772798023892683000,7.88768310546875,-0.7050918936729431,-0.16470985114574432,-1.200626015663147
1772798023902710000,7.8977099609375,-0.7474585175514221,-0.21771474182605743,-1.2846897840499878
1772798023912736000,7.907736083984375,-0.8174793720245361,-0.24955736100673676,-1.3198844194412231
1772798023922762800,7.9177626953125,-0.8988365530967712,-0.2532080411911011,-1.3253735303878784
1772798023932788700,7.927788818359375,-0.9960635304450989,-0.24408404529094696,-1.2764712572097778
1772798023942816000,7.93781591796875,-1.1151065826416016,-0.22824035584926605,-1.1697356700897217
1772798023952842000,7.947842041015625,-1.2211482524871826,-0.22542539238929749,-1.0271191596984863
1772798023962869000,7.957868896484375,-1.2972222566604614,-0.23321594297885895,-0.9188345074653625
1772798023972895000,7.96789501953125,-1.3581929206848145,-0.22778522968292236,-0.8673526644706726
1772798023982921700,7.977921630859375,-1.3588111400604248,-0.23925599455833435,-0.8673375248908997
1772798023992947700,7.98794775390625,-1.305532455444336,-0.27166667580604553,-0.8848475217819214
1772798024002975000,7.99797509765625,-1.2840497493743896,-0.32229387760162354,-0.9318251609802246
1772798024013001000,8.0080009765625,-1.3260728120803833,-0.2672785818576813,-0.9744905829429626
1772798024023028000,8.018028076171875,-1.4100703001022339,-0.15959179401397705,-0.9807093143463135
1772798024033054000,8.028053955078125,-1.4712367057800293,-0.11648613214492798,-0.8382866978645325
1772798024043081000,8.0380810546875,-1.4684380292892456,0.030289728194475174,-0.502331554889679
1772798024053108000,8.04810791015625,-1.435623288154602,0.4588671922683716,-0.05158836022019386
1772798024063134000,8.058134033203125,-1.5040364265441895,0.9478549957275391,0.09157412499189377
1772798024073161000,8.068160888671875,-1.6594702005386353,0.9921217560768127,-0.2913562059402466
1772798024083187000,8.07818701171875,-1.767447590827942,0.28587543964385986,-1.049330472946167
1772798024093214000,8.0882138671875,-1.6725138425827026,-0.6871626973152161,-1.9863344430923462
1772798024103240000,8.098239990234376,-1.4987106323242188,-1.494122862815857,-2.6388721466064453
1772798024113267000,8.108266845703126,-1.083236813545227,-1.8138906955718994,-2.3027589321136475
1772798024123293000,8.11829296875,-0.9536582827568054,-1.3353406190872192,-0.8910564184188843
1772798024133320000,8.12831982421875,-1.1138063669204712,-0.2483709305524826,1.0943727493286133
1772798024143346000,8.138345947265625,-1.409834623336792,0.4485604763031006,2.885745048522949
1772798024153373000,8.148373046875,-1.6876115798950195,0.6338112950325012,3.774015426635742
1772798024163399000,8.15839892578125,-1.8859803676605225,0.5147081017494202,3.699462890625
1772798024173426000,8.168426025390625,-2.0187294483184814,0.25014591217041016,2.9837706089019775
1772798024183453000,8.178452880859375,-2.0214946269989014,-0.044492367655038834,2.092648506164551
1772798024193478400,8.188478515625,-1.9926964044570923,-0.14101916551589966,1.501908540725708
1772798024203505200,8.198505126953124,-1.9398529529571533,0.007517571095377207,1.3260080814361572
1772798024213531100,8.20853125,-1.8680474758148193,0.2516373097896576,1.3900225162506104
1772798024223558100,8.21855810546875,-1.7578538656234741,0.4355810284614563,1.449729561805725
1772798024233584400,8.22858447265625,-1.6197528839111328,0.5180324912071228,1.4084933996200562
1772798024243611400,8.238611328125,-1.5042884349822998,0.4089600741863251,1.2478084564208984
1772798024253637400,8.248637451171875,-1.3927615880966187,0.22315213084220886,1.0412805080413818
1772798024263664000,8.2586640625,-1.3106228113174438,0.024383103474974632,0.8818386793136597
1772798024273690000,8.268690185546875,-1.2799559831619263,-0.13377536833286285,0.829505443572998
1772798024283717400,8.27871728515625,-1.2806590795516968,-0.2151234894990921,0.9204978942871094
1772798024293743400,8.288743408203125,-1.346774935722351,-0.29044726490974426,1.0875036716461182
1772798024303770400,8.298770263671875,-1.3959922790527344,-0.31171128153800964,1.2417830228805542
1772798024313797000,8.308797119140625,-1.4281904697418213,-0.31059062480926514,1.3111945390701294
1772798024323823000,8.318822998046874,-1.4245983362197876,-0.26732945442199707,1.3036898374557495
1772798024333850400,8.328850341796874,-1.4195764064788818,-0.23667432367801666,1.2106934785842896
1772798024343876400,8.33887646484375,-1.3858669996261597,-0.2187001258134842,1.0512311458587646
1772798024353903400,8.3489033203125,-1.3236634731292725,-0.22212333977222443,0.8722882866859436
1772798024363929300,8.358929443359376,-1.2510348558425903,-0.20451106131076813,0.6864145994186401
1772798024373956000,8.3689560546875,-1.1743861436843872,-0.1847085952758789,0.45254218578338623
1772798024383982300,8.378982421875,-1.1134746074676514,-0.14613963663578033,0.19720014929771423
1772798024394009300,8.38900927734375,-1.0833550691604614,-0.06036081165075302,0.01056049857288599
1772798024404035300,8.399035400390625,-1.0970503091812134,-0.000764593540225178,-0.10156630724668503
1772798024414062300,8.409062255859375,-1.1417235136032104,0.03621712699532509,-0.16977758705615997
1772798024424088300,8.41908837890625,-1.1795889139175415,0.052081577479839325,-0.233679860830307
1772798024434115300,8.429115234375,-1.2017685174942017,0.011030014604330063,-0.30264028906822205
1772798024444141300,8.439141357421875,-1.1959319114685059,0.01882588490843773,-0.35724708437919617
1772798024454168300,8.449168212890624,-1.1969572305679321,0.2697036564350128,-0.22323814034461975
1772798024464195300,8.4591953125,-1.3300665616989136,0.27174097299575806,-0.07832223176956177
1772798024474221300,8.46922119140625,-1.3687984943389893,0.08395801484584808,-0.08455482870340347
1772798024484248300,8.479248291015624,-1.3757104873657227,-0.0816168338060379,-0.09801364690065384
1772798024494274300,8.4892744140625,-1.3686271905899048,-0.1614789068698883,-0.14142850041389465
1772798024504301300,8.49930126953125,-1.3719743490219116,-0.31551507115364075,-0.23156318068504333
1772798024514327300,8.509327392578125,-1.3843071460723877,-0.45067423582077026,-0.26909297704696655
1772798024524354300,8.519354248046875,-1.4094436168670654,-0.5487342476844788,-0.2826274335384369
1772798024534380300,8.52938037109375,-1.4245450496673584,-0.5743405222892761,-0.28752419352531433
1772798024544407300,8.5394072265625,-1.4396313428878784,-0.5647554993629456,-0.28396832942962646
1772798024554433300,8.549433349609375,-1.4402787685394287,-0.5156614780426025,-0.26954251527786255
1772798024564460300,8.559460205078125,-1.4200704097747803,-0.513159453868866,-0.3187404274940491
1772798024574486300,8.569486328125,-1.396403431892395,-0.5590534210205078,-0.40035513043403625
1772798024584513300,8.57951318359375,-1.3885040283203125,-0.7041576504707336,-0.5404517650604248
1772798024594539500,8.58953955078125,-1.3646503686904907,-0.8215391039848328,-0.738727331161499
1772798024604566300,8.599566162109374,-1.3401594161987305,-0.6817601919174194,-0.8659417629241943
1772798024614593300,8.60959326171875,-1.3991219997406006,-0.46151435375213623,-0.9057431817054749
1772798024624619300,8.619619384765626,-1.4832803010940552,-0.4566245377063751,-0.9585843086242676
1772798024634646500,8.629646484375,-1.5213043689727783,-0.7147024273872375,-1.0898137092590332
1772798024644672500,8.639672607421875,-1.4579544067382812,-1.0220756530761719,-1.3028292655944824
