time,seconds_elapsed,z,y,x
1772790179042628600,0.064628662109375,-0.9780731201171875,-0.3335113525390625,0.1164398193359375
1772790179052694500,0.074694580078125,-0.9917755126953125,-0.331695556640625,0.1046142578125
1772790179062760700,0.0847607421875,-1.0157623291015625,-0.3328704833984375,0.1055755615234375
1772790179072825600,0.09482568359375,-1.04254150390625,-0.339996337890625,0.1135711669921875
1772790179082891500,0.1048916015625,-1.064849853515625,-0.351806640625,0.1189422607421875
1772790179092957400,0.11495751953125,-1.0717010498046875,-0.3567352294921875,0.115966796875
1772790179103022600,0.125022705078125,-1.0585479736328125,-0.364288330078125,0.1057891845703125
1772790179113088500,0.135088623046875,-1.038818359375,-0.3748016357421875,0.1085205078125
1772790179123154700,0.14515478515625,-1.0367584228515625,-0.3763275146484375,0.1102294921875
1772790179133219600,0.155219482421875,-1.0550384521484375,-0.3744354248046875,0.104400634765625
1772790179143285500,0.165285400390625,-1.0813751220703125,-0.35601806640625,0.0907440185546875
1772790179153351400,0.175351318359375,-1.12078857421875,-0.3267822265625,0.0622711181640625
1772790179163416600,0.18541650390625,-1.1438446044921875,-0.2979583740234375,0.030426025390625
1772790179173482800,0.195482666015625,-1.1519927978515625,-0.2757110595703125,0.006500244140625
1772790179183548400,0.20554833984375,-1.14544677734375,-0.2578125,-0.0096435546875
1772790179193613600,0.215613525390625,-1.1272125244140625,-0.2435302734375,-0.017364501953125
1772790179203679500,0.225679443359375,-1.0891571044921875,-0.2254486083984375,-0.0352783203125
1772790179213745700,0.23574560546875,-1.0653076171875,-0.2123565673828125,-0.0597686767578125
1772790179223810600,0.245810546875,-1.0454254150390625,-0.2048187255859375,-0.078948974609375
1772790179233876500,0.25587646484375,-1.016754150390625,-0.1918182373046875,-0.091400146484375
1772790179243942400,0.2659423828125,-0.9942474365234375,-0.1871795654296875,-0.0933837890625
1772790179254007600,0.276007568359375,-0.992156982421875,-0.196380615234375,-0.0913848876953125
1772790179264073700,0.28607373046875,-0.9919281005859375,-0.199981689453125,-0.0850372314453125
1772790179274139600,0.2961396484375,-0.9849395751953125,-0.2026824951171875,-0.0829925537109375
1772790179284205600,0.30620556640625,-0.9744415283203125,-0.206024169921875,-0.0904388427734375
1772790179294270500,0.3162705078125,-0.959259033203125,-0.204315185546875,-0.0975799560546875
1772790179304336600,0.326336669921875,-0.9563446044921875,-0.201995849609375,-0.103912353515625
1772790179314402600,0.336402587890625,-0.95361328125,-0.202392578125,-0.110443115234375
1772790179324467700,0.3464677734375,-0.9426727294921875,-0.2027587890625,-0.1088409423828125
1772790179334533400,0.356533447265625,-0.9281005859375,-0.206817626953125,-0.10211181640625
1772790179344599600,0.366599609375,-0.9075775146484375,-0.21136474609375,-0.094696044921875
1772790179354664400,0.37666455078125,-0.8854217529296875,-0.213592529296875,-0.0911407470703125
1772790179364730600,0.386730712890625,-0.8812103271484375,-0.2126617431640625,-0.0854339599609375
1772790179374796500,0.396796630859375,-0.888275146484375,-0.214813232421875,-0.085113525390625
1772790179384861400,0.406861328125,-0.8905792236328125,-0.223480224609375,-0.079833984375
1772790179394927600,0.416927734375,-0.890869140625,-0.2321929931640625,-0.0758209228515625
1772790179404993500,0.42699365234375,-0.8968353271484375,-0.2376556396484375,-0.0700531005859375
1772790179415058700,0.43705859375,-0.893218994140625,-0.2410430908203125,-0.0661163330078125
1772790179425124600,0.44712451171875,-0.8856201171875,-0.25262451171875,-0.06024169921875
1772790179435190800,0.457190673828125,-0.89697265625,-0.2596282958984375,-0.0469207763671875
1772790179445255400,0.46725537109375,-0.908782958984375,-0.2662200927734375,-0.028656005859375
1772790179455321600,0.477321533203125,-0.8950042724609375,-0.2814788818359375,-0.0179443359375
1772790179465387500,0.487387451171875,-0.85406494140625,-0.286346435546875,-0.017059326171875
1772790179475452700,0.49745263671875,-0.8358917236328125,-0.2846221923828125,-0.017120361328125
1772790179485518300,0.507518310546875,-0.82257080078125,-0.2979736328125,-0.0189971923828125
1772790179495584500,0.51758447265625,-0.822113037109375,-0.3121185302734375,-0.00836181640625
1772790179505649700,0.527649658203125,-0.8505096435546875,-0.324676513671875,0.009033203125
1772790179515715600,0.537715576171875,-0.8828582763671875,-0.34478759765625,0.0234832763671875
1772790179525781500,0.547781494140625,-0.90374755859375,-0.3538055419921875,0.03253173828125
1772790179535846400,0.557846435546875,-0.9093170166015625,-0.34869384765625,0.0254058837890625
1772790179545912600,0.56791259765625,-0.927490234375,-0.3410186767578125,0.0101776123046875
1772790179555978500,0.577978515625,-0.9031219482421875,-0.3339996337890625,-0.0033721923828125
1772790179566043600,0.588043701171875,-0.8926849365234375,-0.3226318359375,-0.01666259765625
1772790179576109600,0.598109619140625,-0.9002838134765625,-0.320343017578125,-0.0200347900390625
1772790179586175500,0.608175537109375,-0.8972320556640625,-0.315399169921875,-0.028167724609375
1772790179596241400,0.618241455078125,-0.8880157470703125,-0.3077850341796875,-0.0390625
1772790179606306600,0.628306640625,-0.8900604248046875,-0.3042755126953125,-0.048126220703125
1772790179616372500,0.63837255859375,-0.9038543701171875,-0.3089447021484375,-0.0518035888671875
1772790179626438700,0.648438720703125,-0.923828125,-0.3140411376953125,-0.045166015625
1772790179636503600,0.658503662109375,-0.9290618896484375,-0.32440185546875,-0.0316162109375
1772790179646569500,0.668569580078125,-0.9181365966796875,-0.3290557861328125,-0.01861572265625
1772790179656635600,0.6786357421875,-0.9137115478515625,-0.3263702392578125,-0.01239013671875
1772790179666700500,0.688700439453125,-0.9199676513671875,-0.3304901123046875,-0.0120391845703125
1772790179676766700,0.6987666015625,-0.943756103515625,-0.3337860107421875,-0.0148162841796875
1772790179686832600,0.70883251953125,-0.9632415771484375,-0.3371734619140625,-0.0091705322265625
1772790179696897500,0.7188974609375,-0.98529052734375,-0.3407440185546875,0.00262451171875
1772790179706963500,0.72896337890625,-1.0141754150390625,-0.3467559814453125,0.0182037353515625
1772790179717029600,0.739029541015625,-1.039154052734375,-0.3455047607421875,0.0219879150390625
1772790179727094500,0.749094482421875,-1.03424072265625,-0.334747314453125,0.0170745849609375
1772790179737160400,0.759160400390625,-1.0227508544921875,-0.322113037109375,0.0126800537109375
1772790179747226400,0.769226318359375,-1.025848388671875,-0.3157806396484375,0.016693115234375
1772790179757291500,0.77929150390625,-1.0321807861328125,-0.321807861328125,0.027801513671875
1772790179767357700,0.789357666015625,-1.038726806640625,-0.3218231201171875,0.040313720703125
1772790179777423600,0.799423583984375,-1.0525360107421875,-0.313873291015625,0.0459747314453125
1772790179787488500,0.809488525390625,-1.0649261474609375,-0.3101959228515625,0.0450286865234375
1772790179797554400,0.819554443359375,-1.0643157958984375,-0.3050079345703125,0.0474853515625
1772790179807620600,0.82962060546875,-1.0588226318359375,-0.297393798828125,0.0540008544921875
1772790179817686500,0.8396865234375,-1.0610504150390625,-0.2993011474609375,0.06475830078125
1772790179827751700,0.849751708984375,-1.0602264404296875,-0.304656982421875,0.06982421875
1772790179837817600,0.859817626953125,-1.051910400390625,-0.3111724853515625,0.0771942138671875
1772790179847883500,0.869883544921875,-1.0427398681640625,-0.323516845703125,0.0898590087890625
1772790179857948400,0.879948486328125,-1.02362060546875,-0.3369140625,0.0999603271484375
1772790179868014600,0.8900146484375,-1.0216827392578125,-0.345855712890625,0.1195831298828125
1772790179878080500,0.90008056640625,-1.045623779296875,-0.3463134765625,0.1380615234375
1772790179888145400,0.9101455078125,-1.091827392578125,-0.3306732177734375,0.14959716796875
1772790179898211600,0.920211669921875,-1.14874267578125,-0.3129119873046875,0.154144287109375
1772790179908277500,0.930277587890625,-1.1812591552734375,-0.29071044921875,0.1535186767578125
1772790179918342700,0.9403427734375,-1.185089111328125,-0.261810302734375,0.141632080078125
1772790179928408600,0.95040869140625,-1.159271240234375,-0.2330169677734375,0.115997314453125
1772790179938474800,0.960474853515625,-1.111541748046875,-0.2041015625,0.08514404296875
1772790179948539600,0.97053955078125,-1.053863525390625,-0.1770782470703125,0.0605621337890625
1772790179958605800,0.980605712890625,-0.988555908203125,-0.1605224609375,0.040985107421875
1772790179968671700,0.990671630859375,-0.9297943115234375,-0.147216796875,0.0269775390625
1772790179978737000,1.00073681640625,-0.891632080078125,-0.1431884765625,0.0296630859375
1772790179988802800,1.010802734375,-0.8836669921875,-0.1507110595703125,0.050079345703125
1772790179998869000,1.020868896484375,-0.9037322998046875,-0.161346435546875,0.067230224609375
1772790180008934700,1.0309345703125,-0.915985107421875,-0.1786651611328125,0.08575439453125
1772790180018999800,1.040999755859375,-0.89599609375,-0.1854095458984375,0.1030426025390625
1772790180029065700,1.051065673828125,-0.8799285888671875,-0.1846160888671875,0.1196441650390625
1772790180039132000,1.0611318359375,-0.874725341796875,-0.1887054443359375,0.14129638671875
1772790180049197000,1.071197021484375,-0.8756103515625,-0.195526123046875,0.1575164794921875
1772790180059262700,1.0812626953125,-0.8827362060546875,-0.20196533203125,0.1689300537109375
1772790180069329000,1.091328857421875,-0.8845672607421875,-0.2039642333984375,0.1808319091796875
1772790180079393800,1.101393798828125,-0.883514404296875,-0.2020721435546875,0.1883087158203125
1772790180089460000,1.1114599609375,-0.8951263427734375,-0.2017364501953125,0.192657470703125
1772790180099526000,1.12152587890625,-0.9076995849609375,-0.2040557861328125,0.1986846923828125
1772790180109590800,1.1315908203125,-0.921112060546875,-0.1981964111328125,0.1979827880859375
1772790180119656700,1.14165673828125,-0.94293212890625,-0.1849517822265625,0.191741943359375
1772790180129723000,1.151722900390625,-0.9830474853515625,-0.1732025146484375,0.1855316162109375
1772790180139788000,1.1617880859375,-1.0226898193359375,-0.1590423583984375,0.17474365234375
1772790180149854000,1.17185400390625,-1.034881591796875,-0.1421051025390625,0.1627044677734375
1772790180159919600,1.181919677734375,-1.0384979248046875,-0.126678466796875,0.1464385986328125
1772790180169984800,1.19198486328125,-1.0358734130859375,-0.114837646484375,0.1263580322265625
1772790180180051000,1.202051025390625,-1.035400390625,-0.10723876953125,0.107421875
1772790180190116900,1.212116943359375,-1.02593994140625,-0.108795166015625,0.0829925537109375
1772790180200183000,1.22218310546875,-0.9973602294921875,-0.103759765625,0.0657501220703125
1772790180210247700,1.23224755859375,-0.9727325439453125,-0.107940673828125,0.0525970458984375
1772790180220313900,1.24231396484375,-0.9654541015625,-0.12274169921875,0.0520172119140625
1772790180230379800,1.2523798828125,-0.985687255859375,-0.141632080078125,0.0623321533203125
1772790180240445000,1.26244482421875,-0.9972991943359375,-0.1583404541015625,0.0848541259765625
1772790180250510800,1.2725107421875,-1.00018310546875,-0.174072265625,0.097930908203125
1772790180260577000,1.282576904296875,-0.9969940185546875,-0.1849517822265625,0.08758544921875
1772790180270642000,1.292641845703125,-0.9938507080078125,-0.19476318359375,0.0826873779296875
1772790180280707800,1.302707763671875,-0.9974822998046875,-0.2026519775390625,0.087158203125
1772790180290773800,1.312773681640625,-0.98834228515625,-0.2059478759765625,0.086517333984375
1772790180300839000,1.3228388671875,-0.9600982666015625,-0.2079620361328125,0.0879974365234375
1772790180310904800,1.33290478515625,-0.9702911376953125,-0.210784912109375,0.0937652587890625
1772790180320970800,1.342970703125,-0.97698974609375,-0.21441650390625,0.0954132080078125
1772790180331036000,1.353035888671875,-0.9601593017578125,-0.2232208251953125,0.0836334228515625
1772790180341101800,1.363101806640625,-0.94451904296875,-0.220855712890625,0.07666015625
1772790180351168000,1.37316796875,-0.93646240234375,-0.216278076171875,0.072113037109375
1772790180361232600,1.383232666015625,-0.953399658203125,-0.21905517578125,0.0655517578125
1772790180371298800,1.393298828125,-0.96142578125,-0.225738525390625,0.070068359375
1772790180381364700,1.40336474609375,-0.955078125,-0.2318572998046875,0.0814056396484375
1772790180391430000,1.413429931640625,-0.946929931640625,-0.23553466796875,0.08074951171875
1772790180401495800,1.423495849609375,-0.93505859375,-0.23626708984375,0.086700439453125
1772790180411562000,1.43356201171875,-0.9290771484375,-0.2412872314453125,0.0915985107421875
1772790180421627600,1.443627685546875,-0.93328857421875,-0.250762939453125,0.0969390869140625
1772790180431692800,1.45369287109375,-0.9465484619140625,-0.2571258544921875,0.1069793701171875
1772790180441759000,1.463759033203125,-0.9546356201171875,-0.262542724609375,0.113494873046875
1772790180451825000,1.473824951171875,-0.95806884765625,-0.261871337890625,0.11553955078125
1772790180461889800,1.483889892578125,-0.9587860107421875,-0.2648468017578125,0.1154632568359375
1772790180471955700,1.493955810546875,-0.9530792236328125,-0.2657318115234375,0.1157989501953125
1772790180482022000,1.50402197265625,-0.9498291015625,-0.2635345458984375,0.1101531982421875
1772790180492086800,1.514086669921875,-0.95526123046875,-0.2620697021484375,0.105010986328125
1772790180502153000,1.524153076171875,-0.963958740234375,-0.260589599609375,0.1050567626953125
1772790180512219000,1.534218994140625,-0.9801788330078125,-0.2607879638671875,0.1070556640625
1772790180522283800,1.54428369140625,-0.98358154296875,-0.26202392578125,0.107421875
1772790180532350000,1.554349853515625,-0.988525390625,-0.2644195556640625,0.106292724609375
1772790180542416000,1.564415771484375,-0.9911956787109375,-0.266510009765625,0.105010986328125
1772790180552481000,1.57448095703125,-0.9990997314453125,-0.26910400390625,0.1126251220703125
1772790180562547000,1.584546875,-1.023834228515625,-0.2735443115234375,0.1188507080078125
1772790180572612900,1.59461279296875,-1.0388031005859375,-0.2761688232421875,0.1200714111328125
1772790180582677800,1.604677734375,-1.0377655029296875,-0.2756195068359375,0.115142822265625
1772790180592744000,1.614743896484375,-1.0345611572265625,-0.2802734375,0.1107635498046875
1772790180602809900,1.624809814453125,-1.0391998291015625,-0.2891082763671875,0.110687255859375
1772790180612876000,1.6348759765625,-1.041046142578125,-0.306732177734375,0.115325927734375
1772790180622940700,1.644940673828125,-1.0410919189453125,-0.3287353515625,0.1221771240234375
1772790180633006800,1.6550068359375,-1.0485687255859375,-0.3506011962890625,0.134490966796875
1772790180643072800,1.66507275390625,-1.0664215087890625,-0.3705291748046875,0.1468505859375
1772790180653138000,1.675137939453125,-1.0850372314453125,-0.38189697265625,0.1514739990234375
1772790180663203800,1.685203857421875,-1.1035614013671875,-0.3834991455078125,0.1484527587890625
1772790180673269800,1.695269775390625,-1.13153076171875,-0.3770294189453125,0.1326446533203125
1772790180683335000,1.7053349609375,-1.148681640625,-0.3577423095703125,0.1083221435546875
1772790180693400800,1.71540087890625,-1.1545257568359375,-0.3333282470703125,0.082061767578125
1772790180703467000,1.725467041015625,-1.1578521728515625,-0.3067626953125,0.0604400634765625
1772790180713532000,1.735531982421875,-1.148345947265625,-0.275665283203125,0.0523223876953125
1772790180723597800,1.745597900390625,-1.1285858154296875,-0.241363525390625,0.0454559326171875
1772790180733663700,1.755663818359375,-1.1005859375,-0.20867919921875,0.0333709716796875
1772790180743729000,1.76572900390625,-1.067291259765625,-0.1749725341796875,0.024139404296875
1772790180753794800,1.775794921875,-1.0399169921875,-0.1530609130859375,0.0184478759765625
1772790180763861000,1.785861083984375,-1.017730712890625,-0.138092041015625,0.0130157470703125
1772790180773926000,1.79592578125,-1.0089569091796875,-0.135101318359375,0.004669189453125
1772790180783991800,1.80599169921875,-0.9991455078125,-0.1476593017578125,-0.000244140625
1772790180794057700,1.8160576171875,-0.9859161376953125,-0.1655120849609375,0.007537841796875
1772790180804123000,1.826122802734375,-0.9922027587890625,-0.181549072265625,0.0169677734375
1772790180814189000,1.83618896484375,-1.00048828125,-0.1876068115234375,0.01629638671875
1772790180824254700,1.846254638671875,-0.9786529541015625,-0.188262939453125,0.009246826171875
1772790180834320000,1.85631982421875,-0.9610443115234375,-0.1911468505859375,-0.000946044921875
1772790180844385800,1.8663857421875,-0.9697113037109375,-0.1968536376953125,-0.0029144287109375
1772790180854452000,1.876451904296875,-0.9712371826171875,-0.199066162109375,-0.00115966796875
1772790180864516600,1.8865166015625,-0.952880859375,-0.2015380859375,-0.00115966796875
1772790180874582800,1.896582763671875,-0.9464874267578125,-0.1992340087890625,-0.0084228515625
1772790180884648700,1.906648681640625,-0.94476318359375,-0.1934051513671875,-0.020050048828125
1772790180894713900,1.9167138671875,-0.942657470703125,-0.19171142578125,-0.0278167724609375
1772790180904780000,1.926780029296875,-0.9398193359375,-0.19818115234375,-0.0293121337890625
1772790180914846000,1.936845947265625,-0.942138671875,-0.2013702392578125,-0.027557373046875
1772790180924911600,1.94691162109375,-0.9371185302734375,-0.211090087890625,-0.0242919921875
1772790180934976800,1.956976806640625,-0.92132568359375,-0.228057861328125,-0.011627197265625
1772790180945042200,1.967042236328125,-0.912750244140625,-0.2336273193359375,0.004241943359375
1772790180955108000,1.977108154296875,-0.90130615234375,-0.2431182861328125,0.0206146240234375
1772790180965173000,1.987173095703125,-0.891937255859375,-0.25189208984375,0.0366363525390625
1772790180975239000,1.997239013671875,-0.8814239501953125,-0.259796142578125,0.04376220703125
1772790180985305000,2.00730517578125,-0.880035400390625,-0.272003173828125,0.0498046875
1772790180995370200,2.017370361328125,-0.87939453125,-0.2912750244140625,0.06610107421875
1772790181005436000,2.027435791015625,-0.8583831787109375,-0.302978515625,0.0821990966796875
1772790181015502000,2.037502197265625,-0.845794677734375,-0.3148345947265625,0.0936279296875
1772790181025567000,2.04756689453125,-0.84832763671875,-0.327911376953125,0.1072235107421875
1772790181035633200,2.057633056640625,-0.8648681640625,-0.337677001953125,0.122833251953125
1772790181045699000,2.067698974609375,-0.880279541015625,-0.345550537109375,0.128387451171875
1772790181055764000,2.077763916015625,-0.8762359619140625,-0.346649169921875,0.136993408203125
1772790181065830000,2.087829833984375,-0.87060546875,-0.342010498046875,0.137237548828125
1772790181075896000,2.09789599609375,-0.887908935546875,-0.3372802734375,0.129852294921875
1772790181085961200,2.107961181640625,-0.909912109375,-0.3307952880859375,0.1248779296875
1772790181096027100,2.118027099609375,-0.9221649169921875,-0.3228759765625,0.1215667724609375
1772790181106093000,2.128093017578125,-0.9252777099609375,-0.3123779296875,0.1164703369140625
1772790181116158000,2.138157958984375,-0.9266204833984375,-0.299468994140625,0.10589599609375
1772790181126224100,2.14822412109375,-0.9297637939453125,-0.286346435546875,0.0957183837890625
1772790181136290000,2.1582900390625,-0.9342803955078125,-0.2757568359375,0.0857086181640625
1772790181146355200,2.168355224609375,-0.932464599609375,-0.27001953125,0.079681396484375
1772790181156420900,2.1784208984375,-0.933319091796875,-0.267578125,0.0821533203125
1772790181166487000,2.188487060546875,-0.9405364990234375,-0.2672271728515625,0.0839996337890625
1772790181176552000,2.198552001953125,-0.93896484375,-0.268280029296875,0.0885009765625
1772790181186618000,2.2086181640625,-0.934967041015625,-0.26898193359375,0.09759521484375
1772790181196684000,2.21868408203125,-0.92779541015625,-0.2699432373046875,0.102294921875
1772790181206749000,2.2287490234375,-0.9124908447265625,-0.269439697265625,0.1025543212890625
1772790181216815000,2.238815185546875,-0.9086761474609375,-0.2706146240234375,0.1081085205078125
1772790181226881000,2.248881103515625,-0.9144134521484375,-0.27142333984375,0.111419677734375
1772790181236946200,2.2589462890625,-0.9134521484375,-0.275177001953125,0.1140594482421875
1772790181247012000,2.26901220703125,-0.907318115234375,-0.2803192138671875,0.1195831298828125
1772790181257078300,2.279078369140625,-0.9108428955078125,-0.28436279296875,0.1224822998046875
1772790181267144000,2.28914404296875,-0.9171600341796875,-0.2867279052734375,0.124786376953125
1772790181277209000,2.299208984375,-0.923583984375,-0.289520263671875,0.128814697265625
1772790181287275000,2.30927490234375,-0.934417724609375,-0.2875823974609375,0.1330108642578125
1772790181297341200,2.319341064453125,-0.9429931640625,-0.28375244140625,0.1379241943359375
1772790181307405800,2.32940576171875,-0.9421539306640625,-0.2789306640625,0.13763427734375
1772790181317472000,2.339471923828125,-0.947845458984375,-0.2791290283203125,0.1378173828125
1772790181327538000,2.349537841796875,-0.963104248046875,-0.2828826904296875,0.1439971923828125
1772790181337603000,2.35960302734375,-0.969482421875,-0.28375244140625,0.149444580078125
1772790181347669200,2.369669189453125,-0.9733734130859375,-0.2803192138671875,0.1526031494140625
1772790181357735200,2.379735107421875,-0.989593505859375,-0.28057861328125,0.1627349853515625
1772790181367800000,2.389800048828125,-1.0057525634765625,-0.27886962890625,0.176239013671875
1772790181377866000,2.399865966796875,-1.020965576171875,-0.2776947021484375,0.1875457763671875
1772790181387932200,2.40993212890625,-1.0306243896484375,-0.2738037109375,0.1981658935546875
1772790181397997000,2.4199970703125,-1.0327606201171875,-0.2728729248046875,0.2110748291015625
1772790181408063200,2.430063232421875,-1.03302001953125,-0.2780609130859375,0.2246856689453125
1772790181418129000,2.44012890625,-1.0424041748046875,-0.2812042236328125,0.2392120361328125
1772790181428194000,2.450194091796875,-1.057464599609375,-0.288970947265625,0.2556610107421875
1772790181438260000,2.460260009765625,-1.075042724609375,-0.30535888671875,0.2774200439453125
1772790181448326100,2.470326171875,-1.099395751953125,-0.3121185302734375,0.2961883544921875
1772790181458391000,2.48039111328125,-1.137664794921875,-0.303497314453125,0.2916412353515625
1772790181468457000,2.49045703125,-1.242706298828125,-0.269866943359375,0.2901763916015625
1772790181478523100,2.500523193359375,-1.305755615234375,-0.2504730224609375,0.271575927734375
1772790181488588000,2.510588134765625,-1.314849853515625,-0.230133056640625,0.240386962890625
1772790181498654200,2.520654296875,-1.302032470703125,-0.163482666015625,0.204071044921875
1772790181508720000,2.53072021484375,-1.240020751953125,-0.10595703125,0.1691741943359375
1772790181518785000,2.540784912109375,-1.192657470703125,-0.0641021728515625,0.1384429931640625
1772790181528851000,2.550850830078125,-1.1390533447265625,-0.0297393798828125,0.1089630126953125
1772790181538917000,2.560917236328125,-1.0723876953125,0.0042877197265625,0.0995941162109375
1772790181548982000,2.57098193359375,-1.020843505859375,0.0033416748046875,0.080291748046875
1772790181559048200,2.581048095703125,-0.9886322021484375,-0.0074920654296875,0.0901641845703125
1772790181569113900,2.59111376953125,-0.980743408203125,-0.017791748046875,0.123046875
1772790181579179000,2.601178955078125,-0.986236572265625,-0.045562744140625,0.155059814453125
1772790181589245200,2.6112451171875,-1.0000762939453125,-0.0694427490234375,0.19085693359375
1772790181599311000,2.62131103515625,-0.9889678955078125,-0.0856781005859375,0.2213134765625
1772790181609377000,2.631376953125,-0.9707489013671875,-0.0886993408203125,0.243438720703125
1772790181619442000,2.64144189453125,-0.962921142578125,-0.090606689453125,0.26922607421875
1772790181629508000,2.651508056640625,-0.96575927734375,-0.09515380859375,0.29339599609375
1772790181639574000,2.661573974609375,-0.9749755859375,-0.094024658203125,0.3165130615234375
1772790181649639200,2.67163916015625,-0.9909515380859375,-0.0901031494140625,0.325958251953125
1772790181659705000,2.681705078125,-1.0085906982421875,-0.0816802978515625,0.3232269287109375
1772790181669771000,2.69177099609375,-1.0040283203125,-0.0745086669921875,0.31573486328125
1772790181679836200,2.701836181640625,-1.00457763671875,-0.058563232421875,0.3082275390625
1772790181689902000,2.711902099609375,-1.010955810546875,-0.0435028076171875,0.30792236328125
1772790181699968000,2.721968017578125,-1.018585205078125,-0.041961669921875,0.3104400634765625
1772790181710033200,2.732033203125,-1.032501220703125,-0.04010009765625,0.3168792724609375
1772790181720099000,2.74209912109375,-1.0502166748046875,-0.0381927490234375,0.33197021484375
1772790181730165000,2.7521650390625,-1.0685882568359375,-0.0390777587890625,0.3469390869140625
1772790181740230100,2.762230224609375,-1.0777130126953125,-0.0346221923828125,0.3539276123046875
1772790181750296000,2.772296142578125,-1.08038330078125,-0.0239105224609375,0.35211181640625
1772790181760362200,2.7823623046875,-1.084259033203125,-0.0144195556640625,0.3543243408203125
1772790181770427000,2.792427001953125,-1.077911376953125,-0.0017242431640625,0.3589630126953125
1772790181780493000,2.8024931640625,-1.080413818359375,0.014007568359375,0.35321044921875
1772790181790559000,2.81255908203125,-1.0814056396484375,0.0253753662109375,0.3440704345703125
1772790181800624000,2.8226240234375,-1.0796966552734375,0.0376434326171875,0.33404541015625
1772790181810690000,2.83268994140625,-1.0883331298828125,0.0497589111328125,0.330474853515625
1772790181820756000,2.842755859375,-1.081817626953125,0.055877685546875,0.3156280517578125
1772790181830821000,2.852821044921875,-1.0861358642578125,0.0652008056640625,0.2990875244140625
1772790181840887000,2.862886962890625,-1.0934906005859375,0.067138671875,0.2823333740234375
1772790181850953200,2.872953125,-1.0931243896484375,0.066650390625,0.27252197265625
1772790181861017900,2.883017822265625,-1.1072540283203125,0.069244384765625,0.26263427734375
1772790181871084000,2.893083984375,-1.127410888671875,0.0660247802734375,0.247802734375
1772790181881150000,2.90314990234375,-1.140350341796875,0.062469482421875,0.2303314208984375
1772790181891215000,2.913215087890625,-1.1480255126953125,0.063201904296875,0.21240234375
1772790181901281000,2.923281005859375,-1.1390380859375,0.0650177001953125,0.195709228515625
1772790181911347200,2.93334716796875,-1.1199493408203125,0.0640106201171875,0.1715850830078125
1772790181921412000,2.943412109375,-1.1015167236328125,0.060546875,0.1534881591796875
1772790181931478000,2.95347802734375,-1.08966064453125,0.0509185791015625,0.141632080078125
1772790181941544000,2.9635439453125,-1.07421875,0.034759521484375,0.135223388671875
1772790181951608600,2.973608642578125,-1.0555267333984375,0.01318359375,0.13995361328125
1772790181961674800,2.9836748046875,-1.033233642578125,-0.0088653564453125,0.1512908935546875
1772790181971740700,2.99374072265625,-1.03204345703125,-0.0283966064453125,0.1562957763671875
1772790181981805800,3.003805908203125,-1.0387420654296875,-0.050750732421875,0.149505615234375
1772790181991871700,3.013871826171875,-1.0325164794921875,-0.074249267578125,0.1379241943359375
1772790182001937700,3.023937744140625,-1.0066070556640625,-0.0892486572265625,0.1291656494140625
1772790182012002800,3.0340029296875,-0.9737548828125,-0.097625732421875,0.122650146484375
1772790182022068700,3.04406884765625,-0.9578704833984375,-0.104827880859375,0.1156768798828125
1772790182032134700,3.054134765625,-0.956756591796875,-0.1129302978515625,0.111541748046875
1772790182042199600,3.064199462890625,-0.9589691162109375,-0.12017822265625,0.1088104248046875
1772790182052265700,3.074265625,-0.958465576171875,-0.12103271484375,0.10467529296875
1772790182062331600,3.08433154296875,-0.958221435546875,-0.1179046630859375,0.0984039306640625
1772790182072396800,3.094396728515625,-0.9604034423828125,-0.11932373046875,0.082061767578125
1772790182082462700,3.104462646484375,-0.967376708984375,-0.13031005859375,0.057373046875
1772790182092529000,3.11452880859375,-0.9701995849609375,-0.1437835693359375,0.03656005859375
1772790182102593500,3.124593505859375,-0.965484619140625,-0.154083251953125,0.0224761962890625
1772790182112659700,3.13465966796875,-0.9605712890625,-0.163787841796875,0.01446533203125
1772790182122725600,3.1447255859375,-0.95550537109375,-0.1701812744140625,0.0052032470703125
1772790182132791800,3.154791748046875,-0.9564208984375,-0.1772613525390625,-0.0074462890625
1772790182142857000,3.16485693359375,-0.96368408203125,-0.1904449462890625,-0.0124359130859375
1772790182152922600,3.174922607421875,-0.9770660400390625,-0.2042999267578125,-0.0136260986328125
1772790182162988500,3.184988525390625,-0.9999237060546875,-0.21392822265625,-0.01629638671875
1772790182173053700,3.1950537109375,-1.018310546875,-0.222808837890625,-0.0187530517578125
1772790182183120000,3.205119873046875,-1.023406982421875,-0.22894287109375,-0.0290069580078125
1772790182193185800,3.215185791015625,-1.0146636962890625,-0.2331695556640625,-0.0329742431640625
1772790182203250700,3.225250732421875,-1.00701904296875,-0.2433624267578125,-0.0322113037109375
1772790182213316600,3.235316650390625,-1.00628662109375,-0.2659149169921875,-0.0416107177734375
1772790182223382800,3.2453828125,-1.0060882568359375,-0.2901153564453125,-0.0453643798828125
1772790182233447700,3.25544775390625,-1.0144500732421875,-0.3071136474609375,-0.047210693359375
1772790182243513900,3.265513916015625,-1.0265045166015625,-0.3244476318359375,-0.0488739013671875
1772790182253579500,3.27557958984375,-1.05267333984375,-0.34222412109375,-0.0535430908203125
1772790182263644700,3.285644775390625,-1.0762176513671875,-0.3608245849609375,-0.0548553466796875
1772790182273710800,3.2957109375,-1.082794189453125,-0.373992919921875,-0.0554351806640625
1772790182283776800,3.30577685546875,-1.082366943359375,-0.37554931640625,-0.0581512451171875
1772790182293842000,3.315842041015625,-1.0788726806640625,-0.3703155517578125,-0.067352294921875
1772790182303907600,3.325907470703125,-1.072601318359375,-0.366668701171875,-0.0830535888671875
1772790182313973800,3.335973876953125,-1.068328857421875,-0.3633575439453125,-0.0912933349609375
1772790182324038700,3.34603857421875,-1.0482940673828125,-0.3606719970703125,-0.107391357421875
1772790182334104800,3.356104736328125,-1.0189361572265625,-0.35321044921875,-0.1146240234375
1772790182344170800,3.366170654296875,-0.9880828857421875,-0.3465576171875,-0.1131134033203125
1772790182354235600,3.376235595703125,-0.964385986328125,-0.345947265625,-0.109100341796875
1772790182364301600,3.386301513671875,-0.939605712890625,-0.3466644287109375,-0.097625732421875
1772790182374367700,3.39636767578125,-0.9238739013671875,-0.3538360595703125,-0.0851287841796875
1772790182384433000,3.406432861328125,-0.9078826904296875,-0.358367919921875,-0.0780181884765625
1772790182394498800,3.416498779296875,-0.8782501220703125,-0.35906982421875,-0.079498291015625
1772790182404564700,3.426564697265625,-0.8582611083984375,-0.368133544921875,-0.0762176513671875
1772790182414629600,3.436629638671875,-0.855682373046875,-0.376739501953125,-0.067901611328125
1772790182424695800,3.44669580078125,-0.854583740234375,-0.384429931640625,-0.0679168701171875
1772790182434761700,3.45676171875,-0.8394317626953125,-0.3950958251953125,-0.07177734375
1772790182444827000,3.466826904296875,-0.827606201171875,-0.401519775390625,-0.070068359375
1772790182454892500,3.476892578125,-0.825408935546875,-0.4059295654296875,-0.06268310546875
1772790182464958700,3.486958740234375,-0.8318023681640625,-0.412109375,-0.05523681640625
1772790182475024000,3.49702392578125,-0.8306732177734375,-0.414581298828125,-0.048431396484375
1772790182485089800,3.50708984375,-0.82940673828125,-0.4135894775390625,-0.040618896484375
1772790182495155700,3.51715576171875,-0.8287200927734375,-0.4095306396484375,-0.03448486328125
1772790182505220600,3.527220703125,-0.8369293212890625,-0.4038543701171875,-0.028076171875
1772790182515286800,3.537286865234375,-0.853240966796875,-0.399566650390625,-0.021759033203125
1772790182525352700,3.547352783203125,-0.8693084716796875,-0.394134521484375,-0.0214996337890625
1772790182535417900,3.55741796875,-0.89306640625,-0.3881988525390625,-0.02069091796875
1772790182545483800,3.56748388671875,-0.906097412109375,-0.379364013671875,-0.027801513671875
1772790182555549700,3.5775498046875,-0.9180145263671875,-0.3699951171875,-0.036865234375
1772790182565614600,3.587614501953125,-0.929473876953125,-0.3626861572265625,-0.0429840087890625
1772790182575680800,3.5976806640625,-0.9374847412109375,-0.360321044921875,-0.0460357666015625
1772790182585746700,3.60774658203125,-0.9439544677734375,-0.361602783203125,-0.0459747314453125
1772790182595811800,3.617811767578125,-0.94970703125,-0.36688232421875,-0.0462493896484375
1772790182605877800,3.627877685546875,-0.9464111328125,-0.3732757568359375,-0.0509796142578125
1772790182615943700,3.637943603515625,-0.9355316162109375,-0.381317138671875,-0.046417236328125
1772790182626008800,3.6480087890625,-0.93365478515625,-0.3900299072265625,-0.03997802734375
1772790182636074800,3.65807470703125,-0.928436279296875,-0.401458740234375,-0.029510498046875
1772790182646141000,3.668140869140625,-0.928375244140625,-0.411468505859375,-0.001007080078125
1772790182656205600,3.67820556640625,-0.94464111328125,-0.4257354736328125,0.0236663818359375
1772790182666271700,3.688271728515625,-0.9460601806640625,-0.4361114501953125,0.043487548828125
1772790182676337700,3.698337646484375,-0.929534912109375,-0.4398956298828125,0.057159423828125
1772790182686402800,3.70840283203125,-0.919830322265625,-0.441680908203125,0.071136474609375
1772790182696468700,3.71846875,-0.925018310546875,-0.4438323974609375,0.08843994140625
1772790182706534700,3.72853466796875,-0.929351806640625,-0.4449920654296875,0.09820556640625
1772790182716599800,3.738599853515625,-0.927154541015625,-0.4388427734375,0.105194091796875
1772790182726665700,3.748665771484375,-0.92529296875,-0.4291229248046875,0.110565185546875
1772790182736731600,3.758731689453125,-0.9165191650390625,-0.4164581298828125,0.11199951171875
1772790182746796800,3.768796875,-0.9090423583984375,-0.4029693603515625,0.1137542724609375
1772790182756862700,3.77886279296875,-0.9100189208984375,-0.3925628662109375,0.1144561767578125
1772790182766928600,3.7889287109375,-0.9137420654296875,-0.38104248046875,0.1144256591796875
1772790182776993800,3.798993896484375,-0.91082763671875,-0.3694610595703125,0.115875244140625
1772790182787059700,3.809059814453125,-0.905853271484375,-0.361419677734375,0.11572265625
1772790182797126000,3.8191259765625,-0.8991546630859375,-0.356719970703125,0.1168060302734375
1772790182807191600,3.829191650390625,-0.8998565673828125,-0.3604888916015625,0.119598388671875
1772790182817256700,3.839256591796875,-0.9058685302734375,-0.362945556640625,0.1217041015625
1772790182827322600,3.849322509765625,-0.9054107666015625,-0.3609466552734375,0.1231842041015625
1772790182837388800,3.859388916015625,-0.897430419921875,-0.3628692626953125,0.1254425048828125
1772790182847454000,3.869453857421875,-0.8933563232421875,-0.3666839599609375,0.1229095458984375
1772790182857519600,3.87951953125,-0.895477294921875,-0.3727874755859375,0.1224822998046875
1772790182867585500,3.88958544921875,-0.90032958984375,-0.3794403076171875,0.1250457763671875
1772790182877650700,3.899650634765625,-0.9027252197265625,-0.3813629150390625,0.136993408203125
1772790182887716900,3.909716796875,-0.8992462158203125,-0.3827056884765625,0.1435394287109375
1772790182897782800,3.91978271484375,-0.901153564453125,-0.3868408203125,0.1519775390625
1772790182907847700,3.92984765625,-0.9143829345703125,-0.38861083984375,0.1653289794921875
1772790182917913600,3.93991357421875,-0.9300994873046875,-0.392974853515625,0.1738739013671875
1772790182927979800,3.949979736328125,-0.93939208984375,-0.3932037353515625,0.1749267578125
1772790182938044700,3.960044677734375,-0.94293212890625,-0.391845703125,0.1738739013671875
1772790182948111600,3.970111572265625,-0.9500274658203125,-0.386993408203125,0.1739501953125
1772790182958177300,3.98017724609375,-0.9639434814453125,-0.385345458984375,0.1793670654296875
1772790182968242400,3.990242431640625,-0.9863128662109375,-0.383392333984375,0.1818084716796875
1772790182978308400,4.000308349609375,-1.0097503662109375,-0.3823394775390625,0.1803436279296875
1772790182988374500,4.01037451171875,-1.0353851318359375,-0.3865814208984375,0.1801300048828125
1772790182998439400,4.020439453125,-1.047821044921875,-0.381622314453125,0.1750946044921875
1772790183008505300,4.03050537109375,-1.0559539794921875,-0.374755859375,0.171478271484375
1772790183018571300,4.0405712890625,-1.061492919921875,-0.3697509765625,0.17266845703125
1772790183028636400,4.050636474609375,-1.0603790283203125,-0.3711395263671875,0.17578125
1772790183038702600,4.06070263671875,-1.0631866455078125,-0.3707733154296875,0.1805572509765625
1772790183048768500,4.0707685546875,-1.0752716064453125,-0.365753173828125,0.1877593994140625
1772790183058833400,4.08083349609375,-1.099853515625,-0.3590850830078125,0.1930999755859375
1772790183068899300,4.0908994140625,-1.1198272705078125,-0.349517822265625,0.1966705322265625
1772790183078965500,4.100965576171875,-1.1200714111328125,-0.3301544189453125,0.1820068359375
1772790183089030400,4.111030517578125,-1.175323486328125,-0.307464599609375,0.177947998046875
1772790183099096600,4.1210966796875,-1.17236328125,-0.293121337890625,0.1630859375
1772790183109162200,4.131162353515625,-1.1399993896484375,-0.2653961181640625,0.1378631591796875
1772790183119227400,4.141227294921875,-1.1205596923828125,-0.238525390625,0.1076812744140625
1772790183129293600,4.15129345703125,-1.082611083984375,-0.2220001220703125,0.0702972412109375
1772790183139359500,4.161359375,-1.0346527099609375,-0.2124176025390625,0.04339599609375
1772790183149424600,4.171424560546875,-1.00146484375,-0.2032012939453125,0.0361328125
1772790183159490300,4.181490234375,-0.98602294921875,-0.1988983154296875,0.0467376708984375
1772790183169556500,4.191556396484375,-0.986541748046875,-0.2083740234375,0.0726776123046875
1772790183179621400,4.201621337890625,-0.9985504150390625,-0.2223052978515625,0.0929107666015625
1772790183189687600,4.2116875,-0.995880126953125,-0.224151611328125,0.1053924560546875
1772790183199753500,4.22175341796875,-0.978363037109375,-0.219818115234375,0.1072235107421875
1772790183209818400,4.231818359375,-0.957763671875,-0.2124786376953125,0.0989990234375
1772790183219884300,4.24188427734375,-0.93670654296875,-0.2008819580078125,0.0843658447265625
1772790183229950500,4.251950439453125,-0.922821044921875,-0.1978302001953125,0.0728912353515625
1772790183240015600,4.262015625,-0.9185943603515625,-0.2021942138671875,0.0657501220703125
1772790183250081500,4.27208154296875,-0.911102294921875,-0.207061767578125,0.0653076171875
1772790183260147500,4.2821474609375,-0.905670166015625,-0.215423583984375,0.06884765625
1772790183270212400,4.29221240234375,-0.9012298583984375,-0.2198028564453125,0.068389892578125
1772790183280278500,4.302278564453125,-0.894622802734375,-0.2237548828125,0.0642852783203125
1772790183290344400,4.312344482421875,-0.905975341796875,-0.229400634765625,0.0524139404296875
1772790183300409300,4.322409423828125,-0.9289093017578125,-0.2358856201171875,0.0363311767578125
1772790183310475300,4.332475341796875,-0.9529266357421875,-0.24481201171875,0.022369384765625
1772790183320541400,4.34254150390625,-0.98193359375,-0.2527313232421875,0.014007568359375
1772790183330606300,4.3526064453125,-0.998443603515625,-0.25921630859375,0.012786865234375
1772790183340672500,4.362672607421875,-1.0008392333984375,-0.2615203857421875,0.0109710693359375
1772790183350738400,4.372738525390625,-0.9955291748046875,-0.2562103271484375,0.0040283203125
1772790183360803300,4.38280322265625,-0.990264892578125,-0.250762939453125,-0.00543212890625
1772790183370869500,4.392869384765625,-0.98248291015625,-0.23541259765625,-0.0171356201171875
1772790183380935400,4.402935302734375,-0.97418212890625,-0.2259368896484375,-0.027435302734375
1772790183391000600,4.41300048828125,-0.950408935546875,-0.2266082763671875,-0.0333709716796875
1772790183401066500,4.42306640625,-0.93646240234375,-0.22998046875,-0.026580810546875
1772790183411132400,4.43313232421875,-0.9415130615234375,-0.2496795654296875,-0.009613037109375
1772790183421197300,4.443197265625,-0.9478912353515625,-0.2757110595703125,0.0025482177734375
1772790183431263500,4.453263427734375,-0.93817138671875,-0.29193115234375,0.0118560791015625
1772790183441329400,4.463329345703125,-0.9288482666015625,-0.301544189453125,0.018829345703125
1772790183451394300,4.473394287109375,-0.922393798828125,-0.31768798828125,0.0186309814453125
1772790183461460200,4.483460205078125,-0.90576171875,-0.32330322265625,0.0175018310546875
1772790183471526400,4.4935263671875,-0.89154052734375,-0.3228759765625,0.0123443603515625
1772790183481591600,4.503591552734375,-0.885894775390625,-0.33416748046875,0.0087127685546875
1772790183491657500,4.513657470703125,-0.891326904296875,-0.3412933349609375,0.011199951171875
1772790183501723600,4.5237236328125,-0.9034576416015625,-0.347076416015625,0.0126495361328125
1772790183511788300,4.533788330078125,-0.8997955322265625,-0.3520050048828125,0.014617919921875
1772790183521854500,4.5438544921875,-0.8887481689453125,-0.35321044921875,0.018463134765625
1772790183531920400,4.55392041015625,-0.8912353515625,-0.35101318359375,0.0170440673828125
1772790183541985500,4.563985595703125,-0.89361572265625,-0.3549041748046875,0.0100860595703125
1772790183552051500,4.574051513671875,-0.9045562744140625,-0.35968017578125,0.003509521484375
1772790183562117400,4.584117431640625,-0.9117279052734375,-0.367340087890625,0.0019378662109375
1772790183572182500,4.5941826171875,-0.9180450439453125,-0.3816680908203125,0.0103912353515625
1772790183582248400,4.60424853515625,-0.913787841796875,-0.395416259765625,0.0202789306640625
1772790183592314400,4.614314453125,-0.9039764404296875,-0.3980255126953125,0.029571533203125
1772790183602379300,4.624379150390625,-0.90216064453125,-0.395172119140625,0.0362396240234375
1772790183612445400,4.634445556640625,-0.9101104736328125,-0.3979339599609375,0.0422515869140625
1772790183622511400,4.644511474609375,-0.91748046875,-0.40289306640625,0.0495758056640625
1772790183632576500,4.654576416015625,-0.9142608642578125,-0.40771484375,0.0566558837890625
1772790183642642400,4.664642333984375,-0.9117889404296875,-0.4144287109375,0.0628814697265625
1772790183652708600,4.67470849609375,-0.909515380859375,-0.418365478515625,0.0663299560546875
1772790183662773200,4.684773193359375,-0.909088134765625,-0.425262451171875,0.0680999755859375
1772790183672839400,4.69483935546875,-0.907257080078125,-0.429962158203125,0.0702056884765625
1772790183682905300,4.7049052734375,-0.9066619873046875,-0.4350738525390625,0.07232666015625
1772790183692970500,4.714970458984375,-0.916473388671875,-0.4411468505859375,0.0779571533203125
1772790183703036700,4.72503662109375,-0.9326629638671875,-0.4436187744140625,0.082061767578125
1772790183713102300,4.735102294921875,-0.9445953369140625,-0.4482421875,0.0825958251953125
1772790183723167500,4.74516748046875,-0.948272705078125,-0.451019287109375,0.07855224609375
1772790183733233400,4.7552333984375,-0.95989990234375,-0.449127197265625,0.0745391845703125
1772790183743299600,4.765299560546875,-0.979766845703125,-0.450042724609375,0.0679931640625
1772790183753364200,4.7753642578125,-0.9904937744140625,-0.4507598876953125,0.0670166015625
1772790183763430400,4.785430419921875,-0.992919921875,-0.4464263916015625,0.0760345458984375
1772790183773496300,4.795496337890625,-0.9993438720703125,-0.439056396484375,0.0825042724609375
1772790183783561500,4.8055615234375,-1.0097808837890625,-0.4355621337890625,0.0836639404296875
1772790183793627400,4.81562744140625,-1.0275115966796875,-0.430816650390625,0.0867462158203125
1772790183803693600,4.825693603515625,-1.0274658203125,-0.42401123046875,0.08837890625
1772790183813758500,4.835758544921875,-1.015777587890625,-0.4219970703125,0.08740234375
1772790183823824400,4.845824462890625,-1.0211029052734375,-0.424468994140625,0.0788726806640625
1772790183833890600,4.855890625,-1.023773193359375,-0.435699462890625,0.0921783447265625
1772790183843955500,4.86595556640625,-1.038848876953125,-0.4451751708984375,0.1016082763671875
1772790183854021600,4.876021728515625,-1.051483154296875,-0.4449462890625,0.1017913818359375
1772790183864087300,4.88608740234375,-1.0674285888671875,-0.4369354248046875,0.0884552001953125
1772790183874152400,4.89615234375,-1.0793609619140625,-0.415771484375,0.07244873046875
1772790183884218400,4.90621826171875,-1.0819854736328125,-0.3909149169921875,0.062530517578125
1772790183894284500,4.916284423828125,-1.0733795166015625,-0.3681640625,0.0406951904296875
1772790183904349400,4.926349365234375,-1.05291748046875,-0.346710205078125,0.0075225830078125
1772790183914415400,4.936415283203125,-1.023162841796875,-0.3249969482421875,-0.0187835693359375
1772790183924481300,4.946481201171875,-1.00238037109375,-0.3098907470703125,-0.02508544921875
1772790183934546400,4.95654638671875,-0.9710235595703125,-0.3058013916015625,-0.0094757080078125
1772790183944612600,4.966612548828125,-0.947509765625,-0.3082122802734375,0.014190673828125
1772790183954678500,4.976678466796875,-0.9381561279296875,-0.3120880126953125,0.0359344482421875
1772790183964744400,4.986744384765625,-0.9292144775390625,-0.321197509765625,0.0474853515625
1772790183974809300,4.996809326171875,-0.9159698486328125,-0.3294219970703125,0.0537567138671875
1772790183984875500,5.00687548828125,-0.906005859375,-0.3366546630859375,0.052459716796875
1772790183994940400,5.0169404296875,-0.89898681640625,-0.34417724609375,0.04473876953125
1772790184005006600,5.027006591796875,-0.9018096923828125,-0.3446807861328125,0.03717041015625
1772790184015072500,5.037072509765625,-0.902130126953125,-0.3358154296875,0.02252197265625
1772790184025138400,5.047138427734375,-0.904144287109375,-0.3265838623046875,0.0024261474609375
1772790184035203600,5.05720361328125,-0.9019012451171875,-0.31988525390625,-0.0153350830078125
1772790184045269500,5.06726953125,-0.9046630859375,-0.3129730224609375,-0.0280609130859375
1772790184055334700,5.077334716796875,-0.91802978515625,-0.3116607666015625,-0.035400390625
1772790184065400300,5.087400390625,-0.9356536865234375,-0.316314697265625,-0.0379638671875
1772790184075466500,5.097466552734375,-0.9388885498046875,-0.3220367431640625,-0.0377197265625
1772790184085532400,5.107532470703125,-0.923797607421875,-0.3291778564453125,-0.0344085693359375
1772790184095597600,5.11759765625,-0.9218902587890625,-0.3359832763671875,-0.0230560302734375
1772790184105663500,5.12766357421875,-0.909698486328125,-0.33892822265625,-0.012237548828125
1772790184115729700,5.137729736328125,-0.8945770263671875,-0.344512939453125,0.0002899169921875
1772790184125794300,5.147794189453125,-0.8996734619140625,-0.3482513427734375,0.01104736328125
1772790184135860500,5.157860595703125,-0.893310546875,-0.3477935791015625,0.0233306884765625
1772790184145926400,5.167926513671875,-0.8786468505859375,-0.3495635986328125,0.0387725830078125
1772790184155991600,5.177991455078125,-0.8710174560546875,-0.3611602783203125,0.0548248291015625
1772790184166057500,5.188057373046875,-0.87725830078125,-0.36578369140625,0.0690155029296875
1772790184176123400,5.198123291015625,-0.85858154296875,-0.3695831298828125,0.0757293701171875
1772790184186188500,5.2081884765625,-0.8379974365234375,-0.373931884765625,0.0745697021484375
1772790184196254500,5.21825439453125,-0.8316497802734375,-0.379486083984375,0.076141357421875
1772790184206320600,5.228320556640625,-0.8402099609375,-0.3877716064453125,0.0830841064453125
1772790184216385300,5.23838525390625,-0.8403472900390625,-0.394287109375,0.08721923828125
1772790184226451500,5.248451416015625,-0.84661865234375,-0.399078369140625,0.0880279541015625
1772790184236517400,5.258517333984375,-0.8528594970703125,-0.401336669921875,0.0816650390625
1772790184246582500,5.26858251953125,-0.84454345703125,-0.4028472900390625,0.0695648193359375
1772790184256648400,5.2786484375,-0.8362274169921875,-0.4001312255859375,0.06036376953125
1772790184266714600,5.288714599609375,-0.8388824462890625,-0.4017486572265625,0.0577850341796875
1772790184276779500,5.298779541015625,-0.84014892578125,-0.4067535400390625,0.0473480224609375
1772790184286845400,5.308845458984375,-0.835479736328125,-0.4117889404296875,0.051483154296875
1772790184296911400,5.318911376953125,-0.8422698974609375,-0.4147186279296875,0.0500335693359375
1772790184306976500,5.3289765625,-0.8400115966796875,-0.4182891845703125,0.0470123291015625
1772790184317042700,5.339042724609375,-0.827972412109375,-0.4176788330078125,0.04449462890625
1772790184327108400,5.3491083984375,-0.8313446044921875,-0.416839599609375,0.0429840087890625
1772790184337173500,5.359173583984375,-0.8415069580078125,-0.4242401123046875,0.0492706298828125
1772790184347239400,5.369239501953125,-0.8447418212890625,-0.4329833984375,0.061431884765625
1772790184357305600,5.3793056640625,-0.843841552734375,-0.436981201171875,0.069793701171875
1772790184367370200,5.389370361328125,-0.8378143310546875,-0.43756103515625,0.063232421875
1772790184377436400,5.3994365234375,-0.8356475830078125,-0.43695068359375,0.059844970703125
1772790184387502300,5.40950244140625,-0.850982666015625,-0.4308929443359375,0.042388916015625
1772790184397567500,5.4195673828125,-0.8665008544921875,-0.4350433349609375,0.0716094970703125
1772790184407633700,5.429633544921875,-0.8720550537109375,-0.4557647705078125,0.082794189453125
1772790184417699600,5.439699462890625,-0.880462646484375,-0.4628448486328125,0.0666046142578125
1772790184427764500,5.449764404296875,-0.894744873046875,-0.4658203125,0.074920654296875
1772790184437830400,5.459830322265625,-0.9108734130859375,-0.47381591796875,0.0549774169921875
1772790184447896600,5.469896484375,-0.9173431396484375,-0.4778289794921875,0.0494232177734375
1772790184457961500,5.47996142578125,-0.920806884765625,-0.47283935546875,0.0565338134765625
1772790184468027600,5.490027587890625,-0.9454193115234375,-0.4737701416015625,0.0625762939453125
1772790184478093300,5.50009326171875,-0.9678497314453125,-0.4701995849609375,0.06353759765625
1772790184488158500,5.510158447265625,-0.975341796875,-0.46295166015625,0.0652313232421875
1772790184498224400,5.520224365234375,-0.9849395751953125,-0.45220947265625,0.0624237060546875
1772790184508290600,5.53029052734375,-0.9962921142578125,-0.440826416015625,0.057891845703125
1772790184518355500,5.54035546875,-1.0115203857421875,-0.43896484375,0.055999755859375
1772790184528421400,5.55042138671875,-1.0319976806640625,-0.440032958984375,0.06304931640625
1772790184538487600,5.560487548828125,-1.036773681640625,-0.4470062255859375,0.077911376953125
1772790184548552400,5.570552490234375,-1.0465545654296875,-0.453857421875,0.0869293212890625
1772790184558618600,5.58061865234375,-1.04974365234375,-0.459228515625,0.101409912109375
1772790184568684500,5.5906845703125,-1.02264404296875,-0.417816162109375,0.1376190185546875
1772790184578749400,5.60074951171875,-1.07305908203125,-0.43792724609375,0.1105804443359375
1772790184588815400,5.6108154296875,-1.186767578125,-0.527130126953125,0.08001708984375
1772790184598881500,5.620881591796875,-1.1743621826171875,-0.45849609375,0.161102294921875
1772790184608946700,5.63094677734375,-1.12139892578125,-0.4032135009765625,0.133331298828125
1772790184619012600,5.6410126953125,-1.0670166015625,-0.4029693603515625,0.0718994140625
1772790184629078300,5.651078369140625,-1.0924835205078125,-0.3394775390625,0.0536346435546875
1772790184639143400,5.661143310546875,-1.08612060546875,-0.2884368896484375,0.0731201171875
1772790184649209600,5.671209716796875,-1.037109375,-0.273895263671875,0.0778045654296875
1772790184659275500,5.681275634765625,-0.9824066162109375,-0.2875213623046875,0.06207275390625
1772790184669340400,5.69134033203125,-0.970123291015625,-0.2793121337890625,0.047821044921875
1772790184679406300,5.70140625,-0.9469451904296875,-0.26922607421875,0.067413330078125
1772790184689472500,5.711472412109375,-0.93023681640625,-0.275482177734375,0.088836669921875
1772790184699537400,5.721537353515625,-0.927398681640625,-0.2833251953125,0.103912353515625
1772790184709603600,5.731603515625,-0.9101715087890625,-0.285430908203125,0.1128082275390625
1772790184719669500,5.74166943359375,-0.87371826171875,-0.2882232666015625,0.12322998046875
1772790184729734400,5.751734375,-0.8407745361328125,-0.288177490234375,0.130859375
1772790184739800600,5.761800537109375,-0.813934326171875,-0.2860107421875,0.1352996826171875
1772790184749866500,5.771866455078125,-0.802886962890625,-0.290924072265625,0.1459197998046875
1772790184759931600,5.781931640625,-0.8070831298828125,-0.2993011474609375,0.1546783447265625
1772790184769997300,5.791997314453125,-0.8087921142578125,-0.3080291748046875,0.1618499755859375
1772790184780063500,5.8020634765625,-0.7996063232421875,-0.3128662109375,0.1693572998046875
1772790184790128400,5.81212841796875,-0.8020477294921875,-0.319488525390625,0.1698150634765625
1772790184800194600,5.822194580078125,-0.8175811767578125,-0.3289642333984375,0.1702117919921875
1772790184810260500,5.832260498046875,-0.8314208984375,-0.3389129638671875,0.1701812744140625
1772790184820325400,5.842325439453125,-0.836273193359375,-0.34405517578125,0.172637939453125
1772790184830391300,5.852391357421875,-0.8474578857421875,-0.343994140625,0.1749267578125
1772790184840457500,5.86245751953125,-0.870819091796875,-0.3414459228515625,0.1715087890625
1772790184850522600,5.872522705078125,-0.895416259765625,-0.33056640625,0.1592559814453125
1772790184860588500,5.882588623046875,-0.9143524169921875,-0.30755615234375,0.139129638671875
1772790184870654500,5.892654541015625,-0.93829345703125,-0.28460693359375,0.1151275634765625
1772790184880719400,5.90271923828125,-0.951446533203125,-0.2597808837890625,0.091033935546875
1772790184890785500,5.91278564453125,-0.95318603515625,-0.2406768798828125,0.07403564453125
1772790184900851500,5.9228515625,-0.95269775390625,-0.235382080078125,0.062255859375
1772790184910916600,5.93291650390625,-0.94537353515625,-0.2358551025390625,0.0554351806640625
1772790184920982300,5.942982177734375,-0.922607421875,-0.230682373046875,0.056121826171875
1772790184931048400,5.95304833984375,-0.9045867919921875,-0.23052978515625,0.0547332763671875
1772790184941113300,5.96311328125,-0.909332275390625,-0.2443695068359375,0.0523223876953125
1772790184951179500,5.973179443359375,-0.92034912109375,-0.2653656005859375,0.058441162109375
1772790184961245400,5.983245361328125,-0.918243408203125,-0.2810821533203125,0.071990966796875
1772790184971310300,5.993310302734375,-0.913482666015625,-0.2951202392578125,0.081329345703125
1772790184981376500,6.00337646484375,-0.9205474853515625,-0.315643310546875,0.0926666259765625
1772790184991442400,6.0134423828125,-0.938568115234375,-0.3320770263671875,0.1047515869140625
1772790185001507600,6.023507568359375,-0.941009521484375,-0.33709716796875,0.1067657470703125
1772790185011573500,6.033573486328125,-0.930023193359375,-0.331634521484375,0.0993194580078125
1772790185021639400,6.043639404296875,-0.929046630859375,-0.33209228515625,0.09478759765625
1772790185031704300,6.053704345703125,-0.9309844970703125,-0.3337860107421875,0.08697509765625
1772790185041770500,6.0637705078125,-0.9287109375,-0.3357086181640625,0.07470703125
1772790185051836400,6.07383642578125,-0.9258270263671875,-0.3379669189453125,0.06622314453125
1772790185061901300,6.0839013671875,-0.9303436279296875,-0.3409271240234375,0.0579833984375
1772790185071967500,6.093967529296875,-0.9469451904296875,-0.352325439453125,0.05426025390625
1772790185082033400,6.104033447265625,-0.956146240234375,-0.3616790771484375,0.045654296875
1772790185092098600,6.1140986328125,-0.9549560546875,-0.3731842041015625,0.038818359375
1772790185102164500,6.12416455078125,-0.95330810546875,-0.392059326171875,0.0319976806640625
1772790185112230700,6.134230712890625,-0.952911376953125,-0.403564453125,0.0303955078125
1772790185122295300,6.14429541015625,-0.95654296875,-0.411865234375,0.03399658203125
1772790185132361500,6.154361572265625,-0.953765869140625,-0.41754150390625,0.0366668701171875
1772790185142427400,6.164427490234375,-0.9521942138671875,-0.4262237548828125,0.0372772216796875
1772790185152492500,6.174492431640625,-0.9595794677734375,-0.43597412109375,0.0414581298828125
1772790185162558200,6.18455810546875,-0.971893310546875,-0.4443817138671875,0.0425567626953125
1772790185172624400,6.194624267578125,-0.9667816162109375,-0.4450225830078125,0.042938232421875
1772790185182689500,6.204689453125,-0.9523468017578125,-0.4442596435546875,0.0424346923828125
1772790185192755500,6.21475537109375,-0.944183349609375,-0.437744140625,0.0443878173828125
1772790185202820600,6.224820556640625,-0.939605712890625,-0.4280548095703125,0.0467376708984375
1772790185212886300,6.23488623046875,-0.938873291015625,-0.425262451171875,0.053253173828125
1772790185222952400,6.244952392578125,-0.9445953369140625,-0.425018310546875,0.0642547607421875
1772790185233017300,6.255017333984375,-0.9527587890625,-0.4227447509765625,0.0735015869140625
1772790185243083500,6.26508349609375,-0.965576171875,-0.4218902587890625,0.082061767578125
1772790185253149400,6.2751494140625,-0.975830078125,-0.41973876953125,0.086212158203125
1772790185263214300,6.28521435546875,-0.9738922119140625,-0.4174957275390625,0.0884246826171875
1772790185273280300,6.2952802734375,-0.9684295654296875,-0.4134521484375,0.0893096923828125
1772790185283346400,6.305346435546875,-0.9691314697265625,-0.4156494140625,0.0965728759765625
1772790185293411600,6.31541162109375,-0.989715576171875,-0.4245758056640625,0.1096954345703125
1772790185303477500,6.3254775390625,-1.0187835693359375,-0.436248779296875,0.1219329833984375
1772790185313543400,6.33554345703125,-1.0395965576171875,-0.446380615234375,0.1321563720703125
1772790185323608300,6.3456083984375,-1.048858642578125,-0.451141357421875,0.13671875
1772790185333674500,6.355674560546875,-1.055694580078125,-0.4391632080078125,0.127716064453125
1772790185343740400,6.365740478515625,-1.07464599609375,-0.412750244140625,0.10650634765625
1772790185353805600,6.3758056640625,-1.108245849609375,-0.3834991455078125,0.0835418701171875
1772790185363871200,6.385871337890625,-1.1434326171875,-0.3614654541015625,0.06292724609375
1772790185373937400,6.3959375,-1.1676788330078125,-0.3412933349609375,0.0424346923828125
1772790185384002600,6.40600244140625,-1.1641693115234375,-0.3192596435546875,0.017791748046875
1772790185394068500,6.416068359375,-1.1218109130859375,-0.29437255859375,-0.0139617919921875
1772790185404134400,6.426134521484375,-1.0769500732421875,-0.2647857666015625,-0.0395050048828125
1772790185414199300,6.43619921875,-1.0395965576171875,-0.245941162109375,-0.0529632568359375
1772790185424265500,6.446265380859375,-0.97283935546875,-0.238433837890625,-0.0627593994140625
1772790185434331400,6.456331298828125,-0.9334259033203125,-0.2310791015625,-0.0516357421875
1772790185444396500,6.466396484375,-0.9201507568359375,-0.235198974609375,-0.0321807861328125
1772790185454462500,6.47646240234375,-0.931671142578125,-0.259307861328125,-0.0208282470703125
1772790185464528400,6.4865283203125,-0.9440155029296875,-0.2770233154296875,-0.0009765625
1772790185474593300,6.49659326171875,-0.963592529296875,-0.2824859619140625,0.012481689453125
1772790185484659500,6.506659423828125,-0.949920654296875,-0.2728729248046875,0.009002685546875
1772790185494725400,6.516725341796875,-0.9150848388671875,-0.2641143798828125,0.0056304931640625
1772790185504790500,6.52679052734375,-0.9213409423828125,-0.2589874267578125,-0.0019378662109375
1772790185514856400,6.5368564453125,-0.946624755859375,-0.2675323486328125,-0.0055389404296875
1772790185524922400,6.54692236328125,-0.9524078369140625,-0.2788848876953125,-0.004547119140625
1772790185534987500,6.556987548828125,-0.9430694580078125,-0.274749755859375,-0.002838134765625
1772790185545053400,6.567053466796875,-0.92742919921875,-0.2635955810546875,-0.0093994140625
1772790185555119600,6.57711962890625,-0.9192352294921875,-0.253387451171875,-0.0262451171875
1772790185565184300,6.587184326171875,-0.914215087890625,-0.2454833984375,-0.0375213623046875
1772790185575250400,6.59725048828125,-0.9093170166015625,-0.24493408203125,-0.0399322509765625
1772790185585316400,6.60731640625,-0.911041259765625,-0.24932861328125,-0.035858154296875
1772790185595381500,6.617381591796875,-0.9164886474609375,-0.2557220458984375,-0.0248870849609375
1772790185605447400,6.627447509765625,-0.9183807373046875,-0.263214111328125,-0.0155029296875
1772790185615513300,6.637513427734375,-0.909393310546875,-0.273895263671875,-0.0051116943359375
1772790185625578500,6.64757861328125,-0.9014892578125,-0.2825469970703125,0.005340576171875
1772790185635644400,6.65764453125,-0.8993072509765625,-0.287353515625,0.0121612548828125
1772790185645710600,6.667710693359375,-0.8951568603515625,-0.2949676513671875,0.0197601318359375
1772790185655775500,6.677775390625,-0.888092041015625,-0.3092498779296875,0.03369140625
1772790185665841400,6.68784130859375,-0.8796234130859375,-0.3239288330078125,0.0559539794921875
1772790185675907300,6.6979072265625,-0.8732147216796875,-0.3323822021484375,0.073944091796875
1772790185685972500,6.707972412109375,-0.85443115234375,-0.3368682861328125,0.0810394287109375
1772790185696038400,6.718038330078125,-0.8397216796875,-0.3404388427734375,0.0828704833984375
1772790185706104600,6.7281044921875,-0.854461669921875,-0.34423828125,0.08734130859375
1772790185716169500,6.73816943359375,-0.8792572021484375,-0.3541412353515625,0.0931396484375
1772790185726235400,6.7482353515625,-0.89117431640625,-0.3616485595703125,0.0970001220703125
1772790185736301300,6.75830126953125,-0.893524169921875,-0.3631591796875,0.100311279296875
1772790185746366500,6.768366455078125,-0.909759521484375,-0.3658599853515625,0.099090576171875
1772790185756432600,6.7784326171875,-0.930419921875,-0.36456298828125,0.0920562744140625
1772790185766498300,6.788498291015625,-0.9318084716796875,-0.3529815673828125,0.0694122314453125
1772790185776563500,6.7985634765625,-0.92730712890625,-0.3406524658203125,0.044158935546875
1772790185786629400,6.80862939453125,-0.9311065673828125,-0.328338623046875,0.033233642578125
1772790185796695600,6.818695556640625,-0.933319091796875,-0.32037353515625,0.029510498046875
1772790185806760400,6.828760498046875,-0.93701171875,-0.316864013671875,0.027374267578125
1772790185816826400,6.838826416015625,-0.940216064453125,-0.315338134765625,0.0299835205078125
1772790185826892300,6.848892333984375,-0.9413604736328125,-0.31756591796875,0.033050537109375
1772790185836957400,6.85895751953125,-0.93634033203125,-0.3184356689453125,0.0292510986328125
1772790185847023400,6.8690234375,-0.92547607421875,-0.32049560546875,0.0244140625
1772790185857089500,6.879089599609375,-0.9214019775390625,-0.32611083984375,0.02557373046875
1772790185867154400,6.889154541015625,-0.9271240234375,-0.3390960693359375,0.0336761474609375
1772790185877220400,6.899220458984375,-0.9325103759765625,-0.35064697265625,0.039215087890625
1772790185887286500,6.90928662109375,-0.9416046142578125,-0.35858154296875,0.033233642578125
1772790185897351400,6.919351318359375,-0.9491119384765625,-0.3656005859375,0.0251922607421875
1772790185907417600,6.92941748046875,-0.9445953369140625,-0.3640289306640625,0.0195465087890625
1772790185917483300,6.939483154296875,-0.940460205078125,-0.3623504638671875,0.009033203125
1772790185927548400,6.94954833984375,-0.9427032470703125,-0.36669921875,0.0038604736328125
1772790185937614300,6.9596142578125,-0.9551849365234375,-0.3678436279296875,0.0015869140625
1772790185947680000,6.969679931640625,-0.9696044921875,-0.3716583251953125,0.0014190673828125
1772790185957745200,6.9797451171875,-0.9741668701171875,-0.37274169921875,0.0030975341796875
1772790185967811000,6.98981103515625,-0.97088623046875,-0.3690185546875,0.0038909912109375
1772790185977877200,6.999877197265625,-0.977813720703125,-0.3717803955078125,0.002227783203125
1772790185987942000,7.00994189453125,-0.9901123046875,-0.3726806640625,0.002777099609375
1772790185998008000,7.020008056640625,-0.994049072265625,-0.36981201171875,0.00244140625
1772790186008074000,7.030073974609375,-0.9829864501953125,-0.36859130859375,0.0052032470703125
1772790186018139100,7.04013916015625,-0.982696533203125,-0.36810302734375,0.013427734375
1772790186028205000,7.050205078125,-0.998565673828125,-0.3701171875,0.0179443359375
1772790186038271000,7.06027099609375,-1.0076141357421875,-0.3733978271484375,0.017486572265625
1772790186048336100,7.070336181640625,-1.00836181640625,-0.37823486328125,0.01702880859375
1772790186058402000,7.080402099609375,-1.017303466796875,-0.3848724365234375,0.022735595703125
1772790186068468000,7.090468017578125,-1.027862548828125,-0.3914031982421875,0.0328826904296875
1772790186078533000,7.100533203125,-1.0275421142578125,-0.4002227783203125,0.040435791015625
1772790186088599000,7.11059912109375,-1.031219482421875,-0.407257080078125,0.047332763671875
1772790186098665000,7.1206650390625,-1.053070068359375,-0.4155426025390625,0.0563507080078125
1772790186108730000,7.130730224609375,-1.0830078125,-0.418060302734375,0.06402587890625
1772790186118796000,7.140796142578125,-1.0985107421875,-0.400543212890625,0.0644378662109375
1772790186128862200,7.1508623046875,-1.117095947265625,-0.3853607177734375,0.04522705078125
1772790186138927000,7.160927001953125,-1.1408233642578125,-0.3620452880859375,0.034698486328125
1772790186148993000,7.170992919921875,-1.1660919189453125,-0.3296966552734375,0.03021240234375
1772790186159058200,7.18105810546875,-1.168701171875,-0.2935791015625,0.022186279296875
1772790186169124000,7.1911240234375,-1.1442718505859375,-0.2583160400390625,0.015289306640625
1772790186179190300,7.201190185546875,-1.107818603515625,-0.2324066162109375,0.0127410888671875
1772790186189255000,7.2112548828125,-1.074676513671875,-0.2113800048828125,0.0030670166015625
1772790186199321000,7.221321044921875,-1.0558929443359375,-0.1905364990234375,-0.0172271728515625
1772790186209387000,7.231386962890625,-1.026092529296875,-0.1677093505859375,-0.0227813720703125
1772790186219452200,7.2414521484375,-1.0087127685546875,-0.1612548828125,-0.030059814453125
1772790186229518000,7.25151806640625,-0.9948272705078125,-0.1610565185546875,-0.0200347900390625
1772790186239584000,7.261583984375,-0.991851806640625,-0.1640167236328125,0.0045166015625
1772790186249649200,7.271649169921875,-0.991943359375,-0.1727447509765625,0.0238494873046875
1772790186259715000,7.281715087890625,-0.9674224853515625,-0.17462158203125,0.0269927978515625
1772790186269781000,7.291781005859375,-0.9204559326171875,-0.1756591796875,0.026336669921875
1772790186279846000,7.301845947265625,-0.887176513671875,-0.179840087890625,0.0242156982421875
1772790186289912000,7.311912109375,-0.8751678466796875,-0.1830596923828125,0.029937744140625
1772790186299978000,7.32197802734375,-0.8799285888671875,-0.1971588134765625,0.0359344482421875
1772790186310043100,7.332043212890625,-0.8942718505859375,-0.210968017578125,0.0412445068359375
1772790186320109000,7.342109130859375,-0.8981475830078125,-0.2227935791015625,0.04632568359375
1772790186330175200,7.35217529296875,-0.9137420654296875,-0.23077392578125,0.0395050048828125
1772790186340240100,7.362240234375,-0.9197998046875,-0.23553466796875,0.0310211181640625
1772790186350306000,7.37230615234375,-0.9354705810546875,-0.2351531982421875,0.0176239013671875
1772790186360372000,7.3823720703125,-0.9582061767578125,-0.2342681884765625,0.0052337646484375
1772790186370437000,7.39243701171875,-1.004241943359375,-0.2361907958984375,-0.0058441162109375
1772790186380503300,7.40250341796875,-1.0447235107421875,-0.232696533203125,-0.01861572265625
1772790186390569000,7.41256884765625,-1.0540924072265625,-0.214935302734375,-0.03485107421875
1772790186400634000,7.422634033203125,-1.0521392822265625,-0.2058563232421875,-0.052947998046875
1772790186410700000,7.432699951171875,-1.0410308837890625,-0.20111083984375,-0.0693817138671875
1772790186420766200,7.44276611328125,-1.0212249755859375,-0.18768310546875,-0.08868408203125
1772790186430830800,7.452830810546875,-0.9909515380859375,-0.1782379150390625,-0.1084747314453125
1772790186440897000,7.46289697265625,-0.9609527587890625,-0.1751556396484375,-0.1194000244140625
1772790186450963000,7.472962890625,-0.947784423828125,-0.18212890625,-0.1174774169921875
1772790186461028000,7.483028076171875,-0.9519805908203125,-0.202239990234375,-0.093292236328125
1772790186471094000,7.493093994140625,-0.9551544189453125,-0.217681884765625,-0.0732421875
1772790186481160200,7.50316015625,-0.925567626953125,-0.2383270263671875,-0.0552520751953125
1772790186491225000,7.51322509765625,-0.8944549560546875,-0.261688232421875,-0.0338134765625
1772790186501291000,7.523291015625,-0.8827667236328125,-0.281097412109375,-0.0126953125
1772790186511357200,7.533357177734375,-0.8800506591796875,-0.29656982421875,0.000213623046875
1772790186521422000,7.543422119140625,-0.8777923583984375,-0.3051300048828125,0.007110595703125
1772790186531488000,7.553488037109375,-0.8808135986328125,-0.31024169921875,0.0175933837890625
1772790186541553000,7.563552978515625,-0.8926544189453125,-0.30950927734375,0.0201416015625
1772790186551619000,7.573619140625,-0.905670166015625,-0.3063201904296875,0.021270751953125
1772790186561684200,7.583684326171875,-0.907958984375,-0.2988433837890625,0.01910400390625
1772790186571750100,7.593750244140625,-0.9124298095703125,-0.2849884033203125,0.0165863037109375
1772790186581816000,7.603816162109375,-0.9210205078125,-0.27227783203125,0.00848388671875
1772790186591881000,7.613880859375,-0.9222412109375,-0.2605743408203125,-0.005035400390625
1772790186601947100,7.623947021484375,-0.92327880859375,-0.2478790283203125,-0.0139617919921875
1772790186612013000,7.634012939453125,-0.9446563720703125,-0.2370147705078125,-0.014892578125
1772790186622078000,7.644077880859375,-0.959930419921875,-0.2365570068359375,-0.0161590576171875
1772790186632144000,7.654143798828125,-0.950469970703125,-0.238006591796875,-0.014068603515625
1772790186642210000,7.6642099609375,-0.943267822265625,-0.2324676513671875,0.0035858154296875
1772790186652275200,7.674275146484375,-0.9530487060546875,-0.2336273193359375,0.026092529296875
1772790186662341000,7.684341064453125,-0.96917724609375,-0.2356414794921875,0.0363006591796875
1772790186672407000,7.694406982421875,-0.9733428955078125,-0.2346038818359375,0.0382537841796875
1772790186682472000,7.704471923828125,-0.9665985107421875,-0.2290802001953125,0.04266357421875
1772790186692538000,7.7145380859375,-0.9644012451171875,-0.2222747802734375,0.05523681640625
1772790186702604000,7.72460400390625,-0.964691162109375,-0.2180633544921875,0.06756591796875
1772790186712669200,7.734669189453125,-0.955780029296875,-0.2127532958984375,0.0782928466796875
1772790186722735000,7.744735107421875,-0.9596710205078125,-0.2085418701171875,0.0845947265625
1772790186732801000,7.754801025390625,-0.968292236328125,-0.204315185546875,0.0900421142578125
1772790186742866000,7.764865966796875,-0.9766845703125,-0.19903564453125,0.0946044921875
1772790186752932000,7.77493212890625,-0.99359130859375,-0.191253662109375,0.09356689453125
1772790186762998000,7.784998046875,-0.9948883056640625,-0.190338134765625,0.092803955078125
1772790186773063000,7.79506298828125,-1.00677490234375,-0.1937713623046875,0.0930328369140625
1772790186783129000,7.805129150390625,-1.0143280029296875,-0.1944122314453125,0.0896453857421875
1772790186793195000,7.815195068359375,-1.0240631103515625,-0.20367431640625,0.0898895263671875
1772790186803260200,7.82526025390625,-1.04327392578125,-0.2129974365234375,0.0970306396484375
1772790186813326000,7.835326171875,-1.043426513671875,-0.2202606201171875,0.1082305908203125
1772790186823392300,7.845392333984375,-1.0405120849609375,-0.229522705078125,0.118621826171875
1772790186833457000,7.855456787109375,-1.057830810546875,-0.232757568359375,0.12420654296875
1772790186843523000,7.865523193359375,-1.081878662109375,-0.230987548828125,0.12237548828125
1772790186853589000,7.875589111328125,-1.1032257080078125,-0.2217559814453125,0.1119842529296875
1772790186863654100,7.885654052734375,-1.1086273193359375,-0.2052459716796875,0.0973052978515625
1772790186873720000,7.895719970703125,-1.1031341552734375,-0.18670654296875,0.084564208984375
1772790186883786000,7.905785888671875,-1.0985107421875,-0.1660003662109375,0.0732421875
1772790186893851100,7.91585107421875,-1.097198486328125,-0.1494140625,0.0555419921875
1772790186903917000,7.9259169921875,-1.0860595703125,-0.1377410888671875,0.043060302734375
1772790186913983200,7.935983154296875,-1.0883941650390625,-0.122467041015625,0.03448486328125
1772790186924048000,7.9460478515625,-1.0793914794921875,-0.1079864501953125,0.0213775634765625
1772790186934114000,7.956114013671875,-1.0659637451171875,-0.0993499755859375,0.00970458984375
1772790186944180000,7.966179931640625,-1.05328369140625,-0.089691162109375,0.0063934326171875
1772790186954245400,7.976245361328125,-1.036102294921875,-0.0872650146484375,0.0021820068359375
1772790186964311300,7.986311279296875,-1.00982666015625,-0.090362548828125,0.008392333984375
1772790186974377500,7.99637744140625,-0.9898223876953125,-0.092559814453125,0.018096923828125
1772790186984442000,8.006442138671876,-0.973480224609375,-0.0957489013671875,0.027313232421875
1772790186994508300,8.01650830078125,-0.9575042724609375,-0.1008148193359375,0.0361175537109375
1772790187004574200,8.02657421875,-0.94586181640625,-0.108123779296875,0.040130615234375
1772790187014639400,8.036639404296874,-0.934539794921875,-0.1123809814453125,0.0446624755859375
1772790187024705500,8.04670556640625,-0.9266204833984375,-0.1195526123046875,0.0493316650390625
1772790187034771200,8.056771240234376,-0.9320068359375,-0.13134765625,0.0560302734375
1772790187044836400,8.06683642578125,-0.9532012939453125,-0.1431884765625,0.056060791015625
1772790187054902300,8.07690234375,-0.9732513427734375,-0.1583709716796875,0.0453643798828125
1772790187064968400,8.086968505859375,-0.9856414794921875,-0.153900146484375,0.030914306640625
1772790187075033300,8.097033447265625,-0.9976806640625,-0.1385955810546875,0.008270263671875
1772790187085099300,8.107099365234374,-1.0084228515625,-0.1320343017578125,-0.0139923095703125
1772790187095165200,8.117165283203125,-1.029571533203125,-0.1240234375,-0.0296630859375
1772790187105230300,8.127230224609375,-1.04229736328125,-0.1183929443359375,-0.041290283203125
1772790187115296300,8.137296142578125,-1.0583038330078125,-0.1216583251953125,-0.0471343994140625
1772790187125362400,8.147362548828125,-1.0801239013671875,-0.12042236328125,-0.058990478515625
1772790187135428400,8.157428466796874,-1.086029052734375,-0.11285400390625,-0.0806732177734375
1772790187145493200,8.1674931640625,-1.0788726806640625,-0.108184814453125,-0.10186767578125
1772790187155559400,8.177559326171876,-1.07269287109375,-0.109649658203125,-0.1226043701171875
1772790187165625300,8.187625244140625,-1.07421875,-0.118377685546875,-0.13299560546875
1772790187175690500,8.1976904296875,-1.0804901123046875,-0.1274871826171875,-0.129974365234375
1772790187185756200,8.207756103515624,-1.0858917236328125,-0.137969970703125,-0.1217498779296875
1772790187195822300,8.217822265625,-1.087615966796875,-0.145477294921875,-0.10986328125
1772790187205887200,8.22788720703125,-1.0787200927734375,-0.15130615234375,-0.102783203125
1772790187215953400,8.237953369140625,-1.0677032470703125,-0.1631317138671875,-0.0997161865234375
1772790187226019300,8.248019287109376,-1.0615234375,-0.173583984375,-0.0922088623046875
1772790187236084200,8.258084228515624,-1.051300048828125,-0.17816162109375,-0.0811920166015625
1772790187246150100,8.268150146484375,-1.034393310546875,-0.17559814453125,-0.0714263916015625
1772790187256216300,8.27821630859375,-1.01904296875,-0.1714630126953125,-0.061309814453125
1772790187266281500,8.288281494140625,-1.021270751953125,-0.1745147705078125,-0.056182861328125
1772790187276347400,8.298347412109376,-1.0038909912109375,-0.1750030517578125,-0.046142578125
1772790187286413300,8.308413330078125,-0.9890289306640625,-0.1746826171875,-0.0377655029296875
1772790187296478200,8.318478271484375,-0.977813720703125,-0.172332763671875,-0.0270843505859375
1772790187306544400,8.32854443359375,-0.95904541015625,-0.170501708984375,-0.01470947265625
1772790187316610300,8.3386103515625,-0.9533233642578125,-0.1777801513671875,-0.003173828125
1772790187326675500,8.348675537109376,-0.960540771484375,-0.1854400634765625,0.0060272216796875
1772790187336741000,8.3587412109375,-0.957000732421875,-0.1923828125,0.016998291015625
1772790187346807300,8.368807373046875,-0.950592041015625,-0.20086669921875,0.02947998046875
1772790187356872400,8.37887255859375,-0.946380615234375,-0.2055511474609375,0.041015625
1772790187366938400,8.3889384765625,-0.9410400390625,-0.20916748046875,0.05615234375
1772790187377004300,8.39900439453125,-0.9286041259765625,-0.2088165283203125,0.0726165771484375
1772790187387069200,8.409069091796875,-0.924957275390625,-0.2084197998046875,0.084747314453125
1772790187397135400,8.41913525390625,-0.94329833984375,-0.2125396728515625,0.095794677734375
1772790187407201300,8.429201171875,-0.9653167724609375,-0.2184600830078125,0.1069183349609375
1772790187417266400,8.439266357421875,-0.9837646484375,-0.2247467041015625,0.1164093017578125
1772790187427332400,8.449332275390624,-0.9790191650390625,-0.2236328125,0.1246490478515625
1772790187437398300,8.459398193359375,-0.96875,-0.225189208984375,0.1322021484375
1772790187447463200,8.469463134765626,-0.97796630859375,-0.230255126953125,0.1388702392578125
1772790187457529300,8.479529296875,-0.992401123046875,-0.2356109619140625,0.145904541015625
1772790187467595300,8.48959521484375,-1.00128173828125,-0.2411346435546875,0.1543121337890625
1772790187477660400,8.499660400390624,-1.0041046142578125,-0.2476043701171875,0.163421630859375
1772790187487726300,8.509726318359375,-1.00274658203125,-0.255279541015625,0.173370361328125
1772790187497792300,8.519792236328126,-1.0023345947265625,-0.2725372314453125,0.1884765625
1772790187507857400,8.529857421875,-1.00262451171875,-0.288909912109375,0.2076873779296875
1772790187517923300,8.53992333984375,-1.005706787109375,-0.2928619384765625,0.217498779296875
1772790187527989500,8.549989501953124,-1.006011962890625,-0.2971954345703125,0.2163543701171875
1772790187538054100,8.56005419921875,-1.01214599609375,-0.301483154296875,0.216522216796875
1772790187548120300,8.570120361328126,-1.0277557373046875,-0.3042144775390625,0.2207794189453125
1772790187558186200,8.580186279296875,-1.0478668212890625,-0.30645751953125,0.2233734130859375
1772790187568251400,8.59025146484375,-1.0514984130859375,-0.3056640625,0.21942138671875
1772790187578317300,8.6003173828125,-1.0495758056640625,-0.29913330078125,0.2078857421875
1772790187588383200,8.61038330078125,-1.044586181640625,-0.2924041748046875,0.1933441162109375
1772790187598448400,8.620448486328126,-1.0402069091796875,-0.29315185546875,0.1731109619140625
1772790187608514300,8.630514404296875,-1.0269927978515625,-0.292083740234375,0.160308837890625
1772790187618580200,8.640580322265626,-1.0053558349609375,-0.2922210693359375,0.1563568115234375
1772790187628645400,8.650645263671874,-0.9815826416015625,-0.2959747314453125,0.1550140380859375
1772790187638711300,8.660711181640625,-0.956634521484375,-0.3038330078125,0.15960693359375
1772790187648777200,8.670777099609374,-0.949127197265625,-0.3152618408203125,0.1628265380859375
1772790187658842400,8.68084228515625,-0.9434051513671875,-0.3240814208984375,0.1701507568359375
1772790187668908300,8.690908203125,-0.93536376953125,-0.3295440673828125,0.1783599853515625
1772790187678974500,8.700974365234375,-0.9268035888671875,-0.3354949951171875,0.182647705078125
1772790187689039000,8.7110390625,-0.918060302734375,-0.341278076171875,0.18670654296875
1772790187699105300,8.721105224609374,-0.9088287353515625,-0.3397979736328125,0.185638427734375
1772790187709171200,8.731171142578125,-0.896209716796875,-0.3354034423828125,0.17706298828125
1772790187719236400,8.741236328125,-0.881256103515625,-0.3298797607421875,0.171112060546875
1772790187729302500,8.751302490234375,-0.869873046875,-0.3270111083984375,0.16912841796875
1772790187739368200,8.7613681640625,-0.864532470703125,-0.327606201171875,0.1729888916015625
1772790187749433300,8.771433349609374,-0.867950439453125,-0.322967529296875,0.1772003173828125
1772790187759499300,8.781499267578125,-0.879913330078125,-0.3159637451171875,0.1781768798828125
1772790187769565400,8.7915654296875,-0.8925628662109375,-0.30267333984375,0.1728057861328125
1772790187779630300,8.80163037109375,-0.9135894775390625,-0.2845916748046875,0.1547698974609375
1772790187789696300,8.8116962890625,-0.923828125,-0.2694549560546875,0.1374359130859375
1772790187799762200,8.82176220703125,-0.942108154296875,-0.25872802734375,0.1222686767578125
1772790187809827300,8.831827392578125,-0.9457550048828125,-0.2493743896484375,0.1082763671875
1772790187819893200,8.841893310546874,-0.9349517822265625,-0.24957275390625,0.096923828125
1772790187829959400,8.85195947265625,-0.935272216796875,-0.2569732666015625,0.085968017578125
1772790187840024300,8.8620244140625,-0.93023681640625,-0.2632293701171875,0.071044921875
1772790187850090200,8.87209033203125,-0.9100341796875,-0.277130126953125,0.061279296875
1772790187860156400,8.882156494140625,-0.9014739990234375,-0.296722412109375,0.06475830078125
1772790187870221300,8.89222119140625,-0.9132080078125,-0.3175811767578125,0.0874786376953125
1772790187880287500,8.90228759765625,-0.941131591796875,-0.3387908935546875,0.1008758544921875
1772790187890353200,8.912353271484376,-0.948883056640625,-0.3541259765625,0.1049346923828125
1772790187900418300,8.922418212890625,-0.937042236328125,-0.353546142578125,0.112518310546875
1772790187910484200,8.932484130859375,-0.924530029296875,-0.3473663330078125,0.11749267578125
1772790187920550400,8.94255029296875,-0.913909912109375,-0.33673095703125,0.12103271484375
1772790187930615600,8.952615478515625,-0.90130615234375,-0.3274688720703125,0.125274658203125
1772790187940681200,8.96268115234375,-0.8999481201171875,-0.323944091796875,0.1287689208984375
1772790187950747000,8.972746826171875,-0.8971099853515625,-0.316650390625,0.135650634765625
1772790187960811800,8.982811767578125,-0.87176513671875,-0.3082427978515625,0.13958740234375
1772790187970878000,8.9928779296875,-0.8447418212890625,-0.2997894287109375,0.14483642578125
1772790187980944000,9.00294384765625,-0.8358001708984375,-0.2964935302734375,0.1569061279296875
1772790187991008800,9.0130087890625,-0.8553619384765625,-0.30780029296875,0.1688385009765625
1772790188001074700,9.02307470703125,-0.8798980712890625,-0.3208465576171875,0.172760009765625
1772790188011140900,9.033140869140626,-0.8883514404296875,-0.3309783935546875,0.171783447265625
1772790188021206000,9.0432060546875,-0.9013214111328125,-0.3444976806640625,0.1719818115234375
1772790188031272000,9.05327197265625,-0.9105377197265625,-0.3568115234375,0.169097900390625
1772790188041337900,9.063337890625,-0.8950653076171875,-0.3619384765625,0.164581298828125
1772790188051402800,9.07340283203125,-0.8824920654296875,-0.360992431640625,0.1550445556640625
1772790188061469000,9.083468994140626,-0.890411376953125,-0.3630828857421875,0.145233154296875
1772790188071534800,9.093534912109375,-0.9063262939453125,-0.369293212890625,0.14324951171875
1772790188081600000,9.10360009765625,-0.9247894287109375,-0.3769378662109375,0.146026611328125
1772790188091665700,9.113665771484374,-0.937255859375,-0.3759002685546875,0.149688720703125
1772790188101731800,9.12373193359375,-0.9432830810546875,-0.3699798583984375,0.1520843505859375
1772790188111796700,9.133796630859376,-0.9504852294921875,-0.3650665283203125,0.1505126953125
1772790188121863000,9.14386279296875,-0.9545135498046875,-0.3659210205078125,0.14898681640625
1772790188131928800,9.1539287109375,-0.9559326171875,-0.36798095703125,0.14447021484375
1772790188141993700,9.16399365234375,-0.940399169921875,-0.3646697998046875,0.1380767822265625
1772790188152060000,9.174059814453125,-0.9195404052734375,-0.36663818359375,0.134124755859375
1772790188162125800,9.184125732421874,-0.9142303466796875,-0.37176513671875,0.1389007568359375
1772790188172191000,9.19419091796875,-0.92059326171875,-0.3762664794921875,0.14996337890625
1772790188182257000,9.2042568359375,-0.9271392822265625,-0.38189697265625,0.1589813232421875
1772790188192323000,9.214322998046875,-0.9286651611328125,-0.38287353515625,0.1634674072265625
1772790188202387700,9.2243876953125,-0.93768310546875,-0.3873443603515625,0.1669158935546875
1772790188212454000,9.234453857421874,-0.938568115234375,-0.3863983154296875,0.167816162109375
1772790188222519800,9.244519775390625,-0.9186859130859375,-0.3802337646484375,0.1625823974609375
1772790188232585000,9.2545849609375,-0.90216064453125,-0.3753814697265625,0.1545867919921875
1772790188242650600,9.264650634765625,-0.9009552001953125,-0.3721923828125,0.1437530517578125
1772790188252716800,9.274716796875,-0.91595458984375,-0.3750152587890625,0.1369476318359375
1772790188262782000,9.284781982421874,-0.922882080078125,-0.384368896484375,0.146636962890625
1772790188272848000,9.294847900390625,-0.9158477783203125,-0.3934173583984375,0.158294677734375
1772790188282914000,9.3049140625,-0.9149322509765625,-0.40435791015625,0.155609130859375
1772790188292978700,9.314978759765625,-0.9191436767578125,-0.41619873046875,0.150054931640625
1772790188303044900,9.325044921875,-0.924346923828125,-0.425262451171875,0.1519012451171875
1772790188313110800,9.33511083984375,-0.920501708984375,-0.4273529052734375,0.1538848876953125
1772790188323176000,9.345176025390625,-0.9119873046875,-0.43145751953125,0.155426025390625
1772790188333241900,9.355241943359376,-0.91534423828125,-0.435302734375,0.1549530029296875
1772790188343307800,9.365307861328125,-0.923309326171875,-0.440765380859375,0.153900146484375
1772790188353373000,9.375373046875,-0.923675537109375,-0.4477691650390625,0.1568756103515625
1772790188363438800,9.38543896484375,-0.9390411376953125,-0.4481658935546875,0.1522674560546875
1772790188373504800,9.3955048828125,-0.93426513671875,-0.4446258544921875,0.159942626953125
1772790188383570000,9.40556982421875,-0.950714111328125,-0.44268798828125,0.15057373046875
1772790188393635800,9.4156357421875,-0.9740753173828125,-0.441925048828125,0.144073486328125
1772790188403700700,9.42570068359375,-0.982452392578125,-0.435821533203125,0.1342926025390625
1772790188413767000,9.435766845703125,-0.984039306640625,-0.4279022216796875,0.12249755859375
1772790188423832800,9.445832763671875,-0.9828033447265625,-0.4239654541015625,0.12017822265625
1772790188433899000,9.45589892578125,-0.9940643310546875,-0.4193267822265625,0.107940673828125
1772790188443963600,9.465963623046875,-1.0010986328125,-0.420654296875,0.1119384765625
1772790188454029800,9.47602978515625,-1.0245819091796875,-0.4252471923828125,0.11474609375
1772790188464095000,9.486094970703125,-1.0450439453125,-0.42718505859375,0.1194915771484375
1772790188474161000,9.496160888671875,-1.0501251220703125,-0.430999755859375,0.1259613037109375
1772790188484226800,9.506226806640624,-1.059326171875,-0.427520751953125,0.122344970703125
1772790188494292700,9.516292724609375,-1.0684814453125,-0.4258880615234375,0.1213531494140625
1772790188504358000,9.52635791015625,-1.0763092041015625,-0.4287109375,0.1208343505859375
1772790188514423800,9.536423828125,-1.0860443115234375,-0.422027587890625,0.1129608154296875
1772790188524489000,9.546489013671875,-1.1027374267578125,-0.4114837646484375,0.0984039306640625
1772790188534555000,9.556554931640624,-1.1192169189453125,-0.3902740478515625,0.0777740478515625
1772790188544620800,9.566620849609375,-1.12847900390625,-0.3671417236328125,0.0545806884765625
1772790188554686000,9.57668603515625,-1.11798095703125,-0.3479156494140625,0.0318145751953125
1772790188564752000,9.586751953125,-1.098602294921875,-0.329315185546875,0.0065765380859375
1772790188574817800,9.59681787109375,-1.0693511962890625,-0.310211181640625,-0.0174560546875
1772790188584882700,9.606882568359374,-1.0352325439453125,-0.290191650390625,-0.0359954833984375
1772790188594948900,9.616948974609375,-1.003753662109375,-0.278656005859375,-0.037811279296875
1772790188605014800,9.627014892578124,-0.9683990478515625,-0.2761993408203125,-0.02093505859375
1772790188615080000,9.637079833984375,-0.9365997314453125,-0.269989013671875,-0.002716064453125
1772790188625145900,9.647145751953126,-0.9162139892578125,-0.26312255859375,0.008697509765625
1772790188635212000,9.6572119140625,-0.9178924560546875,-0.2628936767578125,0.01116943359375
1772790188645276700,9.667276611328125,-0.9236297607421875,-0.26715087890625,0.021209716796875
1772790188655342800,9.6773427734375,-0.92803955078125,-0.2651214599609375,0.02874755859375
1772790188665408800,9.68740869140625,-0.9234771728515625,-0.264617919921875,0.0252532958984375
1772790188675474000,9.697473876953126,-0.91558837890625,-0.2618408203125,0.0183258056640625
1772790188685539800,9.707539794921875,-0.9126129150390625,-0.2555999755859375,0.0117645263671875
1772790188695605800,9.717605712890625,-0.9107818603515625,-0.247100830078125,-0.0042266845703125
1772790188705671000,9.7276708984375,-0.903564453125,-0.2416229248046875,-0.016510009765625
1772790188715736800,9.73773681640625,-0.8950042724609375,-0.2320709228515625,-0.0281219482421875
1772790188725803000,9.747802978515624,-0.873443603515625,-0.2252349853515625,-0.0360870361328125
1772790188735867600,9.75786767578125,-0.8626861572265625,-0.222930908203125,-0.04168701171875
1772790188745933800,9.767933837890626,-0.8704376220703125,-0.229156494140625,-0.0452423095703125
1772790188755999700,9.777999755859375,-0.8892822265625,-0.239044189453125,-0.0466461181640625
1772790188766065000,9.78806494140625,-0.9107208251953125,-0.25164794921875,-0.03961181640625
1772790188776130800,9.798130859375,-0.9217987060546875,-0.27008056640625,-0.03045654296875
1772790188786197000,9.808197021484375,-0.92041015625,-0.28240966796875,-0.0162353515625
1772790188796262000,9.818261962890626,-0.923126220703125,-0.280731201171875,-0.0052947998046875
1772790188806327800,9.828327880859375,-0.9086456298828125,-0.2825927734375,0.0026702880859375
1772790188816393700,9.838393798828125,-0.8965301513671875,-0.2797088623046875,0.0114898681640625
1772790188826459000,9.848458984375,-0.8895111083984375,-0.28167724609375,0.020111083984375
1772790188836525000,9.858525146484375,-0.8848876953125,-0.286041259765625,0.0319061279296875
1772790188846590700,9.8685908203125,-0.8850555419921875,-0.290435791015625,0.0355224609375
1772790188856656000,9.87865576171875,-0.8814849853515625,-0.3011627197265625,0.0366363525390625
1772790188866721800,9.8887216796875,-0.8818511962890625,-0.3086090087890625,0.0423431396484375
1772790188876788000,9.8987880859375,-0.8841094970703125,-0.3194427490234375,0.0457611083984375
1772790188886852900,9.908852783203125,-0.8847808837890625,-0.328338623046875,0.055908203125
1772790188896918800,9.918918701171876,-0.9020538330078125,-0.3365631103515625,0.0595550537109375
1772790188906984700,9.928984619140625,-0.9219512939453125,-0.34063720703125,0.058807373046875
1772790188917049900,9.9390498046875,-0.9395294189453125,-0.34515380859375,0.058441162109375
1772790188927116000,9.949115966796874,-0.944976806640625,-0.34527587890625,0.0576019287109375
1772790188937182000,9.959181884765625,-0.9415740966796875,-0.337188720703125,0.05340576171875
1772790188947246800,9.969246826171876,-0.9390411376953125,-0.3285675048828125,0.04437255859375
1772790188957316900,9.97931689453125,-0.9353179931640625,-0.3242950439453125,0.0459136962890625
1772790188967382800,9.9893828125,-0.9524383544921875,-0.3139190673828125,0.050628662109375
1772790188977448000,9.999447998046875,-0.953125,-0.3148193359375,0.0500030517578125
1772790188987514000,10.00951416015625,-0.9444580078125,-0.3220977783203125,0.049896240234375
1772790188997580000,10.019580078125,-0.9462432861328125,-0.320220947265625,0.051055908203125
1772790189007645000,10.02964501953125,-0.938568115234375,-0.3230743408203125,0.043670654296875
1772790189017710800,10.0397109375,-0.9293975830078125,-0.3310546875,0.0386199951171875
1772790189027777000,10.049777099609376,-0.92608642578125,-0.338104248046875,0.041107177734375
1772790189037842000,10.059842041015624,-0.9213104248046875,-0.3448944091796875,0.043548583984375
1772790189047907800,10.069907958984375,-0.91351318359375,-0.3474884033203125,0.042816162109375
1772790189057973800,10.079973876953124,-0.90753173828125,-0.3543853759765625,0.041351318359375
1772790189068039000,10.090038818359375,-0.9130401611328125,-0.363525390625,0.0472412109375
1772790189078105000,10.10010498046875,-0.923583984375,-0.37103271484375,0.0504150390625
1772790189088171000,10.1101708984375,-0.91925048828125,-0.3756103515625,0.0460662841796875
1772790189098236000,10.12023583984375,-0.904693603515625,-0.3779144287109375,0.0453033447265625
1772790189108301800,10.1303017578125,-0.8967742919921875,-0.3799896240234375,0.0471954345703125
1772790189118368000,10.140367919921875,-0.894073486328125,-0.3844146728515625,0.0489349365234375
1772790189128433000,10.150432861328126,-0.9051971435546875,-0.3892669677734375,0.0501251220703125
1772790189138499000,10.1604990234375,-0.9085235595703125,-0.394134521484375,0.053375244140625
1772790189148565000,10.17056494140625,-0.91796875,-0.3977203369140625,0.05413818359375
1772790189158630000,10.1806298828125,-0.9351654052734375,-0.4006805419921875,0.055328369140625
1772790189168695800,10.19069580078125,-0.9441070556640625,-0.402099609375,0.0532989501953125
1772790189178762000,10.200761962890626,-0.951629638671875,-0.3999786376953125,0.051025390625
1772790189188827100,10.2108271484375,-0.96044921875,-0.3949737548828125,0.0478973388671875
1772790189198892800,10.220892822265625,-0.9679718017578125,-0.3862457275390625,0.042724609375
1772790189208959000,10.230958984375,-0.9763641357421875,-0.3773345947265625,0.0332183837890625
1772790189219024000,10.24102392578125,-0.977325439453125,-0.372528076171875,0.0210113525390625
1772790189229090000,10.251090087890624,-0.9803314208984375,-0.368072509765625,0.0181121826171875
1772790189239156000,10.261156005859375,-0.9843902587890625,-0.36480712890625,0.019256591796875
1772790189249220900,10.271220947265626,-0.984619140625,-0.362518310546875,0.0200042724609375
1772790189259286800,10.281286865234375,-0.9932861328125,-0.358978271484375,0.0191650390625
1772790189269353000,10.29135302734375,-1.0089111328125,-0.3573455810546875,0.017120361328125
1772790189279418000,10.301418212890624,-1.0169219970703125,-0.3602294921875,0.0161895751953125
1772790189289484000,10.311484130859375,-1.0255126953125,-0.3651580810546875,0.01788330078125
1772790189299549700,10.3215498046875,-1.0390777587890625,-0.373748779296875,0.02252197265625
1772790189309614800,10.33161474609375,-1.041290283203125,-0.38397216796875,0.0246124267578125
1772790189319681000,10.341680908203125,-1.0309295654296875,-0.3960723876953125,0.032318115234375
1772790189329747000,10.351746826171874,-1.0400543212890625,-0.40478515625,0.0412445068359375
1772790189339812000,10.36181201171875,-1.0653076171875,-0.3991241455078125,0.042938232421875
1772790189349877800,10.371877685546876,-1.0897216796875,-0.3838348388671875,0.0339202880859375
1772790189359944000,10.38194384765625,-1.107452392578125,-0.3620758056640625,0.026519775390625
1772790189370008800,10.3920087890625,-1.11126708984375,-0.341094970703125,0.014434814453125
1772790189380075000,10.402074951171874,-1.099212646484375,-0.3131561279296875,-0.0034637451171875
1772790189390141000,10.412140869140625,-1.093353271484375,-0.2823638916015625,-0.01715087890625
1772790189400205800,10.422205810546876,-1.0774688720703125,-0.262451171875,-0.02911376953125
1772790189410272000,10.43227197265625,-1.05389404296875,-0.252777099609375,-0.03668212890625
1772790189420338000,10.442337890625,-1.0277862548828125,-0.237030029296875,-0.034332275390625
1772790189430403000,10.452403076171874,-1.010894775390625,-0.229156494140625,-0.0337066650390625
1772790189440469000,10.462468994140625,-0.990203857421875,-0.2193450927734375,-0.0318450927734375
1772790189450535000,10.472534912109374,-0.964263916015625,-0.2187042236328125,-0.020111083984375
1772790189460599800,10.482599853515625,-0.94012451171875,-0.220001220703125,0.0005950927734375
1772790189470666000,10.492666015625,-0.9211273193359375,-0.2220458984375,0.0231781005859375
1772790189480732000,10.50273193359375,-0.922760009765625,-0.22998046875,0.039154052734375
1772790189490797000,10.512797119140625,-0.919830322265625,-0.2383575439453125,0.0471038818359375
1772790189500862700,10.52286279296875,-0.9110107421875,-0.2386627197265625,0.05340576171875
1772790189510929000,10.532928955078125,-0.8829193115234375,-0.233489990234375,0.0608673095703125
1772790189520994000,10.542994140625,-0.859405517578125,-0.2296905517578125,0.0706634521484375
1772790189531060000,10.55306005859375,-0.8637237548828125,-0.2289886474609375,0.077239990234375
1772790189541126000,10.5631259765625,-0.8787994384765625,-0.2346343994140625,0.0787506103515625
1772790189551190800,10.573190673828124,-0.883392333984375,-0.238739013671875,0.080841064453125
1772790189561257000,10.583257080078125,-0.883758544921875,-0.2418365478515625,0.078643798828125
1772790189571323000,10.593322998046874,-0.8890228271484375,-0.244964599609375,0.0814208984375
1772790189581388000,10.603387939453125,-0.902801513671875,-0.252655029296875,0.0884246826171875
1772790189591454000,10.613453857421876,-0.9185028076171875,-0.2590179443359375,0.0927276611328125
1772790189601519900,10.623519775390625,-0.9318389892578125,-0.2516326904296875,0.0879364013671875
1772790189611585000,10.6335849609375,-0.9571380615234375,-0.2396392822265625,0.07720947265625
1772790189621651000,10.64365087890625,-0.9957427978515625,-0.2259674072265625,0.0635223388671875
1772790189631716900,10.653716796875,-1.0224609375,-0.2138214111328125,0.0524139404296875
1772790189641782000,10.663781982421876,-1.0218505859375,-0.2021026611328125,0.0406494140625
1772790189651848000,10.673847900390625,-1.0149078369140625,-0.19342041015625,0.0354766845703125
1772790189661913900,10.683913818359375,-1.00677490234375,-0.191864013671875,0.02655029296875
1772790189671979000,10.69397900390625,-0.9871063232421875,-0.191680908203125,0.01409912109375
1772790189682045000,10.704044921875,-0.968109130859375,-0.1871490478515625,0.0048065185546875
1772790189692111000,10.714111083984376,-0.9453582763671875,-0.1944732666015625,0.0106201171875
1772790189702175700,10.72417578125,-0.942901611328125,-0.21551513671875,0.0313873291015625
1772790189712242000,10.734241943359375,-0.953460693359375,-0.2344207763671875,0.0469207763671875
1772790189722307800,10.744307861328124,-0.9574432373046875,-0.2552490234375,0.052459716796875
1772790189732373000,10.754373046875,-0.9572906494140625,-0.271759033203125,0.0773468017578125
1772790189742439000,10.76443896484375,-0.9578094482421875,-0.278900146484375,0.08721923828125
1772790189752504800,10.7745048828125,-0.9368743896484375,-0.279937744140625,0.0894927978515625
1772790189762570000,10.784570068359375,-0.91632080078125,-0.276885986328125,0.0923309326171875
1772790189772636000,10.794635986328124,-0.919219970703125,-0.278656005859375,0.090087890625
1772790189782702000,10.8047021484375,-0.9236297607421875,-0.2845611572265625,0.0823211669921875
1772790189792767000,10.81476708984375,-0.9314117431640625,-0.2901458740234375,0.0790863037109375
1772790189802833000,10.8248330078125,-0.937042236328125,-0.2925262451171875,0.0765380859375
1772790189812898800,10.83489892578125,-0.946533203125,-0.299560546875,0.073028564453125
1772790189822964000,10.8449638671875,-0.9505462646484375,-0.304901123046875,0.0635223388671875
1772790189833030000,10.85502978515625,-0.941009521484375,-0.312286376953125,0.06317138671875
1772790189843096000,10.865095947265624,-0.9316253662109375,-0.3136749267578125,0.06842041015625
1772790189853161000,10.875160888671875,-0.91650390625,-0.3155517578125,0.075653076171875
1772790189863227000,10.885226806640626,-0.91900634765625,-0.3271636962890625,0.076904296875
1772790189873292800,10.895292724609375,-0.9313812255859375,-0.3379364013671875,0.0834197998046875
1772790189883358000,10.90535791015625,-0.9491424560546875,-0.3430328369140625,0.0954437255859375
1772790189893424000,10.915424072265624,-0.9499359130859375,-0.3435821533203125,0.0972900390625
1772790189903489800,10.92548974609375,-0.9474639892578125,-0.34375,0.0980072021484375
1772790189913555000,10.935554931640626,-0.96038818359375,-0.343505859375,0.101470947265625
1772790189923620900,10.945620849609375,-0.9643402099609375,-0.339691162109375,0.0956268310546875
1772790189933687000,10.95568701171875,-0.9576416015625,-0.3327484130859375,0.094451904296875
1772790189943752000,10.965751953125,-0.944183349609375,-0.327972412109375,0.0895538330078125
1772790189953814300,10.975814208984374,-0.9517364501953125,-0.3293304443359375,0.089447021484375
1772790189963880200,10.985880126953125,-0.9642791748046875,-0.332061767578125,0.0837554931640625
1772790189973945000,10.995945068359376,-0.9645233154296875,-0.3348541259765625,0.0859375
1772790189984011300,11.00601123046875,-0.96844482421875,-0.33856201171875,0.0919647216796875
1772790189994077200,11.0160771484375,-0.9775238037109375,-0.33514404296875,0.1015167236328125
1772790190004142300,11.026142333984374,-0.9813079833984375,-0.3322296142578125,0.0949249267578125
1772790190014208300,11.036208251953125,-0.96484375,-0.3350677490234375,0.083251953125
1772790190024274200,11.046274169921874,-0.9727935791015625,-0.3388671875,0.084197998046875
1772790190034339000,11.056339111328125,-0.9928131103515625,-0.35198974609375,0.0869903564453125
1772790190044405200,11.0664052734375,-1.0059661865234375,-0.3666839599609375,0.09710693359375
1772790190054471200,11.07647119140625,-0.987091064453125,-0.3690643310546875,0.1005401611328125
1772790190064536300,11.086536376953125,-0.9633636474609375,-0.3643646240234375,0.101043701171875
1772790190074602200,11.096602294921874,-0.98388671875,-0.3595123291015625,0.100341796875
