time,seconds_elapsed,z,y,x
1772798005915043800,0.0820439453125,0.7045214176177979,0.31682562828063965,-0.3351316452026367
1772798005925070800,0.09207080078125,0.6183103919029236,0.3464841842651367,-0.5355483889579773
1772798005935097600,0.10209765625,0.4918232560157776,0.36354678869247437,-0.6949103474617004
1772798005945123600,0.11212353515625,0.36743712425231934,0.3401392102241516,-0.875906765460968
1772798005955150600,0.122150634765625,0.28755080699920654,0.2734677493572235,-1.0765937566757202
1772798005965176800,0.1321767578125,0.24898958206176758,0.18867669999599457,-1.2776914834976196
1772798005975203800,0.142203857421875,0.2454070895910263,0.0819353461265564,-1.4574133157730103
1772798005985230600,0.152230712890625,0.25240960717201233,-0.019336679950356483,-1.5826399326324463
1772798005995256600,0.162256591796875,0.27236467599868774,-0.0859396755695343,-1.639304280281067
1772798006005283800,0.172283935546875,0.2820812165737152,-0.09288493543863297,-1.6256190538406372
1772798006015310800,0.182310791015625,0.27170875668525696,-0.04439809173345566,-1.5548464059829712
1772798006025336800,0.1923369140625,0.23398932814598083,0.012194881215691566,-1.4582101106643677
1772798006035363600,0.202363525390625,0.17964352667331696,0.05716501921415329,-1.3546900749206543
1772798006045390600,0.212390625,0.14054593443870544,0.12260367721319199,-1.2435194253921509
1772798006055416800,0.222416748046875,0.11878018081188202,0.2099657505750656,-1.1140620708465576
1772798006065443800,0.23244384765625,0.12369078397750854,0.2770044505596161,-0.9893710017204285
1772798006075469800,0.2424697265625,0.20674438774585724,0.31702667474746704,-0.9219927787780762
1772798006085496600,0.25249658203125,0.3013547956943512,0.33175423741340637,-0.8322937488555908
1772798006095523800,0.26252392578125,0.3676757514476776,0.3207511305809021,-0.6813902854919434
1772798006105549800,0.2725498046875,0.36999616026878357,0.3231343924999237,-0.5161893367767334
1772798006115576800,0.282576904296875,0.35905909538269043,0.4127417504787445,-0.4660310745239258
1772798006125603600,0.292603515625,0.34357306361198425,0.6739819049835205,-0.5509275794029236
1772798006135629600,0.302629638671875,0.36195582151412964,1.0066211223602295,-0.6844987273216248
1772798006145656800,0.31265673828125,0.5371609330177307,1.2999584674835205,-0.9166557788848877
1772798006155683800,0.322683837890625,0.9465910196304321,1.7541112899780273,-0.8795944452285767
1772798006165709800,0.332709716796875,1.3689486980438232,2.4014174938201904,-0.5175994634628296
1772798006175736800,0.34273681640625,1.4021189212799072,2.361302614212036,-0.4716727137565613
1772798006185762800,0.3527626953125,1.4287617206573486,0.9218001961708069,-1.0774606466293335
1772798006195789800,0.362789794921875,1.6566203832626343,-1.2982726097106934,-2.205758571624756
1772798006205817000,0.372817138671875,2.104804515838623,-3.385967493057251,-2.4297049045562744
1772798006215843000,0.382843017578125,2.284405469894409,-4.261976718902588,-1.2623378038406372
1772798006225869800,0.392869873046875,2.0294156074523926,-3.3031153678894043,0.594829797744751
1772798006235896800,0.402896728515625,1.795249342918396,-1.6834772825241089,2.1021385192871094
1772798006245923000,0.412923095703125,1.6994744539260864,-0.35395169258117676,2.4953622817993164
1772798006255950000,0.4229501953125,1.6811031103134155,0.3538760542869568,2.0391645431518555
1772798006265976800,0.432976806640625,1.6300060749053955,0.5273714065551758,1.3893604278564453
1772798006276002800,0.4430029296875,1.6119035482406616,0.34161698818206787,0.9260857701301575
1772798006286029800,0.45302978515625,1.5976146459579468,0.045583464205265045,0.7205685377120972
1772798006296056000,0.46305615234375,1.5881435871124268,-0.24425475299358368,0.676490843296051
1772798006306083000,0.4730830078125,1.5763503313064575,-0.5040538311004639,0.7137391567230225
1772798006316109800,0.48310986328125,1.510109782218933,-0.6126655340194702,0.8151126503944397
1772798006326135800,0.4931357421875,1.3926689624786377,-0.4794329106807709,0.968859076499939
1772798006336163000,0.5031630859375,1.2597450017929077,-0.18172559142112732,1.2008224725723267
1772798006346190000,0.513190185546875,1.1418625116348267,0.12690815329551697,1.4726828336715698
1772798006356216000,0.523216064453125,1.0510737895965576,0.34979715943336487,1.6962440013885498
1772798006366242800,0.533242919921875,1.0114198923110962,0.5132082104682922,1.7987746000289917
1772798006376269800,0.543269775390625,1.005484938621521,0.6196856498718262,1.749440312385559
1772798006386296000,0.553296142578125,1.0096075534820557,0.6804744005203247,1.5747148990631104
1772798006396323000,0.563322998046875,1.0139085054397583,0.7022353410720825,1.3251458406448364
1772798006406349800,0.573349853515625,1.0098145008087158,0.693670392036438,1.0261294841766357
1772798006416375800,0.583375732421875,0.9838995337486267,0.7042186260223389,0.7294443249702454
1772798006426403000,0.593403076171875,0.9485412836074829,0.6745608448982239,0.40209898352622986
1772798006436429000,0.603428955078125,0.9155250191688538,0.5983116030693054,0.048179514706134796
1772798006446456000,0.6134560546875,0.908036470413208,0.5576217174530029,-0.3228291869163513
1772798006456482800,0.62348291015625,0.9244489669799805,0.5006497502326965,-0.6666533946990967
1772798006466508800,0.6335087890625,0.9514779448509216,0.42626315355300903,-0.9756149649620056
1772798006476536000,0.6435361328125,0.9670768976211548,0.33995383977890015,-1.2071752548217773
1772798006486563000,0.65356298828125,0.9427621960639954,0.3287019729614258,-1.3807568550109863
1772798006496589000,0.663589111328125,0.9047365188598633,0.40328142046928406,-1.5389281511306763
1772798006506615800,0.67361572265625,0.8742182850837708,0.5248014330863953,-1.703792691230774
1772798006516642800,0.683642822265625,0.8701359629631042,0.6510563492774963,-1.8607994318008423
1772798006526669000,0.6936689453125,0.880167543888092,0.7523688077926636,-2.019622564315796
1772798006536696000,0.703696044921875,0.8784929513931274,0.79081130027771,-2.134249210357666
1772798006546722800,0.713722900390625,0.8151757717132568,0.729476273059845,-2.2117202281951904
1772798006556748800,0.723748779296875,0.727828323841095,0.6217002868652344,-2.3064489364624023
1772798006566776000,0.733776123046875,0.6620296239852905,0.5241844058036804,-2.4790525436401367
1772798006576803000,0.743802978515625,0.6054036021232605,0.38760390877723694,-2.6735551357269287
1772798006586829000,0.7538291015625,0.6030398011207581,0.22969311475753784,-2.8693814277648926
1772798006596855800,0.763855712890625,0.659151017665863,0.0502365380525589,-3.05169415473938
1772798006606882800,0.7738828125,0.7786718010902405,-0.11210256814956665,-3.2408535480499268
1772798006616909000,0.783908935546875,0.9545424580574036,-0.3205111622810364,-3.398254871368408
1772798006626936000,0.79393603515625,1.1627979278564453,-0.4810558259487152,-3.4570677280426025
1772798006636962000,0.803962158203125,1.3962095975875854,-0.7018073797225952,-3.4290547370910645
1772798006646988800,0.81398876953125,1.6105314493179321,-0.9536739587783813,-3.321638345718384
1772798006657016000,0.82401611328125,1.7764956951141357,-1.192044973373413,-3.2487871646881104
1772798006667042000,0.8340419921875,1.8526860475540161,-1.2641642093658447,-3.135798454284668
1772798006677069000,0.844069091796875,1.8184897899627686,-1.2596203088760376,-3.0319740772247314
1772798006687095800,0.854095703125,1.750780463218689,-1.0945605039596558,-3.232752799987793
1772798006697121800,0.864121826171875,1.8916643857955933,-0.8871761560440063,-3.3802242279052734
1772798006707149000,0.874149169921875,2.2333834171295166,-0.762270450592041,-3.1893227100372314
1772798006717176000,0.884176025390625,2.5894412994384766,-0.8215284943580627,-2.652961254119873
1772798006727202000,0.8942021484375,2.903264284133911,-1.1315997838974,-1.6075519323349
1772798006737228800,0.904228759765625,2.9234626293182373,-1.5982444286346436,-0.18713286519050598
1772798006747256000,0.914256103515625,2.607987642288208,-1.8066432476043701,1.0981957912445068
1772798006757282000,0.924281982421875,2.2035722732543945,-1.564193844795227,1.9019806385040283
1772798006767309000,0.93430908203125,1.6553781032562256,-0.7856572866439819,2.4747283458709717
1772798006777335800,0.944335693359375,1.2521789073944092,0.06967069208621979,2.759859323501587
1772798006787361800,0.95436181640625,1.1139832735061646,0.30470263957977295,2.585581064224243
1772798006797389000,0.96438916015625,1.0422650575637817,0.17849516868591309,2.2316808700561523
1772798006807416000,0.974416015625,0.981124758720398,-0.21069838106632233,1.9341579675674438
1772798006817442000,0.984442138671875,0.9120820760726929,-0.7437561750411987,1.770278811454773
1772798006827468800,0.99446875,0.8641696572303772,-1.1939537525177002,1.6168221235275269
1772798006837496000,1.00449609375,0.9089946746826172,-1.4365439414978027,1.4566316604614258
1772798006847522000,1.01452197265625,0.9597632884979248,-1.4406758546829224,1.4268330335617065
1772798006857549000,1.024549072265625,0.9683224558830261,-1.2850892543792725,1.5595178604125977
1772798006867575800,1.034575927734375,0.8815515637397766,-0.9815194606781006,1.9648189544677734
1772798006877601800,1.044601806640625,0.7677078247070312,-0.5481187701225281,2.492579460144043
1772798006887629000,1.054629150390625,0.674848198890686,-0.09009473770856857,3.0262093544006348
1772798006897656000,1.064656005859375,0.6159955263137817,0.25105032324790955,3.496220588684082
1772798006907682000,1.07468212890625,0.5938548445701599,0.5004031658172607,3.831751585006714
1772798006917708800,1.084708740234375,0.6142700910568237,0.671107828617096,3.8949575424194336
1772798006927734800,1.09473486328125,0.725055992603302,0.7763367295265198,3.6960842609405518
1772798006937762000,1.104761962890625,0.9472222328186035,0.7678801417350769,3.18375301361084
1772798006947789000,1.1147890625,1.1563868522644043,0.6761041283607483,2.4928390979766846
1772798006957815000,1.12481494140625,1.387954831123352,0.5356050729751587,1.7703219652175903
1772798006967841800,1.134841796875,1.5831997394561768,0.3765672445297241,1.1554566621780396
1772798006977869000,1.144869140625,1.7050995826721191,0.2376333326101303,0.5721220970153809
1772798006987895000,1.15489501953125,1.7428892850875854,0.23714463412761688,0.044503286480903625
1772798006997922000,1.164922119140625,1.659105658531189,0.31588900089263916,-0.33860868215560913
1772798007007948800,1.17494873046875,1.4936953783035278,0.42424502968788147,-0.5891649723052979
1772798007017974800,1.184974853515625,1.2655069828033447,0.5551636219024658,-0.8077133297920227
1772798007028002000,1.195001953125,1.0288784503936768,0.694134533405304,-1.0123794078826904
1772798007038029000,1.205029052734375,0.8427194952964783,0.797902524471283,-1.2068135738372803
1772798007048055000,1.215054931640625,0.7349070310592651,0.875239908695221,-1.3858474493026733
1772798007058081800,1.225081787109375,0.7006627917289734,0.9143531918525696,-1.5559923648834229
1772798007068109000,1.235109130859375,0.7546165585517883,0.9027210474014282,-1.7439923286437988
1772798007078135000,1.245135009765625,0.8166372776031494,0.8447682857513428,-1.8848061561584473
1772798007088162000,1.255162109375,0.8584592938423157,0.7864527702331543,-1.9607648849487305
1772798007098188800,1.265188720703125,0.885405421257019,0.7498998045921326,-1.998844861984253
1772798007108214800,1.27521484375,0.8736164569854736,0.718329668045044,-2.0224311351776123
1772798007118242000,1.285241943359375,0.816892683506012,0.6873533725738525,-2.0524604320526123
1772798007128269000,1.29526904296875,0.7319352030754089,0.6233887672424316,-2.078601360321045
1772798007138295000,1.305294921875,0.6506344676017761,0.5418691039085388,-2.1082751750946045
1772798007148321800,1.31532177734375,0.5774790644645691,0.44422513246536255,-2.033043384552002
1772798007158349000,1.32534912109375,0.5601924657821655,0.3689119815826416,-1.817736268043518
1772798007168375000,1.335375,0.6367852687835693,0.3711932599544525,-1.5285993814468384
1772798007178401500,1.345401611328125,0.808743417263031,0.33634844422340393,-1.3174082040786743
1772798007188428300,1.35542822265625,1.0620825290679932,0.22709253430366516,-1.2269697189331055
1772798007198454300,1.365454345703125,1.2385730743408203,-0.1854468286037445,-1.2723467350006104
1772798007208481500,1.3754814453125,1.3700860738754272,-0.6614240407943726,-1.5152206420898438
1772798007218508500,1.385508544921875,1.4908183813095093,-0.9360159039497375,-2.004035711288452
1772798007228534500,1.395534423828125,1.6048756837844849,-0.9591702222824097,-2.1907541751861572
1772798007238561300,1.405561279296875,1.7416341304779053,-0.6861588954925537,-1.7138099670410156
1772798007248588500,1.415588623046875,1.8140009641647339,0.014624216593801975,-1.07658052444458
1772798007258614500,1.425614501953125,1.955361008644104,0.6650443077087402,-0.4050156772136688
1772798007268641500,1.4356416015625,2.2405612468719482,1.0578792095184326,0.44539132714271545
1772798007278668300,1.445668212890625,2.6670074462890625,0.9461764097213745,1.4002560377120972
1772798007288694300,1.4556943359375,3.0755176544189453,0.6793553233146667,1.9759573936462402
1772798007298721500,1.465721435546875,3.379558801651001,0.4417971074581146,2.4571421146392822
1772798007308748500,1.47574853515625,3.2753841876983643,0.2871928811073303,2.7358651161193848
1772798007318774500,1.4857744140625,3.083005428314209,0.3820227384567261,2.8250632286071777
1772798007328801300,1.49580126953125,2.8780224323272705,0.474116712808609,2.4483518600463867
1772798007338828500,1.50582861328125,2.7121405601501465,0.4048265814781189,2.0297727584838867
1772798007348854500,1.5158544921875,2.4599204063415527,0.2187853455543518,1.920168161392212
1772798007358881500,1.525881591796875,2.1792948246002197,0.008273908868432045,1.706085443496704
1772798007368908300,1.535908203125,1.9430593252182007,-0.17647676169872284,1.3960069417953491
1772798007378934300,1.545934326171875,1.727473258972168,-0.41649147868156433,1.1046850681304932
1772798007388961500,1.55596142578125,1.5426578521728516,-0.6859306693077087,0.9076268672943115
1772798007398988500,1.565988525390625,1.369559645652771,-0.8975287079811096,0.8481717705726624
1772798007409014500,1.5760146484375,1.1858794689178467,-1.0145543813705444,0.9277496933937073
1772798007419041300,1.586041259765625,1.008104681968689,-0.9836417436599731,1.1310654878616333
1772798007429068500,1.596068603515625,0.895194947719574,-0.7977211475372314,1.399459958076477
1772798007439094500,1.606094482421875,0.854907214641571,-0.4960249364376068,1.646028995513916
1772798007449121500,1.61612158203125,0.8155485987663269,-0.20306576788425446,1.7596477270126343
1772798007459148300,1.626148193359375,0.9421720504760742,0.10838239639997482,1.7441092729568481
1772798007469174300,1.63617431640625,1.0736640691757202,0.3477736711502075,1.641089916229248
1772798007479201500,1.646201416015625,1.160868763923645,0.5474010109901428,1.4665287733078003
1772798007489227500,1.6562275390625,1.225518822669983,0.7506060600280762,1.2225688695907593
1772798007499254500,1.666254638671875,1.2044435739517212,0.8929768204689026,0.9512451887130737
1772798007509281300,1.67628125,1.0950058698654175,0.9470725655555725,0.6792922019958496
1772798007519307300,1.686307373046875,0.9112900495529175,0.8955363631248474,0.3579709231853485
1772798007529334500,1.69633447265625,0.7139481902122498,0.7935546040534973,-0.07375890761613846
1772798007539361500,1.706361572265625,0.510991096496582,0.6440300941467285,-0.5784417986869812
1772798007549387500,1.716387451171875,0.33477479219436646,0.4573608934879303,-1.1229207515716553
1772798007559414300,1.726414306640625,0.20936547219753265,0.22370393574237823,-1.6441978216171265
1772798007569441500,1.736441650390625,0.12848474085330963,-0.04721624776721001,-2.0477752685546875
1772798007579467500,1.746467529296875,0.09128384292125702,-0.2854517102241516,-2.290064573287964
1772798007589494500,1.75649462890625,0.08068525791168213,-0.4788731038570404,-2.3992788791656494
1772798007599521300,1.766521240234375,0.09161194413900375,-0.6221548914909363,-2.407470226287842
1772798007609547300,1.77654736328125,0.12623463571071625,-0.7027080655097961,-2.3427326679229736
1772798007619574500,1.786574462890625,0.1688864827156067,-0.7385246753692627,-2.250361442565918
1772798007629601500,1.7966015625,0.201663076877594,-0.7300323843955994,-2.1691102981567383
1772798007639627500,1.80662744140625,0.23952338099479675,-0.7003239989280701,-2.111671209335327
1772798007649654300,1.816654296875,0.2706863582134247,-0.5995451807975769,-2.0538837909698486
1772798007659681500,1.826681640625,0.2975320816040039,-0.4873257279396057,-1.991823673248291
1772798007669707500,1.83670751953125,0.31023457646369934,-0.3797140419483185,-1.8813613653182983
1772798007679734500,1.846734619140625,0.31456032395362854,-0.27945375442504883,-1.7173644304275513
1772798007689761300,1.85676123046875,0.3494330942630768,-0.12065903842449188,-1.5602738857269287
1772798007699787300,1.866787353515625,0.4404785931110382,0.12122362852096558,-1.4469680786132812
1772798007709814500,1.876814453125,0.5732827186584473,0.47464054822921753,-1.4095286130905151
1772798007719841500,1.886841552734375,0.6876077055931091,0.9348462224006653,-1.4761217832565308
1772798007729867500,1.896867431640625,0.6869211196899414,1.4614444971084595,-1.8339667320251465
1772798007739894300,1.906894287109375,0.8828466534614563,1.8092118501663208,-2.329918146133423
1772798007749921500,1.916921630859375,1.3936207294464111,1.364702582359314,-2.636561393737793
1772798007759947500,1.926947509765625,2.0548200607299805,0.4187415838241577,-2.9648165702819824
1772798007769974500,1.936974609375,2.8615126609802246,-1.6044211387634277,-2.5168111324310303
1772798007780001300,1.947001220703125,3.4299423694610596,-2.294727325439453,-0.31169185042381287
1772798007790027300,1.95702734375,3.4641473293304443,-2.0871925354003906,0.7288898825645447
1772798007800054500,1.967054443359375,2.9887375831604004,-2.0990161895751953,1.8036788702011108
1772798007810081500,1.97708154296875,2.671607732772827,-1.9707788228988647,3.310817241668701
1772798007820107500,1.987107421875,2.0494329929351807,-0.9533323049545288,4.193924427032471
1772798007830134300,1.99713427734375,1.6023640632629395,-0.07504921406507492,4.255246162414551
1772798007840161500,2.00716162109375,1.4229711294174194,0.48909085988998413,3.964831829071045
1772798007850187500,2.0171875,1.329894781112671,0.9627140760421753,3.6611273288726807
1772798007860214500,2.027214599609375,1.3221502304077148,1.1576318740844727,3.4511353969573975
1772798007870241300,2.0372412109375,1.4112820625305176,1.1460732221603394,3.1519715785980225
1772798007880267300,2.047267333984375,1.5503411293029785,0.9510228037834167,2.7353203296661377
1772798007890294500,2.05729443359375,1.6372020244598389,0.6093038320541382,2.218055248260498
1772798007900321500,2.067321533203125,1.6750651597976685,0.12002307921648026,1.5748701095581055
1772798007910347500,2.077347412109375,1.6741136312484741,-0.38155028223991394,0.902886152267456
1772798007920374300,2.087374267578125,1.5758893489837646,-0.8020697832107544,0.4404461085796356
1772798007930400300,2.097400146484375,1.38571298122406,-1.1022733449935913,0.27362117171287537
1772798007940427500,2.107427490234375,1.1603432893753052,-1.2345706224441528,0.35944658517837524
1772798007950454500,2.11745458984375,0.9425894021987915,-1.108795404434204,0.6415653824806213
1772798007960480500,2.12748046875,0.7304449081420898,-0.7858151793479919,1.0274972915649414
1772798007970507300,2.13750732421875,0.5201705098152161,-0.3612138628959656,1.3816255331039429
1772798007980534500,2.147534423828125,0.40087178349494934,-0.04794329032301903,1.6271978616714478
1772798007990560500,2.157560546875,0.39169907569885254,0.20673906803131104,1.7175239324569702
1772798008000587500,2.16758740234375,0.40169790387153625,0.38813361525535583,1.6326184272766113
1772798008010614300,2.1776142578125,0.37894225120544434,0.45301008224487305,1.3553506135940552
1772798008020640300,2.18764013671875,0.3238361179828644,0.3971460163593292,0.9408889412879944
1772798008030667500,2.19766748046875,0.2685105502605438,0.36904674768447876,0.36821824312210083
1772798008040694500,2.207694580078125,0.2351456731557846,0.39417552947998047,-0.25553297996520996
1772798008050720500,2.217720458984375,0.24397112429141998,0.49727341532707214,-0.8179097771644592
1772798008060747300,2.227747314453125,0.24715758860111237,0.6125640869140625,-1.25710129737854
1772798008070774500,2.2377744140625,0.22925609350204468,0.7026148438453674,-1.5413795709609985
1772798008080800500,2.247800537109375,0.21281346678733826,0.7792827486991882,-1.690557837486267
1772798008090827500,2.25782763671875,0.21010397374629974,0.8135477900505066,-1.7560114860534668
1772798008100854300,2.267854248046875,0.22521421313285828,0.7957645058631897,-1.815631628036499
1772798008110880300,2.27788037109375,0.27555274963378906,0.7265700101852417,-1.8946579694747925
1772798008120907500,2.287907470703125,0.34443941712379456,0.6454594135284424,-2.0236217975616455
1772798008130934500,2.2979345703125,0.39244794845581055,0.5518817901611328,-2.1908249855041504
1772798008140960500,2.30796044921875,0.4210180640220642,0.46505796909332275,-2.386213779449463
1772798008150987300,2.3179873046875,0.432685911655426,0.42474570870399475,-2.579275131225586
1772798008161014500,2.3280146484375,0.43557384610176086,0.3827716112136841,-2.6977086067199707
1772798008171040500,2.33804052734375,0.41093719005584717,0.4005335569381714,-2.7341740131378174
1772798008181068300,2.348068359375,0.3845876157283783,0.9640541672706604,-3.1181466579437256
1772798008191095000,2.358094970703125,0.42320558428764343,1.073390007019043,-3.327638626098633
1772798008201121000,2.36812109375,0.38559216260910034,0.9866372346878052,-3.188185691833496
1772798008211148300,2.378148193359375,0.2998493015766144,0.6311747431755066,-2.6189193725585938
1772798008221175300,2.38817529296875,0.3098452091217041,0.31733882427215576,-1.8805674314498901
1772798008231201300,2.398201171875,0.35786306858062744,0.24365712702274323,-1.3989366292953491
1772798008241228000,2.40822802734375,0.5097774863243103,0.3560212254524231,-1.3214586973190308
1772798008251254000,2.41825390625,0.6285116076469421,0.5098667144775391,-1.2018603086471558
1772798008261281300,2.42828125,0.7265300750732422,0.731708824634552,-0.9577744603157043
1772798008271308300,2.438308349609375,0.8501108288764954,0.8970695734024048,-0.6075450778007507
1772798008281334300,2.448334228515625,1.0678421258926392,0.8669819831848145,-0.10882208496332169
1772798008291361000,2.458361083984375,1.3714230060577393,0.561051607131958,0.43752139806747437
1772798008301388300,2.46838818359375,1.7612684965133667,0.2378554344177246,0.7499874234199524
1772798008311414300,2.478414306640625,2.199732542037964,-0.024276576936244965,0.4578501284122467
1772798008321441300,2.488441162109375,2.738994598388672,-0.41008979082107544,-0.37342390418052673
1772798008331468000,2.498468017578125,3.2076938152313232,-0.8954311609268188,-1.1723605394363403
1772798008341494000,2.508493896484375,3.5770986080169678,-1.6209782361984253,-1.2965857982635498
1772798008351521300,2.518521240234375,3.6614034175872803,-1.950586199760437,-0.6106468439102173
1772798008361548300,2.52854833984375,3.3139021396636963,-1.498368501663208,0.536317765712738
1772798008371574300,2.53857421875,2.631216287612915,-0.6844603419303894,1.523876428604126
1772798008381601000,2.54860107421875,1.8863822221755981,-0.008246478624641895,2.1567564010620117
1772798008391628300,2.558628173828125,1.223860740661621,0.3723740875720978,2.5302670001983643
1772798008401654300,2.568654296875,0.8451893329620361,0.4623772203922272,2.742652416229248
1772798008411681300,2.578681396484375,0.7067968249320984,0.3764210343360901,2.81895112991333
1772798008421708000,2.5887080078125,0.675451397895813,0.24709154665470123,2.7612433433532715
1772798008431734000,2.598734130859375,0.6883544325828552,0.06984885782003403,2.5423927307128906
1772798008441761300,2.60876123046875,0.7527611255645752,-0.17966456711292267,2.3069844245910645
1772798008451788300,2.618788330078125,0.8348336219787598,-0.40002650022506714,2.141051769256592
1772798008461814300,2.628814208984375,0.8463408946990967,-0.5217297673225403,2.124950885772705
1772798008471841000,2.638841064453125,0.7507451176643372,-0.5661725997924805,2.269029140472412
1772798008481867000,2.648866943359375,0.5560850501060486,-0.5473214387893677,2.4968276023864746
1772798008491894300,2.658894287109375,0.3379625976085663,-0.4771961271762848,2.675931215286255
1772798008501921300,2.66892138671875,0.17008544504642487,-0.26456373929977417,2.658831834793091
1772798008511947300,2.678947265625,0.0856722965836525,-0.14739318192005157,2.449070692062378
1772798008521974000,2.68897412109375,0.12048646807670593,-0.005075452383607626,2.0153074264526367
1772798008532001300,2.699001220703125,0.19674262404441833,0.1304999589920044,1.523497223854065
1772798008542027300,2.70902734375,0.28560271859169006,0.24612641334533691,1.0565612316131592
1772798008552054300,2.71905419921875,0.39256325364112854,0.34992098808288574,0.6062313318252563
1772798008562081000,2.7290810546875,0.46132901310920715,0.47517451643943787,0.16928543150424957
1772798008572107000,2.73910693359375,0.47320351004600525,0.637184739112854,-0.21778878569602966
1772798008582134300,2.74913427734375,0.4316613972187042,0.7892270088195801,-0.5460124611854553
1772798008592161300,2.759161376953125,0.3567700982093811,0.8688759803771973,-0.8096078634262085
1772798008602187300,2.769187255859375,0.258444607257843,0.9013969302177429,-1.06792151927948
1772798008612214000,2.779214111328125,0.1444791555404663,0.8642135858535767,-1.3329757452011108
1772798008622241300,2.7892412109375,0.02846706099808216,0.7761442065238953,-1.6198275089263916
1772798008632267300,2.799267333984375,-0.08496362715959549,0.6493074297904968,-1.9105149507522583
1772798008642294300,2.809294189453125,-0.1565515249967575,0.4808875322341919,-2.142141342163086
1772798008652320300,2.8193203125,-0.17957454919815063,0.30632051825523376,-2.313403844833374
1772798008662347000,2.829346923828125,-0.172334223985672,0.13666357100009918,-2.419882297515869
1772798008672374300,2.839374267578125,-0.13858957588672638,-0.017557155340909958,-2.484729766845703
1772798008682400300,2.849400146484375,-0.06118665635585785,-0.13147680461406708,-2.5035240650177
1772798008692427300,2.85942724609375,0.016158729791641235,-0.2148268222808838,-2.4529800415039062
1772798008702454000,2.8694541015625,0.06408631056547165,-0.24761618673801422,-2.3631606101989746
1772798008712480000,2.87947998046875,0.06723256409168243,-0.2522974908351898,-2.246962308883667
1772798008722507300,2.88950732421875,0.02857678383588791,-0.2385776937007904,-2.1467041969299316
1772798008732534300,2.8995341796875,-0.025176193565130234,-0.22147487103939056,-2.0877232551574707
1772798008742560300,2.909560302734375,-0.09740724414587021,-0.20816971361637115,-2.0714197158813477
1772798008752587000,2.9195869140625,-0.15363669395446777,-0.1869448572397232,-2.079474687576294
1772798008762614300,2.9296142578125,-0.14567944407463074,-0.10019797086715698,-2.037343740463257
1772798008772640300,2.93964013671875,-0.06320720165967941,0.026100575923919678,-1.9049266576766968
1772798008782667300,2.949667236328125,0.04261430725455284,0.1609089970588684,-1.638473391532898
1772798008792694000,2.959694091796875,0.11992666870355606,0.1862947791814804,-1.2224074602127075
1772798008802720000,2.969719970703125,0.13294313848018646,0.16492770612239838,-0.804560124874115
1772798008812747300,2.979747314453125,0.14254197478294373,0.16286401450634003,-0.6282093524932861
1772798008822774300,2.989774169921875,0.22842945158481598,0.1514827311038971,-0.7872533202171326
1772798008832800300,2.99980029296875,0.47050145268440247,0.04241936281323433,-1.1260616779327393
1772798008842827000,3.009826904296875,0.8959819078445435,-0.3198174238204956,-1.4674451351165771
1772798008852853000,3.01985302734375,1.4306820631027222,-0.8083434104919434,-1.879891276359558
1772798008862880300,3.02988037109375,1.8027901649475098,-1.1591967344284058,-2.015221357345581
1772798008872907300,3.0399072265625,1.9834257364273071,-1.0746352672576904,-1.422324299812317
1772798008882933200,3.049933349609375,2.1432747840881348,-0.7272334098815918,-0.0017358483746647835
1772798008892960000,3.0599599609375,2.1068880558013916,-0.1126708909869194,1.584822177886963
1772798008902987300,3.0699873046875,1.8848328590393066,0.7272784113883972,2.766045093536377
1772798008913013200,3.08001318359375,1.6018950939178467,1.0209920406341553,3.450542449951172
1772798008923040300,3.090040283203125,1.4226105213165283,0.6564077138900757,3.5935914516448975
1772798008933067000,3.10006689453125,1.3444830179214478,-0.03764724358916283,3.2894222736358643
1772798008943093000,3.110093017578125,1.3395599126815796,-0.6507053375244141,2.874824047088623
1772798008953120300,3.120120361328125,1.3629791736602783,-0.9313585758209229,2.685330390930176
1772798008963147300,3.130147216796875,1.3935309648513794,-0.911171555519104,2.7454655170440674
1772798008973173200,3.14017333984375,1.4378278255462646,-0.7359232902526855,2.899473190307617
1772798008983200000,3.150199951171875,1.4648706912994385,-0.49478521943092346,2.9931437969207764
1772798008993226200,3.160226318359375,1.4775108098983765,-0.263936311006546,2.9463765621185303
1772798009003253200,3.170253173828125,1.4905859231948853,-0.13331358134746552,2.859015703201294
1772798009013280300,3.1802802734375,1.472469449043274,-0.11755166202783585,2.8538386821746826
1772798009023306200,3.19030615234375,1.4070347547531128,-0.15962907671928406,2.935635566711426
1772798009033333000,3.2003330078125,1.3131152391433716,-0.2221079021692276,3.056567430496216
1772798009043360300,3.2103603515625,1.2163407802581787,-0.2717422842979431,3.1752676963806152
1772798009053386200,3.22038623046875,1.1552350521087646,-0.24058064818382263,3.23757004737854
1772798009063413200,3.230413330078125,1.1024093627929688,-0.2147783488035202,3.220327854156494
1772798009073440000,3.24043994140625,1.080997109413147,-0.1764346808195114,3.0964198112487793
1772798009083466200,3.25046630859375,1.1042914390563965,-0.12662266194820404,2.87749981880188
1772798009093493200,3.2604931640625,1.1618239879608154,-0.08189806342124939,2.5593197345733643
1772798009103520300,3.270520263671875,1.2325592041015625,-0.07942025363445282,2.135495901107788
1772798009113546200,3.280546142578125,1.2762869596481323,-0.11384987086057663,1.6306495666503906
1772798009123573000,3.290572998046875,1.281261682510376,-0.16151991486549377,1.0570019483566284
1772798009133599200,3.30059912109375,1.2330358028411865,-0.22309939563274384,0.4148206114768982
1772798009143626200,3.310626220703125,1.1625709533691406,-0.2504394054412842,-0.2585087716579437
1772798009153653200,3.3206533203125,1.0785080194473267,-0.2451799362897873,-0.8672307133674622
1772798009163679200,3.33067919921875,0.9946853518486023,-0.17506875097751617,-1.3507195711135864
1772798009173706200,3.340706298828125,0.908794105052948,-0.04116927459836006,-1.659913182258606
1772798009183733000,3.35073291015625,0.8225303292274475,0.13028396666049957,-1.8485413789749146
1772798009193759000,3.360759033203125,0.7546024322509766,0.30395936965942383,-2.003293752670288
1772798009203786000,3.370785888671875,0.6989753842353821,0.4478107988834381,-2.1370551586151123
1772798009213812700,3.380812744140625,0.6529847383499146,0.5413500666618347,-2.2727277278900146
1772798009223839000,3.3908388671875,0.6009508371353149,0.5642859935760498,-2.41922926902771
1772798009233866000,3.400865966796875,0.55738365650177,0.5477312803268433,-2.5728750228881836
1772798009243893000,3.41089306640625,0.508606493473053,0.5075215101242065,-2.7269742488861084
1772798009253919000,3.4209189453125,0.4552370309829712,0.45609909296035767,-2.8567185401916504
1772798009263945700,3.43094580078125,0.41479480266571045,0.3845183849334717,-2.9360907077789307
1772798009273972000,3.440971923828125,0.3898143470287323,0.33322882652282715,-2.915222644805908
1772798009283999000,3.4509990234375,0.3881338834762573,0.3142964243888855,-2.821769952774048
1772798009294026000,3.46102587890625,0.37693876028060913,0.3102841079235077,-2.6352806091308594
1772798009304052000,3.471052001953125,0.3344498872756958,0.3609890937805176,-2.3805932998657227
1772798009314079000,3.481078857421875,0.24338655173778534,0.4271917939186096,-2.11257266998291
1772798009324106000,3.49110595703125,0.11442431062459946,0.5069977045059204,-1.913375735282898
1772798009334132000,3.501132080078125,-0.013791712000966072,0.5689452290534973,-1.8911943435668945
1772798009344159000,3.511158935546875,-0.13534477353096008,0.646162211894989,-2.05414080619812
1772798009354185700,3.521185791015625,-0.3009435832500458,0.737022340297699,-2.33293080329895
1772798009364212000,3.5312119140625,-0.4298829436302185,1.0722144842147827,-2.5587401390075684
1772798009374239000,3.541239013671875,-0.44327810406684875,1.660886287689209,-2.4737143516540527
1772798009384265000,3.551264892578125,-0.21385236084461212,2.0266380310058594,-1.785451889038086
1772798009394292000,3.5612919921875,0.2075936645269394,2.041745185852051,-0.9369794130325317
1772798009404318700,3.571318603515625,0.5591892600059509,1.8860405683517456,-0.8622258305549622
1772798009414345000,3.581344970703125,1.0806471109390259,1.2117772102355957,-1.0639970302581787
1772798009424372000,3.5913720703125,1.5395725965499878,0.0607277937233448,-0.965646505355835
1772798009434399000,3.60139892578125,2.0482864379882812,-1.059191107749939,-0.3646160364151001
1772798009444425000,3.611425048828125,2.4167027473449707,-1.440861463546753,0.5716406106948853
1772798009454452000,3.621451904296875,2.6176342964172363,-1.208917498588562,1.4517258405685425
1772798009464479000,3.63147900390625,2.8714418411254883,-0.7781186699867249,2.098214626312256
1772798009474505000,3.6415048828125,3.0659735202789307,-0.42773109674453735,2.3103857040405273
1772798009484532000,3.651531982421875,3.030832290649414,-0.18090400099754333,2.039077043533325
1772798009494558000,3.661557861328125,2.8464181423187256,0.008433698676526546,1.6113754510879517
1772798009504585000,3.6715849609375,2.47843074798584,0.08639480918645859,1.360819935798645
1772798009514612000,3.681612060546875,2.054199695587158,0.2245873063802719,1.503010630607605
1772798009524638000,3.691637939453125,1.7204654216766357,0.31038928031921387,1.7253882884979248
1772798009534665000,3.7016650390625,1.5370697975158691,0.28568047285079956,1.8213372230529785
1772798009544692000,3.71169189453125,1.4453190565109253,0.19080030918121338,1.7520371675491333
1772798009554718000,3.721718017578125,1.3372714519500732,0.06507381051778793,1.60516357421875
1772798009564745000,3.731744873046875,1.2269481420516968,-0.03129107877612114,1.5435012578964233
1772798009574772000,3.74177197265625,1.1310988664627075,-0.11053609848022461,1.613373041152954
1772798009584798000,3.7517978515625,1.0436533689498901,-0.14280828833580017,1.7829331159591675
1772798009594825000,3.761824951171875,0.9756341576576233,-0.18000571429729462,1.9746087789535522
1772798009604851000,3.771850830078125,0.9522928595542908,-0.21927616000175476,2.1493561267852783
1772798009614878000,3.7818779296875,0.9874537587165833,-0.2377060353755951,2.179023504257202
1772798009624905000,3.791905029296875,1.0578083992004395,-0.22916553914546967,1.9387383460998535
1772798009634931000,3.801930908203125,1.162916898727417,-0.16845957934856415,1.4451260566711426
1772798009644958000,3.8119580078125,1.2501429319381714,-0.1280149519443512,0.8566299676895142
1772798009654985000,3.82198486328125,1.2902536392211914,-0.1827588975429535,0.34999847412109375
1772798009665011000,3.832010986328125,1.2623013257980347,-0.1819080114364624,-0.12609215080738068
1772798009675038000,3.842037841796875,1.1717336177825928,-0.11646855622529984,-0.49186480045318604
1772798009685065000,3.85206494140625,1.042824625968933,0.06414409726858139,-0.809630811214447
1772798009695091000,3.862091064453125,0.8964048624038696,0.271707147359848,-1.123620629310608
1772798009705118000,3.872117919921875,0.7623152136802673,0.48864078521728516,-1.4211440086364746
1772798009715144000,3.88214404296875,0.6671820282936096,0.6741136908531189,-1.695852518081665
1772798009725171000,3.8921708984375,0.5879894495010376,0.8012362718582153,-1.9286218881607056
1772798009735198000,3.902197998046875,0.5168324708938599,0.840055525302887,-2.1116058826446533
1772798009745224000,3.912223876953125,0.4507101774215698,0.7941027283668518,-2.208256244659424
1772798009755251000,3.9222509765625,0.3977327048778534,0.6741265058517456,-2.2259671688079834
1772798009765278000,3.93227783203125,0.3543224036693573,0.5137903690338135,-2.192009449005127
1772798009775304000,3.942303955078125,0.3334434926509857,0.3671431243419647,-2.1688406467437744
1772798009785331000,3.9523310546875,0.32809212803840637,0.26173707842826843,-2.1954071521759033
1772798009795357000,3.96235693359375,0.3355998396873474,0.19732318818569183,-2.228581190109253
1772798009805384000,3.972384033203125,0.33278727531433105,0.15107740461826324,-2.2474355697631836
1772798009815411000,3.982410888671875,0.3317297399044037,0.129913792014122,-2.26582670211792
1772798009825437000,3.99243701171875,0.3522438108921051,0.12609827518463135,-2.2917802333831787
1772798009835464000,4.0024638671875,0.37408944964408875,0.12417201697826385,-2.297692060470581
1772798009845491000,4.012490966796875,0.40372031927108765,0.18983304500579834,-2.1588246822357178
1772798009855517000,4.022516845703125,0.39904487133026123,0.37934252619743347,-1.8532508611679077
1772798009865544000,4.0325439453125,0.32337406277656555,0.5236144661903381,-1.4730857610702515
1772798009875571000,4.042571044921875,0.249331533908844,0.5368977785110474,-1.1066875457763672
1772798009885597000,4.052596923828125,0.2804811894893646,0.43764737248420715,-0.9138101935386658
1772798009895624000,4.0626240234375,0.4184819459915161,0.10429258644580841,-1.0723332166671753
1772798009905650000,4.07264990234375,0.7236993908882141,-0.35853391885757446,-1.3565067052841187
1772798009915677000,4.082677001953125,1.0968372821807861,-0.7004371881484985,-1.3712184429168701
1772798009925704000,4.092703857421875,1.4431393146514893,-0.8877114653587341,-1.3435839414596558
1772798009935730000,4.10272998046875,1.7639199495315552,-0.9063621163368225,-1.6299967765808105
1772798009945757000,4.1127568359375,2.1556975841522217,-0.8244776725769043,-1.694594383239746
1772798009955784000,4.122783935546875,2.362015962600708,-0.44912853837013245,-1.2097119092941284
1772798009965810000,4.132809814453125,2.521315336227417,-0.11431645601987839,0.02443050779402256
1772798009975837000,4.1428369140625,2.7532715797424316,0.05523689091205597,1.7231773138046265
1772798009985863000,4.15286279296875,2.887338399887085,0.16707047820091248,2.8720479011535645
1772798009995890000,4.162889892578125,2.8195877075195312,0.2539268136024475,3.179766893386841
1772798010005917000,4.1729169921875,2.458143711090088,0.6734367609024048,3.0140702724456787
1772798010015943000,4.18294287109375,2.067185878753662,1.2050542831420898,2.8449244499206543
1772798010025970000,4.192969970703125,1.6361569166183472,1.431646466255188,2.865915536880493
1772798010035997000,4.202996826171875,1.433600664138794,1.3770101070404053,2.8637027740478516
1772798010046023000,4.21302294921875,1.5051299333572388,1.1757416725158691,2.745518684387207
1772798010056050000,4.2230498046875,1.7113773822784424,0.948080837726593,2.4300456047058105
1772798010066076200,4.233076171875,1.9450441598892212,0.7189996838569641,1.9399958848953247
1772798010076103000,4.24310302734375,2.10090708732605,0.40351471304893494,1.541725754737854
1772798010086130000,4.2531298828125,2.12729549407959,0.056713879108428955,1.3548589944839478
1772798010096156000,4.263156005859375,1.9954922199249268,-0.23650334775447845,1.339245080947876
1772798010106183000,4.273182861328125,1.7714964151382446,-0.43074101209640503,1.4136120080947876
1772798010116210000,4.2832099609375,1.5353589057922363,-0.5232459306716919,1.5057904720306396
1772798010126236000,4.29323583984375,1.3282550573349,-0.5025339722633362,1.5972412824630737
1772798010136263000,4.303262939453125,1.1634660959243774,-0.4077390134334564,1.6572885513305664
1772798010146289000,4.313288818359375,1.0428690910339355,-0.2766009569168091,1.6922519207000732
1772798010156316200,4.323316162109375,0.9663053750991821,-0.17728424072265625,1.7022515535354614
1772798010166343000,4.333343017578125,1.0200554132461548,-0.09680137783288956,1.6817718744277954
1772798010176369000,4.343368896484375,1.0860439538955688,-0.03087615594267845,1.5853360891342163
1772798010186395100,4.35339501953125,1.1410425901412964,-0.005470931995660067,1.3947155475616455
1772798010196422100,4.363422119140625,1.1287288665771484,-0.00749200489372015,1.1364179849624634
1772798010206448400,4.373448486328125,1.0610989332199097,-0.041242510080337524,0.8292052745819092
1772798010216475100,4.38347509765625,0.9494739174842834,-0.07672087848186493,0.4920211434364319
1772798010226501000,4.393501220703125,0.8331670165061951,-0.06066760793328285,0.08437293767929077
1772798010236528000,4.403528076171875,0.7146161198616028,0.007802262902259827,-0.377431184053421
1772798010246555400,4.413555419921875,0.6087512373924255,0.11339233815670013,-0.8538376688957214
1772798010256581400,4.423581298828125,0.5292254686355591,0.23962324857711792,-1.2662893533706665
1772798010266608000,4.433608154296875,0.5125325322151184,0.35887959599494934,-1.5628260374069214
1772798010276635100,4.44363525390625,0.5599884986877441,0.46206456422805786,-1.738377571105957
1772798010286661000,4.4536611328125,0.6438588500022888,0.5438292026519775,-1.773772120475769
1772798010296688400,4.4636884765625,0.725214958190918,0.5768281817436218,-1.7195870876312256
1772798010306714400,4.47371435546875,0.775272011756897,0.5569780468940735,-1.6193190813064575
1772798010316741000,4.4837412109375,0.7797772884368896,0.514953076839447,-1.5720858573913574
1772798010326768000,4.49376806640625,0.7310635447502136,0.47181546688079834,-1.6498740911483765
1772798010336794000,4.503794189453125,0.6656131744384766,0.4301881194114685,-1.8249531984329224
1772798010346821400,4.5138212890625,0.5827718377113342,0.3713306784629822,-2.0445632934570312
1772798010356848000,4.52384814453125,0.525794267654419,0.3592503070831299,-2.2899272441864014
1772798010366874000,4.5338740234375,0.5435370802879333,0.4103164076805115,-2.5499114990234375
1772798010376901000,4.543901123046875,0.6402676105499268,0.5279189348220825,-2.768836259841919
1772798010386927000,4.553927001953125,0.7715215086936951,0.6910024285316467,-2.956178665161133
1772798010396954400,4.563954345703125,0.9220132827758789,0.7925753593444824,-3.1726973056793213
1772798010406981000,4.573981201171875,1.0821837186813354,0.7737407088279724,-3.379275321960449
1772798010417007000,4.584007080078125,1.2592506408691406,0.4752538800239563,-3.5100135803222656
1772798010427034000,4.5940341796875,1.482175588607788,-0.06217122822999954,-3.6137194633483887
1772798010437061400,4.604061279296875,1.8224711418151855,-0.47088494896888733,-3.5198850631713867
1772798010447087400,4.61408740234375,2.1717450618743896,-0.6573312878608704,-2.8226146697998047
1772798010457114000,4.624114013671875,2.3259713649749756,-0.8248060345649719,-1.8434087038040161
1772798010467140000,4.63414013671875,2.3494038581848145,-1.197332739830017,-0.9870569705963135
1772798010477167000,4.6441669921875,2.2330095767974854,-1.1276301145553589,-0.2881675958633423
1772798010487194400,4.6541943359375,1.8907990455627441,-0.5712161064147949,0.5923317670822144
1772798010497220400,4.664220458984375,1.6110047101974487,-0.035288482904434204,1.825876235961914
1772798010507247000,4.6742470703125,1.4970896244049072,0.40334320068359375,2.8888187408447266
1772798010517274000,4.684274169921875,1.289270043373108,0.7599971890449524,3.4236698150634766
1772798010527300000,4.694300048828125,1.157511591911316,1.042532205581665,3.386284351348877
1772798010537327400,4.704327392578125,1.1886303424835205,1.1998978853225708,2.9177916049957275
1772798010547353300,4.714353271484375,1.362032413482666,1.105071783065796,2.358429431915283
1772798010557380000,4.724380126953125,1.6052675247192383,0.8171470165252686,1.9748090505599976
1772798010567407000,4.734406982421875,1.862328290939331,0.45813214778900146,1.8224743604660034
1772798010577433000,4.74443310546875,2.0643012523651123,0.07822556048631668,1.7813756465911865
1772798010587460400,4.75446044921875,2.166135311126709,-0.2257886528968811,1.6669979095458984
1772798010597486300,4.764486328125,2.162604570388794,-0.3572412133216858,1.5064871311187744
1772798010607513000,4.77451318359375,2.018150568008423,-0.2929735481739044,1.4225623607635498
1772798010617540000,4.7845400390625,1.772201657295227,-0.12387081235647202,1.5191293954849243
1772798010627566300,4.79456640625,1.5042694807052612,0.09272487461566925,1.8143682479858398
1772798010637593300,4.80459326171875,1.267749309539795,0.2586970627307892,2.2192299365997314
1772798010647620000,4.8146201171875,1.065467119216919,0.29405930638313293,2.6229352951049805
1772798010657646000,4.82464599609375,0.9722436666488647,0.26000362634658813,2.868260622024536
1772798010667673000,4.834673095703125,1.0152928829193115,0.19588908553123474,2.812751054763794
1772798010677699300,4.84469921875,1.1254925727844238,0.0973297506570816,2.507779121398926
1772798010687726300,4.854726318359375,1.2079983949661255,0.04740719497203827,2.0218822956085205
1772798010697753000,4.864753173828125,1.2184587717056274,0.059652943164110184,1.431199550628662
1772798010707779000,4.874779052734375,1.1481499671936035,0.09708340466022491,0.8208515048027039
1772798010717806000,4.88480615234375,1.0066235065460205,0.134918674826622,0.22920602560043335
1772798010727833300,4.894833251953125,0.8139347434043884,0.16258971393108368,-0.3419269919395447
1772798010737859300,4.904859375,0.6374678015708923,0.1656976193189621,-0.8931520581245422
1772798010747886000,4.914885986328125,0.4795258641242981,0.17640219628810883,-1.3769570589065552
1772798010757912000,4.924912109375,0.35171863436698914,0.19174866378307343,-1.7795846462249756
1772798010767939300,4.934939208984375,0.31304845213890076,0.20042577385902405,-2.0853493213653564
1772798010777966300,4.94496630859375,0.3107245862483978,0.21938349306583405,-2.2852976322174072
1772798010787992300,4.954992431640625,0.3110518753528595,0.24514050781726837,-2.4218177795410156
1772798010798019000,4.96501904296875,0.3037271201610565,0.27705103158950806,-2.546107769012451
1772798010808045000,4.975045166015625,0.255725234746933,0.2679955065250397,-2.652611255645752
1772798010818072300,4.985072265625,0.18021796643733978,0.24758955836296082,-2.7247250080108643
1772798010828099300,4.995099365234375,0.09490281343460083,0.23812654614448547,-2.772313117980957
1772798010838125300,5.005125244140625,0.028071582317352295,0.244233176112175,-2.788722515106201
1772798010848152000,5.015152099609375,-0.0011624698527157307,0.28054431080818176,-2.7895305156707764
1772798010858179300,5.025179443359375,0.0009363674325868487,0.30228981375694275,-2.8026256561279297
1772798010868205300,5.035205322265625,0.011748002842068672,0.2843446433544159,-2.8108911514282227
1772798010878232300,5.045232421875,0.032040756195783615,0.18694671988487244,-2.8141419887542725
1772798010888258300,5.05525830078125,0.07754512876272202,-0.0015398397808894515,-2.8173599243164062
1772798010898285000,5.06528515625,0.12759578227996826,-0.19479158520698547,-2.708003044128418
1772798010908312300,5.075312255859375,0.14592763781547546,-0.31785306334495544,-2.4180030822753906
1772798010918338300,5.08533837890625,0.08878659456968307,-0.4573158919811249,-2.0125532150268555
1772798010928365300,5.095365234375,0.060026850551366806,-0.5330410003662109,-1.6152352094650269
1772798010938391300,5.105391357421875,0.03965739905834198,-0.5533676147460938,-1.3429665565490723
1772798010948418000,5.11541796875,0.05353406444191933,-0.4306850731372833,-1.2611033916473389
1772798010958445300,5.1254453125,0.2235420048236847,-0.10786548256874084,-1.3808099031448364
1772798010968471300,5.13547119140625,0.49522653222084045,0.34917983412742615,-1.640578031539917
1772798010978498300,5.145498291015625,0.901540994644165,0.9370002150535583,-1.872474193572998
1772798010988525000,5.155525146484375,1.4119454622268677,1.1302639245986938,-1.478127360343933
1772798010998551000,5.165551025390625,1.7644611597061157,0.7641075253486633,-0.3305283784866333
1772798011008578300,5.175578369140625,1.8466627597808838,0.41655781865119934,1.0211938619613647
1772798011018604300,5.185604248046875,1.7891875505447388,0.2972322106361389,2.1979563236236572
1772798011028631300,5.19563134765625,1.6817412376403809,0.2979600429534912,2.8535873889923096
1772798011038658000,5.205657958984375,1.687786340713501,0.2983342409133911,2.9455721378326416
1772798011048684000,5.21568408203125,1.791578769683838,0.22147566080093384,2.5371310710906982
1772798011058711300,5.225711181640625,1.848304033279419,0.09721709787845612,1.8695545196533203
1772798011068737300,5.2357373046875,1.7932474613189697,-0.0908028706908226,1.2635687589645386
1772798011078764300,5.245764404296875,1.610456943511963,-0.3166431784629822,0.8977497220039368
1772798011088791000,5.255791015625,1.328260064125061,-0.413076251745224,0.7413798570632935
1772798011098817000,5.265817138671875,0.981032133102417,-0.41195639967918396,0.7239273190498352
1772798011108844300,5.27584423828125,0.6227660775184631,-0.38732802867889404,0.8713761568069458
1772798011118871300,5.285871337890625,0.36202719807624817,-0.31727224588394165,1.1406151056289673
1772798011128897300,5.295897216796875,0.2126491516828537,-0.2703630328178406,1.4046872854232788
1772798011138924000,5.305924072265625,0.18259058892726898,-0.20400986075401306,1.6578558683395386
1772798011148950300,5.3159501953125,0.19277290999889374,-0.16531012952327728,1.9238172769546509
1772798011158977300,5.325977294921875,0.14190547168254852,-0.18135620653629303,2.197068929672241
1772798011169004300,5.33600439453125,0.19697165489196777,-0.11671330034732819,2.4275331497192383
1772798011179030500,5.346030517578125,0.21621058881282806,-0.09928397834300995,2.5642595291137695
1772798011189057300,5.356057373046875,0.22566960752010345,-0.10338044911623001,2.5494494438171387
1772798011199083300,5.366083251953125,0.2789466679096222,-0.13703641295433044,2.408985137939453
1772798011209110500,5.376110595703125,0.3690131902694702,-0.17843978106975555,2.180163860321045
1772798011219137500,5.386137451171875,0.4773401916027069,-0.21638956665992737,1.862858772277832
1772798011229163500,5.39616357421875,0.5419122576713562,-0.2990410327911377,1.5040148496627808
1772798011239190300,5.406190185546875,0.6400849223136902,-0.3280380666255951,1.1548209190368652
1772798011249217500,5.416217529296875,0.7384791374206543,-0.26526814699172974,0.7837145328521729
1772798011259243500,5.426243408203125,0.7744525671005249,-0.0934082418680191,0.4093715250492096
1772798011269270500,5.4362705078125,0.7288874983787537,0.07713073492050171,0.03676866739988327
1772798011279296500,5.446296630859375,0.6709415912628174,0.16598550975322723,-0.3039308488368988
1772798011289323300,5.4563232421875,0.6168760061264038,0.2095811814069748,-0.6528941988945007
1772798011299350500,5.4663505859375,0.530937910079956,0.2395486682653427,-0.9992236495018005
1772798011309376500,5.47637646484375,0.4000970721244812,0.27025970816612244,-1.2678899765014648
1772798011319403500,5.486403564453125,0.23042096197605133,0.3114665448665619,-1.4073834419250488
1772798011329429500,5.496429443359375,0.05475059524178505,0.2977113127708435,-1.4476467370986938
1772798011339456300,5.506456298828125,-0.09166494011878967,0.25214168429374695,-1.4475071430206299
1772798011349483500,5.5164833984375,-0.19522249698638916,0.20660750567913055,-1.460038661956787
1772798011359509500,5.526509521484375,-0.25344717502593994,0.2122669816017151,-1.4990936517715454
1772798011369536500,5.53653662109375,-0.2565694749355316,0.22874823212623596,-1.586403250694275
1772798011379562500,5.5465625,-0.1930171251296997,0.2050522118806839,-1.7126754522323608
1772798011389589200,5.55658935546875,-0.09529189765453339,0.17798225581645966,-1.8328969478607178
1772798011399616500,5.566616455078125,-0.014422348700463772,0.1644163727760315,-1.9130359888076782
1772798011409642500,5.576642578125,0.035295937210321426,0.18564443290233612,-1.941833734512329
1772798011419669500,5.58666943359375,0.02575995773077011,0.23097196221351624,-1.8847864866256714
1772798011429696300,5.5966962890625,-0.058086737990379333,0.20529909431934357,-1.6956607103347778
1772798011439722500,5.606722412109375,-0.15680666267871857,0.1591065675020218,-1.4345524311065674
1772798011449749500,5.61674951171875,-0.2707425355911255,0.14775803685188293,-1.2454789876937866
1772798011459775500,5.626775390625,-0.39626210927963257,0.20395925641059875,-1.2218804359436035
1772798011469802500,5.636802490234375,-0.5442718267440796,0.2774134874343872,-1.3802982568740845
1772798011479829200,5.646829345703125,-0.7013226747512817,0.411284476518631,-1.7694228887557983
1772798011489855500,5.65685546875,-0.8174423575401306,0.639946699142456,-2.3633551597595215
1772798011499882500,5.666882568359375,-0.7058159708976746,0.5225495100021362,-2.7429726123809814
1772798011509908500,5.676908447265625,-0.37824609875679016,0.10986045747995377,-2.464478015899658
1772798011519935500,5.686935546875,0.04507426917552948,-0.3007201552391052,-1.8431562185287476
1772798011529962500,5.69696240234375,0.5185621976852417,-0.4656265377998352,-1.2208186388015747
1772798011539988500,5.706988525390625,1.1033772230148315,-0.2300156205892563,-0.4959639608860016
1772798011550015500,5.717015380859375,1.5288482904434204,-0.04674087464809418,0.6185092926025391
1772798011560041500,5.72704150390625,1.8856117725372314,-0.4994406998157501,1.7887901067733765
1772798011570068500,5.737068359375,1.8413660526275635,-0.7508734464645386,2.886077880859375
1772798011580095500,5.747095458984375,1.4274221658706665,-0.36915433406829834,3.3026232719421387
1772798011590121500,5.75712158203125,0.9340786933898926,0.2985837757587433,2.934854745864868
1772798011600148500,5.7671484375,0.49987614154815674,0.7808020710945129,2.1410374641418457
1772798011610174500,5.777174560546875,0.2447759211063385,0.9831455945968628,1.4376161098480225
1772798011620201500,5.787201416015625,0.07482098042964935,0.9804384708404541,1.1534526348114014
1772798011630228500,5.797228515625,-0.08353190869092941,0.9229134321212769,1.357333779335022
1772798011640254500,5.80725439453125,-0.11320644617080688,0.8198919296264648,1.7568719387054443
1772798011650281500,5.817281494140625,-0.0732092335820198,0.6572287082672119,1.9646812677383423
1772798011660307500,5.827307373046875,-0.06851248443126678,0.5202961564064026,1.9408931732177734
1772798011670334500,5.83733447265625,-0.026985011994838715,0.43822821974754333,1.7734143733978271
1772798011680361500,5.847361572265625,-0.02472745068371296,0.4171748459339142,1.6592838764190674
1772798011690387500,5.857387451171875,-0.07029653340578079,0.45839738845825195,1.6823416948318481
1772798011700414500,5.86741455078125,-0.1670808643102646,0.423685222864151,1.8438183069229126
1772798011710440400,5.8774404296875,-0.24854403734207153,0.2551848888397217,2.1310970783233643
1772798011720467500,5.887467529296875,-0.28796467185020447,0.02346591092646122,2.3475003242492676
1772798011730494500,5.897494384765625,-0.27179715037345886,-0.21659302711486816,2.3251142501831055
1772798011740520400,5.9075205078125,-0.23865385353565216,-0.4561310410499573,2.192348003387451
1772798011750547500,5.91754736328125,-0.18566679954528809,-0.6366962790489197,1.9527186155319214
1772798011760574500,5.927574462890625,-0.14086231589317322,-0.721618115901947,1.52908194065094
1772798011770600200,5.93760009765625,-0.13964098691940308,-0.7329525351524353,0.9481969475746155
1772798011780627500,5.94762744140625,-0.1648605912923813,-0.6668456792831421,0.3091384172439575
1772798011790653400,5.9576533203125,-0.21723005175590515,-0.5323893427848816,-0.2870965003967285
1772798011800680400,5.967680419921875,-0.29115647077560425,-0.3730601370334625,-0.7532564401626587
1772798011810707500,5.97770751953125,-0.3474003076553345,-0.19069725275039673,-1.1075996160507202
1772798011820733200,5.987733154296875,-0.37078046798706055,0.017595238983631134,-1.3403918743133545
1772798011830760400,5.997760498046875,-0.37809935212135315,0.19080351293087006,-1.473192572593689
1772798011840786400,6.007786376953125,-0.3728705048561096,0.30912429094314575,-1.5567177534103394
1772798011850813400,6.0178134765625,-0.3625214695930481,0.3793606460094452,-1.6250842809677124
1772798011860840400,6.02784033203125,-0.3391575515270233,0.3947712779045105,-1.7042814493179321
1772798011870866400,6.037866455078125,-0.2957232594490051,0.3709479868412018,-1.7842233180999756
1772798011880893400,6.0478935546875,-0.2410227358341217,0.3117307126522064,-1.849350929260254
1772798011890919400,6.05791943359375,-0.1836491972208023,0.17948241531848907,-1.9038314819335938
1772798011900946400,6.067946533203125,-0.13436925411224365,0.01332965400069952,-1.9826754331588745
1772798011910973200,6.07797314453125,-0.10011754930019379,-0.1408684402704239,-2.102409839630127
1772798011920999400,6.08799951171875,-0.07261455059051514,-0.2567199468612671,-2.229637861251831
1772798011931026400,6.0980263671875,-0.02569710835814476,-0.36558037996292114,-2.3002212047576904
1772798011941052400,6.108052490234375,0.03358006477355957,-0.4377318024635315,-2.2912943363189697
1772798011951079400,6.118079345703125,0.07261481136083603,-0.47644564509391785,-2.2044994831085205
1772798011961106400,6.1281064453125,0.10040196776390076,-0.4740983247756958,-2.0834977626800537
1772798011971132400,6.13813232421875,0.07405025511980057,-0.4475274384021759,-1.9915962219238281
1772798011981159400,6.148159423828125,-0.0411761999130249,-0.47014275193214417,-1.9665175676345825
1772798011991185400,6.158185302734375,-0.23005956411361694,-0.5413966774940491,-2.021784782409668
1772798012001212400,6.16821240234375,-0.44737616181373596,-0.6846315860748291,-2.220846176147461
1772798012011239400,6.178239501953125,-0.6262761354446411,-0.8386560678482056,-2.620058059692383
1772798012021265400,6.188265380859375,-0.5475834608078003,-1.0240240097045898,-2.909804105758667
1772798012031292400,6.19829248046875,-0.2500132918357849,-1.133548378944397,-2.725907564163208
1772798012041318400,6.208318359375,0.3672802746295929,-0.9139444231987,-1.966340184211731
1772798012051345400,6.218345458984375,0.8111714124679565,-0.2566981017589569,-1.3009930849075317
1772798012061372400,6.228372314453125,0.9240273833274841,0.5183582305908203,-1.206243634223938
1772798012071398400,6.2383984375,0.6532659530639648,0.7853379845619202,-1.1519583463668823
1772798012081425400,6.24842529296875,0.23468521237373352,0.5682834386825562,-0.564789354801178
1772798012091451400,6.258451416015625,0.01073999609798193,-0.052858419716358185,0.63456791639328
1772798012101478400,6.268478515625,-0.17109638452529907,-0.4775471091270447,2.1317453384399414
1772798012111505400,6.27850537109375,-0.4266471862792969,-0.35519057512283325,3.240574598312378
1772798012121531400,6.288531494140625,-0.5304015278816223,-0.08441554754972458,3.608335018157959
1772798012131558400,6.298558349609375,-0.5325453877449036,0.12464525550603867,3.3557446002960205
1772798012141584400,6.30858447265625,-0.5808950662612915,0.2457626312971115,2.8844335079193115
1772798012151611400,6.318611328125,-0.6905179619789124,0.28284022212028503,2.646137237548828
1772798012161638400,6.328638427734375,-0.8382366299629211,0.3362019956111908,2.693119764328003
1772798012171664400,6.338664306640625,-0.92887943983078,0.39543041586875916,2.877516031265259
1772798012181691400,6.34869140625,-0.9153013229370117,0.3988965153694153,3.023022413253784
1772798012191717400,6.35871728515625,-0.8390981554985046,0.30713650584220886,3.001720905303955
1772798012201744400,6.368744384765625,-0.7459524869918823,0.13048504292964935,2.847560405731201
1772798012211771400,6.378771484375,-0.6632357835769653,-0.07744073122739792,2.643526315689087
1772798012221797400,6.38879736328125,-0.5998618602752686,-0.2817525863647461,2.4243524074554443
1772798012231824400,6.398824462890625,-0.5443743467330933,-0.4276045858860016,2.2201578617095947
1772798012241850400,6.408850341796875,-0.4781138300895691,-0.5390456318855286,2.0815532207489014
1772798012251877600,6.418877685546875,-0.40280789136886597,-0.6132269501686096,2.0496740341186523
1772798012261904400,6.428904296875,-0.35324782133102417,-0.6573323607444763,2.059272289276123
1772798012271930400,6.438930419921875,-0.3298735022544861,-0.6347852349281311,2.0198848247528076
1772798012281957400,6.448957275390625,-0.30767980217933655,-0.5510095953941345,1.896681785583496
1772798012291983400,6.4589833984375,-0.30751654505729675,-0.4063970446586609,1.6738030910491943
1772798012302010600,6.4690107421875,-0.25329217314720154,-0.22564777731895447,1.3717436790466309
1772798012312037400,6.479037353515625,-0.16658605635166168,-0.0817534551024437,1.0728355646133423
1772798012322063400,6.4890634765625,-0.09595369547605515,0.020188625901937485,0.7786433100700378
1772798012332090400,6.49909033203125,-0.041128262877464294,0.0777728259563446,0.44047752022743225
1772798012342116400,6.509116455078125,0.006625145673751831,0.1162581667304039,0.027895547449588776
1772798012352143600,6.5191435546875,0.03913275524973869,0.10284089297056198,-0.41920340061187744
1772798012362170400,6.52917041015625,0.06082047522068024,0.035119637846946716,-0.8194583654403687
1772798012372196400,6.5391962890625,0.10023552179336548,-0.07903729379177094,-1.1359410285949707
1772798012382223400,6.549223388671875,0.15431101620197296,-0.17287804186344147,-1.3688530921936035
1772798012392249300,6.559249267578125,0.2059566229581833,-0.26341113448143005,-1.5181090831756592
1772798012402276600,6.569276611328125,0.25967738032341003,-0.32951849699020386,-1.629197359085083
1772798012412303400,6.579303466796875,0.2914819121360779,-0.36788561940193176,-1.6765997409820557
1772798012422329300,6.589329345703125,0.25552603602409363,-0.34757474064826965,-1.6468063592910767
1772798012432356400,6.5993564453125,0.18115966022014618,-0.2927516996860504,-1.5993012189865112
1772798012442382300,6.60938232421875,0.07708919048309326,-0.20685598254203796,-1.5713603496551514
1772798012452409600,6.61940966796875,-0.04834143444895744,-0.10627051442861557,-1.5554285049438477
1772798012462436400,6.629436279296875,-0.17177201807498932,0.001458080718293786,-1.5396578311920166
1772798012472462300,6.63946240234375,-0.2731766700744629,0.1007460504770279,-1.4916356801986694
1772798012482489300,6.6494892578125,-0.3587733507156372,0.15190191566944122,-1.4173707962036133
1772798012492515300,6.659515380859375,-0.4073483347892761,0.15270085632801056,-1.3063234090805054
1772798012502542600,6.66954248046875,-0.41889604926109314,0.1321266144514084,-1.164779543876648
1772798012512568600,6.679568603515625,-0.43823114037513733,0.09987679868936539,-0.9996579885482788
1772798012522595300,6.68959521484375,-0.4941157102584839,0.03784698247909546,-0.8386355638504028
1772798012532622300,6.699622314453125,-0.5965265035629272,-0.0905727744102478,-0.73417729139328
1772798012542648300,6.7096484375,-0.7053038477897644,-0.2547534704208374,-0.6793340444564819
1772798012552675600,6.719675537109375,-0.7938486337661743,-0.3859993517398834,-0.6977178454399109
1772798012562701600,6.72970166015625,-0.8797824382781982,-0.39921316504478455,-0.7818366885185242
1772798012572728300,6.739728271484375,-0.9803990721702576,-0.27927452325820923,-0.8707319498062134
1772798012582755300,6.74975537109375,-1.0703030824661255,-0.025225196033716202,-0.9225648045539856
1772798012592781600,6.759781494140625,-1.1594258546829224,0.20116026699543,-0.83773273229599
1772798012602808600,6.76980859375,-1.2526439428329468,0.38382408022880554,-0.6685335636138916
1772798012612834600,6.77983447265625,-1.3089170455932617,0.3577810525894165,-0.6426833271980286
1772798012622861300,6.789861328125,-1.3940998315811157,0.030050311237573624,-0.8220807909965515
1772798012632888300,6.799888427734375,-1.4617406129837036,-0.6636735796928406,-1.0552424192428589
1772798012642914600,6.80991455078125,-1.5652936697006226,-1.4912716150283813,-1.1607779264450073
1772798012652941600,6.819941650390625,-1.7672784328460693,-2.065077304840088,-0.9552567005157471
1772798012662967600,6.829967529296875,-2.1231229305267334,-2.037716865539551,-0.23228196799755096
1772798012672994300,6.839994384765625,-2.686793804168701,-1.3599591255187988,0.8487885594367981
1772798012683021600,6.850021484375,-3.3152475357055664,-0.30099233984947205,1.7477140426635742
1772798012693047600,6.860047607421875,-3.8445122241973877,0.674393355846405,2.1875579357147217
1772798012703074600,6.870074462890625,-4.153493404388428,1.4141547679901123,2.269866943359375
1772798012713100500,6.8801005859375,-4.182984828948975,1.8200477361679077,2.1338553428649902
1772798012723127300,6.890127197265625,-3.95173978805542,1.8520759344100952,1.9190526008605957
1772798012733154600,6.900154541015625,-3.5856823921203613,1.5978058576583862,1.7523165941238403
1772798012743180500,6.9101806640625,-3.2431321144104004,1.1347662210464478,1.6067460775375366
1772798012753207600,6.92020751953125,-3.020521640777588,0.6286953687667847,1.3816871643066406
1772798012763233500,6.930233642578125,-2.886441230773926,0.2361917644739151,1.062934398651123
1772798012773260300,6.94026025390625,-2.8302388191223145,-0.01727965474128723,0.7611330151557922
1772798012783286300,6.950286376953125,-2.8626391887664795,-0.15854516625404358,0.5591674447059631
1772798012793313500,6.9603134765625,-2.8850584030151367,-0.1783396452665329,0.542823314666748
1772798012803340500,6.970340576171875,-2.8781611919403076,-0.147250697016716,0.6853250861167908
1772798012813366500,6.980366455078125,-2.7879602909088135,-0.07615815103054047,0.9077773094177246
1772798012823393300,6.990393310546875,-2.587296962738037,-0.004776113200932741,1.1415152549743652
1772798012833419300,7.000419189453125,-2.3307552337646484,0.047397077083587646,1.3052825927734375
1772798012843446500,7.010446533203125,-2.0679757595062256,0.023996679112315178,1.262410283088684
1772798012853473500,7.0204736328125,-1.8253071308135986,-0.03220081329345703,1.0744647979736328
1772798012863499500,7.03049951171875,-1.666050672531128,-0.13604891300201416,0.786469042301178
1772798012873526300,7.0405263671875,-1.6173914670944214,-0.27701401710510254,0.47829094529151917
1772798012883552300,7.05055224609375,-1.65004563331604,-0.41332098841667175,0.18886685371398926
1772798012893579500,7.06057958984375,-1.7247939109802246,-0.5020005106925964,-0.1003420501947403
1772798012903606500,7.0706064453125,-1.7763994932174683,-0.5043619871139526,-0.3878268301486969
1772798012913632500,7.080632568359375,-1.7563453912734985,-0.4122008681297302,-0.6496406197547913
1772798012923659300,7.0906591796875,-1.6919422149658203,-0.29163745045661926,-0.8377276659011841
1772798012933685500,7.100685546875,-1.5890815258026123,-0.22693514823913574,-0.9121680855751038
1772798012943712500,7.11071240234375,-1.515848159790039,-0.2687752842903137,-0.8472630977630615
1772798012953738500,7.120738525390625,-1.4834831953048706,-0.33740225434303284,-0.7045331597328186
1772798012963765500,7.130765625,-1.5041272640228271,-0.36120426654815674,-0.597292423248291
1772798012973792300,7.140792236328125,-1.5959059000015259,-0.37136051058769226,-0.5773546695709229
1772798012983818500,7.150818603515625,-1.7283332347869873,-0.38685211539268494,-0.6345604658126831
1772798012993845500,7.160845458984375,-1.8724712133407593,-0.41625741124153137,-0.692701518535614
1772798013003871500,7.17087158203125,-1.9918652772903442,-0.471129447221756,-0.6792200803756714
1772798013013898500,7.1808984375,-2.05305814743042,-0.5416510105133057,-0.604156494140625
1772798013023925500,7.190925537109375,-2.0462522506713867,-0.6029306054115295,-0.4937439262866974
1772798013033951500,7.200951416015625,-1.9905658960342407,-0.6541189551353455,-0.36823341250419617
1772798013043978500,7.210978515625,-1.966045618057251,-0.5988748669624329,-0.2022029012441635
1772798013054004500,7.22100439453125,-2.0167245864868164,-0.44950535893440247,0.0044054011814296246
1772798013064031500,7.231031494140625,-2.118109703063965,-0.3188576102256775,0.21457327902317047
1772798013074058500,7.24105859375,-2.2513623237609863,-0.2840474247932434,0.40931615233421326
1772798013084084500,7.25108447265625,-2.371389150619507,-0.34531503915786743,0.5437282919883728
1772798013094111500,7.261111572265625,-2.444525957107544,-0.4331599473953247,0.578678548336029
1772798013104137500,7.271137451171875,-2.4791831970214844,-0.5193004012107849,0.5201132297515869
1772798013114164500,7.28116455078125,-2.471224546432495,-0.5375798344612122,0.4783521890640259
1772798013124190200,7.291190185546875,-2.4198813438415527,-0.5436686277389526,0.5691137909889221
1772798013134217500,7.301217529296875,-2.3594131469726562,-0.5691667795181274,0.7232346534729004
1772798013144244500,7.311244384765625,-2.4080419540405273,-0.6800363063812256,0.6697469353675842
1772798013154270500,7.3212705078125,-2.501296281814575,-0.8121293783187866,0.35130104422569275
1772798013164297200,7.331297119140625,-2.4860260486602783,-0.8628668785095215,-0.061532601714134216
1772798013174323200,7.3413232421875,-2.4933698177337646,-0.8147909045219421,-0.3520704209804535
1772798013184350000,7.351349853515625,-2.4868664741516113,-0.8372251391410828,-0.3841671049594879
1772798013194377200,7.361377197265625,-2.429811716079712,-0.8587961792945862,-0.16149674355983734
1772798013204403200,7.3714033203125,-2.365460157394409,-0.9073818325996399,0.3265365660190582
1772798013214430200,7.38143017578125,-2.324495553970337,-0.8485051989555359,0.8546944260597229
1772798013224456200,7.391456298828125,-2.3808648586273193,-0.7077587842941284,1.1700867414474487
1772798013234483000,7.40148291015625,-2.5497348308563232,-0.5498681664466858,1.2637256383895874
1772798013244509000,7.411509033203125,-2.7885684967041016,-0.38216760754585266,1.1284819841384888
1772798013254536200,7.4215361328125,-2.986524820327759,-0.2329685389995575,0.853412389755249
1772798013264563200,7.431563232421875,-3.068777561187744,-0.13102886080741882,0.5549660325050354
1772798013274589200,7.441589111328125,-3.0519344806671143,0.015376559458673,0.37443113327026367
1772798013284616000,7.451615966796875,-2.926309585571289,0.2297208160161972,0.40704527497291565
1772798013294642200,7.46164208984375,-2.737563133239746,0.3969564139842987,0.5479192733764648
1772798013304669200,7.471669189453125,-2.5258069038391113,0.45576247572898865,0.6238795518875122
1772798013314696200,7.4816962890625,-2.3316490650177,0.4081574082374573,0.5702664256095886
1772798013324722200,7.49172216796875,-2.180316925048828,0.2682804465293884,0.41136598587036133
1772798013334749000,7.5017490234375,-2.0890674591064453,0.046604521572589874,0.2054343819618225
1772798013344775200,7.511775146484375,-2.0734715461730957,-0.15134717524051666,0.04649106785655022
1772798013354802200,7.52180224609375,-2.181166887283325,-0.3091064393520355,-0.019718045368790627
1772798013364829200,7.5318291015625,-2.2712960243225098,-0.43653151392936707,-0.027398867532610893
1772798013374855200,7.541855224609375,-2.247598648071289,-0.5483435392379761,0.009680324234068394
1772798013384882200,7.551882080078125,-2.086073875427246,-0.5946652293205261,0.053960170596838
1772798013394908200,7.561908203125,-1.8783190250396729,-0.5521014928817749,0.07435013353824615
1772798013404935200,7.57193505859375,-1.7089529037475586,-0.4281201958656311,0.12960407137870789
1772798013414961200,7.581961181640625,-1.5685707330703735,-0.262484610080719,0.2195078581571579
1772798013424988000,7.59198779296875,-1.4645732641220093,-0.14138855040073395,0.2818545997142792
1772798013435015200,7.60201513671875,-1.391076922416687,-0.05874267593026161,0.23825517296791077
1772798013445041200,7.612041259765625,-1.3536841869354248,-0.017973408102989197,0.0744800940155983
1772798013455068200,7.622068115234375,-1.3337550163269043,0.009826797991991043,-0.18140068650245667
1772798013465094100,7.63209423828125,-1.2946428060531616,-0.02630217745900154,-0.4861496686935425
1772798013475121000,7.642120849609375,-1.2138352394104004,-0.10270427167415619,-0.7691299915313721
1772798013485148200,7.652148193359375,-1.125836730003357,-0.21590858697891235,-0.9890064001083374
1772798013495174100,7.662174072265625,-1.0467727184295654,-0.30912721157073975,-1.0900260210037231
1772798013505201200,7.672201171875,-1.0367339849472046,-0.3774833679199219,-1.0536022186279297
1772798013515227100,7.68222705078125,-1.1112329959869385,-0.4013546109199524,-0.96564781665802
1772798013525254000,7.69225390625,-1.2221837043762207,-0.37854915857315063,-0.914384126663208
1772798013535279900,7.70227978515625,-1.3492263555526733,-0.3594162166118622,-0.9059363007545471
1772798013545307100,7.71230712890625,-1.453104019165039,-0.335068017244339,-0.8893749117851257
1772798013555334100,7.722334228515625,-1.500784993171692,-0.3412010073661804,-0.8370235562324524
1772798013565360000,7.732360107421875,-1.4546481370925903,-0.40478238463401794,-0.763097882270813
1772798013575387000,7.742386962890625,-1.3973302841186523,-0.47173556685447693,-0.6374278664588928
1772798013585412900,7.752412841796875,-1.3864715099334717,-0.5194908380508423,-0.4847962558269501
1772798013595440000,7.762440185546875,-1.4391711950302124,-0.5143895745277405,-0.3767954707145691
1772798013605467100,7.772467041015625,-1.534029245376587,-0.45120498538017273,-0.30138540267944336
1772798013615493000,7.7824931640625,-1.6450353860855103,-0.391928106546402,-0.2290174663066864
1772798013625519900,7.792519775390625,-1.778954029083252,-0.4192609190940857,-0.1762075126171112
1772798013635546000,7.802546142578125,-1.8987723588943481,-0.4405675232410431,-0.09090647101402283
1772798013645573000,7.812572998046875,-1.930100917816162,-0.3212595283985138,0.0713101327419281
1772798013655599000,7.82259912109375,-1.8123215436935425,-0.031243139877915382,0.27936851978302
1772798013665626000,7.832626220703125,-1.6354930400848389,0.29276183247566223,0.4620238244533539
1772798013675652900,7.84265283203125,-1.4912325143814087,0.39425331354141235,0.5347627401351929
1772798013685679000,7.85267919921875,-1.3602526187896729,0.06427699327468872,0.3755507171154022
1772798013695706000,7.8627060546875,-1.279764175415039,-0.3422366976737976,-0.015230884775519371
1772798013705732000,7.872732177734375,-1.3294808864593506,-0.6095831990242004,-0.5180098414421082
1772798013715759000,7.882759033203125,-1.4344267845153809,-0.6956949234008789,-0.7795661091804504
1772798013725786000,7.8927861328125,-1.514461636543274,-0.6395972967147827,-0.4236346185207367
1772798013735812000,7.90281201171875,-1.5690079927444458,-0.5208421349525452,0.5018553733825684
1772798013745839000,7.912839111328125,-1.5953035354614258,-0.32054099440574646,1.3579607009887695
1772798013755865000,7.922864990234375,-1.5868070125579834,-0.0935981273651123,1.7847472429275513
1772798013765892000,7.93289208984375,-1.6356325149536133,0.026458771899342537,1.7905079126358032
1772798013775918000,7.94291796875,-1.7526761293411255,0.05621480196714401,1.5434938669204712
1772798013785945000,7.952945068359375,-1.9047436714172363,0.053525008261203766,1.2919889688491821
1772798013795972000,7.96297216796875,-2.033977746963501,0.15053224563598633,1.155348539352417
1772798013805998000,7.972998046875,-2.100444793701172,0.40632086992263794,1.098944067955017
1772798013816025000,7.983025146484375,-2.080693483352661,0.6931502819061279,1.0288968086242676
1772798013826051000,7.993051025390625,-1.963802695274353,0.852896511554718,0.9083365797996521
1772798013836078000,8.003078125,-1.7837791442871094,0.7814223170280457,0.7429407238960266
1772798013846104000,8.01310400390625,-1.5924712419509888,0.5523593425750732,0.5156212449073792
1772798013856131000,8.023131103515626,-1.4495010375976562,0.2832793891429901,0.290393203496933
1772798013866158000,8.033157958984376,-1.311126708984375,0.11596575379371643,0.1355770081281662
1772798013876184000,8.04318408203125,-1.2818611860275269,0.055934105068445206,0.14146098494529724
1772798013886211000,8.053211181640625,-1.3644678592681885,0.03725576028227806,0.2566182017326355
1772798013896237000,8.063237060546875,-1.4494863748550415,0.05314524471759796,0.43341055512428284
1772798013906264000,8.07326416015625,-1.5079885721206665,0.04460954666137695,0.6069770455360413
1772798013916290000,8.0832900390625,-1.4610083103179932,0.026573020964860916,0.7084082961082458
1772798013926317000,8.093317138671875,-1.3470960855484009,-0.01010989211499691,0.7103230953216553
1772798013936344000,8.103343994140625,-1.197285532951355,-0.03092036582529545,0.6168544292449951
1772798013946370000,8.1133701171875,-1.0132420063018799,-0.01913667656481266,0.4509866237640381
1772798013956397000,8.12339697265625,-0.8175318837165833,0.015260712243616581,0.25998204946517944
1772798013966423000,8.133423095703124,-0.6632741093635559,0.05374179035425186,0.0867956131696701
1772798013976450300,8.1434501953125,-0.5409796237945557,0.08275266736745834,-0.04770307242870331
1772798013986477000,8.15347705078125,-0.4558474123477936,0.10625240206718445,-0.1739845722913742
1772798013996503000,8.1635029296875,-0.42258694767951965,0.1331939995288849,-0.3133579194545746
1772798014006530000,8.173530029296876,-0.435342937707901,0.14505386352539062,-0.4846106171607971
1772798014016556000,8.18355615234375,-0.4599159359931946,0.12260208278894424,-0.6830970644950867
1772798014026583300,8.193583251953125,-0.49594610929489136,0.08980924636125565,-0.8570113778114319
1772798014036609300,8.203609375,-0.5407671332359314,0.05517537146806717,-0.9836074113845825
1772798014046636000,8.213635986328125,-0.6134485006332397,0.02997307851910591,-1.0486401319503784
1772798014056663000,8.2236630859375,-0.698009192943573,0.02972620353102684,-1.0664479732513428
1772798014066689000,8.23368896484375,-0.7762140035629272,0.048819735646247864,-1.0771077871322632
1772798014076716300,8.24371630859375,-0.8269953727722168,0.07264677435159683,-1.083702802658081
1772798014086742300,8.2537421875,-0.8566771149635315,0.09462796896696091,-1.078309178352356
1772798014096769000,8.26376904296875,-0.888087272644043,0.15018151700496674,-1.0487691164016724
1772798014106795000,8.273794921875,-0.9140157699584961,0.22765393555164337,-1.0106052160263062
1772798014116822000,8.283822021484376,-0.9397291541099548,0.28811195492744446,-0.9599878191947937
1772798014126849300,8.293849365234376,-0.971476137638092,0.2973856031894684,-0.8939605951309204
1772798014136875300,8.303875244140626,-1.0220381021499634,0.23392914235591888,-0.7820904850959778
1772798014146902000,8.313902099609376,-1.0624604225158691,0.09877850860357285,-0.6060672998428345
1772798014156928000,8.323927978515625,-1.0706567764282227,-0.05196785926818848,-0.39502134919166565
1772798014166955000,8.333955078125,-1.0544853210449219,-0.09096159785985947,-0.1458970159292221
1772798014176981200,8.343981201171875,-1.033427119255066,-0.11684779077768326,0.011742942035198212
1772798014187008800,8.3540087890625,-0.9817095994949341,-0.19350820779800415,0.0006748450105078518
1772798014197035800,8.364035888671875,-0.7836689949035645,-0.30054572224617004,-0.23352380096912384
1772798014207061800,8.374061767578125,-0.531394362449646,-0.36798495054244995,-0.6200273036956787
1772798014217089000,8.384089111328125,-0.4686836004257202,-0.29036685824394226,-1.2757675647735596
1772798014227115000,8.394114990234375,-0.6399184465408325,-0.23779791593551636,-2.271909236907959
1772798014237141800,8.404141845703125,-0.8294404745101929,-0.550891637802124,-3.030884265899658
1772798014247167700,8.414167724609374,-0.9234471321105957,-0.8388411402702332,-2.9474263191223145
1772798014257194800,8.42419482421875,-0.7939682006835938,-0.9601579904556274,-1.507063388824463
1772798014267222000,8.434221923828124,-0.5119706392288208,-0.6010733246803284,1.0916321277618408
1772798014277248000,8.444248046875,-0.47472310066223145,0.024765001609921455,3.5487656593322754
1772798014287274800,8.454274658203126,-0.49057716131210327,0.6573759913444519,4.7917609214782715
1772798014297300700,8.46430078125,-0.5595740675926208,0.9375306963920593,4.816356658935547
1772798014307327700,8.47432763671875,-0.6860212087631226,0.7715981602668762,4.104205131530762
1772798014317355000,8.48435498046875,-0.7798696756362915,0.41471463441848755,3.2092318534851074
1772798014327381000,8.494381103515625,-0.8669172525405884,0.11410393565893173,2.4561350345611572
1772798014337407700,8.50440771484375,-0.9458826184272766,-0.00941986683756113,1.9479321241378784
1772798014347433700,8.514433837890625,-1.0181735754013062,-0.08816581219434738,1.5723278522491455
1772798014357460700,8.524460693359375,-1.1122207641601562,-0.16161978244781494,1.172605276107788
1772798014367487000,8.534487060546875,-1.153564453125,-0.21167683601379395,0.7523413896560669
1772798014377514000,8.544513916015624,-1.195038914680481,-0.3226419687271118,0.3500847816467285
1772798014387540700,8.554540771484374,-1.2335938215255737,-0.4263441264629364,0.10664548724889755
1772798014397566700,8.564566650390624,-1.253002405166626,-0.5049244165420532,0.09474941343069077
1772798014407593700,8.57459375,-1.2527152299880981,-0.5556153059005737,0.24020567536354065
1772798014417620000,8.584619873046876,-1.2296075820922852,-0.5530930161476135,0.4507610499858856
1772798014427647000,8.59464697265625,-1.1677104234695435,-0.4803421199321747,0.6606698036193848
1772798014437673000,8.6046728515625,-1.1071757078170776,-0.35340121388435364,0.7902262210845947
1772798014447699700,8.61469970703125,-1.0345256328582764,-0.1963958740234375,0.8187505006790161
1772798014457727000,8.62472705078125,-0.9169436693191528,-0.10346407443284988,0.7705368995666504
1772798014467753000,8.6347529296875,-0.7809560298919678,-0.10115857422351837,0.6871280670166016
1772798014477780000,8.644780029296875,-0.664681613445282,-0.15662476420402527,0.5476444363594055
1772798014487806000,8.654805908203125,-0.574798583984375,-0.21004244685173035,0.3398585021495819
1772798014497832700,8.664832763671875,-0.5222517251968384,-0.26783332228660583,0.09463462978601456
1772798014507858700,8.674858642578124,-0.48983973264694214,-0.3236371874809265,-0.16130900382995605
1772798014517886000,8.684885986328124,-0.4722977578639984,-0.3584156632423401,-0.4374313950538635
1772798014527913000,8.694912841796874,-0.46844977140426636,-0.3574675917625427,-0.7038077116012573
1772798014537939000,8.70493896484375,-0.4678228497505188,-0.35446619987487793,-0.9373642802238464
1772798014547965700,8.714965576171876,-0.4555688500404358,-0.3574731945991516,-1.1368802785873413
1772798014557991700,8.72499169921875,-0.4503314793109894,-0.35310107469558716,-1.2868801355361938
1772798014568019000,8.73501904296875,-0.468778133392334,-0.35058438777923584,-1.364498496055603
1772798014578045000,8.745044921875,-0.5097138285636902,-0.38336417078971863,-1.3764928579330444
1772798014588072000,8.755072021484375,-0.5569793581962585,-0.44068923592567444,-1.3334474563598633
1772798014598098700,8.7650986328125,-0.6072867512702942,-0.47598889470100403,-1.2675501108169556
1772798014608124700,8.775124755859375,-0.6635068655014038,-0.45837530493736267,-1.1909797191619873
1772798014618152000,8.78515185546875,-0.7104650735855103,-0.4142901301383972,-1.1185731887817383
1772798014628178000,8.795177978515625,-0.7174676060676575,-0.3560553193092346,-1.0661818981170654
1772798014638205000,8.805204833984375,-0.6815785765647888,-0.2968580424785614,-1.0259803533554077
1772798014648231000,8.81523095703125,-0.6195146441459656,-0.25699877738952637,-0.9880615472793579
1772798014658258000,8.8252578125,-0.5703961253166199,-0.22171056270599365,-0.8924793601036072
1772798014668285000,8.835284912109374,-0.5761051177978516,-0.19766195118427277,-0.7417973875999451
1772798014678311000,8.845310791015624,-0.6143693923950195,-0.14385198056697845,-0.5492636561393738
1772798014688338000,8.855337890625,-0.7004124522209167,-0.10764044523239136,-0.3044632375240326
1772798014698364000,8.865364013671876,-0.7989866733551025,-0.07058548927307129,-0.048228781670331955
1772798014708391000,8.875390869140626,-0.8664551973342896,0.023212112486362457,0.1541011482477188
1772798014718417000,8.8854169921875,-0.9096766710281372,0.11824701726436615,0.3910929262638092
1772798014728444000,8.89544384765625,-0.8427717089653015,0.22624139487743378,0.6587201356887817
1772798014738471000,8.905470947265625,-0.6563602685928345,0.3198893070220947,0.9617422819137573
1772798014748497000,8.915496826171875,-0.43142223358154297,0.5047481060028076,1.0812804698944092
1772798014758524000,8.92552392578125,-0.28541550040245056,0.6130602359771729,0.7436752319335938
1772798014768550000,8.9355498046875,-0.3087559640407562,0.38390877842903137,-0.005152151454240084
1772798014778577000,8.945576904296875,-0.39772099256515503,0.06890662759542465,-0.8580806255340576
1772798014788603000,8.955602783203124,-0.5077012777328491,-0.3477606177330017,-1.4497263431549072
1772798014798630000,8.9656298828125,-0.3556814193725586,-0.6667913198471069,-1.4622117280960083
1772798014808657000,8.975656982421874,-0.11281976103782654,-0.7430949211120605,-0.5934452414512634
1772798014818683000,8.985682861328126,-0.08272124826908112,-0.5055044293403625,0.5522346496582031
1772798014828710000,8.9957099609375,-0.1994664967060089,0.0004569984448608011,1.3802878856658936
1772798014838736000,9.00573583984375,-0.48819470405578613,0.5121671557426453,1.71641206741333
1772798014848762600,9.0157626953125,-0.892720639705658,0.9437617063522339,1.6882555484771729
1772798014858788600,9.02578857421875,-1.2677117586135864,1.2810004949569702,1.5167628526687622
1772798014868816000,9.03581591796875,-1.5301538705825806,1.4932868480682373,1.5582525730133057
1772798014878841900,9.045841796875,-1.643859624862671,1.799109935760498,1.440543293952942
1772798014888868900,9.055868896484375,-1.5556354522705078,1.7791476249694824,1.4485670328140259
1772798014898895600,9.0658955078125,-1.3918741941452026,1.5829731225967407,1.3929299116134644
1772798014908921900,9.075921875,-1.16229248046875,1.2477763891220093,1.2875598669052124
1772798014918948900,9.085948974609375,-0.9403896331787109,0.6837285161018372,0.9815937876701355
