time,seconds_elapsed,z,y,x
1772789492167488500,0.077488525390625,0.0006518019363284111,-0.0011720703914761543,-0.002363738603889942
1772789492177554700,0.0875546875,0.002565549686551094,-0.0015939157456159592,0.005062219686806202
1772789492187619300,0.097619384765625,0.002382042119279504,0.000898309051990509,0.00004849769175052643
1772789492197685500,0.107685546875,0.004227612633258104,0.000566212460398674,0.0013116349000483751
1772789492207751400,0.11775146484375,0.0012540847528725863,-0.002179761417210102,-0.001460858853533864
1772789492217816600,0.127816650390625,0.004207530524581671,0.0007843365892767906,0.0015218815533444285
1772789492227882500,0.137882568359375,0.0009549392852932215,-0.00020896364003419876,0.00016603776020929217
1772789492237948700,0.14794873046875,0.0015048820059746504,-0.000003900378942489624,0.0018323776312172413
1772789492248013600,0.158013671875,0.0014797465410083532,-0.0030138492584228516,-0.0004084383836016059
1772789492258079500,0.16807958984375,0.0008400550577789545,-0.0014931848272681236,-0.001218305667862296
1772789492268145700,0.178145751953125,-0.000742028933018446,-0.0009823860600590706,-0.00004251883365213871
1772789492278210600,0.18821044921875,-0.0019228747114539146,-0.0009722663089632988,0.0032241144217550755
1772789492288275700,0.198275634765625,-0.0009627884719520807,0.0018995152786374092,0.0021032197400927544
1772789492298341600,0.208341552734375,-0.0007563934195786715,0.0006947014480829239,-0.0018268071580678225
1772789492308406800,0.21840673828125,0.00017854338511824608,0.0003073662519454956,-0.0018827798776328564
1772789492318473000,0.228472900390625,-0.00045315828174352646,-0.0010327370837330818,-0.0012603991199284792
1772789492328539000,0.238538818359375,-0.001683590468019247,-0.0003655655309557915,0.0011136091779917479
1772789492338603800,0.248603759765625,-0.0031485953368246555,-0.0006625084206461906,-0.00024007551837712526
1772789492348669700,0.258669677734375,-0.0004012014251202345,0.00014331098645925522,-0.000023036496713757515
1772789492358736000,0.26873583984375,0.0007607357110828161,-0.0031733904033899307,-0.0007777763530611992
1772789492368800800,0.27880078125,0.001523363869637251,-0.0015059495344758034,0.0008360338397324085
1772789492378867000,0.288866943359375,0.0026847682893276215,-0.003973101265728474,0.0012573458952829242
1772789492388932900,0.298932861328125,0.0013229779433459044,0.0014848122373223305,0.0016034117434173822
1772789492398997800,0.308997802734375,-0.0010698724072426558,-0.0009852694347500801,0.00018847431056201458
1772789492409064000,0.31906396484375,0.003581918543204665,0.0007995385676622391,-0.0023544058203697205
1772789492419129900,0.3291298828125,0.0017544575966894627,0.00116732157766819,-0.00031868566293269396
1772789492429195000,0.339195068359375,0.0006040907464921474,-0.002543620765209198,-0.0013795682461932302
1772789492439260700,0.3492607421875,0.003979647532105446,0.0005283355712890625,0.0013653518399223685
1772789492449326800,0.359326904296875,0.003934572450816631,0.00032076798379421234,-0.0003859302669297904
1772789492459391700,0.369391845703125,-0.0007717660628259182,0.0007306290790438652,0.00022446620278060436
1772789492469458000,0.3794580078125,-0.0013904571533203125,0.0006457576528191566,0.0008797416230663657
1772789492479523800,0.38952392578125,0.0027425026055425406,-0.000863189809024334,-0.00003851630026474595
1772789492489588700,0.399588623046875,0.000995313050225377,0.000026176683604717255,-0.0014690747484564781
1772789492499654700,0.409654541015625,-0.0004281464498490095,0.000626186840236187,-3.413297235965729e-7
1772789492509720800,0.419720947265625,-0.003604722209274769,0.0011098133400082588,0.0003976166481152177
1772789492519786000,0.429785888671875,-0.0024092290550470352,0.0028999904170632362,0.0016050939448177814
1772789492529852000,0.439851806640625,-0.0023708802182227373,0.0005573909729719162,-0.0008010241435840726
1772789492539917800,0.449917724609375,0.0005285029765218496,-0.0007478240877389908,0.00009273272007703781
1772789492549982700,0.459982666015625,-0.0003230283036828041,0.0003544958308339119,0.0009258447680622339
1772789492560049000,0.470048828125,-0.0020871064625680447,-0.0010937312617897987,-0.000986837549135089
1772789492570114800,0.48011474609375,-0.001274770824238658,0.000788561999797821,0.0011874748161062598
1772789492580180000,0.490179931640625,-0.0008401430677622557,0.0008460860699415207,-0.0020179059356451035
1772789492590245600,0.50024560546875,0.001509878784418106,-0.0009203143417835236,0.0009480920853093266
1772789492600311800,0.510311767578125,0.0008222504984587431,0.0023218179121613503,0.006081068888306618
1772789492610377000,0.520376953125,0.000818406231701374,-0.0009494749829173088,-0.0002829146687872708
1772789492620443000,0.53044287109375,0.0012386529706418514,-0.0013694548979401588,0.00148435914888978
1772789492630508800,0.5405087890625,0.002410097746178508,0.0017145723104476929,0.0008812097366899252
1772789492640573700,0.55057373046875,0.0015182050410658121,0.001777689903974533,0.0009858718840405345
1772789492650640000,0.560639892578125,0.001683814451098442,-0.0010805139318108559,0.001546823070384562
1772789492660705800,0.570705810546875,-0.000032593030482530594,-0.00008955132216215134,-0.0018947799690067768
1772789492670771000,0.58077099609375,-0.0008532588835805655,0.00020750053226947784,-0.0034160269424319267
1772789492680836900,0.5908369140625,-0.0006812189240008593,-0.0002431059256196022,-0.0023997644893825054
1772789492690903000,0.600903076171875,0.0004966589622199535,-0.0010051354765892029,0.000020073202904313803
1772789492700967700,0.6109677734375,-0.0013814023695886135,0.0006375014781951904,0.0019474028376862407
1772789492711033900,0.621033935546875,-0.001404875423759222,0.0015597371384501457,-0.0007657835958525538
1772789492721099800,0.631099853515625,-0.0017833104357123375,-0.0011444371193647385,-0.0005122506991028786
1772789492731165000,0.6411650390625,-0.0015925141051411629,-0.0032105660066008568,0.00011763186194002628
1772789492741230800,0.65123095703125,-0.001313681248575449,0.0008566137403249741,0.0010963436216115952
1772789492751296800,0.661296875,0.0007889573462307453,-0.0021442007273435593,0.00009837251855060458
1772789492761362000,0.67136181640625,0.0020979009568691254,-0.0002538887783885002,-0.0008419896475970745
1772789492771427800,0.681427734375,0.0005982231814414263,0.0002107955515384674,-0.0011439818190410733
1772789492781494000,0.691493896484375,0.00007730885408818722,-0.00009333714842796326,0.001127162016928196
1772789492791558700,0.70155859375,-0.0016571965534240007,-0.0005958732217550278,-0.0005229678936302662
1772789492801624800,0.711624755859375,-0.0000704850535839796,0.00038656778633594513,-0.0005011300090700388
1772789492811690800,0.721690673828125,0.001600830815732479,0.0014950931072235107,-0.0006356353405863047
1772789492821756000,0.731755859375,-0.0008423530962318182,-0.0012599462643265724,-0.0005288425600156188
1772789492831821800,0.74182177734375,0.0038976261857897043,0.00025653187185525894,0.00019657157827168703
1772789492841887700,0.7518876953125,-0.0007131046149879694,-0.0004260363057255745,-0.0024317021016031504
1772789492851953000,0.761952880859375,0.000891232630237937,0.0006779851391911507,0.00009887811029329896
1772789492862018800,0.772018798828125,0.001798305194824934,-0.000782758928835392,0.00003496231511235237
1772789492872084700,0.782084716796875,-0.002036365680396557,0.0006470521911978722,-0.00040906405774876475
1772789492882150000,0.79214990234375,-0.0010432731360197067,-0.001852591522037983,0.002763825934380293
1772789492892215800,0.8022158203125,-0.0008349514100700617,-0.000545199029147625,0.0004360576858744025
1772789492902281700,0.81228173828125,-0.0014104603324085474,0.0007701367139816284,-0.0008411943563260138
1772789492912347000,0.822346923828125,-0.0017884320113807917,-0.0006019622087478638,0.00019959890050813556
1772789492922412800,0.832412841796875,-0.0023373097646981478,-0.0014256788417696953,0.00003794505028054118
1772789492932479000,0.84247900390625,-0.003712686477228999,0.0013141455128788948,0.00047786912182345986
1772789492942544000,0.8525439453125,-0.001861523138359189,-0.002523736096918583,-0.001943210605531931
1772789492952609800,0.86260986328125,0.0015614754520356655,0.0004138695076107979,-0.0002995319664478302
1772789492962675700,0.87267578125,-0.0004257753025740385,-0.0003323489800095558,-0.002514216583222151
1772789492972740900,0.882740966796875,0.0011022905819118023,0.00005772151052951813,0.0011702319607138634
1772789492982807000,0.89280712890625,0.000648754183202982,0.0009733168408274651,0.002156933071091771
1772789492992872700,0.902872802734375,0.0014668609946966171,-0.0030536819249391556,-0.00007711676880717278
1772789493002937900,0.912937744140625,-0.0006029480136930943,-0.001053115352988243,-0.0011636863928288221
1772789493013003800,0.923003662109375,0.001824820414185524,-0.0004422282800078392,-0.0008893478661775589
1772789493023070000,0.933070068359375,-0.0004396652802824974,0.00024886149913072586,0.0027828849852085114
1772789493033134800,0.943134765625,0.00012930948287248611,0.0013344353064894676,-0.001436808379366994
1772789493043200800,0.95320068359375,0.0004792488180100918,-0.0011510932818055153,0.0000425775651820004
1772789493053266700,0.9632666015625,0.00010883179493248463,0.00400190893560648,-0.00010798178846016526
1772789493063331800,0.973331787109375,0.0009996590670198202,0.00044738780707120895,0.0019730122294276953
1772789493073397800,0.983397705078125,-0.0006691853050142527,0.00021556485444307327,-0.0004095111507922411
1772789493083464000,0.9934638671875,0.0019194073975086212,-0.0019272146746516228,-0.0023376396857202053
1772789493093528800,1.00352880859375,-0.001962109934538603,-0.004560547880828381,-0.001194842392578721
1772789493103594800,1.0135947265625,-0.0015682284720242023,-0.0003839125856757164,0.0018443571170791984
1772789493113661000,1.023660888671875,-0.0025635268539190292,-0.0021562958136200905,-0.00042328526615165174
1772789493123726800,1.033726806640625,-0.0016865478828549385,0.0005574654787778854,0.0009064310579560697
1772789493133792000,1.0437919921875,-0.0020330222323536873,-0.0014013657346367836,0.0027519899886101484
1772789493143857700,1.053857666015625,-0.0014481917023658752,-0.0015268009155988693,0.001296306261792779
1772789493153923800,1.063923828125,-0.001159323612228036,0.001773023046553135,-0.00021596340229734778
1772789493163988700,1.07398876953125,-0.0014682502951472998,-0.0010885437950491905,-0.001596546033397317
1772789493174055000,1.084054931640625,-0.0006905738264322281,0.0009072078391909599,0.0004974009352736175
1772789493184120800,1.094120849609375,-0.000033305492252111435,-0.001414002850651741,0.0018564120400696993
1772789493194185700,1.104185791015625,0.0005862608086317778,-0.0006741052493453026,0.0005384255200624466
1772789493204251600,1.114251708984375,0.0020525972358882427,0.0006169946864247322,-0.0003308302257210016
1772789493214317800,1.12431787109375,0.0012294326443225145,-0.0019491035491228104,-0.0018284437246620655
1772789493224383000,1.134383056640625,0.0021623377688229084,0.000555599108338356,0.00029329664539545774
1772789493234449000,1.144448974609375,0.001376270316541195,0.0010058581829071045,-0.0009007084299810231
1772789493244514800,1.154514892578125,-0.0000059104058891534805,0.0004548504948616028,0.0012021234724670649
1772789493254579700,1.164579833984375,0.0030990797095000744,0.0011413516476750374,-0.0006283889524638653
1772789493264646000,1.17464599609375,0.0009959812741726637,0.0001751566305756569,0.0007247631438076496
1772789493274711800,1.1847119140625,-0.00025740242563188076,-0.0007621748372912407,0.002195029053837061
1772789493284778000,1.194778076171875,-0.0007689956109970808,0.00011080969125032425,-0.0005293848225846887
1772789493294843600,1.20484375,-0.000672635156661272,-0.001194140873849392,-0.0012079059379175305
1772789493304909800,1.214909912109375,-0.0008627846837043762,0.00155583955347538,-0.0014273503329604864
1772789493314975700,1.224975830078125,-0.0050775473937392235,-0.0001757703721523285,0.004668353125452995
1772789493325041000,1.235041015625,0.0004714149981737137,0.000964062288403511,-0.002448678482323885
1772789493335106800,1.24510693359375,0.0004763335455209017,0.002504809759557247,0.0010648820316419005
1772789493345173000,1.255173095703125,-0.0008102394640445709,0.0009364746510982513,-0.0032672821544110775
1772789493355237600,1.265237548828125,0.0008783102966845036,0.00048131588846445084,0.0003901631571352482
1772789493365303800,1.2753037109375,0.0009419599082320929,-0.00018953438848257065,-0.0020658038556575775
1772789493375369700,1.28536962890625,0.00022455770522356033,-0.0006967056542634964,0.0010359922889620066
1772789493385435000,1.295434814453125,0.001553475158289075,0.0012612510472536087,-0.002461270662024617
1772789493395500800,1.305500732421875,-0.00037715607322752476,-0.0011203065514564514,0.0015470569487661123
1772789493405566700,1.315566650390625,-0.00034333369694650173,0.00016147270798683167,-0.0032455676700919867
1772789493415632000,1.3256318359375,0.001884481986053288,-0.00021285749971866608,0.0002861623652279377
1772789493425697800,1.33569775390625,0.0011561072897166014,-0.0018269997090101242,-0.00046564804506488144
1772789493435763700,1.345763671875,0.0016856396105140448,-0.00006772484630346298,0.0002525488380342722
1772789493445828600,1.35582861328125,0.0033985849004238844,0.0015229815617203712,-0.0006111142574809492
1772789493455894800,1.365894775390625,0.002719799056649208,0.0017175953835248947,-0.0017450889572501183
1772789493465960700,1.375960693359375,0.0009962012991309166,-0.000945298932492733,0.002190530300140381
1772789493476027000,1.38602685546875,0.00010275468230247498,-0.001271524466574192,-0.00047512660967186093
1772789493486091800,1.396091796875,-0.0002096341922879219,0.00020972546190023422,0.0026535550132393837
1772789493496158000,1.406157958984375,-0.00202010665088892,-0.0017229849472641945,-0.0016967938281595707
1772789493506223600,1.4162236328125,-0.0008520442061126232,0.0007156720384955406,0.0018691789591684937
1772789493516288800,1.426288818359375,-0.0012278084177523851,0.0009821970015764236,-0.001484728418290615
1772789493526354700,1.436354736328125,-0.0014906625729054213,0.0017664982005953789,0.0016924228984862566
1772789493536420900,1.4464208984375,-0.00171820935793221,-0.00023570097982883453,0.0003729201853275299
1772789493546486000,1.456486083984375,-0.0006247155833989382,0.0007800282910466194,0.0014016993809491396
1772789493556551700,1.4665517578125,-0.0008683439809828997,-0.002093198709189892,-0.00007003761129453778
1772789493566617600,1.47661767578125,-0.000056612538173794746,0.002124183811247349,-0.001361937029287219
1772789493576683800,1.486683837890625,-0.0007389532402157784,0.0010154126212000847,-0.0031739259138703346
1772789493586749000,1.4967490234375,0.002153772162273526,-0.00016117189079523087,0.0013009835965931416
1772789493596814800,1.50681494140625,-0.00089260283857584,-0.0011582504957914352,0.001577818300575018
1772789493606881000,1.516881103515625,-0.0005932636559009552,-0.002221650443971157,0.0002821904490701854
1772789493616945700,1.526945556640625,0.0005928047467023134,0.0008892575278878212,-0.0003882312448695302
1772789493627011800,1.53701171875,0.0013699149712920189,-0.00018133316189050674,-0.0002896942896768451
1772789493637077800,1.547077880859375,0.0024034937378019094,0.0010829633101820946,0.001868187915533781
1772789493647143000,1.557142822265625,0.003740134183317423,-0.0012188069522380829,0.0024559474550187588
1772789493657208600,1.56720849609375,0.001921288319863379,-0.0016607288271188736,-0.00013557792408391833
1772789493667274800,1.577274658203125,0.00093059241771698,0.0006410414353013039,-0.000006148300599306822
1772789493677340000,1.58733984375,0.003591185202822089,0.0006247162818908691,0.00017175322864204645
1772789493687405800,1.59740576171875,0.0001852686982601881,0.0009773187339305878,0.0021656618919223547
1772789493697471700,1.6074716796875,0.0007253857329487801,-0.0019304817542433739,0.0001237861579284072
1772789493707538000,1.617537841796875,-0.0007281678263098001,-0.0025350190699100494,-0.0003790186601690948
1772789493717602800,1.627602783203125,0.000040422193706035614,0.0010709930211305618,-0.0018886589678004384
1772789493727668700,1.637668701171875,-0.0030307353008538485,0.0007460881024599075,0.00028101832140237093
1772789493737735000,1.64773486328125,-0.0009414723608642817,0.002562863752245903,0.001111503574065864
1772789493747799800,1.6577998046875,0.0006396465469151735,0.0017700400203466415,0.00022200774401426315
1772789493757866000,1.667865966796875,-0.0013990993611514568,0.000007656402885913849,-0.00017593998927623034
1772789493767931600,1.677931640625,-0.004800755064934492,-0.00046478863805532455,-0.0005455867503769696
1772789493777996800,1.687996826171875,0.0006066439673304558,0.0012018261477351189,0.0016090117860585451
1772789493788062700,1.698062744140625,-0.003024309640750289,0.0006729224696755409,0.0011693239212036133
1772789493798129000,1.70812890625,-0.00013826973736286163,0.0009614704176783562,0.002910831943154335
1772789493808194800,1.71819482421875,0.00013017677702009678,-0.0005024699494242668,-0.0002700478653423488
1772789493818259700,1.728259765625,-0.002195340348407626,0.0005071591585874557,-0.0009264136315323412
1772789493828325600,1.73832568359375,0.0012766227591782808,-0.0028753215447068214,-0.0008760798955336213
1772789493838391800,1.748391845703125,0.002009723801165819,0.0019532516598701477,0.0005932796048000455
1772789493848457000,1.75845703125,0.0006981168407946825,0.0009561646729707718,0.002864689566195011
1772789493858523000,1.76852294921875,0.0022907527163624763,0.0010917484760284424,0.0016502507496625185
1772789493868588800,1.7785888671875,0.0008563741575926542,0.0010464740917086601,0.0002989627537317574
1772789493878653700,1.78865380859375,0.0012330585159361362,0.0017597395926713943,0.0000096932053565979
1772789493888720000,1.798719970703125,0.00047831865958869457,0.0019839778542518616,-0.0004941768711432815
1772789493898785800,1.808785888671875,-0.001817731186747551,-0.0013382835313677788,-0.0011320735793560743
1772789493908852000,1.81885205078125,-0.0013356991112232208,-0.001568114385008812,0.0009350720210932195
1772789493918916600,1.82891650390625,-0.0002578066196292639,-0.0004107709974050522,-0.0011392200831323862
1772789493928982800,1.838982666015625,-0.0010668749455362558,-0.0024393005296587944,-0.0006164415390230715
1772789493939048700,1.849048583984375,-0.001969589851796627,0.0008341828361153603,-0.001151800504885614
1772789493949113900,1.85911376953125,-0.001195408869534731,0.0016845297068357468,-0.0016111958539113402
1772789493959179800,1.8691796875,0.000436397735029459,-0.0019242269918322563,0.0022696538362652063
1772789493969245700,1.87924560546875,0.00008592568337917328,0.000628412701189518,0.0001567017170600593
1772789493979311600,1.8893115234375,-0.0016720285639166832,-0.0009975377470254898,0.0015304961707442999
1772789493989376800,1.899376708984375,-0.0024368884041905403,-0.0006031244993209839,-0.001166753238067031
1772789493999442700,1.909442626953125,-0.0009167918469756842,-0.0015267273411154747,0.00015015393728390336
1772789494009508900,1.9195087890625,-0.001989246578887105,-0.0007448224350810051,0.00003856746479868889
1772789494019573800,1.92957373046875,0.001378397922962904,-0.000700988806784153,-0.0001179050887003541
1772789494029639700,1.9396396484375,0.000687573803588748,-0.0006567798554897308,-0.0003482685424387455
1772789494039705900,1.949705810546875,0.00035744556225836277,0.00033742841333150864,-0.0007948150741867721
1772789494049771800,1.959771728515625,0.0018400272820144892,0.0008333083242177963,-0.0004315598926041275
1772789494059837000,1.9698369140625,-0.0005420511588454247,-0.0013622129335999489,0.00034279352985322475
1772789494069902800,1.97990283203125,0.0001588929444551468,0.001777653582394123,-0.00041567476000636816
1772789494079968800,1.98996875,0.0020821914076805115,-0.0031922580674290657,-0.00008466473082080483
1772789494090033700,2.00003369140625,0.0000933425035327673,-0.0012643951922655106,0.000022927008103579283
1772789494100099800,2.010099853515625,0.0007458692416548729,-0.0004843389615416527,0.0000548813259229064
1772789494110165800,2.020165771484375,-0.0016227460000663996,0.0005894480273127556,-0.0007419364992529154
1772789494120232000,2.03023193359375,-0.0008446867577731609,0.0005883006379008293,0.00040936574805527925
1772789494130296800,2.040296875,-0.0009948890656232834,0.0009803175926208496,-0.002072167582809925
1772789494140362800,2.05036279296875,-0.0001795471180230379,0.00019342172890901566,0.001171644194982946
1772789494150428700,2.0604287109375,-0.0013870245311409235,0.0005721226334571838,0.0025109481066465378
1772789494160493800,2.070493896484375,-0.0015896051190793514,-0.00006967224180698395,0.0018267203122377396
1772789494170560000,2.08056005859375,-0.004194443114101887,-0.00025289691984653473,-0.0009134062565863132
1772789494180625700,2.090625732421875,-0.002747980412095785,-0.0030961772426962852,0.0016858434537425637
1772789494190690800,2.10069091796875,-0.00005019805394113064,-0.00029426533728837967,-0.0030564474873244762
1772789494200756700,2.1107568359375,-0.0010720493737608194,0.0005418108776211739,0.002101609483361244
1772789494210823000,2.120822998046875,0.00031785457395017147,0.0001431349664926529,-0.0019647711887955666
1772789494220888800,2.130888916015625,0.0004545475821942091,-0.00044747255742549896,-0.0021860371343791485
1772789494230953700,2.14095361328125,0.001007419778034091,-0.0006807660683989525,0.00039962586015462875
1772789494241019600,2.15101953125,0.0019386024214327335,0.0020102830603718758,0.00020337756723165512
1772789494251085800,2.1610859375,-0.0007463966030627489,0.0008185189217329025,-0.00024003867292776704
1772789494261150700,2.171150634765625,0.0017161983996629715,-0.0016181627288460732,-0.0020450158044695854
1772789494271217000,2.181216796875,0.0018847764004021883,-0.0004831235855817795,-0.001254855771549046
1772789494281282800,2.19128271484375,-0.003142890753224492,-0.0019335215911269188,-0.000027621397748589516
1772789494291352000,2.20135205078125,0.00038020522333681583,-0.00001897476613521576,-0.001641763374209404
1772789494301417000,2.2114169921875,0.001059805741533637,0.0004321727901697159,-0.002373548224568367
1772789494311483000,2.22148291015625,0.00014154775999486446,-0.002489314414560795,-0.0021636909805238247
1772789494321549000,2.231549072265625,0.002147373743355274,0.0005274470895528793,0.0018542124889791012
1772789494331615000,2.241614990234375,0.00004454166628420353,-0.002580728381872177,-0.00118418806232512
1772789494341679900,2.251679931640625,0.0010822964832186699,-0.0009909207001328468,-0.001118604326620698
1772789494351745800,2.261745849609375,-0.003891423111781478,0.00021016504615545273,0.001906480174511671
1772789494361812000,2.27181201171875,-0.0011148054618388414,0.00020239688456058502,0.0006266158889047801
1772789494371876900,2.281876953125,-0.0029356086160987616,-0.0011249231174588203,-0.0019372091628611088
1772789494381943000,2.291943115234375,-0.0016479550395160913,-0.0016454169526696205,0.00046104611828923225
1772789494392009000,2.302009033203125,0.00039761909283697605,-0.00230454932898283,-0.0007046195096336305
1772789494402075000,2.312074951171875,-0.0017799108754843473,-0.0006108256056904793,-0.0017898755613714457
1772789494412139800,2.322139892578125,0.001779670361429453,-0.0020627807825803757,-0.0012191601563245058
1772789494422206000,2.3322060546875,0.000834302743896842,-0.0007393155246973038,-0.0006645738612860441
1772789494432272000,2.34227197265625,0.00161966891027987,0.0017872247844934464,-0.0013221083208918571
1772789494442336800,2.352336669921875,0.0009511096868664026,-0.0031367046758532524,-0.0017382836667820811
1772789494452403000,2.36240283203125,0.003358873538672924,0.0005887905135750771,-0.001095662941224873
1772789494462468900,2.37246875,0.0008272714912891388,-0.00029383040964603424,-0.0023457654751837254
1772789494472534800,2.38253466796875,-0.000713899964466691,-0.0020760176703333855,-0.003111690515652299
1772789494482600000,2.392599853515625,0.0017854506149888039,0.0006802454590797424,0.00018706329865381122
1772789494492666000,2.402666015625,0.0011984899174422026,-0.00228172168135643,0.0017173157539218664
1772789494502731800,2.412731689453125,0.0008761263452470303,0.0000734962522983551,-0.0004007286624982953
1772789494512797000,2.422796875,0.0007107441779226065,-0.0026067085564136505,-0.0024739995133131742
1772789494522862800,2.43286279296875,0.0019079383928328753,-0.00104586873203516,-0.0008798800990916789
1772789494532929000,2.442928955078125,-0.0011483053676784039,0.0009400509297847748,-0.0004077016783412546
1772789494542995000,2.452994873046875,-0.0007233524229377508,-0.00007147248834371567,-0.00023360451450571418
1772789494553059800,2.463059814453125,-0.0019470753613859415,0.0010555777698755264,0.002959792036563158
1772789494563125800,2.473125732421875,-0.0005272438284009695,0.0005365237593650818,-0.0001479122438468039
1772789494573192000,2.48319189453125,0.0009566694498062134,-0.0020105233415961266,0.00015994912246242166
1772789494583257900,2.4932578125,-0.002199535956606269,0.0013957982882857323,0.0005421655368991196
1772789494593323000,2.503322998046875,-0.0008953858632594347,-0.0004068957641720772,-0.0005417410284280777
1772789494603389000,2.513388916015625,-0.0021536974236369133,0.0005618492141366005,0.0007471448625437915
1772789494613454800,2.523454833984375,-0.0008748476393520832,0.0014279093593358994,-0.0032313514966517687
1772789494623520000,2.53352001953125,0.003098206128925085,-0.0014837058261036873,0.00107909319922328
1772789494633586000,2.5435859375,0.0009652804583311081,0.0018260711804032326,0.0007259580888785422
1772789494643651800,2.55365185546875,0.004226347431540489,-0.0014249281957745552,0.00032573495991528034
1772789494653718000,2.563718017578125,0.0022577387280762196,0.00308833085000515,0.0002503675641492009
1772789494663783000,2.573782958984375,-0.0008546712342649698,-0.0006912145763635635,-0.0012775802752003074
1772789494673848800,2.583848876953125,0.0004241787828505039,-0.0021042870357632637,0.000357068027369678
1772789494683915000,2.5939150390625,0.003082679118961096,0.0010821083560585976,-0.003272155299782753
1772789494693980000,2.60397998046875,-0.0006510729435831308,-0.0007006116211414337,0.0006754483329132199
1772789494704046000,2.614046142578125,0.0006719266530126333,-0.0005284743383526802,0.0009287545690312982
1772789494714111700,2.62411181640625,0.0004615369252860546,0.0012449240311980247,-0.00127927225548774
1772789494724178000,2.634177978515625,-0.000094609335064888,-0.000844709575176239,-0.0007978667272254825
1772789494734242800,2.644242919921875,-0.0006522750481963158,0.0009726313874125481,0.0001606049481779337
1772789494744309000,2.65430908203125,-0.0011079837568104267,-0.00009212084114551544,-0.002391653601080179
1772789494754375000,2.664375,0.0005216046702116728,0.0004807254299521446,0.001512540620751679
1772789494764441000,2.674441162109375,0.0008544912561774254,0.0012440942227840424,-0.0018424700247123837
1772789494774505700,2.684505615234375,0.0028388123027980328,-0.0031021852046251297,0.0017703743651509285
1772789494784572000,2.694572021484375,0.0015806397423148155,0.002667986787855625,-0.0010815663263201714
1772789494794637800,2.704637939453125,-0.0015629555564373732,-0.0012399358674883842,0.0003115332219749689
1772789494804703000,2.714702880859375,-0.0020616413094103336,0.0005058832466602325,0.0010639701504260302
1772789494814769200,2.72476904296875,0.0019970161374658346,0.0014627575874328613,0.002538562286645174
1772789494824834800,2.734834716796875,0.0007385723292827606,-0.00206180103123188,-0.0002014217316173017
1772789494834900700,2.744900634765625,-0.002060143742710352,0.0004705991595983505,0.0015671835280954838
1772789494844966000,2.7549658203125,0.0010620960965752602,-0.000348641537129879,0.0022038924507796764
1772789494855032000,2.765031982421875,0.0028919540345668793,-0.00062587670981884,-0.0005508813774213195
1772789494865098000,2.775097900390625,0.001232803799211979,0.00131137203425169,-0.00010618875967338681
1772789494875164000,2.785163818359375,0.004071999806910753,-0.002936103381216526,-0.000802871712949127
1772789494885228800,2.795228759765625,-0.0001379938330501318,0.0009444467723369598,0.0013232914498075843
1772789494895295000,2.805294921875,0.0007778671570122242,0.0008107563480734825,-0.0016983312088996172
1772789494905361000,2.81536083984375,0.0010733993258327246,-0.0005712471902370453,-0.00044419371988624334
1772789494915426000,2.825426025390625,0.00019109412096440792,0.00075554009526968,0.0006048254435881972
1772789494925491700,2.83549169921875,-0.0016863420605659485,-0.0013630334287881851,-0.0007615928188897669
1772789494935558000,2.845557861328125,-0.0012344038113951683,-0.0006517032161355019,0.00041685590986162424
1772789494945623800,2.855623779296875,-0.00028799218125641346,-0.0006540454924106598,0.0001761213643476367
1772789494955689000,2.86568896484375,-0.0006344693247228861,-0.0012010587379336357,0.0005074185901321471
1772789494965755000,2.8757548828125,-0.0024390369653701782,0.0021347152069211006,0.0008495373767800629
1772789494975821000,2.885821044921875,0.000052350107580423355,0.00034586992114782333,-0.0011206690687686205
1772789494985886700,2.89588671875,-0.0005281532648950815,0.0007673976942896843,-0.003446635790169239
1772789494995951900,2.905951904296875,0.0002928993199020624,-0.0006275661289691925,0.002312449971213937
1772789495006018000,2.91601806640625,0.00042473780922591686,-0.0018685748800635338,0.0021819602698087692
1772789495016084000,2.926083984375,-0.0011406680569052696,0.003702225163578987,-0.0002662836341187358
1772789495026150000,2.93614990234375,-0.0009260287042707205,-0.0003106817603111267,0.000345947511959821
1772789495036214800,2.94621484375,-0.00040245126001536846,0.00039026234298944473,-0.0012953586410731077
1772789495046281000,2.956281005859375,-0.0004121239762753248,-0.0018650861456990242,0.00033533578971400857
1772789495056347000,2.966346923828125,-0.0009285106789320707,0.0010918211191892624,0.0006123044877313077
1772789495066412000,2.976412109375,0.0011955902446061373,0.00165465846657753,-0.0011696312576532364
1772789495076478000,2.98647802734375,-0.0008356024045497179,0.0009087072685360909,-0.00193662173114717
1772789495086544000,2.9965439453125,0.0008730478584766388,0.0006129490211606026,0.00020840548677369952
1772789495096609800,3.00660986328125,-0.0007930255960673094,-0.0015181126073002815,0.0015024354215711355
1772789495106675000,3.016675048828125,-0.0006624704692512751,-0.0004416797310113907,0.0001247283653356135
1772789495116740900,3.026740966796875,-0.0016552971210330725,0.0010281195864081383,-0.0011104457080364227
1772789495126807000,3.03680712890625,0.0011652715038508177,0.001047518104314804,0.0009832741925492883
1772789495136873000,3.046873046875,0.0018502366729080677,-0.00041615497320890427,-0.0011789462296292186
1772789495146937900,3.056937744140625,0.0010726186446845531,0.0033424878492951393,0.0016456001903861761
1772789495157003800,3.067003662109375,0.0018111132085323334,-0.0005364064127206802,-0.00042953481897711754
1772789495167070000,3.077070068359375,0.00021890876814723015,0.002252037636935711,0.0016024422366172075
1772789495177135900,3.087135986328125,-0.0008120010606944561,-0.002842589281499386,-0.0008250290411524475
1772789495187201000,3.097200927734375,-0.0016200218815356493,-0.0009907353669404984,-0.0006498725851997733
1772789495197267000,3.107266845703125,0.0013632508926093578,0.0017520543187856674,-0.0007614590576849878
1772789495207332900,3.117332763671875,-0.00025600846856832504,-0.0006249994039535522,-0.0032143830321729183
1772789495217398000,3.12739794921875,0.0015568053349852562,-0.00010461825877428055,-0.0015283357352018356
1772789495227464000,3.1374638671875,0.0027446248568594456,-0.0020245471969246864,0.00011923623969778419
1772789495237530000,3.147530029296875,-0.00016328063793480396,0.00041890330612659454,0.0005397493951022625
1772789495247596000,3.157595947265625,0.0018548062071204185,0.0020233886316418648,0.0026660230942070484
1772789495257661000,3.167660888671875,0.0016809017397463322,-0.0012088902294635773,-0.0011300467886030674
1772789495267726800,3.177726806640625,0.0009196384344249964,0.00041110720485448837,0.002283993875607848
1772789495277793000,3.18779296875,0.0019079374615103006,-0.0012206118553876877,0.0016355141997337341
1772789495287855400,3.19785546875,0.0008248789235949516,0.0006783753633499146,-0.0012812447967007756
1772789495297920300,3.207920166015625,0.0005178162828087807,0.0007936907932162285,-0.0016594136832281947
1772789495307986200,3.217986083984375,0.0010522096417844296,-0.003070591017603874,0.003628283739089966
1772789495318052400,3.22805224609375,0.003144921502098441,-0.0005219457671046257,0.00042077258694916964
1772789495328118300,3.2381181640625,0.0013106395490467548,0.00030097272247076035,0.0017034471966326237
1772789495338183400,3.248183349609375,-0.001030811807140708,0.0011129705235362053,-0.002811942482367158
1772789495348249000,3.2582490234375,-0.0006808710750192404,0.00013065803796052933,-0.0004899546620436013
1772789495358315300,3.268315185546875,-0.0009975212160497904,-0.0008869357407093048,-0.0007725160685367882
1772789495368380400,3.27838037109375,-0.002005910500884056,-0.0005965279415249825,0.00047102413373067975
1772789495378446300,3.2884462890625,-0.0007409090176224709,0.0018226876854896545,-0.001039254479110241
1772789495388512300,3.29851220703125,-0.0013320038560777903,-0.0020060036331415176,0.0018123893532902002
1772789495398578400,3.308578369140625,-0.0007128191646188498,0.00004036910831928253,-0.001190324779599905
1772789495408643300,3.318643310546875,0.00005668611265718937,-0.0010318513959646225,-0.0004440054181031883
1772789495418709200,3.328709228515625,-0.0008892684709280729,0.00012023281306028366,0.00005027727456763387
1772789495428775400,3.338775390625,-0.0017606941983103752,-0.002073001116514206,0.0022608842700719833
1772789495438841300,3.34884130859375,0.0022556190378963947,0.001189105212688446,0.0008866930729709566
1772789495448906200,3.35890625,0.0011374533642083406,0.001220223493874073,-0.000978043768554926
1772789495458972200,3.36897216796875,0.0015909895300865173,0.00015469267964363098,0.0044912900775671005
1772789495469038300,3.379038330078125,-0.0014386714901775122,0.002649577334523201,-0.0014423304237425327
1772789495479104300,3.389104248046875,0.00011368491686880589,-0.0018660789355635643,0.0004746129270642996
1772789495489169400,3.39916943359375,0.0005757543258368969,-0.0010727811604738235,-0.0008735588635317981
1772789495499235300,3.4092353515625,-0.000747303944081068,0.0031965328380465508,0.0010058338521048427
1772789495509301200,3.41930126953125,-0.0010698582045733929,0.000743769109249115,0.000005736015737056732
1772789495519367200,3.4293671875,0.00041432143189013004,0.0021312758326530457,0.001966355135664344
1772789495529432300,3.439432373046875,-0.0002515222877264023,-0.0013634366914629936,-0.0012231278233230114
1772789495539498200,3.449498291015625,-0.00006962823681533337,-0.00029577501118183136,0.00016544433310627937
1772789495549564400,3.459564453125,-0.0032300548627972603,0.002038950100541115,-0.001789480447769165
1772789495559630300,3.46963037109375,-0.0026513501070439816,0.00016062334179878235,0.0005807328852824867
1772789495569695200,3.4796953125,-0.001461427891626954,0.0002154875546693802,-0.0011455524945631623
1772789495579761200,3.48976123046875,-0.00034822640009224415,0.002693026326596737,-0.0008968132315203547
1772789495589827300,3.499827392578125,-0.001692929770797491,-0.0004731295630335808,0.0016082071233540773
1772789495599893200,3.509893310546875,-0.003089491743594408,-0.0006209351122379303,-0.0015580251347273588
1772789495609958100,3.519958251953125,-0.0004618449602276087,-0.002591538242995739,-0.0020825346000492573
1772789495620024300,3.5300244140625,0.004106541629880667,0.0007323529571294785,0.001964404946193099
1772789495630090200,3.54009033203125,0.00007449905388057232,0.000638401135802269,-0.00015546183567494154
1772789495640156200,3.55015625,-0.0010104726534336805,-0.00025961734354496,0.00017317227320745587
1772789495650221300,3.56022119140625,0.00013379217125475407,0.0011955555528402328,-0.003777409205213189
1772789495660287500,3.57028759765625,-0.000745849683880806,0.0016072802245616913,0.0015297380741685629
1772789495670353200,3.580353271484375,0.00006508291698992252,0.0005675880238413811,-0.00211244635283947
1772789495680418300,3.590418212890625,-0.00006860797293484211,-0.0005157859995961189,0.0005371325532905757
1772789495690484200,3.600484130859375,0.0030731812585145235,-0.0005389666184782982,0.00107504241168499
1772789495700550400,3.61055029296875,-0.00021102884784340858,-0.0004209885373711586,0.0005117839318700135
1772789495710616300,3.6206162109375,-0.00014270120300352573,0.000603746622800827,-0.0016481776256114244
1772789495720682500,3.6306826171875,0.0009915390983223915,-0.003042386844754219,-0.00041806354420259595
1772789495730747100,3.6407470703125,0.0004461505450308323,0.004024302586913109,0.00032576260855421424
1772789495740813300,3.650813232421875,0.0009622711222618818,-0.0021265335381031036,-0.00012590951519086957
1772789495750879200,3.660879150390625,-0.0021804708521813154,0.002489391714334488,-0.0006152117275632918
1772789495760944400,3.6709443359375,-0.000676850089803338,-0.00019640661776065826,0.00048786960542201996
1772789495771010300,3.68101025390625,-0.0017526226583868265,-0.0015421872958540916,-0.002305274363607168
1772789495781076200,3.691076171875,-0.00025193137116730213,-0.0012726755812764168,0.00036401196848601103
1772789495791142100,3.70114208984375,-0.0006741078104823828,-0.0015057772397994995,-0.0009301094687543809
1772789495801207300,3.711207275390625,-0.0010014104191213846,-0.000984329730272293,0.0007727157790213823
1772789495811273200,3.721273193359375,-0.0017868566792458296,0.00024419277906417847,0.001957689179107547
1772789495821339400,3.73133935546875,0.00007975311018526554,-0.0010556960478425026,0.001678856322541833
1772789495831405300,3.7414052734375,-0.000859136926010251,0.0006210487335920334,0.0010288043413311243
1772789495841470200,3.75147021484375,-0.0009448907803744078,-0.0008404944092035294,-0.0002609645598568022
1772789495851536400,3.761536376953125,-0.0010378018487244844,0.0021455083042383194,0.0010841342154890299
1772789495861602300,3.771602294921875,0.0013119049835950136,0.00018169265240430832,-0.0009204272064380348
1772789495871668200,3.781668212890625,0.0010688109323382378,-0.00048046838492155075,-0.002533546881750226
1772789495881733000,3.791733154296875,-0.0007322849705815315,-0.0009222868829965591,-0.00013084302190691233
1772789495891799300,3.80179931640625,0.00095773721113801,0.0001435261219739914,0.002931550145149231
1772789495901865200,3.811865234375,0.00084535195492208,0.0005414020270109177,-0.0006136498996056616
1772789495911931400,3.821931396484375,0.0013553497847169638,-0.00036565307527780533,-0.0011500262189656496
1772789495921996300,3.831996337890625,0.003706921124830842,0.000058854930102825165,0.00011204590555280447
1772789495932062500,3.8420625,0.0019276052480563521,-0.00016503408551216125,-0.0008633857942186296
1772789495942128000,3.852128173828125,0.0007725921459496021,-0.00019539333879947662,-0.0010828302474692464
1772789495952194300,3.8621943359375,-0.002144927391782403,0.0009442074224352837,0.0007561410893686116
1772789495962259200,3.87225927734375,-0.0007710026111453772,0.000899200327694416,-0.0007823670748621225
1772789495972325400,3.882325439453125,-0.0028671061154454947,-0.0000622142106294632,0.0011505641741678119
1772789495982391300,3.892391357421875,-0.0001418932806700468,-0.0009043058380484581,0.002733813365921378
1772789495992457500,3.90245751953125,-0.00011129770427942276,-0.0020073503255844116,0.001236152951605618
1772789496002522000,3.912522216796875,-0.00029612123034894466,-0.0023421095684170723,0.0014590596547350287
1772789496012588300,3.92258837890625,0.0007118978537619114,0.0006773443892598152,0.0016644928837195039
1772789496022654200,3.932654296875,0.002686365507543087,-0.0002566268667578697,0.001736398204229772
1772789496032720400,3.942720458984375,0.00037067034281790257,-0.0007920525968074799,0.0005527566536329687
1772789496042785300,3.952785400390625,0.001201842911541462,-0.0011609001085162163,0.0023551839403808117
1772789496052851200,3.962851318359375,-0.0024261362850666046,-0.000054098665714263916,-0.001229818444699049
1772789496062917000,3.972917236328125,0.00033423048444092274,-0.0009569097310304642,-0.00048040488036349416
1772789496072983300,3.9829833984375,-0.0011105835437774658,-0.002419077791273594,0.0008178213611245155
1772789496083048400,3.99304833984375,-0.0012373500503599644,0.002292053773999214,0.0002939775586128235
1772789496093114400,4.0031142578125,0.0021404894068837166,-0.00010027829557657242,0.0014838011702522635
1772789496103180300,4.01318017578125,0.00017773988656699657,0.0021122759208083153,-0.0011066555744037032
1772789496113246200,4.02324609375,0.0009079552255570889,0.0007650991901755333,0.00001751095987856388
1772789496123311400,4.033311279296875,0.0009372499771416187,-0.0003089532256126404,-0.000955075491219759
1772789496133377300,4.043377197265625,0.001607244834303856,0.0007752003148198128,-0.00026307953521609306
1772789496143443500,4.053443359375,-0.0031195995397865772,-0.00032069068402051926,-0.002171500585973263
1772789496153509400,4.06350927734375,-0.0011265354696661234,0.0018940186128020287,-0.002054759534075856
1772789496163574300,4.07357421875,-0.001488459063693881,-0.0012557022273540497,0.0000022660824470221996
1772789496173640200,4.08364013671875,0.00020709214732050896,0.0005252677947282791,0.0013866936787962914
1772789496183706400,4.093706298828125,0.00006168358959257603,-0.0006430605426430702,0.0007629813044331968
1772789496193772300,4.103772216796875,-0.00008504022844135761,-0.00035140104591846466,0.0002517887041904032
1772789496203837400,4.11383740234375,-0.0010395173449069262,0.0006062723696231842,-0.00026007089763879776
1772789496213903000,4.123903076171875,0.000013496726751327515,-0.00003615114837884903,-0.00032170588383451104
1772789496223969300,4.13396923828125,-0.0008954398799687624,0.00028422754257917404,0.0013875109143555164
1772789496234035200,4.14403515625,-0.0005820007063448429,0.000583176501095295,0.0001438101171515882
1772789496244100400,4.154100341796875,0.00026275403797626495,-0.0014703869819641113,-0.000743555196095258
1772789496254166300,4.164166259765625,0.0017617268022149801,-0.00032996106892824173,-0.0007416752632707357
1772789496264232400,4.174232421875,0.0003904653713107109,0.001132381148636341,0.00023410696303471923
1772789496274298000,4.184298095703125,0.0018238548655062914,-0.000949113629758358,0.0008293224382214248
1772789496284363300,4.19436328125,-0.000027308473363518715,0.00010017212480306625,0.0014112230855971575
1772789496294429200,4.20442919921875,0.0009218710474669933,-0.0008549308404326439,0.0026995392981916666
1772789496304495400,4.214495361328125,0.0012912515085190535,-0.0012163221836090088,0.0006758031668141484
1772789496314561300,4.224561279296875,0.00043082190677523613,0.0013624820858240128,-0.0010868737008422613
1772789496324627500,4.23462744140625,0.002468140097334981,-0.0015875017270445824,-0.0041404543444514275
1772789496334692400,4.2446923828125,0.0015662864316254854,0.0019790055230259895,0.00027779920492321253
1772789496344758500,4.254758544921875,-0.00212086015380919,0.0019254758954048157,0.0001030957791954279
1772789496354824200,4.26482421875,-0.0008815212640911341,-0.00022398587316274643,0.0009445041650906205
1772789496364889300,4.274889404296875,-0.0007110789883881807,0.0014303699135780334,0.0008909745374694467
1772789496374955500,4.28495556640625,-0.00029539712704718113,-0.0008336929604411125,-0.000012797885574400425
1772789496385021400,4.295021484375,0.0012822593562304974,0.0018784701824188232,-0.00043517525773495436
1772789496395087400,4.30508740234375,0.000008819857612252235,-0.00014630425721406937,-0.0002670840476639569
1772789496405153500,4.315153564453125,-0.0014085143338888884,0.001770639792084694,-0.0003246083506383002
1772789496415218400,4.325218505859375,0.000013506738469004631,0.0017144624143838882,0.002647826913744211
1772789496425284400,4.335284423828125,0.0004798262380063534,0.0010071266442537308,-0.001190853537991643
1772789496435350500,4.3453505859375,-0.0007587228901684284,0.001329590566456318,0.0008231742540374398
1772789496445416400,4.35541650390625,-0.00018774159252643585,-0.002377795986831188,-0.001410951605066657
1772789496455481600,4.365481689453125,-0.0009414837695658207,0.0005589639768004417,-0.00044178133248351514
1772789496465547300,4.37554736328125,0.0024700253270566463,0.0006393920630216599,0.00012893410166725516
1772789496475613400,4.385613525390625,-0.0009554415009915829,-0.0006555970758199692,0.0014861983945593238
1772789496485679400,4.395679443359375,0.0017636457923799753,0.0021460484713315964,0.00008644087938591838
1772789496495744500,4.40574462890625,0.00008188094943761826,-0.0011870060116052628,-0.0011656440328806639
1772789496505810400,4.415810546875,0.0017833744641393423,-0.0005891267210245132,0.0005020274547860026
1772789496515876600,4.425876708984375,0.0028318981640040874,0.0011373749002814293,-0.0007649532635696232
1772789496525942300,4.4359423828125,-0.00018679490312933922,-0.0015782508999109268,-0.00012739247176796198
1772789496536007400,4.44600732421875,-0.0008238498121500015,0.0005779704079031944,-0.00024721556110307574
1772789496546073300,4.4560732421875,-0.0012467596679925919,0.0018616141751408577,-0.0019037018064409494
1772789496556139500,4.466139404296875,0.0009333970956504345,-0.00027102790772914886,0.002520649926736951
1772789496566205400,4.476205322265625,-0.0012365465518087149,0.0017961179837584496,-0.0014280190225690603
1772789496576270300,4.486270263671875,0.00023862440139055252,0.000945000909268856,-0.001510183559730649
1772789496586336300,4.496336181640625,-0.0002689741086214781,0.001159917563199997,-0.002406870014965534
1772789496596402400,4.50640234375,0.0003143409267067909,0.0006021121516823769,-0.0022416268475353718
1772789496606468400,4.51646826171875,0.0005071538034826517,-0.0018120435997843742,0.003534503048285842
1772789496616533500,4.526533447265625,-0.0009603074286133051,0.0011493954807519913,-0.00006084615597501397
1772789496626599400,4.536599365234375,0.0031761142890900373,0.0013296911492943764,-0.0004131823661737144
1772789496636665300,4.546665283203125,-0.0019590326119214296,0.0007918784394860268,-0.0007428608951158822
1772789496646731300,4.556731201171875,0.0003794892691075802,0.0013474132865667343,0.002789556048810482
1772789496656797400,4.56679736328125,0.0004555771593004465,-0.0004265774041414261,-0.0020042273681610823
1772789496666862600,4.576862548828125,0.0013605193234980106,0.0011979509145021439,-0.001010069390758872
1772789496676928500,4.586928466796875,0.0014990146737545729,0.00008798670023679733,0.0007336396956816316
1772789496686994400,4.596994384765625,-0.0008344468660652637,0.0004062335938215256,0.002647919813171029
1772789496697060400,4.607060302734375,0.002791743725538254,0.002344811335206032,0.0033966307528316975
1772789496707126300,4.617126220703125,-0.002106874715536833,-0.001993211917579174,-0.00004710274515673518
1772789496717192400,4.6271923828125,-0.0004142867401242256,0.000031449832022190094,-0.0007015931769274175
1772789496727257600,4.637257568359375,0.002051534131169319,-0.0019219787791371346,0.003789029084146023
1772789496737323500,4.647323486328125,0.0009020480792969465,-0.0006974237039685249,-0.00013966899132356048
1772789496747389400,4.657389404296875,-0.0009011784568428993,0.0006930120289325714,-0.0001742900931276381
1772789496757455400,4.667455322265625,-0.0006832254584878683,-0.002710169181227684,0.0010457104071974754
1772789496767521300,4.677521240234375,-0.0010246422607451677,0.0014158664271235466,0.00025794730754569173
1772789496777586400,4.68758642578125,-0.00028242100961506367,0.0008261445909738541,-0.0008321506320498884
1772789496787652600,4.697652587890625,-0.0019109437707811594,-0.0000036964192986488342,0.00032019917853176594
1772789496797718500,4.707718505859375,0.0008814479224383831,0.0006420640274882317,-0.003252258989959955
1772789496807784200,4.7177841796875,-0.0021878452971577644,-0.0017617056146264076,0.0016428972594439983
1772789496817849300,4.727849365234375,-0.000964312581345439,-0.000005869194865226746,-0.00102650944609195
1772789496827915500,4.73791552734375,0.0016320033464580774,-0.0014740703627467155,0.000010259216651320457
1772789496837981400,4.7479814453125,-0.00042983144521713257,-0.0016274601221084595,-0.0005460794782266021
1772789496848047600,4.758047607421875,-0.00009533856064081192,0.000028759241104125977,-0.00031704758293926716
1772789496858112300,4.7681123046875,0.0007549209985882044,-0.0020430441945791245,-0.0014166947221383452
1772789496868178400,4.778178466796875,0.0019229833269491792,-0.0018757972866296768,-0.00037246927968226373
1772789496878244400,4.788244384765625,0.0017271509859710932,-0.001080789603292942,-0.00030593486735597253
1772789496888310500,4.798310546875,0.0006850562058389187,-0.0008166031911969185,-0.0010409672977402806
1772789496898375400,4.80837548828125,0.0014636155683547258,0.00005649589002132416,-0.0028345941100269556
1772789496908441300,4.81844140625,0.0008407020941376686,0.00020004063844680786,-0.0005826251581311226
1772789496918507300,4.82850732421875,0.0017835930921137333,0.0008997460827231407,0.0017324306536465883
1772789496928573400,4.838573486328125,-0.00025479053147137165,-0.0000696452334523201,-0.0017629682552069426
1772789496938638300,4.848638427734375,-0.002222505398094654,0.0005242107436060905,0.0006545560900121927
1772789496948704500,4.85870458984375,-0.0004714769311249256,0.0005292706191539764,-0.0030565590132027864
1772789496958770400,4.8687705078125,0.0016853739507496357,-0.000059849582612514496,0.0007625205907970667
1772789496968836400,4.87883642578125,-0.0005109352059662342,0.000004598870873451233,-0.0036886869929730892
1772789496978902300,4.88890234375,-0.0025838424917310476,-0.0009973030537366867,0.0009395322995260358
1772789496988967400,4.898967529296875,0.0008013013284653425,-0.003009853884577751,-0.001502053695730865
1772789496999033300,4.909033447265625,0.0019473523134365678,-0.0005094930529594421,0.0005323794321157038
1772789497009099500,4.919099609375,0.0010874175932258368,0.0007917275652289391,-0.0027949740178883076
1772789497019165400,4.92916552734375,-0.00005409307777881622,0.0005526617169380188,-0.0008986120810732245
1772789497029230300,4.939230224609375,-0.0011364019010215998,0.00013880711048841476,0.002867097733542323
1772789497039296500,4.949296630859375,-0.002102777361869812,-0.0028246212750673294,0.0007036186871118844
1772789497049362400,4.959362548828125,0.0005113815423101187,0.0017003556713461876,-0.003013088833540678
1772789497059428400,4.969428466796875,0.0009726488497108221,-0.00044294819235801697,0.0008334109443239868
1772789497069493500,4.979493408203125,-0.0005501469131559134,-0.0009761136025190353,-0.0007916499162092805
1772789497079559400,4.989559326171875,0.00006911391392350197,0.0009382776916027069,-0.001057651243172586
1772789497089625300,4.999625244140625,-0.0006592606659978628,-0.00008464232087135315,-0.000929819536395371
1772789497099691300,5.009691162109375,0.0003371750935912132,0.00008403975516557693,-0.0032875353936105967
1772789497109756400,5.01975634765625,0.0005185364279896021,-0.0027447696775197983,0.00001531688030809164
1772789497119822600,5.029822509765625,0.0025668959133327007,-0.00009557697921991348,0.0009206878603436053
1772789497129888300,5.03988818359375,0.001983929891139269,0.00018298998475074768,-0.0005235443823039532
1772789497139954400,5.049954345703125,0.0010488731786608696,-0.0033286307007074356,0.0005541360005736351
1772789497150020400,5.060020263671875,0.000805726507678628,0.0003566509112715721,-0.000016046746168285608
1772789497160085500,5.07008544921875,0.000788325909525156,-0.0005382644012570381,-0.00008432415779680014
1772789497170151400,5.0801513671875,-0.0010505870450288057,-0.0016738362610340118,-0.00037247815635055304
1772789497180217600,5.090217529296875,-0.003163284854963422,-0.0001683766022324562,0.0005534954252652824
1772789497190283300,5.100283203125,0.0006911084055900574,-0.0005641216412186623,-0.0004332057433202863
1772789497200348400,5.110348388671875,0.0011683660559356213,0.0009300094097852707,-0.0005850990419276059
1772789497210414300,5.120414306640625,0.00246239616535604,0.0013539846986532211,-0.0015369127504527569
1772789497220480500,5.13048046875,-0.0008404676336795092,-0.0010093552991747856,-0.0019748357590287924
1772789497230546400,5.14054638671875,-0.00045137968845665455,0.0004982603713870049,-0.0031929658725857735
1772789497240611300,5.150611328125,0.00027020787820219994,-0.0031024739146232605,-0.0002884877030737698
1772789497250677200,5.16067724609375,0.0003615543246269226,0.0007343422621488571,-0.0008996832184493542
1772789497260743400,5.170743408203125,0.000772977015003562,0.0016890941187739372,-0.001034281332977116
1772789497270809300,5.180809326171875,0.001566865248605609,-0.0008150758221745491,-0.00041509635047987103
1772789497280875500,5.19087548828125,0.0002546843606978655,-0.0003588106483221054,-0.003223526757210493
1772789497290940400,5.2009404296875,-0.0014132536016404629,-0.00009569060057401657,-0.0010234895162284374
1772789497301006600,5.211006591796875,0.0008380366489291191,-0.0020133405923843384,-0.0008311775745823979
1772789497311072300,5.221072265625,0.000009793555364012718,-0.0015582069754600525,-0.0005225172499194741
1772789497321138400,5.231138427734375,0.002204364165663719,0.000050018541514873505,-0.0005418158834800124
1772789497331203600,5.24120361328125,0.0012496209237724543,0.0010018330067396164,0.0018411806086078286
1772789497341269500,5.25126953125,-0.0014744761865586042,-0.002413311041891575,0.0013787143398076296
1772789497351335400,5.26133544921875,-0.0017170899081975222,0.0001867329701781273,0.0030660931952297688
1772789497361401600,5.271401611328125,-0.0003778641112148762,0.0002665957435965538,0.0031372886151075363
1772789497371466500,5.281466552734375,0.0014858159702271223,0.0016631577163934708,-0.0014635883271694183
1772789497381532400,5.291532470703125,-0.0006456063129007816,0.0006373031064867973,0.0009706944110803306
1772789497391598300,5.301598388671875,0.0027547175996005535,-0.00009852834045886993,-0.0029878283385187387
1772789497401664500,5.31166455078125,-0.0005290494300425053,0.002146584913134575,0.00022793089738115668
1772789497411730400,5.32173046875,-0.0005122711881995201,0.0009742612019181252,0.0010276781395077705
1772789497421795300,5.33179541015625,-0.0009655700996518135,-0.0005552265793085098,0.0027540228329598904
1772789497431861500,5.341861572265625,0.0004975707270205021,-0.000815151259303093,-0.0009195415768772364
1772789497441927400,5.351927490234375,-0.0009726285934448242,-0.00004039425402879715,-0.0017020194791257381
1772789497451993300,5.361993408203125,0.0006676123011857271,0.0009481711313128471,-0.0021052220836281776
1772789497462058500,5.37205859375,0.0016117922496050596,0.00010942667722702026,-0.0043215062469244
1772789497472124400,5.38212451171875,-0.0004676037933677435,-0.0014839423820376396,-0.0012543434277176857
1772789497482190300,5.3921904296875,0.0004974920302629471,-0.001993446610867977,-0.0004409782122820616
1772789497492256500,5.402256591796875,0.002092192880809307,-0.00071725994348526,0.00015796668594703078
1772789497502321400,5.4123212890625,0.0003960749600082636,-0.0003591487184166908,-0.0002757828333415091
1772789497512387600,5.4223876953125,0.0006392216309905052,0.001289081759750843,0.0014235802227631211
1772789497522453500,5.43245361328125,0.001617330126464367,-0.0010922234505414963,0.0017527295276522636
1772789497532519400,5.44251953125,0.001777652301825583,-0.00026930682361125946,0.0005359312053769827
1772789497542585300,5.45258544921875,-0.00011828611604869366,0.0004846407100558281,-0.0011802682420238853
1772789497552650500,5.462650390625,-0.0010570504236966372,0.001388518139719963,-0.0002596134436316788
1772789497562716400,5.47271630859375,0.00034399167634546757,0.00015879422426223755,0.00151665392331779
1772789497572782600,5.482782470703125,0.0003897980786859989,-0.00040845852345228195,0.00019093230366706848
1772789497582848500,5.4928486328125,-0.0010535246692597866,0.0007936349138617516,0.00033415842335671186
1772789497592913400,5.502913330078125,-0.0014183777384459972,-0.005753747187554836,0.0007775747217237949
1772789497602979300,5.512979248046875,0.0005896554794162512,-0.00017181318253278732,-0.000027455680537968874
1772789497613045500,5.52304541015625,0.0002485045697540045,-0.0006716884672641754,0.0023600682616233826
1772789497623111400,5.533111328125,0.0017118138493970037,0.002155749127268791,0.0011848309077322483
1772789497633177600,5.543177490234375,-0.00006930832751095295,-0.0004520183429121971,-0.0004138646472711116
1772789497643242200,5.5532421875,-0.0008538980036973953,-0.0033213403075933456,-0.0003959589230362326
1772789497653308400,5.563308349609375,0.0004790141247212887,-0.000011830590665340424,0.0008261657203547657
1772789497663374300,5.573374267578125,-0.0007983234245330095,0.001035742461681366,0.0002894168137572706
1772789497673440500,5.5834404296875,0.0013196882791817188,-0.0012481845915317535,0.0032316772267222404
1772789497683505400,5.59350537109375,0.00042996834963560104,0.000896296463906765,0.0012975893914699554
1772789497693571600,5.603571533203125,-0.00011012074537575245,-0.0027969758957624435,0.0029455535113811493
1772789497703637200,5.61363720703125,0.00008601252920925617,-0.0019269268959760666,0.000024687207769602537
1772789497713703400,5.623703369140625,0.0003904118202626705,0.00033010169863700867,0.00281594623811543
1772789497723769300,5.633769287109375,-0.0001336284913122654,-0.00242448877543211,0.0014464459381997585
1772789497733834500,5.64383447265625,0.00010578962974250317,-0.0008601481094956398,-0.0009195064194500446
1772789497743900400,5.653900390625,-0.0022884656209498644,-0.0001523355022072792,-0.00042193959234282374
1772789497753966600,5.663966552734375,-0.000130506232380867,-0.0015638107433915138,0.0010771537199616432
1772789497764032300,5.6740322265625,0.001015848945826292,-0.000049134716391563416,-0.0008229300146922469
1772789497774097400,5.684097412109375,-0.00044303061440587044,0.0007625967264175415,0.002705492079257965
1772789497784163600,5.69416357421875,-0.0020512226037681103,0.0010882578790187836,0.0007342257886193693
1772789497794229500,5.7042294921875,-0.00008048326708376408,0.001512233167886734,-0.0003550071269273758
1772789497804295400,5.71429541015625,-0.0002562291920185089,-0.0002480829134583473,-0.0009384862496517599
1772789497814361600,5.724361572265625,-0.0008213517721742392,0.0014720521867275238,0.0003014815738424659
1772789497824426500,5.734426513671875,0.000492289662361145,0.0022743400186300278,0.0006150668486952782
1772789497834492400,5.744492431640625,0.0008598058484494686,0.0011595413088798523,-0.00019346881890669465
1772789497844558600,5.75455859375,-0.000260339817032218,0.0020294329151511192,-0.002878897823393345
1772789497854624500,5.76462451171875,-0.004160539247095585,-0.0038931705057621002,0.00015018152771517634
1772789497864689400,5.774689453125,0.0003423546440899372,0.001126992516219616,-0.00012563815107569098
1772789497874755300,5.78475537109375,0.000529574928805232,-0.0002245614305138588,-0.0008998190751299262
1772789497884821500,5.794821533203125,0.001166158588603139,-0.000476934015750885,-0.00198798393830657
1772789497894887400,5.804887451171875,-0.0011830157600343227,0.0001300005242228508,-0.0011357723269611597
1772789497904952600,5.81495263671875,-0.000611127121374011,-0.001328716054558754,0.003911172039806843
1772789497915018500,5.8250185546875,-0.0017640094738453627,0.0031651025637984276,-0.0008183357422240078
1772789497925084400,5.83508447265625,0.00039594899863004684,0.0006440980359911919,-0.0009028705535456538
1772789497935150300,5.845150390625,-0.001035233959555626,-0.0024068187922239304,0.0005618680152110755
1772789497945216500,5.855216552734375,-0.000630970811471343,0.0021393438801169395,-0.002237495966255665
1772789497955281400,5.865281494140625,0.0005245748907327652,-0.0011869436129927635,0.00024856493109837174
1772789497965347600,5.87534765625,0.0009880277793854475,0.000887162983417511,0.000008135219104588032
1772789497975413500,5.88541357421875,-0.0010681990534067154,0.00043575745075941086,0.00006486056372523308
1772789497985479400,5.8954794921875,0.0004915583413094282,-0.0017396928742527962,0.0010574257466942072
1772789497995545300,5.90554541015625,0.00017437594942748547,-0.00043820589780807495,-0.001774579519405961
1772789498005610500,5.915610595703125,-0.0007671529892832041,0.0004505375400185585,0.0016621777322143316
1772789498015676400,5.925676513671875,-0.0016699645202606916,-0.0003345627337694168,-0.002164784586057067
1772789498025742600,5.93574267578125,0.0005183424800634384,-0.0006535965949296951,-0.0008783744415268302
1772789498035808500,5.94580859375,-0.0020119270775467157,-0.00034733302891254425,-0.0006799689144827425
1772789498045873400,5.955873291015625,0.0004663949366658926,0.0009921388700604439,0.0030338901560753584
1772789498055939300,5.965939208984375,-0.002145367208868265,0.0008105114102363586,0.001147306989878416
1772789498066005500,5.976005615234375,-0.00029475241899490356,0.002211339771747589,0.0011424124240875244
1772789498076071400,5.986071533203125,0.0006589253898710012,0.002041962929069996,0.0007282908773049712
1772789498086137600,5.9961376953125,-0.0009391035418957472,-0.00020751357078552246,0.0008130994974635541
1772789498096202500,6.006202392578125,-0.0020139554981142282,-0.0005422728136181831,0.001386744435876608
1772789498106268400,6.016268310546875,-0.0011329345870763063,-0.0029523754492402077,-0.0003751593758352101
1772789498116334300,6.026334228515625,0.0006697592325508595,-0.00018828082829713821,-0.0008244346245191991
1772789498126400500,6.036400390625,0.0000780837144702673,-0.00195461418479681,0.000681882374919951
1772789498136465700,6.046465576171875,0.0001891374122351408,-0.0018446259200572968,0.0016001403564587235
1772789498146531300,6.05653125,-0.00004135211929678917,0.0019387556239962578,0.0006369814509525895
1772789498156597200,6.06659716796875,0.0005277653690427542,0.0007520504295825958,-0.0005475925281643867
1772789498166663400,6.076663330078125,0.0011602714657783508,-0.0026459041982889175,-0.0010134142357856035
1772789498176729300,6.086729248046875,0.0008430890738964081,-0.000300724059343338,-0.00029196395189501345
1772789498186794500,6.09679443359375,-0.00041123805567622185,-0.000570148229598999,0.0007645293371751904
1772789498196860700,6.106860595703125,0.0004668058827519417,0.0011020507663488388,0.00044415099546313286
1772789498206926300,6.11692626953125,-0.002558393171057105,-0.0005017602816224098,0.0011649980442598462
1772789498216992300,6.1269921875,-0.00034264312125742435,0.0011613834649324417,0.0017386430408805609
1772789498227057400,6.137057373046875,0.0010482510551810265,-0.00007441174238920212,-0.0009858798002824187
1772789498237123600,6.14712353515625,-0.00039518228732049465,-0.0010379431769251823,0.001131865894421935
1772789498247189500,6.157189453125,-0.0022109721321612597,0.0021885456517338753,-0.0011305760126560926
1772789498257255700,6.167255615234375,0.0021411655470728874,-0.0012735640630126,0.002628742251545191
1772789498267321300,6.1773212890625,0.0004902172368019819,0.0009221052750945091,-0.0023376226890832186
1772789498277386500,6.187386474609375,-0.00007916660979390144,-0.0018265433609485626,-0.0015996608417481184
1772789498287452000,6.197451904296875,-0.001815341878682375,-0.0017713354900479317,-0.0013823823537677526
1772789498297518000,6.20751806640625,-0.0007953508757054806,-0.0017476333305239677,0.001240564975887537
1772789498307584000,6.217583984375,0.00040228688158094883,0.0008536092936992645,0.0015016517136245966
1772789498317649200,6.227649169921875,-0.00014046533033251762,-0.000797017477452755,-0.0008973238873295486
1772789498327715000,6.237715087890625,-0.000051415059715509415,-0.0003474028781056404,-0.001885671284981072
1772789498337781000,6.247781005859375,0.0025004257913678885,0.000773254781961441,0.0008264919742941856
1772789498347847000,6.257846923828125,-0.001015461515635252,0.0004762411117553711,0.001097048632800579
1772789498357913000,6.2679130859375,0.0009707238059490919,0.00023762136697769165,0.002323168097063899
1772789498367978000,6.27797802734375,-0.0003517633303999901,-0.001015257090330124,0.0032878736965358257
1772789498378044200,6.288044189453125,0.0000706138089299202,0.0004095332697033882,0.0007448215037584305
1772789498388109800,6.29810986328125,-0.0002721718046814203,-0.00010858289897441864,-0.0011738898465409875
1772789498398176000,6.308176025390625,0.002428007312119007,0.0009329793974757195,0.0003795320517383516
1772789498408242000,6.318241943359375,-0.00017970544286072254,0.0013711797073483467,-0.0016397669678553939
1772789498418307000,6.32830712890625,0.0006341566331684589,-0.0008980995044112206,0.0016971739241853356
1772789498428373000,6.338373046875,0.000485491007566452,0.00025416072458028793,0.0014306422090157866
1772789498438439200,6.348439208984375,-0.00009374646469950676,-0.0007240185514092445,-0.0008314469014294446
1772789498448504800,6.3585048828125,-0.0008896291255950928,0.0008968478068709373,-0.002776408800855279
1772789498458570000,6.368570068359375,0.0016411729156970978,0.0011474518105387688,-0.0005944808362983167
1772789498468636200,6.37863623046875,-0.0003968663513660431,0.0007822643965482712,-0.0009607816464267671
1772789498478702000,6.3887021484375,-0.0019774525426328182,-0.00007900223135948181,-0.0001165596186183393
1772789498488768000,6.39876806640625,-0.0012067845091223717,0.0004957597702741623,-0.0007339786388911307
1772789498498834200,6.408834228515625,0.0007170832250267267,-0.00005684606730937958,-0.00018270430155098438
1772789498508899000,6.418899169921875,-0.0018196552991867065,-0.0008906451985239983,-0.0012003914453089237
1772789498518965000,6.428965087890625,-0.000073953066021204,-0.0008781282231211662,0.0004734052927233279
1772789498529031000,6.439031005859375,0.0026687411591410637,-0.0005194190889596939,-0.0016039290931075811
1772789498539097000,6.44909716796875,-0.0008705996442586184,-0.00021715089678764343,0.0009361938573420048
1772789498549162200,6.459162353515625,-0.0022063760552555323,-0.002483855001628399,-0.0006285280687734485
1772789498559228000,6.469227783203125,0.0006975347641855478,0.0010285880416631699,-0.0008317272295244038
1772789498569294000,6.479294189453125,0.00040344521403312683,-0.002694530412554741,0.002794162603095174
1772789498579360000,6.489360107421875,-0.0010716798715293407,0.00023175030946731567,-0.001980618806555867
1772789498589426000,6.499426025390625,0.0010691788047552109,0.0003371201455593109,0.002168511040508747
1772789498599491000,6.509490966796875,0.002351490780711174,-0.0009904662147164345,0.0005288028041832149
1772789498609557200,6.51955712890625,-0.0033542548771947622,0.0020847972482442856,-0.0028020308818668127
1772789498619623000,6.529622802734375,-0.001882326090708375,0.00015187449753284454,0.0013532992452383041
1772789498629689000,6.539689208984375,0.0011835612822324038,-0.000044220127165317535,-0.0018847379833459854
1772789498639754000,6.54975390625,0.0025154082104563713,0.00159495510160923,0.00007934327004477382
1772789498649820200,6.559820068359375,-0.002010681666433811,-0.001339268870651722,0.0014518934767693281
1772789498659886000,6.569885986328125,-0.000060182297602295876,0.000193912535905838,0.0016532284207642078
1772789498669952300,6.5799521484375,0.00040236860513687134,-0.0006087282672524452,0.00037443015025928617
1772789498680018000,6.590017822265625,-0.0002548997290432453,-0.0006018038839101791,-0.0033105858601629734
1772789498690083000,6.6000830078125,0.00006066448986530304,0.002942499704658985,0.0008308130200020969
1772789498700149000,6.61014892578125,0.0014044956769794226,-0.000704432837665081,-0.0009220796637237072
1772789498710215200,6.620215087890625,0.0008697027806192636,0.0005261879414319992,-0.001298703602515161
1772789498720281000,6.630281005859375,0.00040151900611817837,0.0004883715882897377,0.0006960040191188455
1772789498730347300,6.64034716796875,0.0006530287209898233,-0.0016798479482531548,0.0004018321051262319
1772789498740412000,6.650411865234375,0.0006783287972211838,0.0010839812457561493,0.0013371342793107033
1772789498750478000,6.66047802734375,-0.0007798136211931705,-0.0026841219514608383,-0.00040919732418842614
1772789498760544000,6.6705439453125,-0.001523634884506464,-0.0012010075151920319,0.001850494765676558
1772789498770610200,6.680610107421875,0.001076150219887495,0.00022082123905420303,0.0022025059442967176
1772789498780674800,6.6906748046875,0.0020798956975340843,-0.0018513835966587067,0.002886938164010644
1772789498790741000,6.700740966796875,0.0004963723476976156,-0.0007327664643526077,-0.0011033229529857635
1772789498800807000,6.710806884765625,-0.0012232305016368628,0.0022100266069173813,-0.0012668410781770945
1772789498810873000,6.720873046875,0.0001017481554299593,0.00007360987365245819,0.0004933307063765824
1772789498820939000,6.73093896484375,-0.0004463302902877331,-0.00039404164999723434,0.00005976803367957473
1772789498831004200,6.741004150390625,-0.0013477059546858072,0.0023047998547554016,0.0005249596433714032
1772789498841069800,6.75106982421875,-0.0001546097919344902,0.002101600170135498,0.000515105901286006
1772789498851136000,6.761135986328125,-0.00028415070846676826,-0.001413417048752308,-0.0005506330635398626
1772789498861202000,6.771201904296875,0.0004857692401856184,-0.000361468642950058,0.00044245965545997024
1772789498871267000,6.78126708984375,-0.0018597596790641546,-0.0006361175328493118,-0.0008602279704064131
1772789498881333000,6.7913330078125,0.00013414910063147545,-0.0013743462041020393,0.0014308895915746689
1772789498891399200,6.801399169921875,-0.0004617089871317148,-0.0008385702967643738,-0.001089287456125021
1772789498901464800,6.81146484375,-0.000005243346095085144,-0.0015821252018213272,-0.0008631850942038
1772789498911531000,6.821531005859375,-0.00014721741899847984,0.0004183780401945114,-0.0012355586513876915
1772789498921596200,6.83159619140625,0.00014439853839576244,0.0018825847655534744,0.000016926031094044447
1772789498931662000,6.841662109375,0.001967349089682102,0.0017864266410470009,0.0006585070514120162
1772789498941728000,6.85172802734375,0.00046692416071891785,0.00045644398778676987,0.001009511761367321
1772789498951794200,6.861794189453125,0.0004665039014071226,0.0017273901030421257,-0.003749531926587224
1772789498961859000,6.871859130859375,0.00048647751100361347,0.0009358981624245644,0.000016444188077002764
1772789498971925000,6.881925048828125,0.0008266055956482887,-0.0017291530966758728,-0.0004707368789240718
1772789498981991200,6.8919912109375,-0.00007354281842708588,0.0009001856669783592,0.002583642490208149
1772789498992057000,6.90205712890625,0.0014013838954269886,0.001602455973625183,-0.0007455573068000376
1772789499002123000,6.912123046875,0.0007369250524789095,-0.0005613630637526512,-0.0015652782749384642
1772789499012188000,6.92218798828125,-0.0007121055386960506,-0.0012299688532948494,-0.0007961699739098549
1772789499022254000,6.932254150390625,-0.002185099758207798,-0.0005633793771266937,0.000018757302314043045
1772789499032320000,6.942320068359375,0.00020174123346805573,-0.001260535791516304,0.0028006485663354397
1772789499042386200,6.95238623046875,-0.002166075399145484,0.0009456267580389977,0.00014228117652237415
1772789499052451000,6.962451171875,-0.0007617590017616749,0.000992760993540287,0.000056668592151254416
1772789499062517000,6.97251708984375,0.00017514126375317574,0.0010153977200388908,0.0008217947324737906
1772789499072583000,6.9825830078125,0.0009885928593575954,0.0026343688368797302,0.0010114021133631468
1772789499082649000,6.992649169921875,-0.0013587174471467733,-0.0038288570940494537,0.002833270700648427
1772789499092715000,7.002715087890625,0.0035266641061753035,0.0007387781515717506,-0.0007566165877506137
1772789499102780200,7.0127802734375,0.0017418136121705174,-0.0003488566726446152,-0.0021358677186071873
1772789499112846000,7.02284619140625,-0.00024534366093575954,-0.000710219144821167,-0.000744628778193146
1772789499122912000,7.032912109375,-0.0012914333492517471,0.002148151397705078,0.000724903482478112
1772789499132978000,7.04297802734375,0.0015874344389885664,-0.001542060635983944,0.0037890481762588024
1772789499143043000,7.05304296875,-0.0011745297815650702,0.0014001987874507904,-0.002504800446331501
1772789499153109000,7.06310888671875,-0.0002470437902957201,-0.0004085879772901535,0.0005721937632188201
1772789499163175200,7.073175048828125,0.0008224816992878914,-0.0010346975177526474,0.0030100513249635696
1772789499173241000,7.083240966796875,0.00027826870791614056,-0.0004941606894135475,-0.0012118134181946516
1772789499183307000,7.09330712890625,0.00011262018233537674,0.0007085232064127922,0.00011204398469999433
1772789499193372000,7.103371826171875,-0.0019971306901425123,0.0010679755359888077,0.0017293388955295086
1772789499203438000,7.11343798828125,0.0004902617074549198,0.002082906663417816,0.0003964268253184855
1772789499213504000,7.12350390625,-0.000022294698283076286,-0.001145985908806324,0.0031101801432669163
1772789499223570200,7.133570068359375,-0.00224150693975389,0.0021302355453372,0.0020510409958660603
1772789499233635000,7.143635009765625,0.00009881984442472458,-0.0008506737649440765,0.0017738131573423743
1772789499243701000,7.153700927734375,0.00158992363139987,0.0006590718403458595,0.0009825879242271185
1772789499253767000,7.163766845703125,0.00023204763419926167,0.0011673644185066223,0.0007342513417825103
1772789499263833000,7.1738330078125,-0.0019341676961630583,-0.002784234471619129,0.0025071175768971443
1772789499273899000,7.18389892578125,-0.0022412368562072515,0.000797586515545845,0.0005033985944464803
1772789499283964200,7.193964111328125,0.0008347141556441784,-0.0007316004484891891,-0.000028967333491891623
1772789499294030000,7.204030029296875,0.00008913176134228706,-0.00039882026612758636,-0.0004337422433309257
1772789499304096300,7.21409619140625,-0.002851797267794609,-0.00016579404473304749,0.001037920592352748
1772789499314162200,7.224162109375,-0.0001492754090577364,-0.00002828706055879593,0.0020530852489173412
1772789499324227300,7.234227294921875,-0.0022595643531531096,0.001170402392745018,-0.0007645391160622239
1772789499334293200,7.244293212890625,0.0010698807891458273,-0.0034404052421450615,0.002079321537166834
1772789499344359400,7.254359375,-0.0009117771405726671,0.0006853640079498291,-0.00004401663318276405
1772789499354425000,7.264425048828125,-0.0003001790028065443,0.0005172500386834145,-0.001141516026109457
1772789499364490200,7.274490234375,0.0006633524317294359,-0.0008793110027909279,0.000518432236276567
1772789499374556400,7.284556396484375,0.0013096542097628117,0.0013232836499810219,-0.0010660772677510977
1772789499384622300,7.294622314453125,-0.002138074254617095,0.0010865284129977226,0.0024423713330179453
1772789499394688300,7.304688232421875,-0.0012476842384785414,0.0008443873375654221,-0.003331991843879223
1772789499404754400,7.31475439453125,0.001691912766546011,0.00009044632315635681,-0.0022510148119181395
1772789499414819300,7.3248193359375,-0.0013749911449849606,-0.0009707445278763771,0.001746156020089984
1772789499424885200,7.33488525390625,0.003143860725685954,-0.0012618275359272957,0.0010753057431429625
1772789499434951400,7.344951416015625,-0.0009130660910159349,0.0008623488247394562,-0.0018576995935291052
1772789499445017300,7.355017333984375,-0.0015104131307452917,-0.0008929409086704254,0.00027442723512649536
1772789499455082200,7.365082275390625,0.0002650695387274027,-0.00031331460922956467,-0.0013628625310957432
1772789499465148200,7.375148193359375,-0.0018580022733658552,-0.001314929686486721,0.0014824587851762772
1772789499475214300,7.38521435546875,0.0005536496173590422,0.0015231315046548843,0.0012045634211972356
1772789499485280300,7.3952802734375,-0.0011598283890634775,0.002237125299870968,-0.0025017578154802322
1772789499495345400,7.405345458984375,0.002126171952113509,-0.0013392558321356773,-0.0014365545939654112
1772789499505411300,7.415411376953125,-0.00024350895546376705,0.0013907505199313164,0.0019669653847813606
1772789499515477200,7.425477294921875,-0.0009348778985440731,-0.00015105027705430984,0.0008750085835345089
1772789499525543200,7.435543212890625,0.0004955059848725796,-0.0005457308143377304,-0.0004464518860913813
1772789499535609300,7.445609375,0.0003411038778722286,-0.0006871148943901062,-0.000430398213211447
1772789499545674200,7.45567431640625,0.0006260620430111885,0.0013691121712327003,0.0013235596707090735
1772789499555740400,7.465740478515625,-0.0021700537763535976,0.001837293617427349,-0.0004818557354155928
1772789499565806300,7.475806396484375,-0.00019558588974177837,-0.00056407880038023,0.00027954200049862266
1772789499575872300,7.485872314453125,0.00010544108226895332,0.0016797315329313278,0.00008651887765154243
1772789499585937200,7.495937255859375,0.0002247507218271494,0.001975076273083687,0.001075616804882884
1772789499596003300,7.50600341796875,-0.001997624058276415,-0.0005407314747571945,-0.0001867787796072662
1772789499606069200,7.5160693359375,0.0021577058359980583,0.003162660636007786,0.00013599632075056434
1772789499616135400,7.526135498046875,-0.0007743448950350285,0.0006926022469997406,0.0005623947363346815
1772789499626200300,7.536200439453125,0.00225659878924489,0.00024998467415571213,0.00044441677164286375
1772789499636266200,7.546266357421875,0.0006430645007640123,-0.0020491406321525574,-0.0023963521234691143
1772789499646332200,7.556332275390625,-0.0011388566344976425,-0.0016483347862958908,-0.0004322708700783551
1772789499656398300,7.5663984375,0.000068610068410635,-0.00001200009137392044,0.0031695556826889515
1772789499666464300,7.57646435546875,-0.0002451101318001747,0.0005190344527363777,-0.002191121457144618
1772789499676529400,7.586529296875,0.0002797655761241913,0.0006878217682242393,0.00044391851406544447
1772789499686595300,7.59659521484375,0.0004603280685842037,0.0018207309767603874,-0.0002812602324411273
1772789499696661200,7.6066611328125,0.00017964979633688927,0.000013209879398345947,0.000241067202296108
1772789499706727200,7.61672705078125,0.0011863247491419315,0.0009937863796949387,0.0000370690249837935
1772789499716792300,7.626792236328125,0.0015720222145318985,-0.00006056483834981918,-0.000006252666935324669
1772789499726858500,7.6368583984375,0.00000741519033908844,0.001867031678557396,0.0008219904266297817
1772789499736924200,7.646924072265625,-0.0009114874992519617,0.0010193726047873497,-0.00024129264056682587
1772789499746990000,7.656989990234375,-0.000540242763236165,-0.00002618413418531418,0.0012359627289697528
1772789499757055200,7.66705517578125,-0.0013366742059588432,0.0005322741344571114,0.0003940121387131512
1772789499767121400,7.677121337890625,0.0006239451467990875,-0.0022704368457198143,-0.00356317893601954
1772789499777187300,7.687187255859375,-0.000504764262586832,0.0010534953325986862,0.0001276778639294207
1772789499787253500,7.69725341796875,-0.00004909769631922245,0.0028189048171043396,0.0004339414299465716
1772789499797318100,7.707318115234375,0.0006693056784570217,-0.0006662113592028618,-0.001950057689100504
1772789499807384300,7.71738427734375,0.0006309561431407928,-0.001119215041399002,-0.0005718718166463077
1772789499817450200,7.7274501953125,-0.00010983319953083992,-0.0028219837695360184,-0.0012641084613278508
1772789499827516400,7.737516357421875,-0.000481876777485013,0.00008166022598743439,-0.0031051516998559237
1772789499837582300,7.747582275390625,0.00025084521621465683,-0.0007707774639129639,0.001573534682393074
1772789499847647200,7.757647216796875,0.00004471675492823124,0.001099560409784317,0.001986324554309249
1772789499857713200,7.767713134765625,-0.0002826657146215439,-0.00039100460708141327,0.00026325840735808015
1772789499867779300,7.777779296875,0.00031201797537505627,-0.0007822234183549881,0.0022539715282619
1772789499877845200,7.78784521484375,0.001899534952826798,-0.0002239597961306572,-0.000918238831218332
1772789499887910400,7.797910400390625,-0.002083488740026951,0.001883133314549923,0.00033158267615363
1772789499897976300,7.807976318359375,0.0013051456771790981,0.0010219570249319077,0.0003331160405650735
1772789499908042200,7.818042236328125,-0.0017857190687209368,0.0008797440677881241,0.0027675116434693336
1772789499918108200,7.828108154296875,0.00022542104125022888,0.000967823900282383,-0.0013336517149582505
1772789499928173300,7.83817333984375,0.0006262266542762518,-0.00031528715044260025,0.002663220278918743
1772789499938239200,7.8482392578125,0.0016328194178640842,0.00033867545425891876,-0.0006443518796004355
1772789499948305400,7.858305419921875,0.001918310415931046,-0.0015319287776947021,-0.0002581935259513557
1772789499958371300,7.868371337890625,-0.0005088143516331911,0.00014931894838809967,-0.0006917626596987247
1772789499968436200,7.878436279296875,-0.0019828740041702986,-0.0001201927661895752,-0.0023519773967564106
1772789499978502400,7.88850244140625,-0.0013224943540990353,0.00039820559322834015,-0.0035034033935517073
1772789499988568300,7.898568359375,0.00033212779089808464,-0.00045986566692590714,-0.0020535783842206
1772789499998634200,7.90863427734375,-0.0002667871303856373,-0.0006382986903190613,-0.0012340794783085585
1772789500008699100,7.91869921875,0.0019569522701203823,0.0017212620005011559,0.0024208426475524902
1772789500018765300,7.928765380859375,-0.002069228095933795,0.001950109377503395,0.001361312111839652
1772789500028831200,7.938831298828125,-0.00013337633572518826,-0.0006517991423606873,0.00007340748561546206
1772789500038897200,7.948897216796875,-0.00021381094120442867,-0.0012935632839798927,-0.0006768800085410476
1772789500048962300,7.95896240234375,-0.0023770967964082956,-0.00017290469259023666,-0.00021295732585713267
1772789500059028500,7.969028564453125,-0.0012321467511355877,-0.0020035402849316597,0.0011813909513875842
1772789500069094100,7.97909423828125,-0.00048726098611950874,-0.001144670881330967,-0.0043103136122226715
1772789500079160300,7.989160400390625,0.0010931689757853746,-0.0013621468096971512,-0.0012214428279548883
1772789500089225200,7.99922509765625,-0.000016570324078202248,0.002406759187579155,0.001495780423283577
1772789500099291400,8.00929150390625,0.00017837248742580414,0.0007466860115528107,-0.0006543764029629529
1772789500109356300,8.019356201171876,-0.001110331155359745,0.0011267196387052536,-0.0016285607125610113
1772789500119422200,8.029422119140625,0.00021293223835527897,-0.0005903951823711395,0.001985581126064062
1772789500129488100,8.039488037109376,0.00022331858053803444,-0.0028104064986109734,-0.0005761136417277157
1772789500139554300,8.04955419921875,-0.00309354648925364,0.0010655168443918228,0.0020081689581274986
1772789500149619500,8.059619384765625,0.0009531266987323761,-0.0028890110552310944,0.002761577256023884
1772789500159685400,8.069685302734374,-0.0022632090840488672,0.0011845100671052933,0.0011761123314499855
1772789500169751300,8.079751220703125,-0.0006290932651609182,0.0014803865924477577,-0.003799737896770239
1772789500179817200,8.089817138671876,-0.0007737106643617153,0.0001415582373738289,0.0027740169316530228
1772789500189882400,8.09988232421875,0.0011155358515679836,0.0018766075372695923,-0.003137668129056692
1772789500199948300,8.1099482421875,0.0006585554219782352,-0.0014418940991163254,-0.00023523642448708415
1772789500210014500,8.120014404296874,-0.0032706724014133215,-0.0020373770967125893,-0.0031705726869404316
1772789500220080400,8.130080322265625,0.0009705384727567434,0.0018158629536628723,0.0012254067696630955
1772789500230145300,8.140145263671876,0.001066944794729352,0.0018611373379826546,-0.0008712999988347292
1772789500240211200,8.150211181640625,0.00043304660357534885,0.0005124034360051155,0.0018141160253435373
1772789500250277400,8.16027734375,-0.00044792727567255497,0.0013020308688282967,-0.0012708897702395916
1772789500260343300,8.17034326171875,-0.0009266231209039688,-0.0011917296797037125,-0.0005329849664121866
1772789500270408400,8.180408447265625,-0.000039790524169802666,0.00017260760068893433,-0.0006794588407501578
1772789500280474000,8.19047412109375,0.0018754398915916681,-0.0008019637316465378,-0.00035620114067569375
1772789500290539500,8.20053955078125,0.0009230934083461761,0.001006055623292923,0.0013136008055880666
1772789500300605400,8.21060546875,0.0008637437131255865,0.0007911054417490959,0.0025717848911881447
1772789500310670600,8.220670654296875,0.0017100961413234472,-0.0006248978897929192,0.0008258165908046067
1772789500320736800,8.23073681640625,-0.000964650884270668,0.002007819712162018,0.0021778708323836327
1772789500330802400,8.240802490234374,0.0011909117456525564,-0.0030428655445575714,0.0017376502510160208
1772789500340868400,8.250868408203125,0.0007409965619444847,0.0014771055430173874,-0.0009575232397764921
1772789500350933500,8.26093359375,-0.001781549770385027,-0.0014683501794934273,-0.0015940186567604542
1772789500360999700,8.270999755859375,-0.0007375716231763363,-0.00003250502049922943,-0.0010442343773320317
1772789500371065600,8.281065673828126,0.00009999237954616547,0.00026283878833055496,0.00027882400900125504
1772789500381131800,8.2911318359375,-0.0016605560667812824,0.0006353817880153656,0.0012054542312398553
1772789500391196400,8.301196533203125,-0.000424316618591547,0.0009813262149691582,-0.0003080201568081975
1772789500401262600,8.3112626953125,0.001985673326998949,-0.0019464511424303055,-0.0004655021184589714
1772789500411328500,8.32132861328125,-0.0016857604496181011,-0.0006742589175701141,0.001381932757794857
1772789500421394700,8.331394775390624,0.001808260683901608,0.001302138902246952,-0.0005645614583045244
1772789500431459300,8.341459228515625,0.0001533722970634699,-0.000551687553524971,0.0027081971056759357
1772789500441525500,8.351525390625,0.0008866002317517996,0.0013611232861876488,0.0020773119758814573
1772789500451591400,8.36159130859375,0.0006037726998329163,-0.0016019092872738838,-0.0009477726416662335
1772789500461657600,8.37165771484375,0.0018080014269798994,-0.0008397549390792847,-0.005498917773365974
1772789500471722500,8.381722412109376,-0.0008660787716507912,0.0004803743213415146,0.0013984033139422536
1772789500481788700,8.39178857421875,-0.0016870505642145872,-0.00006111711263656616,0.0013639058452099562
1772789500491854300,8.401854248046876,-0.0011051499750465155,-0.0007064007222652435,-0.0022231058683246374
1772789500501920500,8.41192041015625,0.000893895048648119,0.0012625399976968765,-0.00035416800528764725
1772789500511985700,8.421985595703125,-0.0015945627819746733,-0.0018871799111366272,-0.00005562766455113888
1772789500522051600,8.432051513671874,0.00017601996660232544,-0.0029947273433208466,-0.0016792243113741279
1772789500532117500,8.442117431640625,0.0012743074912577868,0.0008343653753399849,0.00006328191375359893
1772789500542183700,8.45218359375,0.0004373330157250166,0.00002535153180360794,-0.0011359440395608544
1772789500552248600,8.46224853515625,0.0003308067098259926,0.0004953993484377861,-0.0010877408785745502
1772789500562314500,8.472314453125,-0.00023255730047821999,-0.0005763741210103035,0.000771263032220304
1772789500572380400,8.48238037109375,-0.0002488023601472378,0.0020652152597904205,0.0026740916073322296
1772789500582446600,8.492446533203125,0.000786009943112731,-0.00295436754822731,-0.000908048648852855
1772789500592511700,8.50251171875,-0.0002587481867522001,-0.00090746209025383,0.0010222104610875249
1772789500602577400,8.512577392578125,0.002209025900810957,0.0009687300771474838,0.00010024168295785785
1772789500612643600,8.5226435546875,-0.00008795037865638733,-0.0007378235459327698,0.0009748237789608538
1772789500622709500,8.53270947265625,0.000678228447213769,0.00022524408996105194,0.0001161900581791997
1772789500632774700,8.542774658203125,-0.0028797548729926348,0.0011299196630716324,-0.0005565244937315583
1772789500642840600,8.552840576171874,-0.000205963384360075,-0.002596602775156498,0.001074017258360982
1772789500652906800,8.56290673828125,-0.0009234189055860043,0.0011933417990803719,0.0005331292049959302
1772789500662972400,8.572972412109374,-0.0010376116260886192,-0.002033540979027748,-0.002240909729152918
1772789500673037600,8.58303759765625,-0.0008389395661652088,-0.000028446316719055176,0.00002970139030367136
1772789500683103500,8.593103515625,0.0014170887880027294,0.00027674436569213867,0.002850265009328723
1772789500693169700,8.603169677734375,-0.0032181430142372847,-0.00046041887253522873,0.0004084125976078212
1772789500703235600,8.613235595703125,0.001105081057175994,-0.0010825302451848984,0.001531176851131022
1772789500713300500,8.623300537109374,0.0007615333888679743,0.0005539823323488235,-0.0023122972343117
1772789500723366400,8.633366455078125,-0.0028880718164145947,0.0012834472581744194,0.00017162493895739317
1772789500733432600,8.6434326171875,0.0008371581789106131,0.0006144614890217781,-0.002276086248457432
1772789500743498500,8.65349853515625,0.0010758303105831146,-0.00010746903717517853,-0.0003516527940519154
1772789500753564700,8.663564697265626,-0.0003497595898807049,-0.0003657964989542961,-0.0011367526603862643
1772789500763629300,8.67362939453125,0.002434958703815937,-0.0011179978027939796,0.0014578531263396144
1772789500773695500,8.683695556640625,-0.0008263485506176949,-0.001841844990849495,-0.00010648771421983838
1772789500783761400,8.693761474609374,-0.0010385445784777403,-0.0002564573660492897,0.0007167246076278389
1772789500793827600,8.70382763671875,0.0009047640487551689,-0.00014061015099287033,-0.0005394884501583874
1772789500803892700,8.713892822265626,-0.00112387933768332,0.0005636988207697868,-0.0013304647291079164
1772789500813958700,8.723958740234375,-0.0005278640892356634,-0.000518077053129673,-0.0012234057066962123
1772789500824024300,8.7340244140625,-0.0008167808409780264,0.0006149346008896828,0.00011891376925632358
1772789500834089500,8.74408935546875,0.0028091128915548325,0.00037764664739370346,0.0008803115342743695
1772789500844155600,8.75415576171875,-0.0008465875871479511,-0.0009270785376429558,0.0032894171308726072
1772789500854221600,8.7642216796875,-0.0003403211012482643,0.0005001099780201912,0.0018473155796527863
1772789500864287500,8.77428759765625,-0.0009044250473380089,-0.0012618647888302803,-0.002000747248530388
1772789500874352400,8.784352294921876,0.0011898847296833992,0.00008462928235530853,0.0008778634946793318
1772789500884418600,8.79441845703125,0.0007374819833785295,-0.0018349206075072289,-0.000685175764374435
1772789500894484500,8.804484375,0.0011023350525647402,0.000397607684135437,-0.0011621479643508792
1772789500904550700,8.814550537109374,0.00044328905642032623,0.0008836518973112106,-0.00016244553262367845
1772789500914615600,8.824615478515625,0.00018229917623102665,-0.0021976251155138016,0.0009678000351414084
1772789500924681500,8.834681396484376,-0.0012232381850481033,-0.0004513990134000778,-0.0009334750939160585
1772789500934747400,8.844747314453125,0.0005972986109554768,-0.0011960193514823914,-0.0024528084322810173
1772789500944813600,8.8548134765625,-0.0000323709100484848,-0.001843913458287716,-0.0012443105224519968
1772789500954878500,8.86487841796875,0.0019740546122193336,0.0006831595674157143,-0.001599043607711792
1772789500964944600,8.874944580078125,0.00048542488366365433,0.000435718335211277,-0.00221338402479887
1772789500975010600,8.885010498046874,0.0006470787338912487,-0.000599185936152935,0.003934256732463837
1772789500985076500,8.895076416015625,-0.0009074693080037832,0.0019575320184230804,-0.0013589670415967703
1772789500995141600,8.9051416015625,0.0019935118034482002,0.001028621569275856,0.0012501317542046309
1772789501005207600,8.91520751953125,0.0009798791725188494,0.001372121274471283,-0.00010809843661263585
1772789501015273500,8.9252734375,0.000053631607443094254,-0.0015451060608029366,0.001381940208375454
1772789501025339600,8.935339599609375,0.0005238414742052555,0.000019759871065616608,-0.00007459521293640137
1772789501035404500,8.945404541015625,-0.00013688881881535053,0.00023281294852495193,0.00038187054451555014
1772789501045470500,8.955470458984376,0.0020367559045553207,-0.0008746851235628128,-0.004010793752968311
1772789501055536400,8.965536376953125,-0.00134386052377522,-0.0007210206240415573,-0.0023777433671057224
1772789501065601500,8.9756015625,-0.0005034599453210831,-0.001532948575913906,0.0006872222293168306
1772789501075667700,8.985667724609375,-0.001325045246630907,-0.0007206844165921211,0.00009094050619751215
1772789501085733600,8.995733642578125,-0.00027878396213054657,0.00018806848675012589,-0.0007647501770406961
1772789501095799600,9.005799560546874,0.00032149231992661953,-0.0020620357245206833,-0.00025368959177285433
1772789501105864400,9.015864501953125,0.00044495053589344025,-0.000555691309273243,0.0015407698228955269
1772789501115930600,9.0259306640625,-0.002133788540959358,0.0020448854193091393,0.0013729906640946865
1772789501125996500,9.03599658203125,-0.0005231858231127262,-0.0007652668282389641,-0.0013883295468986034
1772789501136062700,9.046062744140626,0.0030494448728859425,-0.000296018086373806,-0.002994215814396739
1772789501146127400,9.05612744140625,0.0000817605759948492,0.0006067287176847458,0.00022674701176583767
1772789501156193500,9.066193603515625,0.003029879881069064,0.0005880864337086678,-0.0014158906415104866
1772789501166259500,9.076259521484374,0.0012664278037846088,0.0025231298059225082,0.00047105184057727456
1772789501176325600,9.08632568359375,0.0006235407199710608,-0.0027041221037507057,-0.0005800978397019207
1772789501186390500,9.096390625,-0.00162695930339396,0.0010830983519554138,0.001110430108383298
1772789501196456400,9.10645654296875,0.0025960151106119156,-0.0029617100954055786,0.0005852547474205494
1772789501206522400,9.1165224609375,-0.0020654750987887383,0.00047939177602529526,-0.0014455777127295732
1772789501216588500,9.126588623046874,0.0005651952233165503,-0.00026309769600629807,0.0017515472136437893
1772789501226653700,9.13665380859375,-0.0008624992333352566,-0.00295921228826046,-0.0009973431006073952
1772789501236719600,9.1467197265625,-0.0008957884274423122,0.0002083517611026764,0.0011323868529871106
1772789501246785500,9.15678564453125,0.0009328525047749281,-0.0004683341830968857,0.0015789468307048082
1772789501256850400,9.166850341796875,0.0015294004697352648,-0.00016979407519102097,0.0011874621268361807
1772789501266916600,9.17691650390625,-0.0005590971559286118,0.0007255477830767632,0.0016932112630456686
1772789501276982500,9.186982421875,-0.0006238119676709175,-0.00017326977103948593,-0.002227494493126869
1772789501287048700,9.197048583984374,-0.0032058628275990486,0.000355391763150692,-0.001379535417072475
1772789501297113600,9.207113525390625,0.0009159117471426725,0.0001894766464829445,0.0005017216317355633
1772789501307179500,9.217179443359376,0.0001745675690472126,-0.0011913860216736794,-0.0006698283832520247
1772789501317245400,9.227245361328125,-0.0011956288944929838,0.002099481411278248,0.0011179517023265362
1772789501327311600,9.2373115234375,0.003534001996740699,-0.0000652829185128212,-0.0009748832671903074
1772789501337376500,9.24737646484375,-0.0011222686152905226,-0.00030123908072710037,0.00011861062375828624
1772789501347442700,9.257442626953125,0.0007008006796240807,0.00047992728650569916,-0.00014279939932748675
1772789501357508400,9.26750830078125,0.0022646086290478706,-0.0012572519481182098,-0.0011950143380090594
1772789501367573500,9.277573486328125,0.0002839935477823019,0.00039514433592557907,0.002063112799078226
1772789501377639400,9.287639404296876,0.0006911908276379108,-0.00047091487795114517,0.00012060301378369331
1772789501387705600,9.29770556640625,-0.0008463107515126467,0.0021590720862150192,-0.0023547899909317493
1772789501397771500,9.307771484375,0.0018461449071764946,-0.0014601638540625572,0.0014367522671818733
1772789501407836400,9.31783642578125,0.000636151758953929,-0.0012215785682201385,-0.0010671966010704637
1772789501417902600,9.327902587890625,-0.0019875946454703808,0.001605100929737091,0.0009940901072695851
1772789501427968500,9.337968505859376,-0.00004775123670697212,0.0011450480669736862,-0.002415700349956751
1772789501438034400,9.348034423828125,-0.002062699059024453,0.0004994980990886688,-0.0019336683908477426
1772789501448099600,9.358099609375,-0.0015292398165911436,-0.00035803671926259995,0.0002994075184687972
1772789501458165800,9.368165771484374,-0.0017574725206941366,0.000749305821955204,0.0013881077757105231
1772789501468231400,9.3782314453125,0.0011080449912697077,0.002887686714529991,-0.0015341646503657103
1772789501478296600,9.388296630859376,-0.0007351287640631199,-0.0009059859439730644,-0.0003184316447004676
1772789501488362500,9.398362548828125,-0.0026148310862481594,0.0012433910742402077,-0.00027223024517297745
1772789501498428700,9.4084287109375,-0.00039162393659353256,-0.0009015193209052086,-0.0004317535785958171
1772789501508494600,9.41849462890625,0.0007660670671612024,0.00016738846898078918,-0.002031601034104824
1772789501518559500,9.4285595703125,0.0003418256528675556,0.0009735273197293282,-0.00058577093295753
1772789501528625400,9.43862548828125,0.002458440139889717,0.0030990466475486755,0.000119730771984905
1772789501538691600,9.448691650390625,-0.00008381344377994537,0.0010638590902090073,-0.005292878020554781
1772789501548757500,9.458757568359376,-0.001085642259567976,-0.001295073889195919,-0.00020884012337774038
1772789501558822700,9.46882275390625,-0.0016137468628585339,0.0011699479073286057,0.0009818591643124819
1772789501568888300,9.478888427734375,0.0016209075693041086,0.0006913710385560989,-0.00030117807909846306
1772789501578954500,9.48895458984375,-0.0008323965594172478,-0.0004505924880504608,-0.0004095687181688845
1772789501589020400,9.4990205078125,-0.0017278625164180994,-0.002291356213390827,0.0005783922970294952
1772789501599085600,9.50908544921875,-0.00009294785559177399,0.0015057791024446487,0.00004256429383531213
1772789501609151500,9.5191513671875,0.0005814419128000736,-0.001879137009382248,-0.0004265617171768099
1772789501619217700,9.5292177734375,-0.0009954154957085848,-0.00016059912741184235,-0.003709173994138837
1772789501629282600,9.539282470703125,-0.000534780090674758,0.0014997832477092743,0.00019968778360635042
1772789501639348500,9.549348388671875,-0.000751561252400279,0.0011652903631329536,0.0008572222432121634
1772789501649414700,9.55941455078125,0.0004626938607543707,-0.0005632229149341583,-0.0013136304914951324
1772789501659480600,9.56948046875,0.0007505815010517836,-0.0005714790895581245,0.00115698401350528
1772789501669545700,9.579545654296876,0.0007002688944339752,0.0006470037624239922,0.00011990370694547892
1772789501679611400,9.589611328125,-0.0022342682350426912,0.00030265748500823975,-0.002213025465607643
1772789501689677600,9.599677490234376,0.0020377528853714466,-0.00043952837586402893,0.0007958560599945486
1772789501699743500,9.609743408203125,-0.0013596417848020792,-0.001331687904894352,0.0003556355950422585
1772789501709808600,9.61980859375,0.0020808635745197535,-0.001923142932355404,0.0011871865717694163
1772789501719874600,9.62987451171875,-0.00012450013309717178,-0.0007175300270318985,0.0017829356947913766
1772789501729940700,9.639940673828125,-0.001753885531798005,-0.0016550896689295769,-0.0007634633220732212
1772789501740005400,9.65000537109375,0.0002954169176518917,-0.0012313807383179665,0.0001286956830881536
1772789501750071600,9.660071533203125,-0.0003054230473935604,0.000126727856695652,0.001188091468065977
1772789501760137500,9.670137451171875,-0.0011610966175794601,0.0011017108336091042,-0.0009216646431013942
1772789501770203600,9.68020361328125,0.0010335426777601242,-0.000501527450978756,-0.0015828153118491173
1772789501780268500,9.6902685546875,-0.000906303757801652,0.0005152672529220581,0.0009178928448818624
1772789501790334500,9.70033447265625,0.0014143944717943668,-0.0008967984467744827,0.002898749429732561
1772789501800400400,9.710400390625,-0.0025049797259271145,0.0006113499402999878,0.00008325575618073344
1772789501810465500,9.720465576171875,0.00032475427724421024,0.00086924247443676,-0.0026471270248293877
1772789501820531700,9.73053173828125,0.0002760183997452259,0.0014756442978978157,0.0005995325045660138
1772789501830597600,9.74059765625,-0.0016687551978975534,-0.00025931466370821,-0.00013514136662706733
1772789501840663600,9.75066357421875,0.00044739246368408203,-0.0017078081145882607,0.0007756597478874028
1772789501850728400,9.760728515625,-0.0018219361081719398,0.00004149973392486572,0.000156970985699445
1772789501860794600,9.770794677734376,-0.003228085581213236,-0.002074914053082466,-0.00013810727978125215
1772789501870860500,9.780860595703125,0.0004235433880239725,0.0005829902365803719,-0.0008266289951279759
1772789501880926700,9.7909267578125,-0.0003125544171780348,-0.0008769547566771507,-0.0028061566408723593
1772789501890991400,9.800991455078124,0.0007490371353924274,-0.0007559666410088539,-0.0004570805176626891
1772789501901057500,9.8110576171875,0.00018551223911345005,0.00016069412231445312,0.0005107121542096138
1772789501911123500,9.82112353515625,-0.00133175915107131,-0.00009669456630945206,0.0009493373217992485
1772789501921188600,9.831188720703125,-0.0015916838310658932,0.0006268862634897232,-0.0013764011673629284
1772789501931254500,9.841254638671876,-0.002123161917552352,-0.000514734536409378,-0.0017541823908686638
1772789501941320700,9.85132080078125,-0.002076290315017104,-0.0016481755301356316,-0.002251927275210619
1772789501951386400,9.861386474609375,-0.0006841968279331923,0.0005273753777146339,0.0010161676909774542
1772789501961451500,9.871451416015624,-0.0017361456993967295,-0.0008063353598117828,0.0003988470998592675
1772789501971517400,9.881517333984375,0.0018497906858101487,-0.00045124348253011703,0.00046510144602507353
1772789501981583600,9.89158349609375,-0.00016062986105680466,0.0018145740032196045,0.001052861101925373
1772789501991648500,9.9016484375,-0.0015061190351843834,-0.0027582598850131035,0.0009934473782777786
1772789502001714400,9.91171435546875,0.004640723112970591,0.0011448683217167854,0.0016421934124082327
1772789502011780600,9.921780517578124,0.0007465877570211887,0.0003961324691772461,0.0005345362005755305
1772789502021846500,9.931846435546875,-0.0010718186385929585,-0.0014212094247341156,0.0008437292417511344
1772789502031911700,9.94191162109375,0.0019731973297894,0.0021567577496170998,0.00006686884444206953
1772789502041977600,9.9519775390625,-0.0016681426204741001,-0.0004006754606962204,-0.00248390669003129
1772789502052043500,9.96204345703125,-0.0006976015865802765,0.0019297804683446884,0.001542476238682866
1772789502062109400,9.972109375,0.0006036190316081047,-0.001780269667506218,0.000696656119544059
1772789502072174600,9.982174560546875,0.0008460462559014559,-0.0006678113713860512,0.0008820920484140515
1772789502082240500,9.992240478515624,0.0001751959789544344,0.0008174339309334755,-0.0013640180695801973
1772789502092306700,10.002306640625,0.0006991287227720022,-0.002857634797692299,-0.0014975953381508589
1772789502102371300,10.012371337890626,0.0023505548015236855,-0.0003587910905480385,0.00011148652993142605
1772789502112437500,10.0224375,-0.0010671606287360191,0.004269926808774471,-0.0006330317119136453
1772789502122503400,10.03250341796875,0.0008585713803768158,0.000992906279861927,-0.002422942314296961
1772789502132569600,10.042569580078125,-0.0001161978580057621,0.00035107042640447617,0.000628062873147428
1772789502142634800,10.052634765625,-0.0010206070728600025,0.000546812079846859,-0.0022036763839423656
1772789502152700400,10.062700439453126,-0.0021467830520123243,-0.00017821788787841797,0.0031188982538878918
1772789502162766300,10.072766357421875,0.0015560761094093323,0.00026306789368391037,-0.0019994310569018126
1772789502172831500,10.08283154296875,-0.00008584768511354923,0.0003285268321633339,0.0026163875591009855
1772789502182897700,10.092897705078125,0.001027886290103197,-0.0018281014636158943,0.000692786299623549
1772789502192963600,10.102963623046875,-0.00024118367582559586,-0.0014695068821310997,-0.0005044547142460942
1772789502203029800,10.11302978515625,0.0022472739219665527,-0.001369105651974678,-0.0018291110172867775
1772789502213094400,10.123094482421875,-0.0005032629705965519,-0.001515273004770279,-0.0012119094608351588
1772789502223160600,10.13316064453125,-0.0007946128025650978,0.0007524080574512482,0.00023605121532455087
1772789502233226500,10.1432265625,-0.0009681230876594782,-0.0013680681586265564,0.0018241339130327106
1772789502243291600,10.153291748046875,0.0014364451635628939,0.00001038331538438797,0.0010057445615530014
1772789502253357600,10.163357666015624,0.0007816669531166553,0.00037982314825057983,0.00011673063272610307
1772789502263423500,10.173423583984375,0.0026714461855590343,-0.00011552497744560242,-0.0017536074155941606
1772789502273489400,10.183489501953124,0.0010058148764073849,-0.0011660205200314522,-0.00009545788634568453
1772789502283554600,10.193554443359375,-0.0013659964315593243,0.0010854154825210571,-0.0002882707631215453
1772789502293622000,10.2036220703125,0.0005839231889694929,0.0005537346005439758,0.001731656026095152
1772789502303688000,10.21368798828125,-0.0001290051732212305,0.0003071259707212448,0.00009780679829418659
1772789502313753000,10.223753173828126,0.0011159067507833242,0.0009353049099445343,0.0016900347545742989
1772789502323819000,10.233819091796875,0.0009153708815574646,0.0011946968734264374,0.0016897683963179588
1772789502333885000,10.243885009765625,0.0031662480905652046,-0.00038752518594264984,0.0004186428268440068
1772789502343951000,10.253951171875,-0.00007055792957544327,-0.002085289917886257,-0.0013395760906860232
1772789502354016000,10.26401611328125,-0.0009956145659089088,-0.00047652050852775574,-0.00015418155817314982
1772789502364082200,10.274082275390626,-0.0008502057753503323,0.00172458216547966,-0.002005078364163637
1772789502374148000,10.284148193359375,0.0002414120826870203,-0.0013098623603582382,0.001756093930453062
1772789502384213000,10.294212890625,-0.003192467615008354,0.0001950906589627266,0.0033798234071582556
1772789502394279000,10.30427880859375,0.0009852598886936903,-0.0018714768812060356,0.0035435338504612446
1772789502404345000,10.314344970703125,-0.0005468567833304405,0.0024010324850678444,-0.0014911722391843796
1772789502414411000,10.324410888671874,0.0007138503715395927,0.0004906691610813141,0.002005866030231118
1772789502424476200,10.33447607421875,-0.0007034838199615479,-0.0021005868911743164,0.0024002802092581987
1772789502434541800,10.344541748046876,0.0008968038018792868,0.002153211273252964,0.00213551614433527
1772789502444608000,10.35460791015625,-0.0029618500266224146,-0.0010811975225806236,0.0017205956391990185
1772789502454673200,10.364673095703125,-0.00025200704112648964,0.0004482222720980644,-0.0008839916554279625
1772789502464739000,10.374739013671874,-0.0005076704546809196,0.0016967123374342918,0.0012169760884717107
1772789502474805000,10.384804931640625,-0.0009021591395139694,-0.002795136533677578,-0.001130523276515305
1772789502484871200,10.39487109375,0.00034340121783316135,-0.0014576967805624008,0.00008893816266208887
1772789502494936000,10.40493603515625,0.002023829147219658,0.0011673923581838608,0.00028539629420265555
1772789502505002000,10.415001953125,0.001852055313065648,-0.0016403784975409508,0.0014768943656235933
1772789502515068200,10.425068115234374,0.0018242853693664074,0.0005731591954827309,0.0016451001865789294
1772789502525133000,10.435133056640625,0.0000551475677639246,-0.0021983925253152847,0.001861082506366074
1772789502535199000,10.445198974609376,0.0008700951002538204,-0.0007492825388908386,-0.00045505177695304155
1772789502545265000,10.455264892578125,0.0006453241221606731,-0.000420914962887764,-0.0023533529601991177
1772789502555331000,10.4653310546875,-0.000043822918087244034,-0.0026164911687374115,0.00030174211133271456
1772789502565396000,10.47539599609375,0.0019149319268763065,0.002656834200024605,0.0006620677886530757
1772789502575462100,10.485462158203125,0.00008695689029991627,-0.0005074320361018181,0.0017395365284755826
1772789502585528000,10.495528076171874,0.00010240334086120129,0.0019040601328015327,-0.0009388047037646174
1772789502595593000,10.505593017578125,0.00121393078006804,-0.0008642785251140594,-0.0006203350494615734
1772789502605659100,10.5156591796875,0.0007220448460429907,-0.001245909370481968,-0.0004829159297514707
1772789502615725000,10.52572509765625,0.00038734939880669117,0.0006188070401549339,0.0015944959595799446
1772789502625791000,10.535791015625,0.00011570705100893974,-0.0004829429090023041,-0.004210928454995155
1772789502635856100,10.545856201171874,0.000641718739643693,0.000253031961619854,0.002588986186310649
1772789502645922000,10.555922119140625,-0.001119696069508791,-0.00042607448995113373,0.0021881803404539824
1772789502655988000,10.565988037109374,-0.0008845934644341469,-0.0008227508515119553,-0.0005176140693947673
1772789502666053000,10.57605322265625,-0.00023371679708361626,0.002186087891459465,0.002886171918362379
1772789502676119000,10.586119140625,0.0004148497246205807,-0.0002932148054242134,-0.003362716408446431
1772789502686185200,10.596185302734375,0.0010366979986429214,0.001201617531478405,0.0005710387486033142
1772789502696251100,10.606251220703125,-0.001054883934557438,-0.00020132306963205338,0.0016248158644884825
1772789502706316000,10.61631591796875,-0.0006290446035563946,-0.00054220762103796,0.00018431193893775344
1772789502716382000,10.6263818359375,-0.0018024626187980175,0.0018301215022802353,0.0007971785962581635
1772789502726448000,10.6364482421875,-0.0008895313367247581,-0.002127336338162422,0.004044370725750923
1772789502736513000,10.646512939453125,-0.0007282895967364311,0.00022718962281942368,-0.0007778028957545757
1772789502746579000,10.656578857421875,-0.002087833359837532,-0.0016612578183412552,-0.0007439807523041964
1772789502756644900,10.666644775390624,-0.0005567250773310661,-0.00025236234068870544,0.002680020872503519
1772789502766711000,10.6767109375,0.002990072825923562,0.0009029163047671318,-0.0018023457378149033
1772789502776776200,10.686776123046876,0.0010539938230067492,0.0001838337630033493,0.0015497284475713968
1772789502786842000,10.696842041015625,0.002558147069066763,0.0037455447018146515,0.0010437279706820846
1772789502796908000,10.706907958984376,0.000807198928669095,0.0013292096555233002,0.0024976166896522045
1772789502806973000,10.716972900390624,0.0010309044737368822,0.0014586392790079117,0.0005769450217485428
1772789502817039000,10.7270390625,-0.0032086456194519997,0.0018592355772852898,0.0005512504721991718
1772789502827105000,10.73710498046875,0.0007384251803159714,-0.00039513036608695984,-0.00036407800507731736
1772789502837171200,10.747171142578125,0.0019222558476030827,0.00016863737255334854,-0.004643870051950216
1772789502847236000,10.757236083984376,-0.0019371970556676388,0.0012115314602851868,0.0006520920433104038
1772789502857302000,10.767302001953125,0.0009270468726754189,-0.0011519147083163261,0.002038780599832535
1772789502867368000,10.777367919921875,-0.00039574550464749336,-0.002577771432697773,-0.0003045347984880209
1772789502877433000,10.78743310546875,0.0004336379934102297,-0.0008996520191431046,-0.0020266426727175713
1772789502887499000,10.7974990234375,0.0007566793356090784,-0.00213589146733284,0.0016842060722410679
1772789502897565200,10.807565185546874,0.002784554846584797,0.0031278925016522408,0.0009736258070915937
1772789502907631000,10.817631103515625,0.000785852549597621,-0.0029206788167357445,0.00211665453389287
1772789502917696000,10.827696044921876,0.0007153877522796392,0.0018547559157013893,0.0023196705151349306
