time,seconds_elapsed,z,y,x
1772797032536979000,0.08397900390625,0.07569476217031479,0.07716242969036102,0.2582762837409973
1772797032547004000,0.09400390625,0.13891474902629852,0.015503858216106892,0.04663887619972229
1772797032557030000,0.10402978515625,0.19745421409606934,-0.0731130912899971,-0.09719099849462509
1772797032567055000,0.11405517578125,0.23662878572940826,-0.1320112943649292,-0.1536518782377243
1772797032577081000,0.1240810546875,0.24556341767311096,-0.15545271337032318,-0.1790483146905899
1772797032587106000,0.13410595703125,0.2286640703678131,-0.14533215761184692,-0.20250409841537476
1772797032597132000,0.144132080078125,0.20088011026382446,-0.13446380198001862,-0.1841306835412979
1772797032607157000,0.154156982421875,0.181843563914299,-0.16239050030708313,-0.15392857789993286
1772797032617183000,0.164182861328125,0.16313858330249786,-0.1932125985622406,-0.11892079561948776
1772797032627208000,0.1742080078125,0.14925020933151245,-0.19456948339939117,-0.07848016172647476
1772797032637234000,0.18423388671875,0.13203765451908112,-0.18736723065376282,0.002287389012053609
1772797032647259000,0.1942587890625,0.10397939383983612,-0.22188979387283325,0.13957759737968445
1772797032657284900,0.204284912109375,0.06230279058218002,-0.2216588854789734,0.31769034266471863
1772797032667310000,0.21431005859375,0.010342385619878769,-0.2046618014574051,0.42364048957824707
1772797032677336000,0.224336181640625,-0.03777028247714043,-0.16584888100624084,0.44599372148513794
1772797032687361000,0.234361083984375,-0.07156126946210861,-0.10877921432256699,0.4391568601131439
1772797032697387000,0.244386962890625,-0.08670879900455475,-0.06377685070037842,0.3884691894054413
1772797032707412000,0.254411865234375,-0.0781342163681984,-0.022775620222091675,0.3053678870201111
1772797032717438000,0.26443798828125,-0.06490948796272278,-0.0177552942186594,0.23482955992221832
1772797032727463000,0.274462890625,-0.06151023134589195,-0.02323528192937374,0.19270633161067963
1772797032737488100,0.284488037109375,-0.05171086639165878,-0.016271913424134254,0.19935305416584015
1772797032747514000,0.29451416015625,-0.04521115496754646,-0.0348338820040226,0.2481115311384201
1772797032757539000,0.3045390625,-0.04176022857427597,-0.054130878299474716,0.2958116829395294
1772797032767565000,0.31456494140625,-0.05239742621779442,-0.047150466591119766,0.30840951204299927
1772797032777590000,0.324590087890625,-0.059905409812927246,-0.02263207547366619,0.28164657950401306
1772797032787616000,0.334615966796875,-0.06669141352176666,-0.01206811424344778,0.22566933929920197
1772797032797641000,0.344640869140625,-0.08352019637823105,-0.008806008845567703,0.1599385291337967
1772797032807667000,0.3546669921875,-0.10426648706197739,-0.01937716081738472,0.10038386285305023
1772797032817692200,0.364692138671875,-0.1192835196852684,-0.039145536720752716,0.05541984736919403
1772797032827718100,0.37471826171875,-0.11816632002592087,-0.08496522158384323,0.013796239160001278
1772797032837743000,0.3847431640625,-0.10598955303430557,-0.1274479627609253,-0.04234772175550461
1772797032847769000,0.39476904296875,-0.08858286589384079,-0.121265709400177,-0.08820176124572754
1772797032857794000,0.4047939453125,-0.08368903398513794,-0.0961957722902298,-0.10229042172431946
1772797032867820000,0.414820068359375,-0.0912494882941246,-0.07633578032255173,-0.0975651741027832
1772797032877845000,0.424844970703125,-0.09365112334489822,-0.051601674407720566,-0.0680679976940155
1772797032887871000,0.43487109375,-0.10785829275846481,-0.04489130899310112,-0.000731836655177176
1772797032897896000,0.44489599609375,-0.13635677099227905,-0.036622460931539536,0.09829115122556686
1772797032907922000,0.454921875,-0.16116544604301453,-0.046486008912324905,0.18595069646835327
1772797032917947100,0.464947021484375,-0.1670321375131607,-0.03858707472681999,0.24815760552883148
1772797032927973000,0.47497314453125,-0.14570766687393188,-0.06951995193958282,0.2656066417694092
1772797032937998000,0.484998046875,-0.12805810570716858,-0.1194710060954094,0.24109651148319244
1772797032948024000,0.495024169921875,-0.12880991399288177,-0.13933952152729034,0.197382852435112
1772797032958049000,0.505049072265625,-0.14191319048404694,-0.14395557343959808,0.1780051589012146
1772797032968075000,0.515074951171875,-0.15279114246368408,-0.1403656303882599,0.19110657274723053
1772797032978100000,0.525099853515625,-0.15464070439338684,-0.10568860918283463,0.21840637922286987
1772797032988125200,0.535125244140625,-0.14756815135478973,-0.06891462206840515,0.24510961771011353
1772797032998151200,0.545151123046875,-0.14012888073921204,-0.041795115917921066,0.2577822804450989
1772797033008176000,0.555176025390625,-0.15128593146800995,-0.025418274104595184,0.24638447165489197
1772797033018202000,0.5652021484375,-0.16265442967414856,-0.03464479744434357,0.19889898598194122
1772797033028227000,0.57522705078125,-0.17339521646499634,-0.06585144996643066,0.13361957669258118
1772797033038253000,0.585253173828125,-0.1930224448442459,-0.0856507197022438,0.07166140526533127
1772797033048278800,0.59527880859375,-0.21321533620357513,-0.0876278504729271,0.04024702310562134
1772797033058304800,0.6053046875,-0.2309463918209076,-0.07486651837825775,0.055816128849983215
1772797033068329700,0.615329833984375,-0.25712260603904724,-0.056890446692705154,0.10673576593399048
1772797033078355700,0.625355712890625,-0.2809957265853882,-0.05751043185591698,0.15800587832927704
1772797033088381000,0.635380859375,-0.2995968461036682,-0.022661902010440826,0.18093223869800568
1772797033098407000,0.645406982421875,-0.3194650709629059,0.02538951300084591,0.1808701753616333
1772797033108432000,0.655431884765625,-0.3317720890045166,0.04071919992566109,0.16997678577899933
1772797033118457900,0.665457763671875,-0.3403165638446808,0.037575606256723404,0.13700126111507416
1772797033128482800,0.67548291015625,-0.34409692883491516,0.044864408671855927,0.08947368711233139
1772797033138508800,0.6855087890625,-0.3341295123100281,0.012135226279497147,0.039982303977012634
1772797033148533800,0.69553369140625,-0.3170325458049774,-0.020560136064887047,0.01213016640394926
1772797033158559700,0.705559814453125,-0.2933325469493866,-0.05794532597064972,0.034079939126968384
1772797033168584700,0.715584716796875,-0.2683672606945038,-0.10338178277015686,0.11294732242822647
1772797033178610700,0.725610595703125,-0.26226598024368286,-0.11722595989704132,0.18776537477970123
1772797033188636000,0.735635986328125,-0.2614600956439972,-0.10046109557151794,0.22275663912296295
1772797033198662000,0.745661865234375,-0.26155170798301697,-0.09598591923713684,0.23790258169174194
1772797033208686800,0.755686767578125,-0.24613121151924133,-0.11298567056655884,0.23516644537448883
1772797033218712800,0.765712890625,-0.22852984070777893,-0.12474406510591507,0.2103031724691391
1772797033228737800,0.77573779296875,-0.20252807438373566,-0.1339695155620575,0.17152781784534454
1772797033238763800,0.785763671875,-0.17897135019302368,-0.1142200455069542,0.11317954957485199
1772797033248788700,0.795788818359375,-0.15483085811138153,-0.07543270289897919,0.0471709743142128
1772797033258814700,0.805814697265625,-0.12593050301074982,-0.030060697346925735,-0.01094798929989338
1772797033268840000,0.81583984375,-0.10087281465530396,-0.009326656349003315,-0.05518895387649536
1772797033278866000,0.825865966796875,-0.08822839707136154,-0.03627997636795044,-0.07620928436517715
1772797033288891000,0.835890869140625,-0.09265110641717911,-0.08100616931915283,-0.09662241488695145
1772797033298916900,0.845916748046875,-0.10510644316673279,-0.10900557786226273,-0.11731251329183578
1772797033308941800,0.85594189453125,-0.114653080701828,-0.12324044108390808,-0.1291332244873047
1772797033318967800,0.8659677734375,-0.11842278391122818,-0.12775610387325287,-0.12270514667034149
1772797033328992800,0.87599267578125,-0.1264849752187729,-0.11404907703399658,-0.1080673485994339
1772797033339018800,0.886018798828125,-0.12464499473571777,-0.08248848468065262,-0.08697138726711273
1772797033349044000,0.8960439453125,-0.11906646937131882,-0.0486261248588562,-0.05056703835725784
1772797033359070000,0.906070068359375,-0.10700687766075134,-0.03236885741353035,-0.03724857047200203
1772797033369095000,0.916094970703125,-0.10272344946861267,-0.021322332322597504,-0.05782787874341011
1772797033379121000,0.926120849609375,-0.10066722333431244,-0.017614679411053658,-0.06058558449149132
1772797033389145900,0.936145751953125,-0.09777050465345383,-0.03634309396147728,-0.0380251482129097
1772797033399171800,0.946171875,-0.10294608771800995,-0.056224122643470764,-0.005486644338816404
1772797033409196800,0.95619677734375,-0.1046779453754425,-0.05200221389532089,0.025558089837431908
1772797033419222800,0.966222900390625,-0.10481775552034378,-0.04026113823056221,0.05361102893948555
1772797033429247700,0.976247802734375,-0.10481856018304825,-0.04493924602866173,0.06563600152730942
1772797033439273700,0.986273681640625,-0.1103411540389061,-0.05402621626853943,0.06142474338412285
1772797033449299000,0.996298828125,-0.11501926183700562,-0.0462292805314064,0.040296558290719986
1772797033459325000,1.006324951171875,-0.12639150023460388,-0.04565723240375519,0.003486876841634512
1772797033469350000,1.016349853515625,-0.12319250404834747,-0.05044613033533096,-0.03687465935945511
1772797033479376000,1.0263759765625,-0.11358968168497086,-0.051589157432317734,-0.07259804010391235
1772797033489400800,1.03640087890625,-0.09950634837150574,-0.04815634340047836,-0.09153204411268234
1772797033499426800,1.0464267578125,-0.09206973761320114,-0.03129001334309578,-0.10035882890224457
1772797033509451800,1.05645166015625,-0.09694145619869232,0.005871737375855446,-0.08307304978370667
1772797033519477800,1.066477783203125,-0.10150505602359772,0.0009872338268905878,-0.031919583678245544
1772797033529503000,1.0765029296875,-0.10437194257974625,-0.0276795644313097,0.007874434813857079
1772797033539529000,1.086529052734375,-0.09611880779266357,-0.03572044521570206,0.01380822341889143
1772797033549554000,1.096553955078125,-0.08848938345909119,-0.03699077293276787,0.02436952106654644
1772797033559580000,1.106579833984375,-0.09010779112577438,-0.03977430984377861,0.033495109528303146
1772797033569604900,1.11660498046875,-0.08824890106916428,-0.029415946453809738,0.03789092227816582
1772797033579630800,1.126630859375,-0.09295151382684708,0.002127333078533411,0.03386848419904709
1772797033589655800,1.13665576171875,-0.08545391261577606,0.021809158846735954,0.039318643510341644
1772797033599681800,1.146681884765625,-0.06634227186441422,0.015139271505177021,0.04338981956243515
1772797033609706800,1.156706787109375,-0.050461575388908386,-0.004454136826097965,0.028024977073073387
1772797033619732700,1.166732666015625,-0.0426180325448513,-0.012173042632639408,-0.008550078608095646
1772797033629758000,1.176758056640625,-0.040530115365982056,-0.006452040281146765,-0.050279147922992706
1772797033639784000,1.186783935546875,-0.04328169301152229,-0.011118697002530098,-0.08140377700328827
1772797033649810000,1.196809814453125,-0.03783553093671799,-0.015850868076086044,-0.08973388373851776
1772797033659835000,1.2068349609375,-0.03997138515114784,-0.031093470752239227,-0.07579728960990906
1772797033669860900,1.21686083984375,-0.050269294530153275,-0.036379046738147736,-0.055448878556489944
1772797033679885800,1.2268857421875,-0.0613163523375988,-0.047035153955221176,-0.033671144396066666
1772797033689911800,1.236911865234375,-0.07102011144161224,-0.03007694147527218,-0.020849887281656265
1772797033699936800,1.246936767578125,-0.0717460885643959,0.00006711165769957006,-0.010869692079722881
1772797033709962800,1.256962646484375,-0.07710064202547073,0.011155182495713234,-0.014634069986641407
1772797033719988000,1.266988037109375,-0.07135514169931412,0.0118502676486969,-0.030224215239286423
1772797033730014000,1.277013916015625,-0.051778510212898254,0.02503211610019207,-0.04110908508300781
1772797033740039000,1.287038818359375,-0.026816433295607567,0.041554369032382965,-0.0467054545879364
1772797033750065000,1.29706494140625,0.00005619269722956233,0.05011722818017006,-0.04916461557149887
1772797033760089900,1.30708984375,0.021091436967253685,0.05814186483621597,-0.051970258355140686
1772797033770115800,1.31711572265625,0.0365806482732296,0.06082873046398163,-0.042155444622039795
1772797033780140800,1.327140869140625,0.05498149245977402,0.043713659048080444,-0.01853506825864315
1772797033790166800,1.337166748046875,0.05693252384662628,0.009476859122514725,0.019002718850970268
1772797033800192000,1.34719189453125,0.05736928433179855,-0.01513128262013197,0.045999981462955475
1772797033810218000,1.357218017578125,0.057364221662282944,-0.011833489872515202,0.039503999054431915
1772797033820243000,1.367242919921875,0.060623131692409515,-0.01447268296033144,0.026795128360390663
1772797033830269000,1.37726904296875,0.06612922251224518,-0.02401239238679409,0.013459882698953152
1772797033840294000,1.3872939453125,0.07781729847192764,-0.045649509876966476,0.0021491709630936384
1772797033850320000,1.39731982421875,0.0746779665350914,-0.0484575480222702,-0.008895756676793098
1772797033860345900,1.407345947265625,0.06509537994861603,-0.04958432912826538,-0.013836720027029514
1772797033870370800,1.417370849609375,0.0518789105117321,-0.038831017911434174,-0.006137254647910595
1772797033880396800,1.427396728515625,0.038604382425546646,-0.025126658380031586,-0.000931041082367301
1772797033890421800,1.437421875,0.026933081448078156,0.013127253390848637,-0.010447314940392971
1772797033900447700,1.44744775390625,0.02816852182149887,0.04328542202711105,-0.033911094069480896
1772797033910473000,1.457472900390625,0.031014641746878624,0.04241190478205681,-0.06460189819335938
1772797033920499000,1.4674990234375,0.029409553855657578,0.035948414355516434,-0.08916795998811722
1772797033930524000,1.47752392578125,0.026973826810717583,0.026284867897629738,-0.10575705766677856
1772797033940550000,1.4875498046875,0.032229576259851456,0.00923397857695818,-0.10621432214975357
1772797033950574800,1.497574951171875,0.02732962556183338,-0.0070339408703148365,-0.09272167831659317
1772797033960600800,1.507600830078125,0.02094709314405918,-0.01519812736660242,-0.076015405356884
1772797033970625800,1.517625732421875,0.018451711162924767,-0.004536961205303669,-0.06257602572441101
1772797033980651800,1.52765185546875,0.02269625850021839,0.0062669506296515465,-0.055994294583797455
1772797033990677800,1.537677734375,0.029219670221209526,0.006967628374695778,-0.05405764281749725
1772797034000703000,1.547702880859375,0.035959064960479736,0.00953651312738657,-0.06162075325846672
1772797034010729000,1.55772900390625,0.042335204780101776,0.0051958272233605385,-0.06528046727180481
1772797034020754000,1.56775390625,0.044007670134305954,0.00436039362102747,-0.06962541490793228
1772797034030780000,1.57777978515625,0.046602655202150345,0.005664277356117964,-0.07019799947738647
1772797034040804900,1.587804931640625,0.05025065317749977,0.0012128035305067897,-0.06487806886434555
1772797034050830800,1.597830810546875,0.04983067139983177,-0.00820839498192072,-0.0516221821308136
1772797034060855800,1.607855712890625,0.04837312549352646,-0.005115133244544268,-0.03301733732223511
1772797034070881800,1.6178818359375,0.044738974422216415,-0.00759906368330121,-0.008830242790281773
1772797034080906800,1.62790673828125,0.038718368858098984,-0.008300806395709515,0.011447331868112087
1772797034090932700,1.6379326171875,0.023730896413326263,-0.009066731669008732,0.012762133963406086
1772797034100958700,1.647958740234375,0.012405004352331161,-0.019301526248455048,-0.0002844255941454321
1772797034110984000,1.65798388671875,-0.005072522908449173,-0.016566192731261253,-0.02641056850552559
1772797034121010000,1.668010009765625,-0.011894210241734982,-0.01900724694132805,-0.04639679193496704
1772797034131035000,1.678034912109375,-0.015421566553413868,-0.031794946640729904,-0.05582385137677193
1772797034141060900,1.688060791015625,-0.01067954208701849,-0.03261333703994751,-0.0590854249894619
1772797034151085800,1.6980859375,-0.011377822607755661,-0.012051602825522423,-0.061399444937705994
1772797034161111800,1.70811181640625,-0.02683667466044426,0.014857242815196514,-0.06347031891345978
1772797034171136800,1.71813671875,-0.055749546736478806,0.028790369629859924,-0.05832402780652046
1772797034181162800,1.728162841796875,-0.08595378696918488,0.011435880325734615,-0.05000564455986023
1772797034191188000,1.73818798828125,-0.11080880463123322,-0.013641510158777237,-0.04079936072230339
1772797034201214000,1.7482138671875,-0.09930501878261566,-0.036983851343393326,-0.039623044431209564
1772797034211240000,1.758239990234375,-0.07353679835796356,-0.04597388207912445,-0.049562226980924606
1772797034221265000,1.768264892578125,-0.04464363306760788,-0.03496517613530159,-0.0649489089846611
1772797034231291000,1.778290771484375,-0.03081144206225872,-0.008945025503635406,-0.08260726183652878
1772797034241315800,1.78831591796875,-0.025437183678150177,0.0019382486352697015,-0.09229344129562378
1772797034251341800,1.798341796875,-0.02931181527674198,0.000853809411637485,-0.09136506915092468
1772797034261366800,1.80836669921875,-0.01984933763742447,-0.033068206161260605,-0.09070619940757751
1772797034271392800,1.818392822265625,-0.010834272019565105,-0.06657157093286514,-0.10498207807540894
1772797034281417700,1.828417724609375,-0.0006114617572166026,-0.08909738808870316,-0.12399251759052277
1772797034291443700,1.838443603515625,0.006382265593856573,-0.09639418125152588,-0.13968811929225922
1772797034301469000,1.848468994140625,0.015536082908511162,-0.08584300428628922,-0.1430508941411972
1772797034311495000,1.858494873046875,0.029087044298648834,-0.07303159683942795,-0.13523851335048676
1772797034321521000,1.86852099609375,0.0406973622739315,-0.06472413241863251,-0.11514177173376083
1772797034331545900,1.8785458984375,0.04370220750570297,-0.06926722079515457,-0.09167958796024323
1772797034341571800,1.88857177734375,0.05710882693529129,-0.09613638371229172,-0.07107044756412506
1772797034351596800,1.8985966796875,0.07399752736091614,-0.1256609857082367,-0.05449493229389191
1772797034361622800,1.908622802734375,0.07943224161863327,-0.12798939645290375,-0.04573366791009903
1772797034371647700,1.918647705078125,0.06911356002092361,-0.11266502737998962,-0.039872847497463226
1772797034381673700,1.928673828125,0.056934654712677,-0.07788494229316711,-0.030488666146993637
1772797034391699000,1.938698974609375,0.04206915572285652,-0.04916887730360031,-0.01715448498725891
1772797034401725000,1.948724853515625,0.030598655343055725,-0.040045686066150665,-0.0047031426802277565
1772797034411751000,1.9587509765625,0.021444838494062424,-0.032039158046245575,-0.000294545607175678
1772797034421776000,1.96877587890625,0.02076546661555767,-0.01986158825457096,-0.0070917317643761635
1772797034431801900,1.9788017578125,0.019593408331274986,-0.01119033619761467,-0.017911888659000397
1772797034441826800,1.988826904296875,0.017890051007270813,-0.008167915046215057,-0.03140905499458313
1772797034451852800,1.998852783203125,0.010065151378512383,0.0028807413764297962,-0.04387424886226654
1772797034461877800,2.008877685546875,-0.0023433153983205557,0.00635030772536993,-0.05133296176791191
1772797034471903700,2.01890380859375,-0.012711001560091972,0.0023129554465413094,-0.05828514322638512
1772797034481928700,2.0289287109375,-0.025963423773646355,0.000029294771593413316,-0.05892803147435188
1772797034491954700,2.03895458984375,-0.033425867557525635,-0.011835620738565922,-0.04345053806900978
1772797034501980700,2.048980712890625,-0.02973046526312828,-0.03503548353910446,0.004426972474902868
1772797034512006000,2.059005859375,-0.01709296740591526,-0.06567727774381638,0.06304074823856354
1772797034522031900,2.069031982421875,-0.006482933182269335,-0.0711471438407898,0.10841036587953568
1772797034532056800,2.079056884765625,-0.0033105756156146526,-0.05638790875673294,0.12414298951625824
1772797034542082800,2.089082763671875,-0.005789445713162422,-0.043420709669589996,0.11446026712656021
1772797034552107800,2.099107666015625,-0.00923104863613844,-0.0330309197306633,0.08748510479927063
1772797034562133800,2.1091337890625,-0.02143125608563423,-0.01720615103840828,0.042747728526592255
1772797034572158700,2.11915869140625,-0.025736788287758827,0.009148490615189075,-0.0003909520455636084
1772797034582184700,2.129184814453125,-0.02207440882921219,0.01907036453485489,-0.010889931581914425
1772797034592210700,2.139210693359375,-0.0007294398383237422,0.0010498181218281388,0.008361526764929295
1772797034602236000,2.14923583984375,0.025531459599733353,-0.010643589310348034,0.0320223830640316
1772797034612262000,2.159261962890625,0.046416234225034714,-0.013464143499732018,0.05534874275326729
1772797034622286800,2.169286865234375,0.06190890818834305,-0.018450645729899406,0.06485303491353989
1772797034632312800,2.179312744140625,0.07244250923395157,-0.0259248074144125,0.059356268495321274
1772797034642337800,2.189337890625,0.08739136159420013,-0.025728533044457436,0.04213147610425949
1772797034652363800,2.19936376953125,0.10186191648244858,-0.0377228781580925,0.02419774793088436
1772797034662389800,2.2093896484375,0.10723111778497696,-0.0384344756603241,0.01619095355272293
1772797034672414700,2.219414794921875,0.09388095140457153,-0.023576699197292328,0.01919473335146904
1772797034682440700,2.229440673828125,0.06838784366846085,0.013994378969073296,0.03796922042965889
1772797034692465700,2.239465576171875,0.03400377184152603,0.048527054488658905,0.07092583924531937
1772797034702491600,2.24949169921875,-0.0008761800127103925,0.05888994783163071,0.10362253338098526
1772797034712516900,2.259516845703125,-0.029076924547553062,0.04500821977853775,0.121659055352211
1772797034722542800,2.26954296875,-0.0370781272649765,0.01248276885598898,0.11851786077022552
1772797034732567800,2.27956787109375,-0.03274542838335037,-0.022937539964914322,0.094301737844944
1772797034742593800,2.28959375,-0.026072613894939423,-0.042928557842969894,0.058167964220047
1772797034752619800,2.299619873046875,-0.012804478406906128,-0.028593560680747032,0.025048362091183662
1772797034762644700,2.309644775390625,-0.00882038939744234,0.005742307752370834,0.0029081718530505896
1772797034772670700,2.319670654296875,-0.00019041601626668125,0.028135763481259346,0.0005603290628641844
1772797034782695700,2.32969580078125,0.01678137667477131,0.04364388436079025,0.008333297446370125
1772797034792721700,2.3397216796875,0.03473854064941406,0.05132044479250908,0.021830730140209198
1772797034802747000,2.349746826171875,0.05470292642712593,0.04542314261198044,0.024150609970092773
1772797034812772900,2.35977294921875,0.06992022693157196,0.025838522240519524,0.012849751859903336
1772797034822798800,2.369798828125,0.07153277099132538,0.012145079672336578,-0.00785765703767538
1772797034832823800,2.37982373046875,0.06066441163420677,0.0013739247806370258,-0.03310415893793106
1772797034842849800,2.389849853515625,0.052571333944797516,-0.011416971683502197,-0.04441007599234581
1772797034852874800,2.399874755859375,0.04735340178012848,-0.01962456852197647,-0.037637390196323395
1772797034862900700,2.409900634765625,0.03947710245847702,-0.014366689138114452,-0.018516693264245987
1772797034872925700,2.41992578125,0.03740382939577103,-0.003674363251775503,0.010775948874652386
1772797034882951700,2.42995166015625,0.03735482692718506,0.002335326047614217,0.041672080755233765
1772797034892976600,2.4399765625,0.03411535918712616,0.006393184419721365,0.05977198854088783
1772797034903002600,2.450002685546875,0.029827404767274857,0.018798988312482834,0.05480785295367241
1772797034913028600,2.460028564453125,0.025467542931437492,0.019901270046830177,0.03345143422484398
1772797034923053800,2.4700537109375,0.026793263852596283,0.007504521403461695,0.017360880970954895
1772797034933079800,2.480079833984375,0.038836345076560974,-0.013336578384041786,0.006001166999340057
1772797034943104800,2.490104736328125,0.05079899728298187,-0.01961577869951725,0.010036654770374298
1772797034953130800,2.500130859375,0.05531146004796028,-0.009648099541664124,0.02490481734275818
1772797034963155700,2.51015576171875,0.060623131692409515,0.0054152715019881725,0.03869972378015518
1772797034973181700,2.520181640625,0.06281784176826477,0.019764650613069534,0.04896567761898041
1772797034983207700,2.530207763671875,0.06830395758152008,0.02754853665828705,0.04682129994034767
1772797034993232600,2.540232666015625,0.07586440443992615,0.028065988793969154,0.037093307822942734
1772797035003258600,2.550258544921875,0.07971587032079697,0.02256256714463234,0.01902082934975624
1772797035013283800,2.560283935546875,0.08195292204618454,0.011898204684257507,-0.003877029987052083
1772797035023309800,2.570309814453125,0.08297957479953766,0.003227751236408949,-0.022492792457342148
1772797035033334800,2.580334716796875,0.07215888053178787,-0.005918076727539301,-0.028450284153223038
1772797035043360800,2.59036083984375,0.06530071049928665,-0.01900804601609707,-0.02239318937063217
1772797035053386800,2.60038671875,0.06338030099868774,-0.016863401979207993,-0.009298160672187805
1772797035063411700,2.61041162109375,0.06204472854733467,-0.009837184101343155,0.001377919572405517
1772797035073437700,2.620437744140625,0.05945320799946785,0.005018726922571659,0.004712463356554508
1772797035083462700,2.630462646484375,0.04455122351646423,0.0136023610830307,0.0005856291390955448
1772797035093488600,2.640488525390625,0.0267112385481596,0.028616463765501976,-0.006910636555403471
1772797035103513600,2.650513671875,0.013463344424962997,0.022825421765446663,-0.008232896216213703
1772797035113539600,2.66053955078125,-0.008197476156055927,0.0010306433541700244,-0.007894674316048622
1772797035123565600,2.670565673828125,-0.023561784997582436,-0.01139832939952612,-0.007532751187682152
1772797035133590800,2.6805908203125,-0.033315081149339676,-0.008629441261291504,-0.01452754344791174
1772797035143616800,2.69061669921875,-0.041371140629053116,0.015299860388040543,-0.016745157539844513
1772797035153641700,2.700641845703125,-0.04950470104813576,0.03759664297103882,-0.013421266339719296
1772797035163667700,2.710667724609375,-0.054427821189165115,0.04749614745378494,-0.008735700510442257
1772797035173692700,2.720692626953125,-0.05403101071715355,0.04501541331410408,-0.0006311691831797361
1772797035183718700,2.73071875,-0.05613996833562851,0.031619444489479065,0.009400425478816032
1772797035193744600,2.74074462890625,-0.06083671748638153,0.013681990094482899,0.011630822904407978
1772797035203769600,2.75076953125,-0.06660832464694977,0.009164736606180668,0.003677559085190296
1772797035213795600,2.760795654296875,-0.07138390094041824,0.013905961997807026,-0.011625230312347412
1772797035223820800,2.77082080078125,-0.07574296742677689,0.032871928066015244,-0.02148212306201458
1772797035233846800,2.7808466796875,-0.0751890242099762,0.0329078808426857,-0.013442039489746094
1772797035243871700,2.790871826171875,-0.06359122693538666,0.034218158572912216,0.004001665860414505
1772797035253897700,2.800897705078125,-0.04941202327609062,0.03045058436691761,0.022877085953950882
1772797035263923700,2.810923828125,-0.0546824187040329,0.07571180164813995,0.0365404337644577
1772797035273948700,2.82094873046875,-0.07147950679063797,0.1317223459482193,0.0532565638422966
1772797035283974700,2.830974609375,-0.07315649837255478,0.13853764533996582,0.0697319433093071
1772797035293999600,2.84099951171875,-0.06973566859960556,0.11166740953922272,0.07182438671588898
1772797035304025600,2.851025634765625,-0.07530487328767776,0.09445060789585114,0.055747419595718384
1772797035314050600,2.861050537109375,-0.0676373690366745,0.046659115701913834,0.026573553681373596
1772797035324076500,2.87107666015625,-0.038217693567276,0.0027542412281036377,-0.009983391501009464
1772797035334102500,2.8811025390625,-0.011785286478698254,-0.018267421051859856,-0.041901376098394394
1772797035344127700,2.891127685546875,-0.004053330980241299,-0.009207612834870815,-0.06109904125332832
1772797035354153700,2.90115380859375,0.005005411338061094,0.01750895194709301,-0.0601019524037838
1772797035364178700,2.9111787109375,0.007586546707898378,0.028246019035577774,-0.036490365862846375
1772797035374204700,2.92120458984375,0.0008074704091995955,0.02118837647140026,-0.00666535971686244
1772797035384229600,2.931229736328125,-0.016114255413413048,0.00663366774097085,0.020053602755069733
1772797035394255600,2.941255615234375,-0.032770730555057526,0.007741276640444994,0.024946628138422966
1772797035404281600,2.951281494140625,-0.056353021413087845,0.023540213704109192,0.024870462715625763
1772797035414306600,2.961306640625,-0.0779629722237587,0.03217205032706261,0.022548984736204147
1772797035424332500,2.97133251953125,-0.06560217589139938,0.023198530077934265,0.016092417761683464
1772797035434357800,2.981357666015625,-0.040160734206438065,0.014504906721413136,0.0027174896094948053
1772797035444383700,2.9913837890625,-0.021093834191560745,0.011901932768523693,-0.03459499403834343
1772797035454409500,3.001409423828125,-0.03202930465340614,0.024703215807676315,-0.0731879249215126
1772797035464434700,3.0114345703125,-0.052137501537799835,0.026616696268320084,-0.09845174103975296
1772797035474460700,3.021460693359375,-0.061053767800331116,0.0218520350754261,-0.1054886057972908
1772797035484485600,3.031485595703125,-0.06161808967590332,0.02069169655442238,-0.0891711562871933
1772797035494511600,3.04151171875,-0.06192568689584732,0.018379539251327515,-0.06731192767620087
1772797035504536600,3.05153662109375,-0.058464907109737396,0.013481720350682735,-0.038060568273067474
1772797035514562600,3.0615625,-0.04436187073588371,0.0006319681415334344,-0.017437845468521118
1772797035524588500,3.071588623046875,-0.01955985277891159,-0.007653126027435064,-0.008421181701123714
1772797035534613500,3.081613525390625,0.002681004349142313,-0.00509862182661891,-0.016116652637720108
1772797035544639500,3.091639404296875,0.012508334591984749,0.0032716933637857437,-0.029742715880274773
1772797035554664700,3.101664794921875,0.015691878274083138,0.0059686764143407345,-0.04220231622457504
1772797035564690700,3.111690673828125,0.008876049891114235,0.019821375608444214,-0.05233670771121979
1772797035574715600,3.121715576171875,0.0008535431115888059,0.03032088838517666,-0.048047155141830444
1772797035584741600,3.13174169921875,-0.006160690449178219,0.027280356734991074,-0.040715206414461136
1772797035594767600,3.141767578125,-0.01267025526612997,0.009840114042162895,-0.02719486877322197
1772797035604792600,3.15179248046875,-0.01612703874707222,-0.013528858311474323,-0.015842879191040993
1772797035614818600,3.161818603515625,-0.021512482315301895,-0.016864467412233353,-0.022355372086167336
1772797035624843500,3.171843505859375,-0.026917368173599243,0.0010743191232904792,-0.03253797069191933
1772797035634869500,3.181869384765625,-0.02907026745378971,0.020961474627256393,-0.030965905636548996
1772797035644894700,3.191894775390625,-0.04146861284971237,0.029936326667666435,-0.01950659044086933
1772797035654920700,3.201920654296875,-0.060325127094984055,0.03574574738740921,-0.00962786003947258
1772797035664946400,3.211946533203125,-0.07645988464355469,0.02882898412644863,0.0017528926255181432
1772797035674971600,3.2219716796875,-0.08822866529226303,0.019581690430641174,0.006393184419721365
1772797035684997600,3.23199755859375,-0.10090344399213791,0.010627344250679016,0.011392204090952873
1772797035695022600,3.242022705078125,-0.09941713511943817,0.0043710460886359215,0.007497863844037056
1772797035705048600,3.252048583984375,-0.09950315207242966,0.023903202265501022,0.005331115797162056
1772797035715073500,3.262073486328125,-0.09696649014949799,0.030413299798965454,0.010337858460843563
1772797035725099500,3.272099609375,-0.08408265560865402,0.037467215210199356,0.01583355851471424
1772797035735125500,3.28212548828125,-0.07853182405233383,0.04495895281434059,0.01938035525381565
1772797035745150500,3.292150390625,-0.08357398957014084,0.04294826462864876,0.021278124302625656
1772797035755176400,3.302176513671875,-0.08758391439914703,0.03357846662402153,0.026064889505505562
1772797035765201700,3.31220166015625,-0.09086732566356659,0.02726144902408123,0.017288709059357643
1772797035775227600,3.3222275390625,-0.09091445803642273,0.023868581280112267,0.012178368866443634
1772797035785252600,3.332252685546875,-0.08494045585393906,0.016260994598269463,0.014726481400430202
1772797035795278600,3.342278564453125,-0.07996807247400284,0.006440056022256613,0.02034894749522209
1772797035805304600,3.3523046875,-0.07978750765323639,-0.004003263544291258,0.03555719554424286
1772797035815329500,3.36232958984375,-0.08538174629211426,-0.004207528196275234,0.04405640810728073
1772797035825355500,3.37235546875,-0.09625037014484406,0.0026727484073489904,0.04087313264608383
1772797035835380500,3.38238037109375,-0.08867847174406052,0.006672816351056099,0.026486467570066452
1772797035845406500,3.392406494140625,-0.07961732894182205,0.0005696501466445625,0.011167965829372406
1772797035855431700,3.402431640625,-0.06453824788331985,-0.0070589748211205006,-0.012298744171857834
1772797035865457400,3.41245751953125,-0.056170593947172165,-0.003930293023586273,-0.029826605692505836
1772797035875483600,3.422483642578125,-0.059419918805360794,0.01363325398415327,-0.029018601402640343
1772797035885508600,3.432508544921875,-0.05477003753185272,0.01420450210571289,-0.018123609945178032
1772797035895534800,3.442534912109375,-0.05084533616900444,0.00945129245519638,-0.006514624692499638
1772797035905559600,3.4525595703125,-0.0412885844707489,0.0018943065078929067,-0.0005411543534137309
1772797035915585800,3.462585693359375,-0.033733729273080826,0.005727660376578569,-0.01188062783330679
1772797035925610500,3.472610595703125,-0.03206152841448784,0.0012335762148723006,-0.023193735629320145
1772797035935636500,3.482636474609375,-0.028064390644431114,-0.011875035241246223,-0.021018998697400093
1772797035945662700,3.492662841796875,-0.01931883580982685,-0.022470688447356224,-0.01275654137134552
1772797035955687400,3.5026875,-0.01962004043161869,-0.020316990092396736,-0.004572381265461445
1772797035965713700,3.512713623046875,-0.025976473465561867,-0.012124041095376015,0.006164951715618372
1772797035975738600,3.522738525390625,-0.026314161717891693,-0.006301571615040302,0.009447031654417515
1772797035985764900,3.532764892578125,-0.02907293103635311,0.0014367754338309169,0.005256813485175371
1772797035995790600,3.54279052734375,-0.030606910586357117,0.00267674308270216,0.000493750034365803
1772797036005815800,3.55281591796875,-0.025042235851287842,0.001050617080181837,-0.0001699096756055951
1772797036015841800,3.562841796875,-0.020362796261906624,-0.00016005597717594355,0.0017539578257128596
1772797036025866800,3.57286669921875,-0.01684422791004181,-0.0018250643042847514,0.0021853898651897907
1772797036035892700,3.582892822265625,-0.0172618106007576,0.002834402257576585,0.006558300461620092
1772797036045917700,3.592917724609375,-0.020777983590960503,0.007736216764897108,0.006250705569982529
1772797036055944000,3.60294384765625,-0.02117745764553547,0.013908891007304192,0.006312224548310041
1772797036065970000,3.612969970703125,-0.02912193350493908,0.021893581375479698,0.017495369538664818
1772797036075995000,3.622994873046875,-0.03654629364609718,0.019165970385074615,0.034026142209768295
1772797036086020900,3.633020751953125,-0.037933267652988434,0.017660219222307205,0.049664758145809174
1772797036096046000,3.643046142578125,-0.036383308470249176,0.02352370135486126,0.060388773679733276
1772797036106072000,3.653072021484375,-0.035160649567842484,0.020312195643782616,0.06533373147249222
1772797036116097000,3.663096923828125,-0.03825471177697182,0.012425510212779045,0.06177521497011185
1772797036126123000,3.673123046875,-0.03382480889558792,0.011402323842048645,0.04854569956660271
1772797036136149000,3.68314892578125,-0.02882339246571064,0.01447081845253706,0.025530926883220673
1772797036146174000,3.693174072265625,-0.022939404472708702,0.017050888389348984,0.00466505903750658
1772797036156200000,3.703199951171875,-0.014897190034389496,0.01654062792658806,-0.011003116145730019
1772797036166225000,3.713224853515625,-0.015335546806454659,0.015115835703909397,-0.021828332915902138
1772797036176251000,3.7232509765625,-0.018560901284217834,0.011446000076830387,-0.02388003282248974
1772797036186275800,3.73327587890625,-0.020484235137701035,0.00920441746711731,-0.016945960000157356
1772797036196301800,3.7433017578125,-0.018632806837558746,-0.0065111625008285046,-0.0072896042838692665
1772797036206327800,3.753327880859375,-0.013453757390379906,-0.010574613697826862,-0.0005893575726076961
1772797036216353000,3.76335302734375,-0.00401684595271945,-0.008080297149717808,-0.00803315918892622
1772797036226379000,3.77337890625,-0.001725728390738368,-0.004598746541887522,-0.019267437979578972
1772797036236404000,3.783404052734375,0.001026382320560515,0.006679740734398365,-0.03181571885943413
1772797036246430000,3.793429931640625,-0.0019944412633776665,0.010507501661777496,-0.041670747101306915
1772797036256455000,3.803454833984375,-0.008784436620771885,0.01684342883527279,-0.0444612093269825
1772797036266481000,3.81348095703125,-0.010877149179577827,0.013566674664616585,-0.036913543939590454
1772797036276507000,3.8235068359375,-0.007336742244660854,-0.001600826159119606,-0.019184879958629608
1772797036286531800,3.83353173828125,-0.004889297299087048,-0.014649515971541405,-0.0052413675002753735
1772797036296557800,3.843557861328125,-0.006666424684226513,-0.019118035212159157,0.0029081718530505896
1772797036306583000,3.8535830078125,-0.0103181516751647,-0.01037540938705206,0.0006900250446051359
1772797036316609000,3.863609130859375,-0.008741027675569057,0.0038333539851009846,-0.008447014726698399
1772797036326634000,3.873634033203125,-0.002413356676697731,0.0006245112745091319,0.002846386516466737
1772797036336660000,3.883659912109375,-0.0027566379867494106,-0.024270718917250633,0.041250232607126236
1772797036346686200,3.893686279296875,-0.009939982555806637,-0.052144162356853485,0.07988551259040833
1772797036356711000,3.9037109375,-0.020742030814290047,-0.046480949968099594,0.09426844865083694
1772797036366737200,3.913737060546875,-0.04131974279880524,-0.018384600058197975,0.0800010934472084
1772797036376761900,3.923761962890625,-0.0536925233900547,-0.006308495998382568,0.0491691455245018
1772797036386788000,3.9337880859375,-0.05311381816864014,-0.0028847360517829657,0.012428706511855125
1772797036396814000,3.94381396484375,-0.047394413501024246,-0.015214905142784119,-0.019812321290373802
1772797036406839000,3.953839111328125,-0.03518595173954964,-0.016769392415881157,-0.05170100927352905
1772797036416865000,3.963864990234375,-0.027705663815140724,-0.00495188171043992,-0.07015299052000046
1772797036426890000,3.973889892578125,-0.022399848327040672,0.007324757985770702,-0.07376663386821747
1772797036436916200,3.983916259765625,-0.022839535027742386,0.00202320353128016,-0.06975537538528442
1772797036446941000,3.99394091796875,-0.027353061363101006,-0.014030864462256432,-0.05850032716989517
1772797036456967200,4.00396728515625,-0.038058169186115265,-0.02148185670375824,-0.04986875504255295
1772797036466993200,4.0139931640625,-0.040168456733226776,-0.018100973218679428,-0.035591814666986465
1772797036477018000,4.02401806640625,-0.04005340859293938,-0.01323830708861351,-0.0005483448621816933
1772797036487044000,4.034044189453125,-0.03146631270647049,-0.01762666366994381,0.03766801580786705
1772797036497069000,4.044069091796875,-0.027531493455171585,-0.01356481108814478,0.06569618731737137
1772797036507095000,4.054094970703125,-0.02190130390226841,-0.01763784885406494,0.06869011372327805
1772797036517120000,4.0641201171875,-0.021516744047403336,-0.01750602386891842,0.05543795973062515
1772797036527146000,4.07414599609375,-0.019508453086018562,-0.017956629395484924,0.02033163607120514
1772797036537172000,4.084171875,-0.014908641576766968,-0.018036523833870888,-0.018456505611538887
1772797036547197200,4.094197265625,-0.014151771552860737,-0.019399797543883324,-0.04068883880972862
1772797036557223200,4.10422314453125,-0.010724549181759357,-0.019894080236554146,-0.044143225997686386
1772797036567248100,4.114248046875,-0.007278419099748135,-0.015479356981813908,-0.027606593444943428
1772797036577274000,4.124274169921875,-0.0030133668333292007,-0.009898170828819275,0.003471963107585907
1772797036587299000,4.134299072265625,-0.0033955303952097893,-0.00418489146977663,0.028380773961544037
1772797036597325000,4.144324951171875,0.003703924361616373,-0.0023494407068938017,0.03710555657744408
1772797036607351000,4.15435107421875,0.006207295693457127,-0.014396250247955322,0.035994753241539
1772797036617376000,4.1643759765625,0.005148955620825291,-0.020793695002794266,0.028619660064578056
1772797036627402000,4.174402099609375,0.00008096009696600959,-0.007056045345962048,0.018449047580361366
1772797036637427200,4.18442724609375,-0.00959536898881197,0.0075671058148145676,0.013773069716989994
1772797036647453200,4.194453125,-0.012854279950261116,0.013256949372589588,0.016760071739554405
1772797036657478100,4.20447802734375,-0.016034627333283424,0.0009986853692680597,0.030407173559069633
1772797036667504000,4.214504150390625,-0.011741344816982746,-0.01955932006239891,0.05014039948582649
1772797036677530000,4.224530029296875,-0.0027915253303945065,-0.03500352427363396,0.0648447796702385
1772797036687555000,4.23455517578125,0.008957276120781898,-0.042501386255025864,0.06806134432554245
1772797036697581000,4.2445810546875,0.025430524721741676,-0.04221909120678902,0.06033311411738396
1772797036707606000,4.25460595703125,0.044800762087106705,-0.04790227860212326,0.05258810892701149
1772797036717632000,4.264632080078125,0.05224722623825073,-0.06459390372037888,0.045934200286865234
1772797036727657000,4.274656982421875,0.06354914605617523,-0.07682580500841141,0.025544773787260056
1772797036737683000,4.284682861328125,0.07551659643650055,-0.08089831471443176,0.0009704558760859072
1772797036747709000,4.294708984375,0.09676622599363327,-0.07111945003271103,-0.022252308204770088
1772797036757734100,4.304734130859375,0.11233426630496979,-0.07818668335676193,-0.061474014073610306
1772797036767760100,4.314760009765625,0.11191800981760025,-0.0777650997042656,-0.11735512316226959
1772797036777785000,4.32478515625,0.10082194954156876,-0.06566396355628967,-0.17228229343891144
1772797036787811000,4.33481103515625,0.08307784050703049,-0.0481526143848896,-0.20360292494297028
1772797036797836000,4.3448359375,0.06272649765014648,-0.015722237527370453,-0.21275408565998077
1772797036807862000,4.354862060546875,0.0559476874768734,-0.050277285277843475,-0.21173781156539917
1772797036817888000,4.364887939453125,0.05982977896928787,-0.09073656052350998,-0.20089848339557648
1772797036827913000,4.374912841796875,0.051045339554548264,-0.12873613834381104,-0.1836790144443512
1772797036837939000,4.38493896484375,0.04117380082607269,-0.1598256230354309,-0.15911561250686646
1772797036847964200,4.394964111328125,0.03849732503294945,-0.1932123303413391,-0.16850405931472778
1772797036857990100,4.404990234375,0.031193073838949203,-0.17821767926216125,-0.20482291281223297
1772797036868015000,4.41501513671875,0.01008192915469408,-0.14263278245925903,-0.22882945835590363
1772797036878041000,4.425041015625,-0.017102288082242012,-0.08946916460990906,-0.21006135642528534
1772797036888067000,4.435067138671875,-0.037521276623010635,-0.021156949922442436,-0.15329821407794952
1772797036898092000,4.445092041015625,-0.052372924983501434,0.005382248666137457,-0.08132654428482056
1772797036908118000,4.455117919921875,-0.07037003338336945,-0.0012689962750300765,-0.023143667727708817
1772797036918143000,4.46514306640625,-0.08917567878961563,-0.01973082683980465,0.003905259305611253
1772797036928169000,4.4751689453125,-0.09341304004192352,-0.04484869912266731,0.013204218819737434
1772797036938194000,4.48519384765625,-0.10125764459371567,-0.06118053197860718,0.014547251164913177
1772797036948220000,4.495219970703125,-0.10823805630207062,-0.06255552172660828,0.014999189414083958
1772797036958246000,4.505245849609375,-0.12099193781614304,-0.056232646107673645,0.013014601543545723
1772797036968271000,4.51527099609375,-0.12886424362659454,-0.03472495824098587,0.016684170812368393
1772797036978297000,4.525297119140625,-0.13276496529579163,-0.004029628820717335,0.025766616687178612
1772797036988322000,4.535322021484375,-0.14237791299819946,0.012439891695976257,0.04261031001806259
1772797036998348000,4.54534814453125,-0.1518113613128662,0.017314542084932327,0.05531918257474899
1772797037008373000,4.555373046875,-0.14934208989143372,0.017663681879639626,0.06857932358980179
1772797037018399000,4.56539892578125,-0.14210520684719086,0.003418966196477413,0.056649964302778244
1772797037028425000,4.575425048828125,-0.12771987915039062,-0.011005247011780739,0.04376212880015373
1772797037038450000,4.585449951171875,-0.11358248442411423,-0.022057099267840385,0.021040303632616997
1772797037048476000,4.595475830078125,-0.10354476422071457,-0.026564499363303185,-0.008250473067164421
1772797037058501400,4.60550146484375,-0.10335887968540192,-0.019532421603798866,-0.030226079747080803
1772797037068527400,4.61552734375,-0.10812114179134369,-0.0036597158759832382,-0.03933648765087128
1772797037078552600,4.625552490234375,-0.11191534996032715,0.005657885689288378,-0.042460642755031586
1772797037088578600,4.63557861328125,-0.10508859902620316,0.005305549595504999,-0.036682914942502975
1772797037098604500,4.6456044921875,-0.09364340454339981,-0.008045942522585392,-0.0265988539904356
1772797037108629500,4.65562939453125,-0.08814157545566559,-0.01872122287750244,-0.012310994789004326
1772797037118655500,4.665655517578125,-0.0794500857591629,-0.015864983201026917,-0.005093561951071024
1772797037128680400,4.675680419921875,-0.07852117717266083,-0.008197476156055927,0.00942199770361185
1772797037138706400,4.68570654296875,-0.07421164959669113,-0.004930309951305389,0.022486666217446327
1772797037148731400,4.6957314453125,-0.06517075002193451,-0.0014615427935495973,0.030543262138962746
1772797037158757400,4.70575732421875,-0.06091581657528877,0.007352188695222139,0.034087661653757095
1772797037168783400,4.715783447265625,-0.06376034021377563,0.019456256181001663,0.03681766986846924
1772797037178808600,4.72580859375,-0.07712621241807938,0.025200428441166878,0.04619891941547394
1772797037188834300,4.735834228515625,-0.08463126420974731,0.02370799332857132,0.06914311647415161
1772797037198859500,4.745859619140625,-0.08147116005420685,0.01194241363555193,0.08402565866708755
1772797037208885500,4.755885498046875,-0.07148696482181549,-0.003465571440756321,0.09137652069330215
1772797037218910500,4.765910400390625,-0.06238614767789841,-0.005796103738248348,0.08440196514129639
1772797037228936400,4.7759365234375,-0.06264686584472656,-0.003201652318239212,0.07711902260780334
1772797037238962400,4.78596240234375,-0.06811753660440445,-0.004579837899655104,0.07106778770685196
1772797037248987400,4.7959873046875,-0.07746096700429916,-0.018396584317088127,0.052386507391929626
1772797037259013400,4.806013427734375,-0.07884687930345535,-0.027729632332921028,0.03044365905225277
1772797037269038300,4.816038330078125,-0.07888869196176529,-0.024806546047329903,0.009427323937416077
1772797037279064300,4.826064208984375,-0.08240033686161041,-0.006701312027871609,0.0068208882585167885
1772797037289089500,4.836089599609375,-0.08729735761880875,0.002222674200311303,0.013436180539429188
1772797037299115500,4.846115478515625,-0.07555866986513138,0.003069825703278184,-0.00043888893560506403
1772797037309141500,4.8561416015625,-0.060010071843862534,-0.003913248889148235,-0.021983861923217773
1772797037319166500,4.86616650390625,-0.04675552248954773,-0.006961503066122532,-0.02881460450589657
1772797037329192400,4.8761923828125,-0.042266231030225754,-0.02231702394783497,-0.016017049551010132
1772797037339217400,4.886217529296875,-0.03971359133720398,-0.041425470262765884,0.00512685114517808
1772797037349243400,4.896243408203125,-0.034757714718580246,-0.03003113530576229,0.009836651384830475
1772797037359268400,4.906268310546875,-0.030652716755867004,-0.02304193563759327,0.0034708979073911905
1772797037369294300,4.91629443359375,-0.03689490258693695,-0.02136547677218914,-0.002728408435359597
1772797037379319600,4.926319580078125,-0.034393392503261566,-0.019509784877300262,-0.007181480061262846
1772797037389345300,4.93634521484375,-0.043230559676885605,-0.01318025030195713,-0.007065898738801479
1772797037399371500,4.94637158203125,-0.053892526775598526,-0.012386894784867764,-0.0033686324022710323
1772797037409396500,4.956396484375,-0.060028184205293655,-0.012710735201835632,-0.0019217369845137
1772797037419422700,4.966422607421875,-0.06556995213031769,-0.018200576305389404,0.007877630181610584
1772797037429447400,4.976447509765625,-0.06690339744091034,-0.02287176065146923,0.01920272223651409
1772797037439473700,4.9864736328125,-0.06388470530509949,-0.024807345122098923,0.019523367285728455
1772797037449498400,4.996498291015625,-0.06688129901885986,-0.030787739902734756,0.023307453840970993
1772797037459524600,5.006524658203125,-0.07498876005411148,-0.03819345682859421,0.030601585283875465
1772797037469550600,5.016550537109375,-0.07272480428218842,-0.024778850376605988,0.022399581968784332
1772797037479575300,5.0265751953125,-0.06565117835998535,-0.011272361502051353,0.003991279285401106
1772797037489601500,5.0366015625,-0.05029645934700966,-0.0028192223981022835,-0.013310479000210762
1772797037499626500,5.04662646484375,-0.03911837562918663,-0.013844442553818226,-0.012442022562026978
1772797037509652700,5.05665283203125,-0.03283704072237015,-0.030825024470686913,-0.007214503362774849
1772797037519677400,5.066677490234375,-0.03888880833983421,-0.03491457551717758,0.0029531794134527445
1772797037529703700,5.07670361328125,-0.04072266072034836,-0.022410234436392784,0.009140235371887684
1772797037539729700,5.086729736328125,-0.04370966553688049,-0.011755991727113724,0.01564394123852253
1772797037549754600,5.096754638671875,-0.0469169095158577,-0.018486065790057182,0.03184448182582855
1772797037559780600,5.106780517578125,-0.05901112034916878,-0.025287779048085213,0.044929925352334976
1772797037569805600,5.1168056640625,-0.0550113208591938,-0.013398363254964352,0.04074529930949211
1772797037579831600,5.12683154296875,-0.04030534625053406,-0.0054363105446100235,0.027785291895270348
1772797037589856500,5.1368564453125,-0.024041952565312386,-0.005024585872888565,0.008537561632692814
1772797037599882500,5.146882568359375,-0.010627610608935356,-0.015001586638391018,-0.00038216362008824944
1772797037609907700,5.15690771484375,-0.0076059880666434765,-0.030976025387644768,0.00355851580388844
1772797037619933700,5.16693359375,-0.009324259124696255,-0.03140798956155777,0.0051865060813724995
1772797037629959700,5.176959716796875,-0.013951235450804234,-0.0209438968449831,-0.0032764871139079332
1772797037639984600,5.186984619140625,-0.011619105003774166,-0.008136489428579807,-0.01780482940375805
1772797037650010600,5.1970107421875,-0.01218955498188734,0.005145759787410498,-0.026629745960235596
1772797037660035600,5.20703564453125,-0.015127287246286869,-0.0017172062071040273,-0.016460198909044266
1772797037670061600,5.2170615234375,-0.013893977738916874,-0.01720535196363926,-0.003942809998989105
1772797037680086500,5.22708642578125,-0.016473781317472458,-0.021228322759270668,0.017057547345757484
1772797037690112500,5.237112548828125,-0.021734056994318962,-0.023128755390644073,0.030973361805081367
1772797037700138500,5.247138427734375,-0.020590761676430702,-0.01398745458573103,0.031312115490436554
1772797037710163700,5.257163818359375,-0.02852005884051323,-0.004518585279583931,0.037340980023145676
1772797037720189700,5.267189697265625,-0.03298617899417877,-0.00932372733950615,0.04517200589179993
1772797037730214700,5.277214599609375,-0.03163542225956917,-0.0037060549948364496,0.04729880765080452
1772797037740240600,5.28724072265625,-0.03220720589160919,0.0028786107432097197,0.042032938450574875
1772797037750265600,5.297265625,-0.024347417056560516,-0.0016538230702280998,0.0377495102584362
1772797037760291600,5.30729150390625,-0.02341344766318798,-0.0117325559258461,0.03821023553609848
1772797037770317600,5.317317626953125,-0.02281237207353115,-0.014543788507580757,0.031159782782197
1772797037780342500,5.327342529296875,-0.01834758184850216,-0.018305238336324692,0.0059569585137069225
1772797037790368500,5.337368408203125,-0.024153806269168854,-0.010537861846387386,-0.016086025163531303
1772797037800393500,5.3473935546875,-0.027660656720399857,0.003512975759804249,-0.018812835216522217
1772797037810419500,5.35741943359375,-0.0277999397367239,0.00762862479314208,-0.013681191019713879
1772797037820444700,5.367444580078125,-0.019083945080637932,-0.0005094627267681062,-0.015969645231962204
1772797037830470700,5.377470703125,-0.009368468075990677,-0.013757623732089996,-0.010420416481792927
1772797037840496600,5.38749658203125,-0.004707669839262962,-0.024227840825915337,-0.007411843631416559
1772797037850521600,5.397521484375,-0.007540474180132151,-0.02220277301967144,-0.012807940132915974
1772797037860547600,5.407547607421875,-0.01474405825138092,-0.007619037292897701,-0.01623809151351452
1772797037870572500,5.417572509765625,-0.020962273702025414,-0.001142496126703918,-0.013323262333869934
1772797037880598500,5.4275986328125,-0.023927170783281326,-0.0007661914569325745,-0.01399011816829443
1772797037890623500,5.43762353515625,-0.013999172486364841,0.005286108236759901,-0.009761816821992397
1772797037900649500,5.4476494140625,-0.007500526960939169,0.0005587312043644488,0.007135407533496618
1772797037910674700,5.4576748046875,-0.0021917815320193768,-0.004283161833882332,0.02478097938001156
1772797037920700700,5.46770068359375,-0.0005677859298884869,0.0025217472575604916,0.03702033683657646
1772797037930726700,5.4777265625,-0.0057218014262616634,-0.005934055428951979,0.044737644493579865
1772797037940751600,5.487751708984375,-0.00896606408059597,-0.00293320557102561,0.04674194008111954
1772797037950777600,5.497777587890625,-0.005278651602566242,0.0012458267156034708,0.05176705867052078
1772797037960802600,5.507802490234375,-0.0013483584625646472,0.006990797817707062,0.051709000021219254
1772797037970828500,5.51782861328125,0.0047058057971298695,0.0033017871901392937,0.043713659048080444
1772797037980853500,5.527853515625,0.01447055209428072,-0.001347825862467289,0.022287195548415184
1772797037990879500,5.53787939453125,0.020485566928982735,-0.010172209702432156,-0.0023853934835642576
1772797038000905500,5.547905517578125,0.018995795398950577,-0.011992214247584343,-0.021870678290724754
1772797038010930400,5.557930419921875,0.008289887569844723,-0.015179485082626343,-0.03243224322795868
1772797038020956400,5.567956298828125,-0.0005166532355360687,-0.014790663495659828,-0.0464327447116375
1772797038030981600,5.577981689453125,-0.006937534548342228,-0.019087940454483032,-0.05669869855046272
1772797038041007600,5.588007568359375,-0.014455106109380722,-0.022360699251294136,-0.058991413563489914
1772797038051032600,5.598032470703125,-0.0248454287648201,-0.025465678423643112,-0.055746354162693024
1772797038061057800,5.608057861328125,-0.036380376666784286,-0.028685973957180977,-0.04394801706075668
1772797038071082800,5.618082763671875,-0.041065409779548645,-0.025074725970625877,-0.029935793951153755
1772797038081108700,5.628108642578125,-0.04791799187660217,-0.017112407833337784,-0.026441993191838264
1772797038091134700,5.638134765625,-0.05492822825908661,-0.0016788567882031202,-0.026283802464604378
1772797038101160000,5.648159912109375,-0.0583658367395401,0.0067780110985040665,-0.023453393951058388
1772797038111185700,5.658185546875,-0.05265655368566513,0.006731672212481499,-0.0149224903434515
1772797038121211000,5.6682109375,-0.047742489725351334,-0.00011851066665258259,0.0036581179592758417
1772797038131236900,5.67823681640625,-0.039984967559576035,-0.013292369432747364,0.027177292853593826
1772797038141261800,5.68826171875,-0.02977707050740719,-0.014956312254071236,0.04079936072230339
1772797038151287800,5.698287841796875,-0.020966799929738045,-0.00968378596007824,0.037881068885326385
1772797038161313800,5.708313720703125,-0.008672583848237991,-0.00624138442799449,0.025317607447504997
1772797038171338800,5.7183388671875,0.0017928400775417686,0.0019654128700494766,0.007441138383001089
1772797038181364700,5.72836474609375,0.010793525725603104,0.005887450184673071,-0.00743155088275671
1772797038191389700,5.7383896484375,0.02177773416042328,0.0022887205705046654,-0.009076585993170738
1772797038201415700,5.748415771484375,0.02478151209652424,-0.00824780948460102,-0.00458649592474103
1772797038211441000,5.75844091796875,0.023196132853627205,-0.004421646241098642,-0.006858971435576677
1772797038221467000,5.768466796875,0.020611269399523735,-0.0004087952256668359,-0.011147992685437202
1772797038231492900,5.778492919921875,0.014520086348056793,-0.0019209380261600018,-0.013087838888168335
1772797038241517800,5.788517822265625,0.007866444997489452,-0.0031308121979236603,-0.009160741232335567
1772797038251543800,5.798543701171875,0.00049108691746369,-0.00347489258274436,-0.0005105279851704836
1772797038261568800,5.80856884765625,-0.0033907366450875998,-0.005423794034868479,0.0063798688352108
1772797038271594800,5.8185947265625,-0.012871856801211834,-0.0003989415417890996,0.015744341537356377
1772797038281619700,5.82861962890625,-0.015088671818375587,-0.0008913599886000156,0.023674435913562775
1772797038291645700,5.838645751953125,-0.01613156497478485,0.0023177489638328552,0.027052922174334526
1772797038301671000,5.8486708984375,-0.014976286329329014,0.01155758649110794,0.02323075383901596
1772797038311696600,5.858696533203125,-0.017527595162391663,0.014723019674420357,0.017644774168729782
1772797038321722600,5.86872265625,-0.015469503588974476,0.007314638234674931,0.007685882970690727
1772797038331747800,5.878747802734375,-0.01013945322483778,0.0018490327056497335,-0.001862082164734602
1772797038341773800,5.88877392578125,-0.003922836389392614,0.0035151063930243254,-0.0070762853138148785
1772797038351798800,5.898798828125,0.0009478190331719816,-0.003537210635840893,-0.0200397539883852
1772797038361824800,5.90882470703125,0.001886050682514906,-0.010832407511770725,-0.025653164833784103
1772797038371849700,5.918849609375,0.004416320007294416,0.006414756178855896,-0.024990571662783623
1772797038381875700,5.928875732421875,0.000508663768414408,0.02544970065355301,-0.0274468045681715
1772797038391901700,5.938901611328125,-0.010010556317865849,0.035479962825775146,-0.028011927381157875
1772797038401926700,5.9489267578125,-0.023779630661010742,0.04001239687204361,-0.02959490939974785
1772797038411952600,5.95895263671875,-0.03062981367111206,0.03602883964776993,-0.030460704118013382
1772797038421977900,5.968977783203125,-0.03003779426217079,0.013683321885764599,-0.03603709489107132
1772797038432003800,5.97900390625,-0.015906527638435364,0.007271495182067156,-0.008393218740820885
1772797038442028800,5.98902880859375,-0.0016410398529842496,0.0024194817524403334,0.03045431151986122
1772797038452054800,5.9990546875,0.00723500968888402,0.00993438996374607,0.05103655159473419
1772797038462079700,6.009079833984375,0.010263822972774506,0.020085293799638748,0.06564132869243622
1772797038472105700,6.019105712890625,0.01413712464272976,0.0206938274204731,0.08002186566591263
1772797038482131700,6.029131591796875,0.016947025433182716,0.01281353272497654,0.09185482561588287
1772797038492156700,6.03915673828125,0.026639332994818687,0.0009134642314165831,0.09543491154909134
1772797038502182700,6.0491826171875,0.028846295550465584,-0.0008980178972706199,0.0819111093878746
1772797038512208000,6.059207763671875,0.03127962723374367,0.0030839405953884125,0.05861324444413185
1772797038522233600,6.069233642578125,0.03684110566973686,0.007394266780465841,0.03954767435789108
1772797038532258800,6.0792587890625,0.03676067665219307,0.01116130780428648,0.016655676066875458
1772797038542284800,6.089284912109375,0.041129060089588165,0.006021939683705568,0.0014351775171235204
1772797038552309800,6.099309814453125,0.04294267296791077,-0.005820604972541332,-0.00768721429631114
1772797038562335700,6.109335693359375,0.04675871506333351,-0.015372298657894135,-0.020794227719306946
1772797038572361700,6.11936181640625,0.047142479568719864,-0.014987737871706486,-0.0408124104142189
1772797038582386700,6.12938671875,0.03984461724758148,-0.001531850197352469,-0.05758366733789444
1772797038592412700,6.13941259765625,0.03391801938414574,0.006051234435290098,-0.06277336925268173
1772797038602437600,6.149437744140625,0.031740088015794754,0.009130114689469337,-0.042209770530462265
1772797038612463600,6.159463623046875,0.045696381479501724,0.007215302437543869,0.003992611076682806
1772797038622488800,6.16948876953125,0.03593749552965164,-0.011407916434109211,0.04767404496669769
1772797038632514800,6.179514892578125,0.017224259674549103,-0.015326225198805332,0.0570497028529644
1772797038642540800,6.189540771484375,-0.0020034960471093655,-0.01660054735839367,0.045704636722803116
1772797038652565800,6.199565673828125,-0.005659749731421471,-0.009289904497563839,0.03477635607123375
1772797038662591700,6.209591796875,-0.002572613535448909,0.008555671200156212,0.02713388204574585
1772797038672616700,6.21961669921875,0.007846205495297909,0.01643490046262741,0.02298521064221859
1772797038682642700,6.229642578125,0.012723518535494804,0.01254961360245943,0.017053019255399704
1772797038692667600,6.239667724609375,0.025380723178386688,0.008084291592240334,0.00933011807501316
1772797038702693600,6.249693603515625,0.03772527351975441,0.016566192731261253,0.0024264061357825994
1772797038712718800,6.25971875,0.04374055564403534,0.022277874872088432,-0.006399842444807291
1772797038722744600,6.26974462890625,0.0481259822845459,0.024804947897791862,-0.004208593629300594
1772797038732770800,6.279770751953125,0.050400856882333755,0.017139039933681488,0.002409095410257578
1772797038742795800,6.289795654296875,0.054663244634866714,0.009849168360233307,0.01170406024903059
1772797038752822000,6.299822021484375,0.05366828665137291,0.008730374276638031,0.013430321589112282
1772797038762846700,6.3098466796875,0.05120832473039627,0.007164435926824808,0.002171275205910206
1772797038772872700,6.319872802734375,0.048472728580236435,0.012989302165806293,-0.013620737008750439
1772797038782897700,6.329897705078125,0.04513019323348999,0.016715331003069878,-0.029802104458212852
1772797038792923600,6.339923583984375,0.04314693808555603,0.016757674515247345,-0.03556172177195549
1772797038802948600,6.349948486328125,0.03804698586463928,0.009649697691202164,-0.034015756100416183
1772797038812974600,6.359974609375,0.03485864773392677,0.0027230822015553713,-0.026040388271212578
1772797038823000800,6.370000732421875,0.03987577557563782,0.003506850451231003,-0.013759488239884377
1772797038833025800,6.38002587890625,0.0481366366147995,0.006717291194945574,-0.016896424815058708
1772797038843052000,6.390052001953125,0.049134522676467896,0.01938142068684101,-0.025496305897831917
1772797038853076700,6.40007666015625,0.04855208843946457,0.042633745819330215,-0.003884752979502082
1772797038863103000,6.41010302734375,0.045338187366724014,0.049065280705690384,0.015094264410436153
1772797038873127700,6.420127685546875,0.041675541549921036,0.03828773275017738,0.024956481531262398
1772797038883154000,6.43015380859375,0.03611432760953903,0.009049687534570694,0.016570987179875374
1772797038893178600,6.4401787109375,0.03881051391363144,-0.013977867551147938,-0.0002687129599507898
1772797038903204900,6.450204833984375,0.041609760373830795,-0.009697634726762772,-0.016560334712266922
1772797038913230800,6.46023095703125,0.0447072833776474,0.0020149475894868374,-0.01631612330675125
1772797038923255800,6.470255859375,0.03522110357880592,0.007218498270958662,-0.0008255799184553325
1772797038933281800,6.48028173828125,0.02646835893392563,0.012882509268820286,0.0041007352992892265
1772797038943307000,6.49030712890625,0.030955785885453224,0.010326673276722431,-0.0009025452891364694
1772797038953333000,6.5003330078125,0.030797593295574188,-0.0085439532995224,-0.017790980637073517
1772797038963357700,6.510357666015625,0.024890435859560966,-0.011744806542992592,-0.019931629300117493
1772797038973384000,6.520384033203125,0.020861871540546417,0.006473079323768616,-0.0108872689306736
1772797038983410000,6.530409912109375,0.022250976413488388,0.022169217467308044,-0.001344630029052496
1772797038993435000,6.540434814453125,0.022817431017756462,0.020257335156202316,0.01122176181524992
1772797039003460900,6.5504609375,0.0274468045681715,0.010890997014939785,0.01878034509718418
1772797039013485800,6.56048583984375,0.02359294332563877,0.007822769694030285,0.025613218545913696
1772797039023511800,6.57051171875,0.0162988118827343,0.0034296188969165087,0.04027924686670303
1772797039033537000,6.580537109375,0.002965696156024933,0.004966529086232185,0.05987345427274704
1772797039043563000,6.59056298828125,0.007111172657459974,0.004210990387946367,0.06003670394420624
1772797039053587700,6.600587646484375,0.013685185462236404,-0.005270662251859903,0.04200337454676628
1772797039063613700,6.61061376953125,0.02045520767569542,-0.01643516682088375,0.023731695488095284
1772797039073639700,6.6206396484375,0.028181836009025574,-0.021893048658967018,0.016384033486247063
1772797039083664600,6.63066455078125,0.021280255168676376,-0.015223960392177105,0.009606022387742996
1772797039093690600,6.640690673828125,0.01637471280992031,-0.006674148142337799,0.0022101574577391148
1772797039103715600,6.650715576171875,0.01763119176030159,-0.0026589001063257456,0.0036645096261054277
1772797039113741600,6.660741455078125,0.017053285613656044,-0.002638659905642271,0.010832940228283405
1772797039123766800,6.670766845703125,0.011944543570280075,0.010071010328829288,0.009699232876300812
1772797039133792500,6.68079248046875,0.007881625555455685,0.024093085899949074,0.010587663389742374
1772797039143817700,6.690817626953125,-0.001062068622559309,0.02196468785405159,0.0030740867368876934
1772797039153843700,6.70084375,-0.00923531036823988,0.01925997994840145,0.016951287165284157
1772797039163869700,6.71086962890625,-0.01395895890891552,-0.00552259711548686,0.060572534799575806
1772797039173894700,6.720894775390625,-0.016441823914647102,-0.014404771849513054,0.0967976525425911
1772797039183920600,6.730920654296875,-0.01483726967126131,-0.00914609432220459,0.104381263256073
1772797039193945600,6.740945556640625,-0.01062255073338747,0.001279116258956492,0.0873386338353157
1772797039203971600,6.7509716796875,-0.0016082830261439085,0.012677978724241257,0.060989316552877426
1772797039213996500,6.76099658203125,-0.0003203782835043967,0.014296380802989006,0.03879906237125397
1772797039224022500,6.7710224609375,0.002781405346468091,0.006924751214683056,0.02748968079686165
1772797039234047700,6.7810478515625,0.004536694847047329,0.009268865920603275,0.020055200904607773
1772797039244073700,6.79107373046875,0.01540425606071949,0.002927080262452364,0.007227286696434021
1772797039254099700,6.801099609375,0.028806081041693687,0.0057007623836398125,-0.010901915840804577
1772797039264124700,6.811124755859375,0.042811378836631775,-0.004226170480251312,-0.020961474627256393
1772797039274150700,6.821150634765625,0.052200086414813995,-0.013234312646090984,-0.027641480788588524
1772797039284175600,6.831175537109375,0.05973150581121445,-0.005306348204612732,-0.03520752117037773
1772797039294201600,6.84120166015625,0.06181516498327255,-0.003114833263680339,-0.04009069502353668
1772797039304226600,6.8512265625,0.062133412808179855,0.0019411781104281545,-0.03960653021931648
1772797039314252500,6.86125244140625,0.05825531855225563,0.004027498420327902,-0.028484106063842773
1772797039324277800,6.87127783203125,0.05673225596547127,0.0031457259319722652,-0.020506873726844788
1772797039334303700,6.8813037109375,0.0539548434317112,0.007800132501870394,-0.010776481591165066
1772797039344329500,6.89132958984375,0.05047222971916199,0.006660033017396927,-0.005257079843431711
1772797039354354700,6.901354736328125,0.0381588377058506,0.00993146002292633,0.0002825613773893565
1772797039364380700,6.911380615234375,0.029144836589694023,0.0056802560575306416,0.007921040058135986
1772797039374405600,6.921405517578125,0.028930185362696648,0.0022426480427384377,0.01937289908528328
1772797039384431600,6.931431640625,0.032330773770809174,0.0004721784498542547,0.02291863225400448
1772797039394456600,6.94145654296875,0.03573349490761757,0.0010013486025854945,0.018847191706299782
1772797039404482600,6.951482666015625,0.0432441420853138,0.008625978603959084,0.011151454411447048
1772797039414507500,6.961507568359375,0.049485526978969574,0.018337994813919067,-0.00004793690095539205
1772797039424533500,6.971533447265625,0.05131831392645836,0.022660039365291595,-0.011261709034442902
1772797039434559500,6.9815595703125,0.04518931731581688,0.019233349710702896,-0.009697901085019112
1772797039444584700,6.991584716796875,0.043777573853731155,0.011449994519352913,-0.003346528159454465
1772797039454610700,7.001610595703125,0.048226118087768555,0.003689010627567768,0.01363325398415327
1772797039464635600,7.0116357421875,0.054973769932985306,-0.013669206760823727,0.01931191235780716
1772797039474661600,7.02166162109375,0.061818625777959824,-0.011170895770192146,0.015124358236789703
1772797039484686600,7.0316865234375,0.06292463839054108,-0.006825948134064674,0.0028482507914304733
1772797039494712600,7.041712646484375,0.057975150644779205,0.002743322169408202,-0.017224526032805443
1772797039504737500,7.051737548828125,0.05415032058954239,0.007770038675516844,-0.025131985545158386
1772797039514763500,7.061763427734375,0.04530276730656624,0.009493370540440083,-0.026912041008472443
1772797039524789500,7.07178955078125,0.03845178335905075,0.018160894513130188,-0.026620958000421524
1772797039534814700,7.081814697265625,0.036326050758361816,0.02773602306842804,-0.02214711345732212
1772797039544840400,7.09184033203125,0.03392281383275986,0.03539953753352165,-0.0190205629914999
1772797039554865700,7.10186572265625,0.027276095002889633,0.0373857207596302,-0.01182416919618845
1772797039564891600,7.1118916015625,0.02653706818819046,0.044932588934898376,-0.007897337898612022
1772797039574916600,7.12191650390625,0.011389275081455708,0.03886324167251587,0.007983624003827572
1772797039584942600,7.131942626953125,-0.00276063266210258,0.025104820728302002,0.02943458780646324
1772797039594967600,7.141967529296875,-0.005563876125961542,0.013233779929578304,0.04820454865694046
1772797039604993500,7.15199365234375,0.0065130265429615974,-0.005407814867794514,0.06368177384138107
1772797039615019500,7.16201953125,0.020800087600946426,-0.002043443499132991,0.058270230889320374
1772797039625044500,7.17204443359375,0.02966468408703804,0.013343235477805138,0.0441080741584301
1772797039635070500,7.182070556640625,0.042204711586236954,0.031209850683808327,0.018033862113952637
1772797039645095700,7.192095703125,0.055799081921577454,0.041496310383081436,-0.012868660502135754
1772797039655121700,7.20212158203125,0.07240495830774307,0.03888295218348503,-0.041847847402095795
1772797039665146600,7.212146728515625,0.08667764067649841,0.03133981302380562,-0.05356895178556442
1772797039675172600,7.222172607421875,0.09438589215278625,0.017951304093003273,-0.054723165929317474
1772797039685197600,7.232197509765625,0.09889009594917297,0.008137554861605167,-0.042266763746738434
1772797039695223600,7.2422236328125,0.0985281690955162,-0.0041004689410328865,-0.03368952125310898
1772797039705248500,7.25224853515625,0.0874054804444313,-0.008086422458291054,-0.021211545914411545
1772797039715274500,7.2622744140625,0.07869774103164673,-0.0049071405082941055,-0.0021789984311908484
1772797039725300500,7.272300537109375,0.06669141352176666,0.02143072336912155,0.00818149745464325
1772797039735325700,7.28232568359375,0.06279680877923965,0.04416879266500473,0.002478337613865733
1772797039745351700,7.2923515625,0.05603663623332977,0.06316831707954407,-0.004547880031168461
1772797039755376600,7.302376708984375,0.05842842161655426,0.06143433228135109,-0.0009797769598662853
1772797039765402600,7.312402587890625,0.0638495534658432,0.050271958112716675,0.010512827895581722
1772797039775427600,7.322427490234375,0.07001929730176926,0.04256024211645126,0.016047408804297447
1772797039785453600,7.33245361328125,0.07048029452562332,0.04423936456441879,0.02472478710114956
1772797039795479600,7.3424794921875,0.08115370571613312,0.046791739761829376,0.03231586143374443
1772797039805504500,7.35250439453125,0.08590584993362427,0.041670482605695724,0.026696858927607536
1772797039815530500,7.362530517578125,0.08812852948904037,0.03184181824326515,-0.0016841830220073462
1772797039825555500,7.372555419921875,0.08689814805984497,0.020807011052966118,-0.029389580711722374
1772797039835581400,7.38258154296875,0.09246974438428879,0.017777930945158005,-0.04176848381757736
1772797039845606700,7.392606689453125,0.10044591128826141,0.02257295325398445,-0.034807782620191574
1772797039855632600,7.402632568359375,0.11210336536169052,0.033429861068725586,-0.01823599450290203
1772797039865657600,7.41265771484375,0.11926780641078949,0.039318643510341644,-0.021146031096577644
1772797039875683600,7.42268359375,0.12695874273777008,0.028911009430885315,-0.03281440585851669
1772797039885708500,7.43270849609375,0.13247308135032654,0.0175640806555748,-0.05261607468128204
1772797039895734500,7.442734619140625,0.14096884429454803,0.009053150191903114,-0.06784722208976746
1772797039905760500,7.452760498046875,0.14145512878894806,0.010867561213672161,-0.07741010189056396
1772797039915785500,7.462785400390625,0.13674026727676392,0.014853781089186668,-0.07463535666465759
1772797039925811500,7.4728115234375,0.13072578608989716,0.01955585740506649,-0.05889394134283066
1772797039935836700,7.482836669921875,0.11882518976926804,0.01997024565935135,-0.04515229910612106
1772797039945862700,7.492862548828125,0.10381880402565002,0.02002643793821335,-0.043479833751916885
1772797039955887600,7.5028876953125,0.09279438853263855,0.024986309930682182,-0.0510149821639061
1772797039965913600,7.51291357421875,0.08838765323162079,0.02369680628180504,-0.056721869856119156
1772797039975938600,7.5229384765625,0.0863061249256134,0.012571718543767929,-0.05529468134045601
1772797039985964500,7.532964599609375,0.07800425589084625,-0.000284159294096753,-0.047805074602365494
1772797039995989500,7.542989501953125,0.07603857666254044,-0.007793474476784468,-0.040643300861120224
1772797040006015500,7.553015380859375,0.07173783332109451,-0.012944294139742851,-0.03261014074087143
1772797040016041700,7.563041748046875,0.07595361769199371,-0.014755244366824627,-0.032818932086229324
1772797040026066400,7.57306640625,0.08642836660146713,-0.012430038303136826,-0.03815218061208725
1772797040036092400,7.583092529296875,0.09756597131490707,-0.008304535411298275,-0.04362471029162407
1772797040046117600,7.59311767578125,0.10122808068990707,-0.006363090593367815,-0.05447176471352577
1772797040056144400,7.603144287109375,0.10277218371629715,-0.0007656587986275554,-0.0622846782207489
1772797040066169600,7.613169677734375,0.09315843880176544,0.0036522590089589357,-0.07145607471466064
1772797040076195600,7.623195556640625,0.08284534513950348,0.0035260252188891172,-0.07244197279214859
1772797040086220500,7.633220458984375,0.07350697368383408,-0.00022157499915920198,-0.05800870805978775
1772797040096246500,7.64324658203125,0.07826018333435059,-0.005378786474466324,-0.04038950055837631
1772797040106272500,7.6532724609375,0.0844552293419838,-0.003290601773187518,-0.02871047332882881
1772797040116297500,7.66329736328125,0.08186929672956467,-0.005132444202899933,-0.02636502869427204
1772797040126323500,7.673323486328125,0.08443418890237808,-0.0015646071406081319,-0.029444174841046333
1772797040136348400,7.683348388671875,0.08489757776260376,-0.003975566942244768,-0.03567943349480629
1772797040146374400,7.69337451171875,0.08056382089853287,-0.012496883049607277,-0.038788408041000366
1772797040156399600,7.703399658203125,0.06957694888114929,-0.025542112067341805,-0.03549301251769066
1772797040166425300,7.71342529296875,0.0580313466489315,-0.03260587900876999,-0.030413299798965454
1772797040176450600,7.723450439453125,0.0456729456782341,-0.02225656993687153,-0.02911767177283764
1772797040186476500,7.7334765625,0.038117825984954834,-0.017597369849681854,-0.03049985133111477
1772797040196501500,7.74350146484375,0.03964381664991379,-0.009871006943285465,-0.031255390495061874
1772797040206527500,7.753527587890625,0.04249792546033859,-0.0076003954745829105,-0.042093656957149506
1772797040216553500,7.763553466796875,0.04226303473114967,-0.0065590995363891125,-0.05949848145246506
1772797040226578400,7.773578369140625,0.03587251156568527,-0.0020671456586569548,-0.06743922829627991
1772797040236604400,7.7836044921875,0.030162962153553963,-0.0070701600052416325,-0.06995245069265366
1772797040246629400,7.79362939453125,0.02207494154572487,-0.016927851364016533,-0.06686452031135559
1772797040256655400,7.8036552734375,0.01991964504122734,-0.02701111137866974,-0.07403934001922607
1772797040266680600,7.8136806640625,0.012960273772478104,0.009514409117400646,-0.06407459080219269
1772797040276706600,7.82370654296875,0.0114001939073205,-0.006853645201772451,-0.045331794768571854
1772797040286731500,7.8337314453125,0.007646734360605478,-0.026259833946824074,-0.019523100927472115
1772797040296757500,7.843757568359375,0.006533532869070768,-0.045158423483371735,-0.013737649656832218
1772797040306783500,7.853783447265625,-0.005559614859521389,-0.025550633668899536,-0.01452780980616808
1772797040316808400,7.863808349609375,-0.014867895282804966,-0.022363096475601196,-0.010975685901939869
1772797040326834400,7.87383447265625,-0.017496434971690178,-0.025708293542265892,-0.008127967827022076
1772797040336859400,7.883859375,-0.01985945925116539,-0.02863191068172455,-0.0052142031490802765
1772797040346885400,7.893885498046875,-0.023569507524371147,-0.026333335787057877,-0.0044016726315021515
1772797040356910600,7.90391064453125,-0.026392458006739616,-0.02640577405691147,-0.01067954208701849
1772797040366936300,7.913936279296875,-0.025948243215680122,-0.024100808426737785,-0.016166718676686287
1772797040376961500,7.92396142578125,-0.021633390337228775,-0.047022104263305664,-0.030431941151618958
1772797040386987500,7.933987548828125,-0.02328135445713997,-0.03416702523827553,-0.051838163286447525
1772797040397012500,7.944012451171875,-0.025855032727122307,-0.021752167493104935,-0.06684161722660065
1772797040407038500,7.95403857421875,-0.028686771169304848,-0.008784436620771885,-0.07564868777990341
1772797040417064400,7.964064453125,-0.0280915554612875,0.011737882159650326,-0.0627046599984169
1772797040427089400,7.97408935546875,-0.03021595999598503,0.022171081975102425,-0.047157127410173416
1772797040437115400,7.984115478515625,-0.0312894806265831,-0.0014974954538047314,-0.029047630727291107
1772797040447140400,7.994140380859375,-0.043355196714401245,-0.015393070876598358,-0.01506976317614317
1772797040457166300,8.004166259765626,-0.052934855222702026,-0.004347876645624638,-0.0010466222884133458
1772797040467191600,8.014191650390625,-0.05282033607363701,-0.0033904702868312597,0.018660768866539
1772797040477217500,8.024217529296875,-0.037588655948638916,-0.01443939283490181,0.025903236120939255
1772797040487242500,8.034242431640624,-0.02672428824007511,-0.0192586500197649,0.02239212393760681
1772797040497268500,8.0442685546875,-0.024925589561462402,-0.02225683629512787,0.0054757255129516125
1772797040507293400,8.05429345703125,-0.03502482920885086,-0.01173149049282074,-0.008926116861402988
1772797040517319400,8.0643193359375,-0.048879656940698624,0.004131894558668137,-0.005947637837380171
1772797040527345400,8.074345458984375,-0.05992991104722023,0.009206281043589115,0.008055529557168484
1772797040537370400,8.084370361328125,-0.06995564699172974,0.01332992035895586,0.022638998925685883
1772797040547396400,8.094396240234374,-0.06930370628833771,0.003584881080314517,0.01973349042236805
1772797040557421600,8.104421630859376,-0.0715990886092186,-0.0019981698133051395,0.007663245778530836
1772797040567447300,8.114447265625,-0.06480909138917923,-0.0002897519152611494,-0.01255067903548479
1772797040577472500,8.124472412109375,-0.04200443997979164,0.007696269080042839,-0.027408188208937645
1772797040587498500,8.13449853515625,-0.028967736288905144,0.002730805426836014,-0.027756797149777412
1772797040597523500,8.1445234375,-0.025317607447504997,-0.0054552191868424416,-0.019833359867334366
1772797040607549400,8.154549560546876,-0.021339643746614456,-0.0041071269661188126,-0.021391307935118675
1772797040617575400,8.164575439453126,-0.021075990051031113,-0.0007597998483106494,-0.023998543620109558
1772797040627600400,8.174600341796875,-0.019088473170995712,0.003111104713752866,-0.020533503964543343
1772797040637626400,8.18462646484375,-0.016872722655534744,-0.000143544384627603,-0.018263958394527435
1772797040647651300,8.1946513671875,-0.01571078598499298,-0.00806431844830513,-0.013449762016534805
1772797040657677300,8.20467724609375,-0.009460879489779472,-0.004298341926187277,-0.016457803547382355
1772797040667702500,8.21470263671875,-0.0032948628067970276,0.003466636873781681,-0.022294387221336365
1772797040677728500,8.224728515625,0.0023555660154670477,0.007180680986493826,-0.025359418243169785
1772797040687753500,8.23475341796875,0.0026937874499708414,0.010369017720222473,-0.022224346175789833
1772797040697779500,8.244779541015625,-0.004236023873090744,0.007156978826969862,-0.01774677261710167
1772797040707804400,8.254804443359374,-0.005616073962301016,-0.00029401297797448933,-0.004324973560869694
1772797040717830400,8.264830322265626,-0.007119694724678993,-0.0051750545389950275,0.012660933658480644
1772797040727856400,8.2748564453125,-0.005905826110392809,-0.005200354848057032,0.02298441156744957
1772797040737881300,8.28488134765625,-0.007865912280976772,-0.005786516238003969,0.02184404619038105
1772797040747907300,8.2949072265625,-0.004500209353864193,-0.009158344939351082,0.011746404692530632
1772797040757932500,8.3049326171875,0.005310875829309225,-0.00893863383680582,-0.000008788431841821875
1772797040767958500,8.31495849609375,0.015161375515162945,-0.013001818209886551,-0.020292222499847412
1772797040777983500,8.3249833984375,0.026226811110973358,-0.0017614146927371621,-0.04554964229464531
1772797040788009500,8.335009521484375,0.031067105010151863,0.012175439856946468,-0.0695899948477745
1772797040798034400,8.345034423828125,0.03580060973763466,0.021932728588581085,-0.08683609217405319
1772797040808060400,8.355060302734374,0.02996322512626648,0.022114889696240425,-0.083636574447155
1772797040818085400,8.36508544921875,0.01561304833739996,0.03193556144833565,-0.05595434457063675
1772797040828111400,8.375111328125,0.007212106604129076,0.0325387679040432,-0.02239345572888851
1772797040838137600,8.3851376953125,0.004327103961259127,0.01763012632727623,0.0028067054226994514
1772797040848162300,8.395162353515625,0.010240919888019562,-0.0075721656903624535,0.009875001385807991
1772797040858188500,8.4051884765625,0.013334447517991066,-0.01564500667154789,0.023564981296658516
1772797040868213500,8.415213623046874,0.012023107148706913,-0.01799045130610466,0.041301365941762924
1772797040878239700,8.42523974609375,0.006405168678611517,-0.009983391501009464,0.04138019680976868
1772797040888264400,8.435264404296875,0.00043223105603829026,0.00923557672649622,0.029954170808196068
1772797040898290400,8.44529052734375,-0.002840527566149831,0.00842544250190258,0.015475362539291382
1772797040908315400,8.4553154296875,0.0005190501105971634,0.003777960315346718,0.001776594785042107
1772797040918341400,8.46534130859375,0.0038008634001016617,0.00504056503996253,-0.013601030223071575
1772797040928366300,8.475366455078126,0.011519502848386765,0.0057404437102377415,-0.024471521377563477
1772797040938392300,8.485392333984375,0.019785422831773758,-0.003466636873781681,-0.024340227246284485
1772797040948418600,8.49541845703125,0.02232314832508564,-0.012781042605638504,-0.02484462969005108
1772797040958443500,8.505443603515625,0.026252109557390213,-0.015662582591176033,-0.025291241705417633
1772797040968469500,8.515469482421874,0.024154871702194214,-0.006145510356873274,-0.02587527222931385
1772797040978494500,8.525494384765626,0.02178918570280075,-0.007260575890541077,-0.022589731961488724
1772797040988520700,8.535520751953126,0.015608254820108414,-0.008170045912265778,-0.011770373210310936
1772797040998545400,8.54554541015625,0.006073338910937309,-0.011265171691775322,0.009378321468830109
1772797041008571600,8.555571533203125,0.010893394239246845,-0.012437228113412857,0.0130920996889472
1772797041018596400,8.565596435546874,0.015517973341047764,-0.012136291712522507,-0.00911466870456934
1772797041028622600,8.57562255859375,0.005660016089677811,-0.012537895701825619,-0.0156500656157732
1772797041038647300,8.585647216796875,-0.001972869737073779,0.0003653856983873993,-0.005275189410895109
1772797041048673500,8.595673583984375,-0.007736749015748501,-0.001288171042688191,0.0033723609521985054
1772797041058698800,8.60569873046875,-0.013261476531624794,-0.00881852488964796,0.019688749685883522
1772797041068723700,8.6157236328125,-0.017132380977272987,-0.008106928318738937,0.031562186777591705
1772797041078749700,8.625749755859376,-0.015430355444550514,-0.01583489030599594,0.03954847529530525
1772797041088774700,8.635774658203125,-0.012436429969966412,-0.018135860562324524,0.03645707666873932
1772797041098800600,8.645800537109375,-0.0139581598341465,-0.007026750594377518,0.021749237552285194
1772797041108825600,8.65582568359375,-0.011471832171082497,-0.0003400856803636998,0.00418435875326395
1772797041118851600,8.6658515625,-0.006539391819387674,0.006659234408289194,-0.0067692226730287075
1772797041128876800,8.675876708984376,-0.008107194676995277,0.002049036091193557,0.0005499427788890898
1772797041138902800,8.68590283203125,-0.004573180340230465,-0.011040400713682175,0.008035289123654366
1772797041148927700,8.695927734375,-0.0024825986474752426,-0.020920993760228157,0.006142580881714821
1772797041158953700,8.70595361328125,0.0028751487843692303,-0.013582387939095497,-0.008566856384277344
1772797041168979700,8.715979736328125,0.007168963085860014,0.0020501012913882732,-0.035709794610738754
1772797041179004700,8.726004638671874,0.009733587503433228,0.014941132627427578,-0.06546582281589508
1772797041189030700,8.73603076171875,0.002834402257576585,0.028374915942549706,-0.07685217261314392
1772797041199055600,8.7460556640625,-0.001291100517846644,0.017729993909597397,-0.060931794345378876
1772797041209081600,8.75608154296875,-0.0033318807836622,-0.0163576677441597,-0.028377579525113106
1772797041219106600,8.7661064453125,-0.004503937903791666,-0.03334943577647209,-0.005576126743108034
1772797041229132500,8.776132568359374,-0.0014303837670013309,-0.00959856528788805,0.0100198769941926
1772797041239157800,8.78615771484375,0.001966211711987853,-0.01221538707613945,0.023921577259898186
1772797041249183700,8.796183837890625,0.003026682650670409,-0.015901202335953712,0.033429063856601715
1772797041259208700,8.806208740234375,-0.003737214021384716,0.0009648632840253413,0.03551644831895828
1772797041269234700,8.816234619140625,-0.012403672561049461,0.0005424859118647873,0.03925472870469093
1772797041279261000,8.826260986328125,-0.01407560519874096,-0.002722283359616995,0.04524870589375496
1772797041289285600,8.83628564453125,-0.016515593975782394,-0.011440407484769821,0.04990177974104881
1772797041299311900,8.846311767578126,-0.014611433260142803,-0.017898838967084885,0.04586416110396385
1772797041309336600,8.856336669921875,-0.00974557176232338,-0.027522703632712364,0.04338609054684639
1772797041319362800,8.86636279296875,-0.0068358019925653934,-0.039984166622161865,0.03840731084346771
1772797041329387800,8.8763876953125,-0.007188937161117792,-0.03317073732614517,0.034572891891002655
1772797041339413800,8.886413818359374,-0.0037177728954702616,-0.020205136388540268,0.022780945524573326
1772797041349438700,8.896438720703125,0.004825381562113762,-0.017047161236405373,0.003893807763233781
1772797041359464700,8.906464599609375,0.0061521683819592,-0.019944678992033005,-0.018087124451994896
1772797041369489700,8.91648974609375,0.005645901430398226,-0.019136942923069,-0.030279342085123062
1772797041379515600,8.926515625,-0.012504872865974903,-0.010543720796704292,-0.03726241737604141
1772797041389542000,8.9365419921875,-0.02014947682619095,0.0028594359755516052,-0.031089475378394127
1772797041399566600,8.946566650390626,-0.027532292529940605,0.00974210910499096,-0.01600639708340168
1772797041409592800,8.9565927734375,-0.03437022492289543,-0.00010519486386328936,0.008083758875727654
1772797041419617500,8.966617431640625,-0.028116855770349503,-0.012117116712033749,0.03510312736034393
1772797041429643800,8.976643798828125,-0.025234783068299294,-0.028611937537789345,0.04946022853255272
1772797041439668700,8.986668701171874,-0.020420586690306664,-0.0307557824999094,0.05621640011668205
1772797041449695000,8.996695068359376,-0.018186461180448532,-0.023370036855340004,0.048280980437994
1772797041459719700,9.0067197265625,-0.01315255369991064,-0.013142700307071209,0.031973112374544144
1772797041469746000,9.016745849609375,-0.012077702209353447,0.0005249090609140694,0.022373748943209648
1772797041479770600,9.0267705078125,-0.006358030717819929,-0.005104214418679476,0.015413577668368816
1772797041489796900,9.036796875,0.0008356999605894089,-0.010025735944509506,0.011694473214447498
1772797041499821600,9.046821533203126,0.00920228660106659,-0.013540842570364475,0.012088354676961899
1772797041509847800,9.056847900390625,0.009787117131054401,-0.015397864393889904,0.01407533884048462
1772797041519873800,9.066873779296875,0.005931125953793526,-0.020553212612867355,0.012630041688680649
1772797041529899000,9.07689892578125,-0.00034940673504024744,-0.022057631984353065,0.009875534102320671
1772797041539924700,9.0869248046875,-0.006871488410979509,-0.020976122468709946,0.006903179921209812
1772797041549949700,9.09694970703125,-0.011934423819184303,-0.01840217597782612,0.00552126532420516
1772797041559976000,9.106975830078126,-0.010676879435777664,-0.016710003837943077,0.004387291613966227
1772797041570000600,9.117000732421875,-0.011622567661106586,-0.00862997304648161,0.009943976998329163
1772797041580027000,9.12702685546875,-0.014389059506356716,-0.008636897429823875,0.01727779023349285
1772797041590051600,9.137051513671874,-0.013742444105446339,-0.007525560446083546,0.027906199917197227
1772797041600077800,9.147077880859374,-0.01020017359405756,-0.009107744321227074,0.028658010065555573
1772797041610102500,9.1571025390625,-0.008079498074948788,-0.010633203200995922,0.019627496600151062
1772797041620128800,9.167128662109375,0.0019374496769160032,-0.004043743945658207,0.014222345314919949
1772797041630154800,9.17715478515625,0.00947978813201189,-0.003183276392519474,0.013942181132733822
1772797041640180000,9.187179931640625,0.01356481108814478,-0.014201040379703045,0.02418816089630127
1772797041650206000,9.1972060546875,0.02034255675971508,-0.021688783541321754,0.024455808103084564
1772797041660231000,9.20723095703125,0.029454028233885765,-0.023509319871664047,0.02238546684384346
1772797041670257000,9.2172568359375,0.030293457210063934,-0.013821805827319622,0.005538842175155878
1772797041680281900,9.22728173828125,0.03134061023592949,-0.006896788254380226,-0.009646502323448658
1772797041690307800,9.237307861328125,0.032834913581609726,-0.004548412747681141,-0.017528394237160683
1772797041700332800,9.247332763671874,0.03009878098964691,-0.0013350426452234387,-0.025000691413879395
1772797041710358800,9.25735888671875,0.02562520280480385,-0.003742273896932602,-0.02364620752632618
1772797041720383700,9.2673837890625,0.02237641252577305,-0.015360314399003983,-0.00914582796394825
1772797041730410000,9.277409912109375,0.027715250849723816,-0.033657561987638474,0.003177683800458908
1772797041740435700,9.287435791015625,0.022098910063505173,-0.0198645181953907,0.00464721629396081
1772797041750461000,9.2974609375,0.009356483817100525,-0.015279619954526424,0.005569468718022108
1772797041760487000,9.30748681640625,-0.008638761937618256,0.002832271857187152,0.00717721926048398
1772797041770512000,9.317511962890626,-0.02003176510334015,0.004433364141732454,0.014615694060921669
1772797041780537900,9.327537841796875,-0.025296568870544434,-0.005862150341272354,0.028494758531451225
1772797041790562800,9.337562744140625,-0.018667694181203842,-0.013365074060857296,0.04416825994849205
1772797041800588800,9.3475888671875,-0.012781308963894844,-0.026036394760012627,0.029378129169344902
1772797041810613800,9.35761376953125,-0.008586830459535122,-0.03208256885409355,0.011335212737321854
1772797041820639700,9.3676396484375,-0.01745169423520565,-0.025489380583167076,0.0073106433264911175
1772797041830665000,9.3776650390625,-0.023187877610325813,-0.01600293442606926,0.019903134554624557
1772797041840691000,9.38769091796875,-0.024505876004695892,-0.014224209822714329,0.04808497056365013
1772797041850717000,9.397717041015625,-0.01549613568931818,-0.012014850974082947,0.08352605253458023
1772797041860742000,9.407741943359374,-0.006838198751211166,-0.020962273702025414,0.08813971281051636
1772797041870767900,9.417767822265626,0.005934588145464659,-0.034751057624816895,0.06805095821619034
1772797041880792800,9.427792724609375,0.017487913370132446,-0.02339800074696541,0.03586132824420929
1772797041890818800,9.43781884765625,0.02894190326333046,-0.011363175697624683,0.00935941282659769
1772797041900843800,9.44784375,0.036434173583984375,-0.01272964384406805,-0.014566426165401936
1772797041910869800,9.457869873046874,0.041313882917165756,-0.013876134529709816,-0.0405074805021286
1772797041920895000,9.46789501953125,0.04296956956386566,-0.010490457527339458,-0.05792774632573128
1772797041930921000,9.4779208984375,0.03905632346868515,-0.008213987573981285,-0.060085441917181015
1772797041940946000,9.48794580078125,0.034328412264585495,-0.01187956240028143,-0.055149007588624954
1772797041950972000,9.497971923828125,0.025711221620440483,-0.00872025452554226,-0.0372949093580246
1772797041960996900,9.507996826171874,0.016080966219305992,-0.003291400847956538,-0.016833841800689697
1772797041971022800,9.51802294921875,0.010733870789408684,0.0017305220244452357,0.0022825952619314194
1772797041981048800,9.528048828125,0.0018429075134918094,0.006323942448943853,0.013597833923995495
1772797041991073800,9.53807373046875,-0.002689792774617672,0.0067694890312850475,0.017716413363814354
1772797042001099800,9.548099853515625,-0.0024770060554146767,0.00461632339283824,0.024417724460363388
1772797042011124700,9.558124755859374,-0.008683502674102783,-0.003034938359633088,0.022733008489012718
1772797042021150700,9.568150634765624,-0.006954578682780266,-0.005395031534135342,0.024467792361974716
1772797042031176000,9.578176025390626,-0.003954261541366577,-0.0012740562669932842,0.02538445219397545
1772797042041202000,9.588201904296875,0.0016706009628251195,0.001651159836910665,0.014141651801764965
1772797042051227000,9.598226806640625,0.001469798618927598,0.0018977685831487179,0.00039228363311849535
1772797042061252000,9.608252197265625,0.0019049590919166803,0.011207113973796368,-0.01245347410440445
1772797042071277000,9.618277099609376,-0.003329217666760087,0.01696540042757988,-0.021148161962628365
1772797042081303000,9.628302978515626,-0.005276787560433149,0.011629225686192513,-0.019637882709503174
1772797042091329000,9.6383291015625,-0.003810983384028077,0.002375007141381502,-0.013924604281783104
1772797042101354200,9.648354248046875,-0.005685582756996155,-0.006144711747765541,-0.011090467683970928
1772797042111380200,9.658380126953125,-0.00152359448838979,-0.005399559158831835,-0.00812237523496151
1772797042121405200,9.6684052734375,0.004578240215778351,0.00005512743518920615,-0.017192568629980087
1772797042131431200,9.67843115234375,0.006658168975263834,-0.006277070846408606,-0.02731284685432911
1772797042141456100,9.6884560546875,0.0020367854740470648,0.030168022960424423,-0.03880305588245392
1772797042151482000,9.698482177734375,-0.0003379551344551146,0.0470452718436718,-0.04278794303536415
1772797042161507000,9.708507080078125,0.0068022459745407104,0.03584135323762894,-0.03645308315753937
1772797042171533000,9.718532958984374,0.016443422064185143,0.04802664741873741,-0.033376067876815796
1772797042181558000,9.72855810546875,0.022156434133648872,0.044265732169151306,-0.01534486748278141
1772797042191584000,9.738583984375,0.01673903316259384,0.009763414971530437,0.018082065507769585
1772797042201609200,9.748609130859375,0.011903530918061733,-0.00025726135936565697,0.033431727439165115
1772797042211635200,9.75863525390625,0.015861786901950836,0.008978847414255142,0.0324396975338459
1772797042221661200,9.7686611328125,0.014677213504910469,0.004526575095951557,0.0278627909719944
1772797042231686100,9.77868603515625,0.016102803871035576,0.01056049857288599,0.022170815616846085
1772797042241712000,9.788712158203126,0.0129336416721344,0.010838799178600311,0.016510266810655594
1772797042251737000,9.798737060546875,0.003686880227178335,0.010147709399461746,0.020895959809422493
1772797042261763000,9.80876318359375,-0.00896606408059597,0.0029137644451111555,0.017172595486044884
1772797042271788000,9.8187880859375,-0.023938888683915138,-0.0020221380982548,0.016393087804317474
1772797042281814000,9.82881396484375,-0.03592577576637268,0.0019528960110619664,0.011009507812559605
1772797042291839200,9.838839111328125,-0.04043317586183548,0.0013158678775653243,0.000752875639591366
1772797042301865200,9.848865234375,-0.04977155104279518,0.0035505264531821012,-0.013214604929089546
1772797042311890200,9.85889013671875,-0.06067932769656181,0.005643771030008793,-0.014616759493947029
1772797042321916200,9.868916259765625,-0.07164622098207474,0.0015267902053892612,-0.0017337178578600287
1772797042331941000,9.878941162109374,-0.07661834359169006,-0.005026184022426605,0.003748399205505848
1772797042341967000,9.888967041015626,-0.07316608726978302,0.005062402691692114,0.0025246767327189445
1772797042351993000,9.8989931640625,-0.057492054998874664,0.01672225445508957,-0.009606288745999336
1772797042362018000,9.90901806640625,-0.042685944586992264,0.00759906368330121,-0.01344603393226862
1772797042372044000,9.9190439453125,-0.04598773270845413,0.006986270658671856,-0.007736749015748501
1772797042382069000,9.929069091796874,-0.058698199689388275,0.017302025109529495,0.001121989800594747
1772797042392095000,9.939094970703126,-0.06539125740528107,0.013934724032878876,0.008436627686023712
1772797042402120200,9.9491201171875,-0.052921272814273834,0.01136983372271061,0.0043990095146000385
1772797042412146200,9.959146240234375,-0.035770248621702194,0.003846403444185853,-0.004728975240141153
1772797042422171100,9.969171142578125,-0.021339910104870796,-0.0006591323763132095,-0.014703578315675259
1772797042432197000,9.979197021484374,-0.015210111625492573,-0.01107235811650753,-0.020974524319171906
1772797042442222000,9.98922216796875,-0.000030360035452758893,-0.0088803106918931,-0.018913770094513893
1772797042452248000,9.999248046875,0.009590042755007744,-0.011572766117751598,-0.015083345584571362
1772797042462274000,10.009274169921875,0.011166101321578026,-0.005289037711918354,-0.012978915125131607
1772797042472299000,10.019299072265625,0.009849967435002327,-0.0030541131272912025,-0.022999059408903122
1772797042482325000,10.029324951171875,0.0003105245705228299,-0.0028879318851977587,-0.031258054077625275
1772797042492350200,10.03935009765625,-0.011136540211737156,0.004275438841432333,-0.0337960459291935
1772797042502376200,10.049376220703126,-0.02202141284942627,0.005190767347812653,-0.018017882481217384
1772797042512401200,10.059401123046875,-0.03255261853337288,-0.0031353395897895098,0.011768242344260216
1772797042522427100,10.06942724609375,-0.0368293859064579,-0.011000986211001873,0.03413799777626991
1772797042532452000,10.0794521484375,-0.038007304072380066,-0.011141867376863956,0.034996066242456436
1772797042542478000,10.08947802734375,-0.03840118646621704,-0.005589708685874939,0.029153624549508095
1772797042552503000,10.0995029296875,-0.0377870611846447,0.0009483516332693398,0.02672588638961315
1772797042562529000,10.109529052734375,-0.034686341881752014,0.005368932615965605,0.037342578172683716
1772797042572554000,10.119553955078125,-0.028860410675406456,-0.013085175305604935,0.04778509959578514
1772797042582580000,10.129580078125,-0.020303674042224884,-0.020852550864219666,0.044985316693782806
1772797042592605200,10.139605224609374,-0.016108395531773567,-0.01691639982163906,0.0325494222342968
1772797042602631200,10.149631103515626,-0.008590292185544968,-0.01383991539478302,0.008177502080798149
1772797042612657200,10.1596572265625,-0.006656837183982134,-0.005570267792791128,-0.011264372617006302
1772797042622682000,10.16968212890625,-0.005938849411904812,0.0031193606555461884,-0.019477827474474907
1772797042632708000,10.1797080078125,-0.0003299656673334539,-0.0062736086547374725,-0.014093981124460697
1772797042642733000,10.189733154296874,0.002223206916823983,-0.021093834191560745,-0.002968092914670706
1772797042652759000,10.199759033203126,0.0060171461664140224,-0.026635339483618736,0.0030365362763404846
1772797042662784000,10.209783935546875,0.007647000718861818,-0.027633491903543472,0.0026762105990201235
1772797042672810000,10.21981005859375,0.004320978652685881,-0.01967516727745533,-0.011996208690106869
1772797042682835200,10.229835205078125,-0.0026019082870334387,-0.01176424790173769,-0.023310648277401924
1772797042692861200,10.239861083984374,-0.012620453722774982,-0.010007360018789768,-0.02991342358291149
1772797042702886100,10.24988623046875,-0.01871776208281517,-0.006414756178855896,-0.0221516415476799
1772797042712912100,10.259912109375,-0.022960975766181946,-0.011299792677164078,-0.01251259632408619
1772797042722937000,10.26993701171875,-0.02262062393128872,-0.009072324261069298,-0.004774781409651041
1772797042732963000,10.279963134765625,-0.021104486659169197,-0.00953757856041193,0.004171042703092098
1772797042742989000,10.289989013671875,-0.022541262209415436,-0.016276175156235695,0.017411215230822563
1772797042753014000,10.300013916015626,-0.02015453577041626,-0.01595020480453968,0.022290125489234924
1772797042763040000,10.3100400390625,-0.020747356116771698,-0.017848238348960876,0.019267704337835312
1772797042773065200,10.320065185546875,-0.022460302338004112,-0.018032530322670937,0.005914614535868168
1772797042783091000,10.330091064453125,-0.02281397022306919,-0.01709669455885887,-0.005014732480049133
1772797042793116200,10.3401162109375,-0.018616827204823494,-0.013460149057209492,-0.014183996245265007
1772797042803142100,10.35014208984375,-0.019637349992990494,-0.006725014187395573,-0.018692994490265846
1772797042813167000,10.3601669921875,-0.01774810440838337,-0.009622800163924694,-0.019533220678567886
1772797042823193000,10.370193115234375,-0.01477548386901617,-0.01540265791118145,-0.022070415318012238
1772797042833218000,10.380218017578125,-0.0033931334037333727,-0.03355636075139046,-0.044682782143354416
1772797042843244000,10.390244140625,-0.004150270018726587,-0.033856768161058426,-0.07621248066425323
1772797042853270300,10.400270263671874,-0.019695939496159554,-0.01829778030514717,-0.06983287632465363
1772797042863295000,10.410294921875,-0.0379127599298954,0.007910387590527534,-0.022775886580348015
1772797042873321200,10.4203212890625,-0.03754444420337677,0.0064373929053545,-0.011175422929227352
1772797042883346200,10.43034619140625,-0.03057575225830078,-0.0010980212828144431,-0.014785337261855602
1772797042893372400,10.440372314453125,-0.014273211359977722,-0.012547217309474945,-0.02008875645697117
1772797042903397000,10.450397216796874,0.0006317017832770944,-0.008582835085690022,-0.028747757896780968
1772797042913423000,10.460423095703124,0.010445716790854931,0.0072898706421256065,-0.04063424468040466
1772797042923448000,10.470447998046875,0.013106214813888073,0.0200464129447937,-0.03966618701815605
1772797042933474000,10.48047412109375,0.02076227031648159,0.010423612780869007,-0.028013791888952255
1772797042943499000,10.4904990234375,0.035297002643346786,-0.010201238095760345,-0.01263856329023838
1772797042953525000,10.50052490234375,0.0433402843773365,-0.01906796731054783,-0.015238873660564423
1772797042963550200,10.51055029296875,0.049004826694726944,-0.013117666356265545,-0.024331172928214073
1772797042973576200,10.520576171875,0.050523363053798676,0.00020932445477228612,-0.034638937562704086
1772797042983601200,10.53060107421875,0.04840082302689552,0.007818774320185184,-0.04355413466691971
1772797042993627100,10.540627197265625,0.045270808041095734,0.013459349982440472,-0.04963599517941475
1772797043003653400,10.5506533203125,0.04081027954816818,0.019343337044119835,-0.06046787276864052
1772797043013678000,10.560677978515624,0.03265221789479256,0.013526993803679943,-0.06616676598787308
1772797043023704300,10.570704345703126,0.02569391205906868,-0.008073639124631882,-0.07370378077030182
1772797043033729000,10.58072900390625,0.010521883144974709,-0.00812210887670517,-0.09404287487268448
1772797043043755300,10.59075537109375,-0.009456085972487926,0.027217239141464233,-0.09518270939588547
1772797043053780000,10.600780029296875,-0.0224459208548069,0.019870910793542862,-0.07133117318153381
1772797043063806500,10.610806396484374,-0.004671717062592506,0.011835354380309582,-0.05597804859280586
1772797043073831700,10.620831787109376,-0.009668606333434582,0.01221831701695919,-0.05331781506538391
1772797043083857700,10.630857666015626,-0.023009711876511574,0.02545502595603466,-0.05326562002301216
1772797043093882600,10.640882568359375,-0.02093590795993805,0.017843978479504585,-0.04772118479013443
1772797043103908600,10.65090869140625,-0.033736925572156906,0.017357151955366135,-0.025424933061003685
1772797043113934800,10.660934814453125,-0.0570899173617363,-0.003177417442202568,0.027755199000239372
1772797043123959600,10.67095947265625,-0.061172276735305786,-0.01660081371665001,0.06845016032457352
1772797043133985500,10.680985595703126,-0.04957367852330208,-0.026673423126339912,0.07784180343151093
1772797043144010500,10.691010498046875,-0.03858787193894386,-0.02582121081650257,0.06709621101617813
1772797043154036500,10.701036376953125,-0.029894515872001648,-0.012773319147527218,0.0339510440826416
1772797043164061400,10.7110615234375,-0.01973695307970047,-0.0009262474486604333,0.0073079802095890045
1772797043174087400,10.72108740234375,-0.012137356214225292,-0.0030160299502313137,-0.011715778149664402
1772797043184112600,10.731112548828126,-0.0028999161440879107,-0.009469402022659779,-0.0332341194152832
1772797043194138600,10.741138671875,0.0019710054621100426,-0.00797323789447546,-0.04782478138804436
1772797043204163600,10.75116357421875,0.0033960631117224693,-0.0028639633674174547,-0.05548962578177452
1772797043214189600,10.761189453125,0.0007068029372021556,-0.020507140085101128,-0.051840562373399734
1772797043224214500,10.771214599609374,-0.0080310283228755,-0.018096711486577988,-0.04050881043076515
1772797043234240500,10.781240478515626,-0.0213050227612257,-0.014417555183172226,-0.02394741028547287
1772797043244266800,10.791266845703126,-0.025672074407339096,-0.02869529463350773,-0.0017161410069093108
1772797043254291500,10.80129150390625,-0.01182443555444479,-0.040107205510139465,0.0004820321628358215
1772797043264317700,10.811317626953125,-0.018341191112995148,-0.032757945358753204,0.00041784998029470444
1772797043274342700,10.8213427734375,-0.04550569877028465,-0.04529371112585068,0.00526746641844511
1772797043284368600,10.83136865234375,-0.07470699399709702,-0.031691618263721466,0.013702762313187122
1772797043294393600,10.8413935546875,-0.08592475950717926,-0.01745222695171833,0.01798086427152157
1772797043304419800,10.851419921875,-0.07883995026350021,-0.012692092917859554,0.012762133963406086
1772797043314444500,10.861444580078125,-0.03849492967128754,-0.021445903927087784,-0.012928315438330173
1772797043324470500,10.871470458984374,-0.026022279635071754,-0.020803814753890038,-0.03662538900971413
1772797043334495500,10.88149560546875,-0.026154639199376106,-0.005816610064357519,-0.048527322709560394
1772797043344521500,10.891521484375,-0.017659952864050865,-0.01212590467184782,-0.052199821919202805
1772797043354546400,10.90154638671875,-0.01028379611670971,-0.01387107465416193,-0.04944424703717232
1772797043364572400,10.911572509765625,-0.012149606831371784,0.00566933723166585,-0.04820001870393753
1772797043374597600,10.92159765625,-0.00941880140453577,-0.007256581448018551,-0.05750936642289162
1772797043384623600,10.93162353515625,0.0026844663079828024,-0.0033830134198069572,-0.07099827378988266
1772797043394649900,10.94164990234375,0.005154015496373177,-0.011672368273139,-0.09128037840127945
1772797043404674600,10.951674560546875,-0.0001584580895723775,-0.03538515418767929,-0.10229361802339554
1772797043414700800,10.96170068359375,-0.011115501634776592,-0.04288861155509949,-0.10972463339567184
1772797043424725500,10.9717255859375,-0.023319970816373825,-0.004343882203102112,-0.10476742684841156
1772797043434751700,10.981751708984374,-0.04403110593557358,0.023736488074064255,-0.08821907639503479
1772797043444776400,10.9917763671875,-0.0444156676530838,0.021932994946837425,-0.07457410544157028
1772797043454802700,11.001802734375,0.0013696637470275164,0.014628743752837181,-0.07971932739019394
1772797043464827600,11.01182763671875,0.06462213397026062,0.025010811164975166,-0.08240140229463577
1772797043474853600,11.021853515625,0.05906997621059418,0.007616640534251928,-0.07394133508205414
1772797043484878600,11.031878662109374,0.04861387610435486,-0.004288488067686558,-0.05253884196281433
1772797043494904800,11.04190478515625,0.0037177728954702616,-0.018307633697986603,-0.013895575888454914
1772797043504929500,11.051929443359375,-0.07274477928876877,-0.04433177784085274,0.059951748698949814
1772797043514955500,11.06195556640625,-0.04806419834494591,-0.06769462674856186,0.09339306503534317
1772797043524980500,11.07198046875,-0.01974121481180191,-0.07229550182819366,0.0935366079211235
1772797043535006500,11.08200634765625,-0.012018579989671707,-0.07369872182607651,0.08370315283536911
1772797043545032700,11.09203271484375,0.0017963021527975798,-0.06071394681930542,0.07137484848499298
1772797043555057400,11.102057373046875,-0.0076027922332286835,-0.043104059994220734,0.046177081763744354
1772797043565083600,11.112083740234375,-0.024808943271636963,-0.036987047642469406,0.009890181012451649
1772797043575108600,11.122108642578125,-0.022398782894015312,-0.04343029856681824,-0.03322133794426918
1772797043585134800,11.132134765625,0.024808144196867943,-0.04121800884604454,-0.10291466116905212
1772797043595159600,11.14215966796875,0.041242245584726334,-0.04521328583359718,-0.146089568734169
1772797043605185800,11.152185791015626,0.026086194440722466,-0.04303961247205734,-0.17162315547466278
1772797043615210500,11.16221044921875,0.006899984087795019,-0.044627122581005096,-0.18920081853866577
1772797043625236700,11.17223681640625,-0.03604988008737564,-0.05294044688344002,-0.17796893417835236
1772797043635261400,11.182261474609374,-0.07853288948535919,-0.06976097077131271,-0.1294245719909668
1772797043645287700,11.19228759765625,-0.09660164266824722,-0.0854368731379509,-0.04337676987051964
1772797043655312600,11.202312744140626,-0.07719811797142029,-0.07444813847541809,-0.0022540995851159096
1772797043665339000,11.2123388671875,-0.051061321049928665,-0.10144592821598053,0.028120584785938263
1772797043675364600,11.222364501953125,-0.01170166302472353,-0.17220719158649445,0.07604710012674332
1772797043685389800,11.232389892578125,-0.009984456934034824,-0.12306973338127136,-0.011511780321598053
1772797043695415800,11.242415771484374,-0.026490729302167892,-0.011166900396347046,-0.08984439820051193
1772797043705440500,11.2524404296875,-0.023927170783281326,0.040406279265880585,-0.11327329277992249
1772797043715466800,11.262466796875,-0.011472098529338837,0.010773285292088985,-0.10379430651664734
1772797043725491500,11.272491455078125,0.006311691831797361,0.010690993629395962,-0.0740920677781105
1772797043735517700,11.282517578125,0.007669903803616762,0.025895779952406883,-0.0573599636554718
1772797043745542400,11.29254248046875,0.008871788159012794,0.01270061545073986,-0.04012877866625786
1772797043755568600,11.302568603515626,0.01593822054564953,0.02095162123441696,-0.03271213918924332
1772797043765593600,11.312593505859375,0.021999042481184006,0.047810133546590805,-0.0399458184838295
1772797043775619800,11.322619873046875,0.02455567754805088,0.03651220351457596,-0.030546722933650017
1772797043785644500,11.33264453125,0.031490813940763474,-0.018134795129299164,0.013732057064771652
