time,seconds_elapsed,z,y,x
1772867067005973000,0.067972900390625,-1.0100860595703125,-0.023590087890625,-0.0060272216796875
1772867067016042200,0.078042236328125,-1.0110931396484375,-0.022857666015625,-0.0062408447265625
1772867067026111500,0.088111572265625,-1.0115814208984375,-0.0228729248046875,-0.0062255859375
1772867067036177400,0.098177490234375,-1.0113067626953125,-0.0233154296875,-0.005828857421875
1772867067046243300,0.108243408203125,-1.0103607177734375,-0.0229339599609375,-0.005584716796875
1772867067056309200,0.118309326171875,-1.009552001953125,-0.022308349609375,-0.00604248046875
1772867067066375200,0.128375244140625,-1.0103912353515625,-0.0220489501953125,-0.0054931640625
1772867067076441300,0.13844140625,-1.01055908203125,-0.022430419921875,-0.006744384765625
1772867067086507300,0.14850732421875,-1.010955810546875,-0.02313232421875,-0.0059051513671875
1772867067096573400,0.158573486328125,-1.01116943359375,-0.0229034423828125,-0.0063323974609375
1772867067106639400,0.168639404296875,-1.0110626220703125,-0.02239990234375,-0.0063934326171875
1772867067116705500,0.17870556640625,-1.0106658935546875,-0.0230865478515625,-0.0064849853515625
1772867067126771200,0.188771240234375,-1.010406494140625,-0.0225982666015625,-0.0068511962890625
1772867067136837000,0.198837158203125,-1.01055908203125,-0.0226287841796875,-0.0067291259765625
1772867067146903300,0.2089033203125,-1.01019287109375,-0.0236968994140625,-0.00677490234375
1772867067156969200,0.21896923828125,-1.011993408203125,-0.023834228515625,-0.0062408447265625
1772867067167035400,0.229035400390625,-1.010955810546875,-0.0233154296875,-0.0074920654296875
1772867067177102300,0.239102294921875,-1.0104827880859375,-0.023773193359375,-0.00604248046875
1772867067187168300,0.249168212890625,-1.0105133056640625,-0.0240936279296875,-0.0073089599609375
1772867067197234400,0.259234375,-1.0104827880859375,-0.0236358642578125,-0.00677490234375
1772867067207300400,0.26930029296875,-1.0094451904296875,-0.02392578125,-0.0069122314453125
1772867067217366300,0.2793662109375,-1.0094757080078125,-0.023773193359375,-0.0060882568359375
1772867067227432200,0.28943212890625,-1.010528564453125,-0.02349853515625,-0.005889892578125
1772867067237498400,0.299498291015625,-1.0106201171875,-0.0236663818359375,-0.0063629150390625
1772867067247564300,0.309564208984375,-1.010833740234375,-0.0232391357421875,-0.0071868896484375
1772867067257630500,0.31963037109375,-1.010467529296875,-0.022613525390625,-0.0063934326171875
1772867067267696400,0.3296962890625,-1.0107879638671875,-0.0225830078125,-0.006256103515625
1772867067277762300,0.33976220703125,-1.01190185546875,-0.02264404296875,-0.0059967041015625
1772867067287828200,0.349828125,-1.0118255615234375,-0.0229034423828125,-0.00628662109375
1772867067297894100,0.35989404296875,-1.01043701171875,-0.0222625732421875,-0.006317138671875
1772867067307960300,0.369960205078125,-1.01104736328125,-0.022735595703125,-0.0057373046875
1772867067318026200,0.380026123046875,-1.0111541748046875,-0.022552490234375,-0.005645751953125
1772867067328092400,0.390092529296875,-1.0109710693359375,-0.0222320556640625,-0.00640869140625
1772867067338159400,0.400159423828125,-1.01092529296875,-0.02325439453125,-0.0061798095703125
1772867067348225300,0.410225341796875,-1.0099639892578125,-0.0233001708984375,-0.0058135986328125
1772867067358291500,0.42029150390625,-1.009033203125,-0.02239990234375,-0.0082244873046875
1772867067368357400,0.430357421875,-1.010040283203125,-0.022430419921875,-0.0070648193359375
1772867067378423300,0.44042333984375,-1.012115478515625,-0.0246734619140625,-0.0077056884765625
1772867067388489200,0.4504892578125,-1.0100250244140625,-0.0222015380859375,-0.00665283203125
1772867067398555400,0.460555419921875,-1.0089874267578125,-0.02362060546875,-0.0074005126953125
1772867067408621300,0.470621337890625,-1.0141448974609375,-0.024383544921875,-0.006561279296875
1772867067418687200,0.480687255859375,-1.0070953369140625,-0.023529052734375,-0.0070953369140625
1772867067428753400,0.49075341796875,-1.0137481689453125,-0.0236663818359375,-0.004913330078125
1772867067438819300,0.5008193359375,-1.0087127685546875,-0.023773193359375,-0.0071563720703125
1772867067448885200,0.51088525390625,-1.0103912353515625,-0.023406982421875,-0.00616455078125
1772867067458951200,0.520951171875,-1.0101470947265625,-0.0227813720703125,-0.006103515625
1772867067469017300,0.531017333984375,-1.0085906982421875,-0.022552490234375,-0.005157470703125
1772867067479083300,0.541083251953125,-1.0113067626953125,-0.0234832763671875,-0.006683349609375
1772867067489150200,0.551150146484375,-1.0095977783203125,-0.0225982666015625,-0.00714111328125
1772867067499216400,0.56121630859375,-1.010406494140625,-0.02325439453125,-0.007049560546875
1772867067509282300,0.5712822265625,-1.01055908203125,-0.0233612060546875,-0.00665283203125
1772867067519348500,0.581348388671875,-1.009857177734375,-0.023529052734375,-0.006683349609375
1772867067529414400,0.591414306640625,-1.0108795166015625,-0.023834228515625,-0.006011962890625
1772867067539480300,0.601480224609375,-1.0099945068359375,-0.02349853515625,-0.0068817138671875
1772867067549546200,0.611546142578125,-1.0112762451171875,-0.023284912109375,-0.0065460205078125
1772867067559612200,0.621612060546875,-1.01092529296875,-0.023101806640625,-0.006011962890625
1772867067569678300,0.63167822265625,-1.011016845703125,-0.0237579345703125,-0.0067901611328125
1772867067579744300,0.641744140625,-1.0109405517578125,-0.0237884521484375,-0.0068511962890625
1772867067589810400,0.651810546875,-1.011138916015625,-0.02349853515625,-0.006103515625
1772867067599876400,0.66187646484375,-1.0123443603515625,-0.0232391357421875,-0.0069580078125
1772867067609942300,0.6719423828125,-1.011383056640625,-0.022705078125,-0.007659912109375
1772867067620008200,0.68200830078125,-1.0098724365234375,-0.023773193359375,-0.0075531005859375
1772867067630074400,0.692074462890625,-1.0100555419921875,-0.023345947265625,-0.007110595703125
1772867067640141300,0.702141357421875,-1.010223388671875,-0.022247314453125,-0.0069580078125
1772867067650207200,0.712207275390625,-1.0118865966796875,-0.022430419921875,-0.006591796875
1772867067660273400,0.7222734375,-1.0110321044921875,-0.0228118896484375,-0.006317138671875
1772867067670339300,0.73233935546875,-1.010162353515625,-0.02374267578125,-0.0068359375
1772867067680405500,0.742405517578125,-1.0098876953125,-0.0239105224609375,-0.0063629150390625
1772867067690471400,0.752471435546875,-1.01080322265625,-0.0231170654296875,-0.0054779052734375
1772867067700537000,0.762537109375,-1.010894775390625,-0.02313232421875,-0.0067901611328125
1772867067710603300,0.772603271484375,-1.011505126953125,-0.02288818359375,-0.0067901611328125
1772867067720669200,0.782669189453125,-1.011199951171875,-0.0228729248046875,-0.00689697265625
1772867067730735400,0.7927353515625,-1.01068115234375,-0.0233306884765625,-0.006591796875
1772867067740801300,0.80280126953125,-1.010528564453125,-0.0233612060546875,-0.006561279296875
1772867067750867500,0.812867431640625,-1.01025390625,-0.0236358642578125,-0.007110595703125
1772867067760933400,0.822933349609375,-1.010833740234375,-0.023345947265625,-0.006072998046875
1772867067770999600,0.83299951171875,-1.0116729736328125,-0.023834228515625,-0.0060577392578125
1772867067781066500,0.84306640625,-1.0110931396484375,-0.0239410400390625,-0.0065765380859375
1772867067791132200,0.853132080078125,-1.010467529296875,-0.02288818359375,-0.0068817138671875
1772867067801198300,0.8631982421875,-1.011383056640625,-0.0238189697265625,-0.006072998046875
1772867067811264300,0.87326416015625,-1.011199951171875,-0.0235137939453125,-0.006134033203125
1772867067821330400,0.883330322265625,-1.0115966796875,-0.0225372314453125,-0.00634765625
1772867067831396400,0.893396240234375,-1.0108642578125,-0.022918701171875,-0.0062408447265625
1772867067841462300,0.903462158203125,-1.0096435546875,-0.023834228515625,-0.005523681640625
1772867067851528400,0.913528564453125,-1.0117950439453125,-0.0231781005859375,-0.006134033203125
1772867067861594000,0.923593994140625,-1.011322021484375,-0.0233917236328125,-0.0059661865234375
1772867067871660300,0.933660400390625,-1.0109100341796875,-0.02276611328125,-0.0059356689453125
1772867067881726200,0.943726318359375,-1.0106048583984375,-0.0233306884765625,-0.0067596435546875
1772867067891792400,0.95379248046875,-1.011077880859375,-0.0232696533203125,-0.006622314453125
1772867067901858300,0.9638583984375,-1.0112152099609375,-0.023773193359375,-0.0059967041015625
1772867067911924500,0.973924560546875,-1.010467529296875,-0.022735595703125,-0.0054168701171875
1772867067921991400,0.983991455078125,-1.0103912353515625,-0.0229644775390625,-0.0059051513671875
1772867067932057300,0.994057373046875,-1.0112457275390625,-0.0225372314453125,-0.0065155029296875
1772867067942123500,1.00412353515625,-1.011474609375,-0.0227203369140625,-0.0064239501953125
1772867067952189200,1.014189208984375,-1.0109710693359375,-0.0225067138671875,-0.00653076171875
1772867067962255400,1.02425537109375,-1.0109100341796875,-0.0228729248046875,-0.0064697265625
1772867067972321300,1.0343212890625,-1.01123046875,-0.0235443115234375,-0.006591796875
1772867067982387200,1.04438720703125,-1.0106201171875,-0.023284912109375,-0.0068359375
1772867067992453400,1.054453369140625,-1.011199951171875,-0.0234375,-0.005828857421875
1772867068002519300,1.064519287109375,-1.0102691650390625,-0.0236968994140625,-0.006317138671875
1772867068012585500,1.07458544921875,-1.0109405517578125,-0.0233154296875,-0.007049560546875
1772867068022652400,1.08465234375,-1.0107421875,-0.02313232421875,-0.006805419921875
1772867068032718000,1.094718017578125,-1.010467529296875,-0.0243682861328125,-0.00665283203125
1772867068042784300,1.1047841796875,-1.009521484375,-0.02410888671875,-0.0065155029296875
1772867068052850200,1.11485009765625,-1.009796142578125,-0.023590087890625,-0.0070953369140625
1772867068062917000,1.124917236328125,-1.01129150390625,-0.025238037109375,-0.007080078125
1772867068072983300,1.1349833984375,-1.0107269287109375,-0.0240631103515625,-0.0074005126953125
1772867068083049200,1.14504931640625,-1.0113067626953125,-0.0239105224609375,-0.0074615478515625
1772867068093115400,1.155115478515625,-1.010589599609375,-0.0235443115234375,-0.0060272216796875
1772867068103181300,1.165181396484375,-1.0111541748046875,-0.0225372314453125,-0.005767822265625
1772867068113247200,1.175247314453125,-1.0113525390625,-0.0232696533203125,-0.007232666015625
1772867068123313200,1.185313232421875,-1.0092620849609375,-0.0233001708984375,-0.0064239501953125
1772867068133379300,1.19537939453125,-1.0113983154296875,-0.0231781005859375,-0.006195068359375
1772867068143445200,1.2054453125,-1.011810302734375,-0.023284912109375,-0.005889892578125
1772867068153511200,1.21551123046875,-1.01043701171875,-0.0228118896484375,-0.00628662109375
1772867068163577300,1.225577392578125,-1.0113372802734375,-0.0229034423828125,-0.006591796875
1772867068173643300,1.235643310546875,-1.0114898681640625,-0.0229034423828125,-0.0061187744140625
1772867068183709400,1.24570947265625,-1.01025390625,-0.0238494873046875,-0.0062103271484375
1772867068193775000,1.255775146484375,-1.0113525390625,-0.023529052734375,-0.0060882568359375
1772867068203842000,1.265842041015625,-1.011627197265625,-0.0234222412109375,-0.0066375732421875
1772867068213908200,1.275908203125,-1.0107421875,-0.0230712890625,-0.0067138671875
1772867068223974100,1.28597412109375,-1.0121917724609375,-0.023223876953125,-0.0057525634765625
1772867068234040300,1.296040283203125,-1.0099029541015625,-0.023162841796875,-0.0056610107421875
1772867068244106200,1.306106201171875,-1.0100555419921875,-0.0233917236328125,-0.0062713623046875
1772867068254172400,1.31617236328125,-1.0110321044921875,-0.0228271484375,-0.0060577392578125
1772867068264238300,1.32623828125,-1.0114898681640625,-0.02392578125,-0.0056610107421875
1772867068274304500,1.336304443359375,-1.011199951171875,-0.023345947265625,-0.006195068359375
1772867068284370200,1.3463701171875,-1.01080322265625,-0.02276611328125,-0.006072998046875
1772867068294436000,1.35643603515625,-1.010711669921875,-0.0236358642578125,-0.005523681640625
1772867068304502300,1.366502197265625,-1.009796142578125,-0.0235748291015625,-0.0065765380859375
1772867068314568200,1.376568115234375,-1.0105438232421875,-0.0223388671875,-0.00634765625
1772867068324634400,1.38663427734375,-1.0113983154296875,-0.023193359375,-0.005859375
1772867068334701300,1.396701416015625,-1.0112762451171875,-0.0230712890625,-0.006011962890625
1772867068344767200,1.406767333984375,-1.0099945068359375,-0.0235443115234375,-0.00628662109375
1772867068354833400,1.41683349609375,-1.010833740234375,-0.0240020751953125,-0.0074462890625
1772867068364899000,1.426899169921875,-1.0106658935546875,-0.02239990234375,-0.006591796875
1772867068374965200,1.43696533203125,-1.0102081298828125,-0.0233154296875,-0.0059051513671875
1772867068385031200,1.44703125,-1.0108642578125,-0.023406982421875,-0.0055999755859375
1772867068395097300,1.457097412109375,-1.0114593505859375,-0.023590087890625,-0.007568359375
1772867068405163300,1.467163330078125,-1.0123748779296875,-0.0229644775390625,-0.0063018798828125
1772867068415229400,1.4772294921875,-1.011138916015625,-0.02362060546875,-0.0067291259765625
1772867068425295400,1.48729541015625,-1.011749267578125,-0.0239715576171875,-0.00653076171875
1772867068435361300,1.497361328125,-1.0111541748046875,-0.02392578125,-0.00604248046875
1772867068445427200,1.50742724609375,-1.010040283203125,-0.023681640625,-0.0068511962890625
1772867068455494100,1.517494140625,-1.0108642578125,-0.0239105224609375,-0.006866455078125
1772867068465560300,1.527560302734375,-1.01190185546875,-0.02349853515625,-0.0060577392578125
1772867068475626200,1.537626220703125,-1.01092529296875,-0.023834228515625,-0.0061187744140625
1772867068485692200,1.547692138671875,-1.0106048583984375,-0.023468017578125,-0.00653076171875
1772867068495758300,1.55775830078125,-1.011322021484375,-0.023773193359375,-0.0067291259765625
1772867068505824300,1.56782421875,-1.0113983154296875,-0.0234375,-0.0068206787109375
1772867068515890400,1.577890380859375,-1.0105133056640625,-0.0233917236328125,-0.0066070556640625
1772867068525956000,1.5879560546875,-1.0111541748046875,-0.0234527587890625,-0.0064544677734375
1772867068536022300,1.598022216796875,-1.0106658935546875,-0.0236663818359375,-0.00616455078125
1772867068546088200,1.608088134765625,-1.010650634765625,-0.0230712890625,-0.006500244140625
1772867068556154400,1.618154296875,-1.0103759765625,-0.0228729248046875,-0.00640869140625
1772867068566220300,1.62822021484375,-1.009979248046875,-0.0228118896484375,-0.005889892578125
1772867068576286200,1.6382861328125,-1.0106353759765625,-0.0234832763671875,-0.0062408447265625
1772867068586353400,1.648353515625,-1.0101470947265625,-0.0242767333984375,-0.0062255859375
1772867068596419300,1.65841943359375,-1.0102996826171875,-0.024139404296875,-0.0064544677734375
1772867068606485200,1.6684853515625,-1.0110015869140625,-0.0240020751953125,-0.006866455078125
1772867068616551200,1.67855126953125,-1.01153564453125,-0.0245513916015625,-0.006561279296875
1772867068626617000,1.6886171875,-1.010894775390625,-0.0240631103515625,-0.00665283203125
1772867068636683300,1.698683349609375,-1.009979248046875,-0.0238037109375,-0.0062408447265625
1772867068646749200,1.708749267578125,-1.0108795166015625,-0.0232391357421875,-0.007110595703125
1772867068656815400,1.7188154296875,-1.0106201171875,-0.023345947265625,-0.006195068359375
1772867068666881300,1.72888134765625,-1.010498046875,-0.0234527587890625,-0.0065765380859375
1772867068676947500,1.738947509765625,-1.010894775390625,-0.022796630859375,-0.0067901611328125
1772867068687013400,1.749013427734375,-1.0113525390625,-0.0231475830078125,-0.0065155029296875
1772867068697079300,1.759079345703125,-1.010650634765625,-0.0231170654296875,-0.0065765380859375
1772867068707146200,1.769146240234375,-1.011474609375,-0.0225830078125,-0.0065765380859375
1772867068717212200,1.779212158203125,-1.01104736328125,-0.0230255126953125,-0.0059967041015625
1772867068727278300,1.7892783203125,-1.0103912353515625,-0.0220947265625,-0.005584716796875
1772867068737344300,1.79934423828125,-1.0098876953125,-0.0220489501953125,-0.0063934326171875
1772867068747410200,1.80941015625,-1.010894775390625,-0.02227783203125,-0.0064544677734375
1772867068757476400,1.819476318359375,-1.0106658935546875,-0.0229339599609375,-0.006561279296875
1772867068767542300,1.829542236328125,-1.0109100341796875,-0.022735595703125,-0.0070953369140625
1772867068777608200,1.839608154296875,-1.0113525390625,-0.022918701171875,-0.0065155029296875
1772867068787674000,1.849674072265625,-1.01068115234375,-0.0231781005859375,-0.0058441162109375
1772867068797740300,1.859740234375,-1.0108184814453125,-0.0233612060546875,-0.0057220458984375
1772867068807806200,1.86980615234375,-1.0106201171875,-0.023345947265625,-0.0055084228515625
1772867068817872400,1.879872314453125,-1.0104522705078125,-0.0241851806640625,-0.0072021484375
1772867068827939300,1.889939208984375,-1.0113372802734375,-0.0243682861328125,-0.007476806640625
1772867068838005200,1.900005126953125,-1.0110321044921875,-0.0237274169921875,-0.0059356689453125
1772867068848071400,1.910071533203125,-1.01226806640625,-0.0247344970703125,-0.0071563720703125
1772867068858137300,1.920137451171875,-1.010284423828125,-0.024688720703125,-0.0069427490234375
1772867068868203300,1.930203369140625,-1.0110015869140625,-0.02362060546875,-0.006805419921875
1772867068878269200,1.940269287109375,-1.0111846923828125,-0.02301025390625,-0.00665283203125
1772867068888335000,1.950335205078125,-1.0110015869140625,-0.02362060546875,-0.006195068359375
1772867068898401300,1.9604013671875,-1.01123046875,-0.0237884521484375,-0.0061492919921875
1772867068908467200,1.97046728515625,-1.010223388671875,-0.02392578125,-0.006378173828125
1772867068918533400,1.980533447265625,-1.0113067626953125,-0.0233154296875,-0.006591796875
1772867068928599300,1.990599365234375,-1.0108642578125,-0.022247314453125,-0.0055389404296875
1772867068938665500,2.00066552734375,-1.0107574462890625,-0.0224456787109375,-0.0068359375
1772867068948732400,2.010732421875,-1.010955810546875,-0.0236968994140625,-0.006866455078125
1772867068958798000,2.020798095703125,-1.01055908203125,-0.0230712890625,-0.0057220458984375
1772867068968864300,2.0308642578125,-1.0106658935546875,-0.0225830078125,-0.0060272216796875
1772867068978930200,2.04093017578125,-1.011871337890625,-0.0235137939453125,-0.0053863525390625
1772867068988996400,2.050996337890625,-1.0116424560546875,-0.0230560302734375,-0.00555419921875
1772867068999062300,2.061062255859375,-1.0105743408203125,-0.022705078125,-0.0066680908203125
1772867069009128400,2.07112841796875,-1.0105438232421875,-0.0230560302734375,-0.0064697265625
1772867069019193300,2.081193359375,-1.0108184814453125,-0.0233154296875,-0.0058746337890625
1772867069029259500,2.091259521484375,-1.0120391845703125,-0.023345947265625,-0.0073699951171875
1772867069039325400,2.101325439453125,-1.012054443359375,-0.0235137939453125,-0.00640869140625
1772867069049391600,2.1113916015625,-1.011749267578125,-0.024169921875,-0.005950927734375
1772867069059458600,2.12145849609375,-1.010833740234375,-0.0233306884765625,-0.006072998046875
1772867069069524500,2.1315244140625,-1.0110015869140625,-0.0242919921875,-0.0069427490234375
1772867069079590700,2.141590576171875,-1.01043701171875,-0.02374267578125,-0.006072998046875
1772867069089656600,2.151656494140625,-1.009918212890625,-0.023956298828125,-0.0065155029296875
1772867069099722500,2.161722412109375,-1.0091094970703125,-0.0231475830078125,-0.0064849853515625
1772867069109788400,2.171788330078125,-1.0113372802734375,-0.0240631103515625,-0.005340576171875
1772867069119854300,2.181854248046875,-1.0115509033203125,-0.0242462158203125,-0.0064544677734375
1772867069129920500,2.19192041015625,-1.0120391845703125,-0.0233306884765625,-0.006378173828125
1772867069139986400,2.201986328125,-1.01092529296875,-0.0230865478515625,-0.0069122314453125
1772867069150052600,2.212052490234375,-1.011016845703125,-0.0227508544921875,-0.0067291259765625
1772867069160118500,2.222118408203125,-1.0096588134765625,-0.022064208984375,-0.0062103271484375
1772867069170184700,2.232184814453125,-1.0110015869140625,-0.023712158203125,-0.0058441162109375
1772867069180251600,2.242251708984375,-1.01092529296875,-0.0238037109375,-0.006256103515625
1772867069190317600,2.252317626953125,-1.011627197265625,-0.0229644775390625,-0.0061187744140625
1772867069200383500,2.262383544921875,-1.01171875,-0.0220947265625,-0.0065765380859375
1772867069210449400,2.272449462890625,-1.01153564453125,-0.0234527587890625,-0.007049560546875
1772867069220515600,2.282515625,-1.0105743408203125,-0.0233001708984375,-0.00634765625
1772867069230581500,2.29258154296875,-1.0098114013671875,-0.0238037109375,-0.006103515625
1772867069240647700,2.302647705078125,-1.010986328125,-0.023040771484375,-0.0069122314453125
1772867069250713600,2.312713623046875,-1.0107879638671875,-0.023651123046875,-0.0067138671875
1772867069260779500,2.322779541015625,-1.01080322265625,-0.0241546630859375,-0.0065765380859375
1772867069270845400,2.332845458984375,-1.0100860595703125,-0.023590087890625,-0.006683349609375
1772867069280911400,2.342911376953125,-1.0111846923828125,-0.0233612060546875,-0.00634765625
1772867069290978300,2.352978271484375,-1.01165771484375,-0.0238800048828125,-0.00634765625
1772867069301044500,2.36304443359375,-1.0114593505859375,-0.0235137939453125,-0.0063629150390625
1772867069311110400,2.3731103515625,-1.0114898681640625,-0.0228424072265625,-0.006134033203125
1772867069321176600,2.383176513671875,-1.0102386474609375,-0.022857666015625,-0.00714111328125
1772867069331242500,2.393242431640625,-1.010986328125,-0.0238189697265625,-0.0066070556640625
1772867069341308700,2.40330859375,-1.010772705078125,-0.023681640625,-0.00677490234375
1772867069351374600,2.41337451171875,-1.011444091796875,-0.0229034423828125,-0.0072784423828125
1772867069361440500,2.4234404296875,-1.0106964111328125,-0.0223236083984375,-0.0069427490234375
1772867069371506400,2.43350634765625,-1.0098876953125,-0.0230255126953125,-0.00775146484375
1772867069381572600,2.443572509765625,-1.01019287109375,-0.0219879150390625,-0.0073699951171875
1772867069391638500,2.453638427734375,-1.0107574462890625,-0.0225067138671875,-0.005889892578125
1772867069401705500,2.46370556640625,-1.0108642578125,-0.0225372314453125,-0.006683349609375
1772867069411771600,2.473771728515625,-1.0107269287109375,-0.022796630859375,-0.0072021484375
1772867069421837600,2.483837646484375,-1.01104736328125,-0.0232391357421875,-0.0069732666015625
1772867069431903500,2.493903564453125,-1.01092529296875,-0.0229949951171875,-0.0062713623046875
1772867069441969700,2.5039697265625,-1.0111541748046875,-0.0229339599609375,-0.00640869140625
1772867069452035300,2.514035400390625,-1.010711669921875,-0.02294921875,-0.0069427490234375
1772867069462101500,2.5241015625,-1.01153564453125,-0.0230712890625,-0.00677490234375
1772867069472167400,2.53416748046875,-1.0110015869140625,-0.0235595703125,-0.00653076171875
1772867069482233600,2.544233642578125,-1.0106048583984375,-0.0233154296875,-0.0067596435546875
1772867069492299500,2.554299560546875,-1.010650634765625,-0.023162841796875,-0.0084075927734375
1772867069502365700,2.56436572265625,-1.0110626220703125,-0.0227203369140625,-0.0062713623046875
1772867069512431600,2.574431640625,-1.0105743408203125,-0.02288818359375,-0.006500244140625
1772867069522498600,2.58449853515625,-1.011138916015625,-0.0230712890625,-0.0060882568359375
1772867069532564700,2.594564697265625,-1.0106353759765625,-0.0231170654296875,-0.0070343017578125
1772867069542630400,2.60463037109375,-1.0111541748046875,-0.023956298828125,-0.00665283203125
1772867069552696600,2.614696533203125,-1.0110931396484375,-0.0233917236328125,-0.007080078125
1772867069562762500,2.624762451171875,-1.011016845703125,-0.0241851806640625,-0.0074310302734375
1772867069572828400,2.634828369140625,-1.0107269287109375,-0.023162841796875,-0.0069732666015625
1772867069582894600,2.64489453125,-1.0104217529296875,-0.022857666015625,-0.0065765380859375
1772867069592960500,2.65496044921875,-1.01055908203125,-0.0222930908203125,-0.0068206787109375
1772867069603026700,2.665026611328125,-1.0107574462890625,-0.0232086181640625,-0.0055694580078125
1772867069613092400,2.67509228515625,-1.01153564453125,-0.022735595703125,-0.0068817138671875
1772867069623158500,2.685158447265625,-1.0105133056640625,-0.02392578125,-0.0071563720703125
1772867069633225500,2.6952255859375,-1.010711669921875,-0.0237579345703125,-0.00616455078125
1772867069643291400,2.70529150390625,-1.01068115234375,-0.0232696533203125,-0.0069427490234375
1772867069653357600,2.715357666015625,-1.0103607177734375,-0.023406982421875,-0.007049560546875
1772867069663423500,2.725423583984375,-1.0111846923828125,-0.0236663818359375,-0.0060577392578125
1772867069673489700,2.73548974609375,-1.010955810546875,-0.0234375,-0.006439208984375
1772867069683555600,2.7455556640625,-1.010833740234375,-0.0242767333984375,-0.0060882568359375
1772867069693621800,2.755621826171875,-1.011383056640625,-0.024139404296875,-0.0065460205078125
1772867069703687400,2.7656875,-1.010040283203125,-0.0233612060546875,-0.006561279296875
1772867069713753300,2.77575341796875,-1.01080322265625,-0.023651123046875,-0.0060577392578125
1772867069723819500,2.785819580078125,-1.01068115234375,-0.02362060546875,-0.00628662109375
1772867069733885400,2.795885498046875,-1.010955810546875,-0.02337646484375,-0.006317138671875
1772867069743952600,2.80595263671875,-1.01080322265625,-0.024017333984375,-0.0066680908203125
1772867069754018600,2.8160185546875,-1.0105438232421875,-0.023040771484375,-0.00677490234375
1772867069764084500,2.82608447265625,-1.0097503662109375,-0.022857666015625,-0.0073089599609375
1772867069774150700,2.836150634765625,-1.010986328125,-0.0233917236328125,-0.0064544677734375
1772867069784216300,2.84621630859375,-1.0110626220703125,-0.02313232421875,-0.006744384765625
1772867069794282500,2.856282470703125,-1.010345458984375,-0.0223541259765625,-0.0062408447265625
1772867069804348400,2.866348388671875,-1.0103912353515625,-0.0231781005859375,-0.006378173828125
1772867069814414600,2.87641455078125,-1.0112457275390625,-0.022857666015625,-0.006072998046875
1772867069824480500,2.88648046875,-1.0118865966796875,-0.022796630859375,-0.006561279296875
1772867069834546700,2.896546630859375,-1.010650634765625,-0.0230712890625,-0.0067138671875
1772867069844612600,2.906612548828125,-1.010162353515625,-0.0227508544921875,-0.0062255859375
1772867069854679600,2.916679443359375,-1.0099029541015625,-0.023162841796875,-0.006439208984375
1772867069864745700,2.926745849609375,-1.0098876953125,-0.0228271484375,-0.00665283203125
1772867069874811400,2.936811279296875,-1.01141357421875,-0.022369384765625,-0.0072479248046875
1772867069884877600,2.946877685546875,-1.011077880859375,-0.022979736328125,-0.00634765625
1772867069894943500,2.956943603515625,-1.01080322265625,-0.023651123046875,-0.0069122314453125
1772867069905009400,2.967009521484375,-1.0099334716796875,-0.0225677490234375,-0.0067138671875
1772867069915075600,2.97707568359375,-1.0112152099609375,-0.0223541259765625,-0.0069732666015625
1772867069925141500,2.9871416015625,-1.0111236572265625,-0.02398681640625,-0.006011962890625
1772867069935207700,2.997207763671875,-1.011444091796875,-0.0235137939453125,-0.0066986083984375
1772867069945273600,3.007273681640625,-1.011322021484375,-0.0232086181640625,-0.0069122314453125
1772867069955340500,3.017340576171875,-1.009674072265625,-0.0239105224609375,-0.006195068359375
1772867069965406500,3.027406494140625,-1.0106048583984375,-0.0235137939453125,-0.0076446533203125
1772867069975472400,3.037472412109375,-1.0106964111328125,-0.0235137939453125,-0.0070037841796875
1772867069985538600,3.04753857421875,-1.011016845703125,-0.023834228515625,-0.0062103271484375
1772867069995604500,3.0576044921875,-1.0100555419921875,-0.0233001708984375,-0.00604248046875
1772867070005670700,3.067670654296875,-1.01104736328125,-0.0229644775390625,-0.0071868896484375
1772867070015736600,3.077736572265625,-1.0106048583984375,-0.0224456787109375,-0.006561279296875
1772867070025806000,3.08780615234375,-1.0110931396484375,-0.0232696533203125,-0.007232666015625
1772867070035872300,3.097872314453125,-1.01153564453125,-0.024139404296875,-0.0063934326171875
1772867070045938200,3.107938232421875,-1.0113067626953125,-0.023651123046875,-0.00701904296875
1772867070056004400,3.11800439453125,-1.0108642578125,-0.02337646484375,-0.007476806640625
1772867070066071300,3.1280712890625,-1.0113983154296875,-0.0232086181640625,-0.006256103515625
1772867070076137200,3.13813720703125,-1.0110321044921875,-0.0231781005859375,-0.0069122314453125
1772867070086203400,3.148203369140625,-1.010711669921875,-0.0232391357421875,-0.0065765380859375
1772867070096269300,3.158269287109375,-1.011688232421875,-0.0227203369140625,-0.00653076171875
1772867070106335200,3.168335205078125,-1.0123748779296875,-0.0236663818359375,-0.006591796875
1772867070116401200,3.178401123046875,-1.0118865966796875,-0.0241546630859375,-0.0067291259765625
1772867070126467300,3.18846728515625,-1.0116424560546875,-0.023468017578125,-0.0057373046875
1772867070136533200,3.198533203125,-1.01190185546875,-0.0234222412109375,-0.0066070556640625
1772867070146599200,3.20859912109375,-1.01007080078125,-0.022674560546875,-0.007232666015625
1772867070156665300,3.218665283203125,-1.01080322265625,-0.02325439453125,-0.00732421875
1772867070166732300,3.228732177734375,-1.011138916015625,-0.0225830078125,-0.00701904296875
1772867070176798500,3.238798583984375,-1.0111236572265625,-0.0230255126953125,-0.006805419921875
1772867070186864400,3.248864501953125,-1.011383056640625,-0.023773193359375,-0.0065460205078125
1772867070196930000,3.258929931640625,-1.0104522705078125,-0.0227203369140625,-0.0062713623046875
1772867070206996200,3.268996337890625,-1.0111236572265625,-0.0218048095703125,-0.0066986083984375
1772867070217062100,3.279062255859375,-1.010406494140625,-0.0219573974609375,-0.0072479248046875
1772867070227128300,3.28912841796875,-1.0109710693359375,-0.0231170654296875,-0.0059051513671875
1772867070237194200,3.2991943359375,-1.011138916015625,-0.0219573974609375,-0.0051116943359375
1772867070247260400,3.309260498046875,-1.0107879638671875,-0.022125244140625,-0.007080078125
1772867070257326300,3.319326416015625,-1.0110015869140625,-0.0229034423828125,-0.006561279296875
1772867070267393300,3.329393310546875,-1.0108795166015625,-0.0231170654296875,-0.0065765380859375
1772867070277459500,3.33945947265625,-1.01031494140625,-0.0232391357421875,-0.0074462890625
1772867070287525000,3.349525146484375,-1.011199951171875,-0.0230712890625,-0.00762939453125
1772867070297591300,3.35959130859375,-1.011627197265625,-0.022705078125,-0.006866455078125
1772867070307657200,3.3696572265625,-1.0106048583984375,-0.0247955322265625,-0.0073394775390625
1772867070317723400,3.379723388671875,-1.0102996826171875,-0.024627685546875,-0.0070953369140625
1772867070327789300,3.389789306640625,-1.0110321044921875,-0.023834228515625,-0.007415771484375
1772867070337855200,3.399855224609375,-1.011077880859375,-0.024200439453125,-0.0078277587890625
1772867070347921400,3.40992138671875,-1.010345458984375,-0.0241546630859375,-0.0065155029296875
1772867070357987000,3.419987060546875,-1.0107269287109375,-0.02447509765625,-0.0068359375
1772867070368053200,3.43005322265625,-1.010650634765625,-0.0236053466796875,-0.0068206787109375
1772867070378120200,3.4401201171875,-1.0113525390625,-0.0239410400390625,-0.006805419921875
1772867070388186000,3.45018603515625,-1.0103912353515625,-0.02423095703125,-0.006988525390625
1772867070398252300,3.460252197265625,-1.0113525390625,-0.0239715576171875,-0.0076751708984375
1772867070408318200,3.470318115234375,-1.0103912353515625,-0.023956298828125,-0.00653076171875
1772867070418384400,3.48038427734375,-1.0105438232421875,-0.0229339599609375,-0.0068817138671875
1772867070428450300,3.4904501953125,-1.01025390625,-0.0233306884765625,-0.00677490234375
1772867070438516500,3.5005166015625,-1.0106201171875,-0.023345947265625,-0.006134033203125
1772867070448582100,3.51058203125,-1.01080322265625,-0.0223846435546875,-0.0059356689453125
1772867070458648300,3.5206484375,-1.0112457275390625,-0.0243072509765625,-0.006195068359375
1772867070468714200,3.53071435546875,-1.010772705078125,-0.0233306884765625,-0.0060882568359375
1772867070478781200,3.54078125,-1.0109100341796875,-0.0230255126953125,-0.00714111328125
1772867070488847400,3.550847412109375,-1.0114288330078125,-0.0226287841796875,-0.006500244140625
1772867070498913300,3.560913330078125,-1.0110015869140625,-0.02325439453125,-0.0065460205078125
1772867070508979200,3.570979248046875,-1.010589599609375,-0.0230255126953125,-0.0070648193359375
1772867070519045400,3.58104541015625,-1.0099945068359375,-0.02325439453125,-0.007232666015625
1772867070529111300,3.591111328125,-1.011138916015625,-0.02435302734375,-0.0070953369140625
1772867070539177200,3.60117724609375,-1.0105743408203125,-0.0228118896484375,-0.0069732666015625
1772867070549243100,3.6112431640625,-1.011932373046875,-0.0234222412109375,-0.006134033203125
1772867070559309300,3.621309326171875,-1.010284423828125,-0.02374267578125,-0.00634765625
1772867070569375200,3.631375244140625,-1.01080322265625,-0.0231170654296875,-0.0068359375
1772867070579442200,3.641442138671875,-1.0107421875,-0.023651123046875,-0.0069580078125
1772867070589508400,3.65150830078125,-1.010833740234375,-0.0224456787109375,-0.0059967041015625
1772867070599574300,3.66157421875,-1.01031494140625,-0.0215911865234375,-0.0065155029296875
1772867070609640400,3.671640380859375,-1.0112457275390625,-0.0225677490234375,-0.0069122314453125
1772867070619706000,3.6817060546875,-1.0115203857421875,-0.0228729248046875,-0.0069122314453125
1772867070629772300,3.691772216796875,-1.0106964111328125,-0.0226287841796875,-0.0072174072265625
1772867070639838200,3.701838134765625,-1.0109405517578125,-0.02313232421875,-0.0064239501953125
1772867070649904000,3.711904052734375,-1.0107574462890625,-0.02264404296875,-0.0064544677734375
1772867070659970300,3.72197021484375,-1.0117034912109375,-0.0228424072265625,-0.0065460205078125
1772867070670036200,3.7320361328125,-1.01123046875,-0.023162841796875,-0.007781982421875
1772867070680103400,3.742103515625,-1.0114288330078125,-0.0229339599609375,-0.0062713623046875
1772867070690169300,3.75216943359375,-1.011138916015625,-0.0234832763671875,-0.00677490234375
1772867070700235300,3.7622353515625,-1.0104217529296875,-0.0238494873046875,-0.0069580078125
1772867070710301200,3.77230126953125,-1.010955810546875,-0.02423095703125,-0.006317138671875
1772867070720367000,3.7823671875,-1.0115966796875,-0.0236663818359375,-0.0070343017578125
1772867070730433300,3.792433349609375,-1.01104736328125,-0.023284912109375,-0.005950927734375
1772867070740499200,3.802499267578125,-1.0102691650390625,-0.0234222412109375,-0.0070953369140625
1772867070750565400,3.8125654296875,-1.0113677978515625,-0.0229949951171875,-0.00714111328125
1772867070760631300,3.82263134765625,-1.0120849609375,-0.023040771484375,-0.007080078125
1772867070770697500,3.832697509765625,-1.0108795166015625,-0.0235748291015625,-0.0067138671875
1772867070780764400,3.842764404296875,-1.0110931396484375,-0.023284912109375,-0.006805419921875
1772867070790830300,3.852830322265625,-1.0112457275390625,-0.0228118896484375,-0.0071258544921875
1772867070800896300,3.862896240234375,-1.0119476318359375,-0.0237884521484375,-0.006561279296875
1772867070810962200,3.872962158203125,-1.010955810546875,-0.023529052734375,-0.0064697265625
1772867070821028400,3.8830283203125,-1.010528564453125,-0.0236358642578125,-0.006988525390625
1772867070831094300,3.89309423828125,-1.0102691650390625,-0.02362060546875,-0.0063323974609375
1772867070841160200,3.90316015625,-1.010040283203125,-0.02374267578125,-0.0066375732421875
1772867070851226400,3.913226318359375,-1.0109710693359375,-0.02423095703125,-0.00665283203125
1772867070861292300,3.923292236328125,-1.0102081298828125,-0.0240936279296875,-0.006439208984375
1772867070871358200,3.933358154296875,-1.0116424560546875,-0.0241546630859375,-0.0066680908203125
1772867070881425400,3.94342529296875,-1.010772705078125,-0.02362060546875,-0.00714111328125
1772867070891491000,3.953490966796875,-1.0111236572265625,-0.0234832763671875,-0.00738525390625
1772867070901557200,3.96355712890625,-1.0117340087890625,-0.0232696533203125,-0.0072174072265625
1772867070911623200,3.973623046875,-1.0115814208984375,-0.023590087890625,-0.007049560546875
1772867070921689300,3.983689453125,-1.010528564453125,-0.023468017578125,-0.006378173828125
1772867070931755300,3.99375537109375,-1.0111083984375,-0.0234832763671875,-0.006622314453125
1772867070941821400,4.003821533203125,-1.010986328125,-0.0227813720703125,-0.006439208984375
1772867070951887400,4.013887451171875,-1.0113677978515625,-0.0226593017578125,-0.0067596435546875
1772867070961953300,4.023953369140625,-1.010009765625,-0.0230865478515625,-0.0065765380859375
1772867070972019200,4.034019287109375,-1.0108489990234375,-0.0228729248046875,-0.005950927734375
1772867070982085000,4.044085205078125,-1.0112152099609375,-0.0227508544921875,-0.0063934326171875
1772867070992152300,4.05415234375,-1.0105438232421875,-0.022674560546875,-0.0064239501953125
1772867071002218200,4.06421826171875,-1.00994873046875,-0.023040771484375,-0.0065155029296875
1772867071012284200,4.0742841796875,-1.01068115234375,-0.0221099853515625,-0.0059356689453125
1772867071022351400,4.084351318359375,-1.010101318359375,-0.0225982666015625,-0.0067138671875
1772867071032417000,4.0944169921875,-1.0108184814453125,-0.022735595703125,-0.0068511962890625
1772867071042483200,4.104483154296875,-1.01019287109375,-0.023681640625,-0.0064239501953125
1772867071052549000,4.114549072265625,-1.010589599609375,-0.02325439453125,-0.0057525634765625
1772867071062615000,4.124614990234375,-1.0115966796875,-0.0228729248046875,-0.0067901611328125
1772867071072681200,4.13468115234375,-1.0106353759765625,-0.024017333984375,-0.0072784423828125
1772867071082748200,4.144748046875,-1.0117340087890625,-0.0233001708984375,-0.007080078125
1772867071092814000,4.15481396484375,-1.0106353759765625,-0.0242156982421875,-0.007598876953125
1772867071102880300,4.16488037109375,-1.0113677978515625,-0.0240325927734375,-0.0074005126953125
1772867071112946000,4.17494580078125,-1.01116943359375,-0.023956298828125,-0.0059356689453125
1772867071123012000,4.18501220703125,-1.01007080078125,-0.023773193359375,-0.006591796875
1772867071133078000,4.195078125,-1.01177978515625,-0.024017333984375,-0.006195068359375
1772867071143144200,4.205144287109375,-1.0098724365234375,-0.0236358642578125,-0.006988525390625
1772867071153210000,4.215210205078125,-1.00994873046875,-0.023345947265625,-0.0063934326171875
1772867071163276300,4.2252763671875,-1.011383056640625,-0.0237579345703125,-0.006256103515625
1772867071173342200,4.23534228515625,-1.0120697021484375,-0.0236358642578125,-0.0070648193359375
1772867071183409200,4.2454091796875,-1.0115966796875,-0.0233612060546875,-0.007110595703125
1772867071193475300,4.255475341796875,-1.010772705078125,-0.0222320556640625,-0.0065765380859375
1772867071203541000,4.265541015625,-1.0100555419921875,-0.0228271484375,-0.0069732666015625
1772867071213607200,4.275607177734375,-1.0099639892578125,-0.0231170654296875,-0.00677490234375
1772867071223673000,4.285673095703125,-1.01123046875,-0.022796630859375,-0.0062255859375
1772867071233739300,4.2957392578125,-1.01165771484375,-0.0227508544921875,-0.0059967041015625
1772867071243805200,4.30580517578125,-1.0115814208984375,-0.0232696533203125,-0.006500244140625
1772867071253871000,4.31587109375,-1.010986328125,-0.022735595703125,-0.006195068359375
1772867071263937300,4.325937255859375,-1.0106048583984375,-0.0232086181640625,-0.0067291259765625
1772867071274003000,4.3360029296875,-1.0113372802734375,-0.023345947265625,-0.0070648193359375
1772867071284070100,4.346070068359375,-1.010894775390625,-0.0227508544921875,-0.006744384765625
1772867071294136000,4.356135986328125,-1.0112152099609375,-0.023956298828125,-0.0068817138671875
1772867071304202000,4.366201904296875,-1.011444091796875,-0.0232696533203125,-0.0072479248046875
1772867071314268200,4.37626806640625,-1.011383056640625,-0.023345947265625,-0.0062408447265625
1772867071324334000,4.386333984375,-1.01068115234375,-0.0240325927734375,-0.006256103515625
1772867071334400300,4.396400146484375,-1.0108795166015625,-0.02252197265625,-0.00701904296875
1772867071344466200,4.406466064453125,-1.01025390625,-0.0232086181640625,-0.006378173828125
1772867071354532400,4.416532470703125,-1.011444091796875,-0.0226593017578125,-0.0064849853515625
1772867071364598000,4.426597900390625,-1.0107574462890625,-0.02276611328125,-0.0062255859375
1772867071374664200,4.436664306640625,-1.0106964111328125,-0.0232391357421875,-0.0065155029296875
1772867071384731100,4.446731201171875,-1.0101318359375,-0.0229339599609375,-0.006195068359375
1772867071394797000,4.456797119140625,-1.0102386474609375,-0.0233154296875,-0.006622314453125
1772867071404863200,4.46686328125,-1.0107574462890625,-0.0233917236328125,-0.006805419921875
1772867071414929200,4.47692919921875,-1.0104217529296875,-0.023101806640625,-0.006103515625
1772867071424995000,4.4869951171875,-1.0101470947265625,-0.021881103515625,-0.0054168701171875
1772867071435061200,4.497061279296875,-1.01025390625,-0.023162841796875,-0.0064239501953125
1772867071445127200,4.507127197265625,-1.0108489990234375,-0.022979736328125,-0.0070037841796875
1772867071455193000,4.517193115234375,-1.012115478515625,-0.0235748291015625,-0.0067901611328125
1772867071465259000,4.527259033203125,-1.0113372802734375,-0.023956298828125,-0.00726318359375
1772867071475326000,4.537325927734375,-1.010894775390625,-0.023590087890625,-0.0064849853515625
1772867071485392100,4.54739208984375,-1.011566162109375,-0.0239410400390625,-0.00677490234375
1772867071495458000,4.5574580078125,-1.0106353759765625,-0.02410888671875,-0.0070343017578125
1772867071505524200,4.567524169921875,-1.0110015869140625,-0.0236663818359375,-0.006683349609375
1772867071515590100,4.577590087890625,-1.0109100341796875,-0.0234375,-0.007049560546875
1772867071525656300,4.58765625,-1.0114593505859375,-0.0238800048828125,-0.00726318359375
1772867071535722200,4.59772216796875,-1.01068115234375,-0.02374267578125,-0.0074462890625
1772867071545788200,4.6077880859375,-1.011566162109375,-0.02374267578125,-0.00689697265625
1772867071555854000,4.61785400390625,-1.011474609375,-0.02386474609375,-0.007232666015625
1772867071565920000,4.627919921875,-1.010162353515625,-0.0237884521484375,-0.00701904296875
1772867071575987200,4.6379873046875,-1.011749267578125,-0.024139404296875,-0.0072784423828125
1772867071586053000,4.64805322265625,-1.0119781494140625,-0.0231475830078125,-0.0073699951171875
1772867071596119000,4.658119140625,-1.01116943359375,-0.0225677490234375,-0.007049560546875
1772867071606185200,4.668185302734375,-1.011260986328125,-0.0238189697265625,-0.0052032470703125
1772867071616251100,4.678251220703125,-1.0112457275390625,-0.0233306884765625,-0.006591796875
1772867071626318300,4.688318359375,-1.0105133056640625,-0.02325439453125,-0.00665283203125
1772867071636384300,4.69838427734375,-1.0107574462890625,-0.023834228515625,-0.006378173828125
1772867071646450000,4.708449951171875,-1.0104217529296875,-0.023101806640625,-0.0063323974609375
1772867071656516000,4.71851611328125,-1.0112457275390625,-0.02386474609375,-0.007049560546875
1772867071666582000,4.72858203125,-1.0110015869140625,-0.0234222412109375,-0.0067138671875
1772867071676648200,4.738648193359375,-1.010345458984375,-0.02313232421875,-0.0067596435546875
1772867071686714000,4.748714111328125,-1.010467529296875,-0.0231781005859375,-0.00579833984375
1772867071696780300,4.7587802734375,-1.010711669921875,-0.0229949951171875,-0.00689697265625
1772867071706846200,4.76884619140625,-1.010589599609375,-0.0243377685546875,-0.00604248046875
1772867071716913200,4.7789130859375,-1.0118408203125,-0.0239105224609375,-0.005828857421875
1772867071726979300,4.788979248046875,-1.0113067626953125,-0.02294921875,-0.007080078125
1772867071737045000,4.799044921875,-1.010772705078125,-0.023529052734375,-0.0070648193359375
1772867071747111200,4.809111083984375,-1.010986328125,-0.02362060546875,-0.0064239501953125
1772867071757177000,4.819177001953125,-1.010589599609375,-0.0230560302734375,-0.0063934326171875
1772867071767243300,4.8292431640625,-1.008880615234375,-0.0221710205078125,-0.00616455078125
1772867071777309200,4.83930908203125,-1.011138916015625,-0.02252197265625,-0.0054779052734375
1772867071787375000,4.849375,-1.0108795166015625,-0.0229034423828125,-0.00616455078125
1772867071797441300,4.859441162109375,-1.0094757080078125,-0.02227783203125,-0.006317138671875
1772867071807507000,4.8695068359375,-1.0112152099609375,-0.022979736328125,-0.006195068359375
1772867071817574100,4.87957421875,-1.01068115234375,-0.0230255126953125,-0.00592041015625
1772867071827640000,4.88964013671875,-1.0111083984375,-0.02288818359375,-0.0057830810546875
1772867071837706000,4.8997060546875,-1.0099029541015625,-0.022918701171875,-0.0074920654296875
1772867071847772200,4.909772216796875,-1.0102691650390625,-0.0226287841796875,-0.006988525390625
1772867071857838000,4.919838134765625,-1.0105133056640625,-0.0230255126953125,-0.0069427490234375
1772867071867904300,4.929904296875,-1.011749267578125,-0.0232696533203125,-0.0068511962890625
1772867071877970200,4.93997021484375,-1.01116943359375,-0.0238494873046875,-0.0070037841796875
1772867071888036400,4.950036376953125,-1.0105438232421875,-0.0246124267578125,-0.0075836181640625
1772867071898102000,4.96010205078125,-1.0106048583984375,-0.023468017578125,-0.0064544677734375
1772867071908168200,4.970168212890625,-1.011077880859375,-0.023529052734375,-0.0063629150390625
1772867071918235100,4.980235107421875,-1.0107421875,-0.02398681640625,-0.00628662109375
1772867071928301000,4.990301025390625,-1.0113067626953125,-0.023834228515625,-0.0070343017578125
1772867071938367200,5.0003671875,-1.011138916015625,-0.024200439453125,-0.00726318359375
1772867071948433200,5.01043310546875,-1.0108184814453125,-0.0239105224609375,-0.0065765380859375
1772867071958499000,5.0204990234375,-1.010406494140625,-0.02349853515625,-0.005218505859375
1772867071968565200,5.030565185546875,-1.0106964111328125,-0.02325439453125,-0.006256103515625
1772867071978631200,5.040631103515625,-1.01080322265625,-0.023712158203125,-0.006866455078125
1772867071988697000,5.050697021484375,-1.0103759765625,-0.0228118896484375,-0.007232666015625
1772867071998763000,5.060762939453125,-1.011566162109375,-0.0240478515625,-0.0059356689453125
1772867072008830000,5.070829833984375,-1.011566162109375,-0.023956298828125,-0.00616455078125
1772867072018891800,5.080891845703125,-1.0106048583984375,-0.0226898193359375,-0.005859375
1772867072028958000,5.0909580078125,-1.010986328125,-0.022216796875,-0.006256103515625
1772867072039023900,5.10102392578125,-1.0115966796875,-0.0233612060546875,-0.0073089599609375
1772867072049089800,5.11108984375,-1.01171875,-0.0234832763671875,-0.00634765625
1772867072059156000,5.121156005859375,-1.01043701171875,-0.022674560546875,-0.00677490234375
1772867072069222000,5.131221923828125,-1.0100250244140625,-0.023773193359375,-0.006561279296875
1772867072079288000,5.1412880859375,-1.010009765625,-0.0233001708984375,-0.0069732666015625
1772867072089353700,5.151353759765625,-1.011016845703125,-0.02313232421875,-0.00732421875
1772867072099420000,5.161419921875,-1.010040283203125,-0.023345947265625,-0.0067596435546875
1772867072109486800,5.17148681640625,-1.010833740234375,-0.0244293212890625,-0.00665283203125
1772867072119552800,5.181552734375,-1.0101470947265625,-0.0241851806640625,-0.0060577392578125
1772867072129619000,5.191618896484375,-1.0103302001953125,-0.02294921875,-0.0066680908203125
1772867072139684900,5.201684814453125,-1.011077880859375,-0.02276611328125,-0.0074920654296875
1772867072149751000,5.2117509765625,-1.010101318359375,-0.02276611328125,-0.006561279296875
1772867072159817000,5.22181689453125,-1.009674072265625,-0.02301025390625,-0.0064239501953125
1772867072169883100,5.231883056640625,-1.010528564453125,-0.02349853515625,-0.0070037841796875
1772867072179948800,5.24194873046875,-1.0108642578125,-0.0229034423828125,-0.006072998046875
1772867072190014700,5.2520146484375,-1.010406494140625,-0.0229949951171875,-0.006744384765625
1772867072200081000,5.262080810546875,-1.0106048583984375,-0.023223876953125,-0.006103515625
1772867072210147800,5.27214794921875,-1.011077880859375,-0.0232391357421875,-0.0069122314453125
1772867072220214000,5.282214111328125,-1.0113372802734375,-0.022552490234375,-0.006256103515625
1772867072230280000,5.292280029296875,-1.0108795166015625,-0.023651123046875,-0.006500244140625
1772867072240345900,5.302345947265625,-1.0102386474609375,-0.023223876953125,-0.006072998046875
1772867072250412000,5.312412109375,-1.01025390625,-0.0228729248046875,-0.0064544677734375
1772867072260477700,5.322477783203125,-1.0106201171875,-0.023193359375,-0.00634765625
1772867072270544000,5.3325439453125,-1.011077880859375,-0.0238800048828125,-0.0074462890625
1772867072280609800,5.34260986328125,-1.0114593505859375,-0.02337646484375,-0.0068511962890625
1772867072290676000,5.352676025390625,-1.0117950439453125,-0.02386474609375,-0.006927490234375
1772867072300743000,5.362742919921875,-1.0108184814453125,-0.0236358642578125,-0.0070648193359375
1772867072310808800,5.372808837890625,-1.010101318359375,-0.0234375,-0.007537841796875
1772867072320875000,5.382875,-1.0115966796875,-0.0237884521484375,-0.00665283203125
1772867072330941000,5.39294091796875,-1.011016845703125,-0.024749755859375,-0.0070953369140625
1772867072341007000,5.403007080078125,-1.01129150390625,-0.0236358642578125,-0.0070037841796875
1772867072351072800,5.41307275390625,-1.0118560791015625,-0.0228118896484375,-0.006500244140625
1772867072361139000,5.423138916015625,-1.0115203857421875,-0.0237579345703125,-0.006103515625
1772867072371204900,5.433204833984375,-1.0113372802734375,-0.02374267578125,-0.0063934326171875
1772867072381270800,5.443270751953125,-1.0101776123046875,-0.0232391357421875,-0.006744384765625
1772867072391337000,5.4533369140625,-1.0110015869140625,-0.022735595703125,-0.00634765625
1772867072401404000,5.46340380859375,-1.01141357421875,-0.022979736328125,-0.0061798095703125
1772867072411469800,5.4734697265625,-1.0110015869140625,-0.0233917236328125,-0.0065460205078125
1772867072421536000,5.483535888671875,-1.010955810546875,-0.0237274169921875,-0.00665283203125
1772867072431602000,5.493601806640625,-1.011688232421875,-0.0240631103515625,-0.006103515625
1772867072441667800,5.503667724609375,-1.01263427734375,-0.0230712890625,-0.0064849853515625
1772867072451733800,5.513733642578125,-1.0101776123046875,-0.022918701171875,-0.0066375732421875
1772867072461800000,5.523800048828125,-1.010711669921875,-0.0227813720703125,-0.0059814453125
1772867072471865900,5.533865966796875,-1.0110931396484375,-0.02294921875,-0.00640869140625
1772867072481932000,5.54393212890625,-1.009521484375,-0.023193359375,-0.0062408447265625
1772867072491999000,5.5539990234375,-1.0113677978515625,-0.0236053466796875,-0.0064544677734375
1772867072502065000,5.56406494140625,-1.0111236572265625,-0.0235137939453125,-0.006988525390625
1772867072512131000,5.574131103515625,-1.0108184814453125,-0.0233306884765625,-0.007110595703125
1772867072522197000,5.584197021484375,-1.0111083984375,-0.023529052734375,-0.007293701171875
1772867072532263000,5.594262939453125,-1.0108184814453125,-0.0230865478515625,-0.0074615478515625
1772867072542328800,5.604328857421875,-1.01055908203125,-0.023834228515625,-0.0064849853515625
1772867072552394800,5.614394775390625,-1.0103759765625,-0.023651123046875,-0.0069580078125
1772867072562461000,5.6244609375,-1.010955810546875,-0.0229644775390625,-0.0070037841796875
1772867072572526800,5.63452685546875,-1.0104827880859375,-0.0228729248046875,-0.0064697265625
1772867072582593000,5.644593017578125,-1.0111846923828125,-0.022979736328125,-0.006317138671875
1772867072592660000,5.654659912109375,-1.0107269287109375,-0.0228271484375,-0.0065155029296875
1772867072602726000,5.664725830078125,-1.011474609375,-0.022216796875,-0.0066375732421875
1772867072612792000,5.6747919921875,-1.01141357421875,-0.0231170654296875,-0.0066986083984375
1772867072622857700,5.684857666015625,-1.00994873046875,-0.0224609375,-0.0068206787109375
1772867072632924000,5.694923828125,-1.00994873046875,-0.02166748046875,-0.006378173828125
1772867072642989800,5.70498974609375,-1.0101470947265625,-0.0223388671875,-0.0062713623046875
1772867072653056000,5.715055908203125,-1.0110931396484375,-0.022308349609375,-0.0061798095703125
1772867072663122000,5.725121826171875,-1.0107879638671875,-0.0228729248046875,-0.0062408447265625
1772867072673188000,5.73518798828125,-1.011505126953125,-0.02276611328125,-0.0067596435546875
1772867072683254000,5.74525390625,-1.0105438232421875,-0.0234527587890625,-0.005706787109375
1772867072693321000,5.755321044921875,-1.0098876953125,-0.0233001708984375,-0.0064697265625
1772867072703387000,5.765386962890625,-1.0115814208984375,-0.0237884521484375,-0.005859375
1772867072713452800,5.775452880859375,-1.0114898681640625,-0.02374267578125,-0.007537841796875
1772867072723519000,5.78551904296875,-1.0104217529296875,-0.0242156982421875,-0.0069580078125
1772867072733585000,5.7955849609375,-1.0114593505859375,-0.0240020751953125,-0.006866455078125
1772867072743650800,5.80565087890625,-1.0110626220703125,-0.0244140625,-0.0081024169921875
1772867072753717000,5.815717041015625,-1.011932373046875,-0.02392578125,-0.0073089599609375
1772867072763783000,5.825782958984375,-1.0114898681640625,-0.023956298828125,-0.0066680908203125
1772867072773849000,5.83584912109375,-1.010467529296875,-0.023223876953125,-0.00762939453125
1772867072783914800,5.845914794921875,-1.01165771484375,-0.023712158203125,-0.006866455078125
1772867072793981700,5.855981689453125,-1.0116119384765625,-0.0231781005859375,-0.007049560546875
1772867072804048000,5.8660478515625,-1.011199951171875,-0.0231170654296875,-0.0071868896484375
1772867072814113800,5.87611376953125,-1.012115478515625,-0.024078369140625,-0.006622314453125
1772867072824180000,5.886179931640625,-1.0110931396484375,-0.0234222412109375,-0.0077667236328125
1772867072834246000,5.896245849609375,-1.0111236572265625,-0.0231170654296875,-0.0068511962890625
1772867072844312000,5.90631201171875,-1.0108489990234375,-0.0228424072265625,-0.0061187744140625
1772867072854378000,5.9163779296875,-1.0116424560546875,-0.0230712890625,-0.0070648193359375
1772867072864444000,5.92644384765625,-1.0106964111328125,-0.0235137939453125,-0.0060882568359375
1772867072874509800,5.936509765625,-1.01171875,-0.022308349609375,-0.0064239501953125
1772867072884575700,5.94657568359375,-1.0124053955078125,-0.0228424072265625,-0.00665283203125
1772867072894643000,5.956642822265625,-1.0113677978515625,-0.022796630859375,-0.006561279296875
1772867072904708900,5.966708984375,-1.011932373046875,-0.023834228515625,-0.0060272216796875
1772867072914774800,5.97677490234375,-1.011383056640625,-0.0234222412109375,-0.006622314453125
1772867072924841000,5.986841064453125,-1.0126190185546875,-0.023223876953125,-0.0059967041015625
1772867072934907000,5.996906982421875,-1.01141357421875,-0.0232696533203125,-0.0062103271484375
1772867072944973000,6.00697314453125,-1.011627197265625,-0.0228271484375,-0.006378173828125
1772867072955038700,6.017038818359375,-1.011199951171875,-0.0228424072265625,-0.00726318359375
1772867072965105000,6.02710498046875,-1.010833740234375,-0.0233001708984375,-0.0066070556640625
1772867072975170800,6.0371708984375,-1.0101318359375,-0.0231170654296875,-0.005706787109375
1772867072985237000,6.047237060546875,-1.01068115234375,-0.0232391357421875,-0.006988525390625
1772867072995303000,6.057302978515625,-1.0108795166015625,-0.0225677490234375,-0.006561279296875
1772867073005369900,6.067369873046875,-1.01190185546875,-0.022003173828125,-0.00567626953125
1772867073015436000,6.07743603515625,-1.0110626220703125,-0.022552490234375,-0.0062713623046875
1772867073025501700,6.087501708984375,-1.0102996826171875,-0.0227508544921875,-0.0060577392578125
1772867073035567900,6.09756787109375,-1.0110321044921875,-0.023040771484375,-0.00701904296875
1772867073045633800,6.1076337890625,-1.011138916015625,-0.0225982666015625,-0.0061187744140625
1772867073055699700,6.11769970703125,-1.010772705078125,-0.0225830078125,-0.0060882568359375
1772867073065765600,6.127765625,-1.0097198486328125,-0.023162841796875,-0.0069427490234375
1772867073075831600,6.13783154296875,-1.011199951171875,-0.022918701171875,-0.00628662109375
1772867073085897700,6.147897705078125,-1.0095977783203125,-0.0230865478515625,-0.006256103515625
1772867073095963600,6.157963623046875,-1.0108795166015625,-0.0237579345703125,-0.0066986083984375
1772867073106030600,6.168030517578125,-1.01214599609375,-0.0234832763671875,-0.00640869140625
1772867073116096800,6.1780966796875,-1.01177978515625,-0.022979736328125,-0.006622314453125
1772867073126162700,6.18816259765625,-1.0099334716796875,-0.023468017578125,-0.0075836181640625
1772867073136228900,6.198228759765625,-1.0100555419921875,-0.0236053466796875,-0.0070953369140625
1772867073146294500,6.20829443359375,-1.010833740234375,-0.02447509765625,-0.0077667236328125
1772867073156360700,6.218360595703125,-1.010223388671875,-0.024444580078125,-0.00775146484375
1772867073166426600,6.228426513671875,-1.01031494140625,-0.0247039794921875,-0.007568359375
1772867073176492800,6.238492919921875,-1.011871337890625,-0.024566650390625,-0.0073394775390625
1772867073186558700,6.248558837890625,-1.011322021484375,-0.023681640625,-0.006866455078125
1772867073196624600,6.258624755859375,-1.01080322265625,-0.023773193359375,-0.0068206787109375
1772867073206690800,6.26869091796875,-1.011566162109375,-0.0233917236328125,-0.00653076171875
1772867073216757800,6.2787578125,-1.00994873046875,-0.0237884521484375,-0.006378173828125
1772867073226823700,6.28882373046875,-1.0107574462890625,-0.023773193359375,-0.00738525390625
1772867073236889600,6.2988896484375,-1.01141357421875,-0.0239105224609375,-0.0071868896484375
1772867073246955500,6.30895556640625,-1.0103607177734375,-0.022674560546875,-0.00616455078125
1772867073257021700,6.319021728515625,-1.0104522705078125,-0.0227813720703125,-0.0055999755859375
1772867073267087600,6.329087646484375,-1.010833740234375,-0.02313232421875,-0.006500244140625
1772867073277153800,6.33915380859375,-1.0099639892578125,-0.0229034423828125,-0.006317138671875
1772867073287219700,6.3492197265625,-1.0110626220703125,-0.023193359375,-0.0054779052734375
1772867073297286000,6.359285888671875,-1.0115966796875,-0.0234832763671875,-0.005645751953125
1772867073307351600,6.3693515625,-1.009307861328125,-0.0234527587890625,-0.0068817138671875
1772867073317417700,6.379417724609375,-1.01007080078125,-0.023956298828125,-0.006866455078125
1772867073327484700,6.389484619140625,-1.012054443359375,-0.0226287841796875,-0.006561279296875
1772867073337550600,6.399550537109375,-1.010955810546875,-0.0226593017578125,-0.00640869140625
1772867073347616800,6.40961669921875,-1.010833740234375,-0.0234832763671875,-0.0068206787109375
1772867073357682700,6.4196826171875,-1.0106964111328125,-0.0230560302734375,-0.0077667236328125
1772867073367748900,6.429748779296875,-1.010345458984375,-0.0231781005859375,-0.006744384765625
1772867073377814800,6.439814697265625,-1.0110626220703125,-0.02264404296875,-0.0062713623046875
1772867073387880700,6.449880615234375,-1.0107879638671875,-0.022308349609375,-0.0056304931640625
1772867073397946600,6.459946533203125,-1.01123046875,-0.0219573974609375,-0.006378173828125
1772867073408012500,6.470012451171875,-1.01190185546875,-0.0224761962890625,-0.0064697265625
1772867073418078700,6.48007861328125,-1.0106964111328125,-0.02337646484375,-0.005706787109375
1772867073428144600,6.49014453125,-1.0104522705078125,-0.02294921875,-0.0061798095703125
1772867073438210800,6.5002109375,-1.0107879638671875,-0.022308349609375,-0.0055389404296875
1772867073448277800,6.51027783203125,-1.011962890625,-0.0225372314453125,-0.0057830810546875
1772867073458343700,6.52034375,-1.0103912353515625,-0.022552490234375,-0.0068359375
1772867073468409900,6.530409912109375,-1.0104522705078125,-0.0235595703125,-0.005889892578125
1772867073478475500,6.5404755859375,-1.0111083984375,-0.02423095703125,-0.0064849853515625
1772867073488541700,6.550541748046875,-1.0110931396484375,-0.0240325927734375,-0.006866455078125
1772867073498607600,6.560607666015625,-1.011444091796875,-0.0238037109375,-0.0065155029296875
1772867073508673800,6.570673828125,-1.01141357421875,-0.0236968994140625,-0.006378173828125
1772867073518739700,6.58073974609375,-1.01239013671875,-0.0245819091796875,-0.006500244140625
1772867073528805600,6.5908056640625,-1.0108642578125,-0.02459716796875,-0.007659912109375
1772867073538871800,6.600871826171875,-1.0100860595703125,-0.0241851806640625,-0.0074920654296875
1772867073548937700,6.610937744140625,-1.0114593505859375,-0.02392578125,-0.0064849853515625
1772867073559004700,6.621004638671875,-1.0118865966796875,-0.025299072265625,-0.00726318359375
1772867073569070600,6.631070556640625,-1.0117645263671875,-0.024169921875,-0.00653076171875
1772867073579136500,6.641136474609375,-1.01043701171875,-0.0238494873046875,-0.007110595703125
1772867073589202700,6.65120263671875,-1.011474609375,-0.0239715576171875,-0.00665283203125
1772867073599268600,6.6612685546875,-1.011474609375,-0.0233154296875,-0.00628662109375
1772867073609334800,6.671334716796875,-1.0117950439453125,-0.0224151611328125,-0.0057525634765625
1772867073619400700,6.681400634765625,-1.0104217529296875,-0.0225067138671875,-0.00616455078125
1772867073629467000,6.691466796875,-1.0114593505859375,-0.0222625732421875,-0.006591796875
1772867073639532800,6.70153271484375,-1.0107269287109375,-0.02325439453125,-0.006439208984375
1772867073649598700,6.7115986328125,-1.01055908203125,-0.0227203369140625,-0.00640869140625
1772867073659664600,6.72166455078125,-1.0113677978515625,-0.0230255126953125,-0.0066070556640625
1772867073669730600,6.73173046875,-1.0102996826171875,-0.023162841796875,-0.0070037841796875
1772867073679796700,6.741796630859375,-1.0095977783203125,-0.02337646484375,-0.00604248046875
1772867073689863700,6.75186376953125,-1.0109405517578125,-0.0233001708984375,-0.0058441162109375
1772867073699929600,6.7619296875,-1.0110931396484375,-0.023284912109375,-0.0063629150390625
1772867073709995800,6.771995849609375,-1.0108489990234375,-0.0231475830078125,-0.0062103271484375
1772867073720061700,6.782061767578125,-1.0109100341796875,-0.024261474609375,-0.006561279296875
1772867073730127600,6.792127685546875,-1.0110626220703125,-0.02362060546875,-0.00726318359375
1772867073740193500,6.802193603515625,-1.0111846923828125,-0.023956298828125,-0.00677490234375
1772867073750259700,6.812259765625,-1.0116119384765625,-0.0245513916015625,-0.00604248046875
1772867073760325600,6.82232568359375,-1.01092529296875,-0.023773193359375,-0.0064849853515625
1772867073770391800,6.832391845703125,-1.0109710693359375,-0.024261474609375,-0.006317138671875
1772867073780457700,6.842457763671875,-1.0117645263671875,-0.02392578125,-0.006622314453125
1772867073790523600,6.852523681640625,-1.0115203857421875,-0.0229949951171875,-0.007110595703125
1772867073800589800,6.86258984375,-1.0112762451171875,-0.02227783203125,-0.0065155029296875
1772867073810655500,6.872655517578125,-1.0117034912109375,-0.022857666015625,-0.006134033203125
1772867073820722700,6.88272265625,-1.0104217529296875,-0.02227783203125,-0.005584716796875
1772867073830788600,6.89278857421875,-1.0115203857421875,-0.0228118896484375,-0.00689697265625
1772867073840854500,6.9028544921875,-1.011077880859375,-0.02215576171875,-0.0053863525390625
1772867073850920700,6.912920654296875,-1.0110015869140625,-0.022613525390625,-0.005462646484375
1772867073860986600,6.922986572265625,-1.011566162109375,-0.0224456787109375,-0.006134033203125
1772867073871052800,6.933052734375,-1.01129150390625,-0.0229644775390625,-0.0070037841796875
1772867073881118700,6.94311865234375,-1.01123046875,-0.0234527587890625,-0.006072998046875
1772867073891185000,6.953184814453125,-1.011077880859375,-0.0236053466796875,-0.00677490234375
1772867073901250600,6.96325048828125,-1.0109100341796875,-0.0232086181640625,-0.0068817138671875
1772867073911316700,6.973316650390625,-1.01080322265625,-0.023712158203125,-0.00616455078125
1772867073921382700,6.983382568359375,-1.01104736328125,-0.0232086181640625,-0.0058135986328125
1772867073931448600,6.993448486328125,-1.0116119384765625,-0.024261474609375,-0.00640869140625
1772867073941514800,7.0035146484375,-1.0111846923828125,-0.0241546630859375,-0.0066986083984375
1772867073951581700,7.013581787109375,-1.0102996826171875,-0.02374267578125,-0.006072998046875
1772867073961647900,7.02364794921875,-1.0123291015625,-0.0235748291015625,-0.00677490234375
1772867073971713800,7.0337138671875,-1.01275634765625,-0.0234375,-0.0066680908203125
1772867073981779500,7.043779541015625,-1.0099945068359375,-0.0235137939453125,-0.005950927734375
1772867073991845600,7.053845703125,-1.01019287109375,-0.0229644775390625,-0.00640869140625
1772867074001911600,7.06391162109375,-1.010406494140625,-0.0236663818359375,-0.006378173828125
1772867074011977700,7.073977783203125,-1.0108642578125,-0.023590087890625,-0.006072998046875
1772867074022044200,7.084044189453125,-1.01214599609375,-0.0228424072265625,-0.005950927734375
1772867074032110300,7.0941103515625,-1.0110626220703125,-0.0228424072265625,-0.006378173828125
1772867074042176300,7.10417626953125,-1.010406494140625,-0.022796630859375,-0.006805419921875
1772867074052242200,7.1142421875,-1.0116119384765625,-0.0229644775390625,-0.00604248046875
1772867074062308000,7.12430810546875,-1.0102081298828125,-0.0225372314453125,-0.0059814453125
1772867074072374000,7.1343740234375,-1.010345458984375,-0.0236663818359375,-0.006744384765625
1772867074082441200,7.144441162109375,-1.012115478515625,-0.02374267578125,-0.006195068359375
1772867074092507100,7.154507080078125,-1.010223388671875,-0.023223876953125,-0.00677490234375
1772867074102573000,7.164572998046875,-1.0109710693359375,-0.0234222412109375,-0.007476806640625
1772867074112639200,7.17463916015625,-1.0119476318359375,-0.0233306884765625,-0.0065460205078125
1772867074122705200,7.184705078125,-1.011688232421875,-0.023895263671875,-0.006500244140625
1772867074132771300,7.194771240234375,-1.010650634765625,-0.0246124267578125,-0.005828857421875
1772867074142837200,7.204837158203125,-1.0105438232421875,-0.0242919921875,-0.0062713623046875
1772867074152903200,7.214903076171875,-1.0113525390625,-0.0235748291015625,-0.005950927734375
1772867074162969000,7.224968994140625,-1.0118408203125,-0.0236663818359375,-0.0066680908203125
1772867074173035300,7.23503515625,-1.011322021484375,-0.0232086181640625,-0.006500244140625
1772867074183101200,7.24510107421875,-1.0104217529296875,-0.022857666015625,-0.00750732421875
1772867074193167000,7.2551669921875,-1.0106048583984375,-0.023284912109375,-0.0066070556640625
1772867074203233300,7.2652333984375,-1.010040283203125,-0.0226593017578125,-0.0052490234375
1772867074213299200,7.27529931640625,-1.0094146728515625,-0.0224456787109375,-0.005859375
1772867074223365400,7.285365478515625,-1.0101165771484375,-0.0220184326171875,-0.0068511962890625
1772867074233432300,7.295432373046875,-1.0106201171875,-0.0220489501953125,-0.0053253173828125
1772867074243498000,7.305498046875,-1.0115966796875,-0.0220794677734375,-0.006317138671875
1772867074253564200,7.315564208984375,-1.010833740234375,-0.0230865478515625,-0.0056610107421875
1772867074263630000,7.325630126953125,-1.010894775390625,-0.023101806640625,-0.0054931640625
1772867074273696300,7.3356962890625,-1.0112762451171875,-0.023773193359375,-0.0062408447265625
1772867074283762200,7.34576220703125,-1.01043701171875,-0.023712158203125,-0.0068511962890625
1772867074293828400,7.355828369140625,-1.011627197265625,-0.023651123046875,-0.0065460205078125
1772867074303894300,7.365894287109375,-1.0105743408203125,-0.0234527587890625,-0.00592041015625
1772867074313960200,7.375960205078125,-1.010162353515625,-0.0237884521484375,-0.0068511962890625
1772867074324026000,7.386026123046875,-1.0111541748046875,-0.023651123046875,-0.006500244140625
1772867074334092000,7.396092041015625,-1.0111846923828125,-0.0245208740234375,-0.0062408447265625
1772867074344158200,7.406158203125,-1.0115509033203125,-0.02398681640625,-0.0059051513671875
1772867074354224000,7.41622412109375,-1.0114898681640625,-0.0242462158203125,-0.0069427490234375
1772867074364290300,7.426290283203125,-1.0108642578125,-0.0240631103515625,-0.0066070556640625
1772867074374356200,7.436356201171875,-1.0107879638671875,-0.023345947265625,-0.0059661865234375
1772867074384423200,7.446423095703125,-1.01080322265625,-0.024078369140625,-0.0064544677734375
1772867074394489300,7.4564892578125,-1.011383056640625,-0.023345947265625,-0.0067596435546875
1772867074404555000,7.466554931640625,-1.0111846923828125,-0.02301025390625,-0.0060272216796875
1772867074414621200,7.47662109375,-1.011566162109375,-0.024322509765625,-0.0067596435546875
1772867074424687000,7.48668701171875,-1.0120697021484375,-0.023345947265625,-0.006317138671875
1772867074434753300,7.496753173828125,-1.0102081298828125,-0.0233154296875,-0.0057373046875
1772867074444819200,7.506819091796875,-1.010101318359375,-0.0228424072265625,-0.0060577392578125
1772867074454885000,7.516885009765625,-1.0101318359375,-0.0230712890625,-0.00592041015625
1772867074464951300,7.526951416015625,-1.0115203857421875,-0.0225982666015625,-0.0060882568359375
1772867074475017000,7.537016845703125,-1.0116424560546875,-0.0227813720703125,-0.006500244140625
1772867074485083100,7.547083251953125,-1.0110626220703125,-0.0230560302734375,-0.0057525634765625
1772867074495149000,7.557149169921875,-1.0103912353515625,-0.0233154296875,-0.005584716796875
1772867074505215200,7.56721533203125,-1.0119476318359375,-0.0228729248046875,-0.0055999755859375
1772867074515281200,7.57728125,-1.0105438232421875,-0.023284912109375,-0.005889892578125
1772867074525347300,7.587347412109375,-1.0108795166015625,-0.0231170654296875,-0.0056304931640625
1772867074535413200,7.597413330078125,-1.01171875,-0.0236968994140625,-0.0068817138671875
1772867074545479400,7.6074794921875,-1.01019287109375,-0.0237884521484375,-0.00665283203125
1772867074555546400,7.61754638671875,-1.010833740234375,-0.0245208740234375,-0.006591796875
1772867074565612000,7.627612060546875,-1.01104736328125,-0.0241546630859375,-0.0059967041015625
1772867074575678200,7.63767822265625,-1.0104522705078125,-0.0239715576171875,-0.0064544677734375
1772867074585744100,7.647744140625,-1.0104217529296875,-0.0239715576171875,-0.006378173828125
1772867074595810000,7.65781005859375,-1.0100860595703125,-0.024169921875,-0.0068817138671875
1772867074605876200,7.667876220703125,-1.0108795166015625,-0.0236358642578125,-0.006744384765625
1772867074615942100,7.677942138671875,-1.0113677978515625,-0.023773193359375,-0.005706787109375
1772867074626008300,7.68800830078125,-1.011993408203125,-0.0232696533203125,-0.005645751953125
1772867074636074200,7.69807421875,-1.0113372802734375,-0.0225677490234375,-0.00555419921875
1772867074646140200,7.70814013671875,-1.01116943359375,-0.0233306884765625,-0.005584716796875
1772867074656206000,7.7182060546875,-1.01153564453125,-0.0225982666015625,-0.0059661865234375
1772867074666272300,7.728272216796875,-1.0108795166015625,-0.0224151611328125,-0.0053863525390625
1772867074676338200,7.738338134765625,-1.0106964111328125,-0.02252197265625,-0.00634765625
1772867074686404400,7.748404296875,-1.011322021484375,-0.0221099853515625,-0.006378173828125
1772867074696470300,7.75847021484375,-1.0122528076171875,-0.0217742919921875,-0.0062408447265625
1772867074706536200,7.7685361328125,-1.0110626220703125,-0.0235595703125,-0.006561279296875
1772867074716602000,7.77860205078125,-1.011383056640625,-0.0233306884765625,-0.0056915283203125
1772867074726668000,7.78866796875,-1.010955810546875,-0.02294921875,-0.0059814453125
1772867074736735200,7.7987353515625,-1.011260986328125,-0.02337646484375,-0.0063629150390625
1772867074746801200,7.80880126953125,-1.0106048583984375,-0.0233306884765625,-0.00616455078125
1772867074756867000,7.8188671875,-1.010650634765625,-0.02398681640625,-0.006500244140625
1772867074766933200,7.828933349609375,-1.0105438232421875,-0.0234527587890625,-0.0059967041015625
1772867074776999200,7.838999267578125,-1.0112457275390625,-0.02447509765625,-0.0065460205078125
1772867074787065300,7.8490654296875,-1.0112152099609375,-0.0238189697265625,-0.0061187744140625
1772867074797131300,7.85913134765625,-1.01043701171875,-0.0242156982421875,-0.0074005126953125
1772867074807197200,7.869197265625,-1.01068115234375,-0.023284912109375,-0.006500244140625
1772867074817263000,7.87926318359375,-1.0122528076171875,-0.0233612060546875,-0.006317138671875
1772867074827329300,7.889329345703125,-1.0115966796875,-0.023223876953125,-0.007293701171875
1772867074837395200,7.899395263671875,-1.0112152099609375,-0.023834228515625,-0.006988525390625
1772867074847461000,7.909461181640625,-1.0102081298828125,-0.0233917236328125,-0.007537841796875
1772867074857527300,7.91952734375,-1.010833740234375,-0.022003173828125,-0.0073699951171875
1772867074867593200,7.92959326171875,-1.0099334716796875,-0.023468017578125,-0.006927490234375
1772867074877659100,7.9396591796875,-1.0100860595703125,-0.0236968994140625,-0.007049560546875
1772867074887725000,7.94972509765625,-1.011383056640625,-0.0230560302734375,-0.0067138671875
1772867074897791200,7.959791259765625,-1.0114288330078125,-0.022857666015625,-0.007049560546875
1772867074907857200,7.969857177734375,-1.0122833251953125,-0.0226898193359375,-0.0068511962890625
1772867074917923300,7.97992333984375,-1.0113677978515625,-0.0232391357421875,-0.00616455078125
1772867074927990300,7.989990234375,-1.011016845703125,-0.02313232421875,-0.00604248046875
1772867074938055200,8.00005517578125,-1.0125274658203125,-0.022857666015625,-0.0059967041015625
1772867074948121000,8.01012109375,-1.01177978515625,-0.023040771484375,-0.0065155029296875
1772867074958187000,8.02018701171875,-1.0114593505859375,-0.0233917236328125,-0.0063629150390625
1772867074968253200,8.030253173828125,-1.010589599609375,-0.0240936279296875,-0.006317138671875
1772867074978319000,8.040319091796874,-1.0108184814453125,-0.0236968994140625,-0.006683349609375
1772867074988385300,8.05038525390625,-1.0104217529296875,-0.0233612060546875,-0.0070343017578125
1772867074998451200,8.060451171875,-1.0116119384765625,-0.0240325927734375,-0.0071868896484375
1772867075008517400,8.070517333984375,-1.0123138427734375,-0.0240936279296875,-0.0064849853515625
1772867075018583300,8.080583251953126,-1.01141357421875,-0.0232696533203125,-0.005645751953125
1772867075028649200,8.090649169921875,-1.01055908203125,-0.022064208984375,-0.0055389404296875
1772867075038716200,8.100716064453126,-1.010711669921875,-0.02337646484375,-0.0063018798828125
1772867075048782000,8.110781982421875,-1.011627197265625,-0.0235595703125,-0.00537109375
1772867075058848300,8.12084814453125,-1.0109405517578125,-0.02166748046875,-0.00537109375
1772867075068914200,8.1309140625,-1.0113372802734375,-0.0224761962890625,-0.0055694580078125
1772867075078980000,8.14097998046875,-1.0101165771484375,-0.0229949951171875,-0.00616455078125
1772867075089046300,8.15104638671875,-1.0104217529296875,-0.02313232421875,-0.00701904296875
1772867075099112200,8.1611123046875,-1.0111236572265625,-0.0233917236328125,-0.00665283203125
1772867075109178400,8.171178466796874,-1.0110931396484375,-0.02349853515625,-0.006103515625
1772867075119244000,8.181244140625,-1.0113983154296875,-0.023651123046875,-0.0066375732421875
1772867075129310200,8.191310302734376,-1.01080322265625,-0.0238800048828125,-0.0066680908203125
1772867075139376000,8.201376220703125,-1.0113067626953125,-0.0237579345703125,-0.006072998046875
1772867075149442300,8.2114423828125,-1.010528564453125,-0.0242767333984375,-0.005950927734375
1772867075159508200,8.22150830078125,-1.011260986328125,-0.024078369140625,-0.0062408447265625
1772867075169574100,8.23157421875,-1.0111083984375,-0.0231781005859375,-0.0066986083984375
1772867075179640300,8.241640380859375,-1.0105743408203125,-0.0233917236328125,-0.007476806640625
1772867075189706000,8.2517060546875,-1.011322021484375,-0.023193359375,-0.0063323974609375
1772867075199772200,8.261772216796874,-1.0116424560546875,-0.024169921875,-0.006500244140625
1772867075209838000,8.271838134765625,-1.0116424560546875,-0.023529052734375,-0.00604248046875
1772867075219904300,8.281904296875,-1.0110626220703125,-0.0238189697265625,-0.006744384765625
1772867075229970200,8.29197021484375,-1.0102081298828125,-0.023590087890625,-0.00640869140625
1772867075240036400,8.302036376953126,-1.011444091796875,-0.0237274169921875,-0.00677490234375
1772867075250102300,8.312102294921875,-1.0107879638671875,-0.02288818359375,-0.005859375
1772867075260169200,8.322169189453126,-1.01068115234375,-0.023101806640625,-0.0067138671875
1772867075270235400,8.3322353515625,-1.011627197265625,-0.0230865478515625,-0.0064849853515625
1772867075280301000,8.342301025390626,-1.0110321044921875,-0.0227203369140625,-0.005126953125
1772867075290367200,8.3523671875,-1.01165771484375,-0.0230712890625,-0.0058135986328125
1772867075300433200,8.36243310546875,-1.0122833251953125,-0.0232696533203125,-0.0053863525390625
1772867075310499000,8.3724990234375,-1.01092529296875,-0.0235748291015625,-0.00677490234375
1772867075320565200,8.382565185546875,-1.01092529296875,-0.0235748291015625,-0.0064697265625
1772867075330631200,8.392631103515624,-1.0105133056640625,-0.0238800048828125,-0.0057373046875
1772867075340697300,8.402697265625,-1.0106964111328125,-0.023590087890625,-0.006378173828125
1772867075350763000,8.412762939453126,-1.010772705078125,-0.024139404296875,-0.0068359375
1772867075360829200,8.4228291015625,-1.0116424560546875,-0.0234222412109375,-0.006744384765625
1772867075370895000,8.43289501953125,-1.011962890625,-0.02325439453125,-0.0064697265625
1772867075380961300,8.442961181640625,-1.0114593505859375,-0.0236968994140625,-0.005828857421875
1772867075391027200,8.453027099609375,-1.0114288330078125,-0.023223876953125,-0.0066986083984375
1772867075401093000,8.463093017578124,-1.0112762451171875,-0.0230560302734375,-0.0063934326171875
1772867075411159300,8.4731591796875,-1.011016845703125,-0.0236968994140625,-0.005859375
1772867075421225000,8.483224853515624,-1.0101776123046875,-0.0242767333984375,-0.006683349609375
1772867075431291100,8.493291015625,-1.0115509033203125,-0.0231170654296875,-0.00579833984375
1772867075441357000,8.503357177734374,-1.0110931396484375,-0.022552490234375,-0.0064849853515625
1772867075451423200,8.51342333984375,-1.01092529296875,-0.0237884521484375,-0.007354736328125
1772867075461489200,8.5234892578125,-1.011505126953125,-0.0239715576171875,-0.0067596435546875
1772867075471555300,8.533555419921875,-1.01104736328125,-0.0230255126953125,-0.0067138671875
1772867075481621200,8.543621337890626,-1.0113983154296875,-0.022796630859375,-0.006805419921875
1772867075491687400,8.5536875,-1.0108642578125,-0.0238037109375,-0.0059356689453125
1772867075501753000,8.563753173828125,-1.011016845703125,-0.0230255126953125,-0.006011962890625
1772867075511820000,8.573820068359375,-1.0120391845703125,-0.0227203369140625,-0.0068206787109375
1772867075521886200,8.58388623046875,-1.01171875,-0.023345947265625,-0.0074310302734375
1772867075531952000,8.5939521484375,-1.0114288330078125,-0.0235748291015625,-0.00628662109375
1772867075542018000,8.60401806640625,-1.0114593505859375,-0.023712158203125,-0.0064239501953125
1772867075552084200,8.614084228515624,-1.0109710693359375,-0.023681640625,-0.00616455078125
1772867075562150100,8.624150146484375,-1.010986328125,-0.023193359375,-0.0068511962890625
1772867075572216300,8.63421630859375,-1.010955810546875,-0.023834228515625,-0.0068359375
1772867075582282200,8.6442822265625,-1.011260986328125,-0.024444580078125,-0.0066070556640625
1772867075592348200,8.65434814453125,-1.009490966796875,-0.02374267578125,-0.0067291259765625
1772867075602414000,8.6644140625,-1.0104217529296875,-0.0240936279296875,-0.00640869140625
1772867075612480300,8.674480224609376,-1.01141357421875,-0.0239410400390625,-0.005340576171875
1772867075622546200,8.684546142578125,-1.0102996826171875,-0.023223876953125,-0.005706787109375
1772867075632612400,8.6946123046875,-1.0109405517578125,-0.0239105224609375,-0.006561279296875
1772867075642678300,8.70467822265625,-1.011566162109375,-0.0237579345703125,-0.006988525390625
1772867075652744200,8.714744140625,-1.0117645263671875,-0.02313232421875,-0.006134033203125
1772867075662810000,8.72481005859375,-1.0109710693359375,-0.023773193359375,-0.00616455078125
1772867075672876000,8.7348759765625,-1.0108642578125,-0.023590087890625,-0.007293701171875
1772867075682942200,8.744942138671876,-1.0116119384765625,-0.02227783203125,-0.0067291259765625
1772867075693008100,8.755008056640625,-1.0117034912109375,-0.022308349609375,-0.005523681640625
1772867075703074300,8.76507421875,-1.0110931396484375,-0.0231475830078125,-0.0064544677734375
1772867075713140200,8.77514013671875,-1.0102691650390625,-0.0234222412109375,-0.0058135986328125
1772867075723206400,8.785206298828125,-1.0103302001953125,-0.0235595703125,-0.006195068359375
1772867075733273300,8.7952734375,-1.01171875,-0.0233612060546875,-0.006591796875
1772867075743339300,8.80533935546875,-1.01214599609375,-0.022491455078125,-0.006195068359375
1772867075753405200,8.8154052734375,-1.0113525390625,-0.0229644775390625,-0.00616455078125
1772867075763471000,8.82547119140625,-1.0110626220703125,-0.0236358642578125,-0.0062103271484375
1772867075773537300,8.835537353515624,-1.011993408203125,-0.023284912109375,-0.007110595703125
1772867075783603200,8.845603271484375,-1.0104522705078125,-0.0231781005859375,-0.0067138671875
1772867075793669000,8.855669189453126,-1.0107421875,-0.02294921875,-0.005401611328125
1772867075803735300,8.8657353515625,-1.0112152099609375,-0.0231781005859375,-0.006378173828125
1772867075813801200,8.87580126953125,-1.0117645263671875,-0.023284912109375,-0.0064697265625
1772867075823867100,8.8858671875,-1.0118865966796875,-0.023284912109375,-0.0070648193359375
1772867075833933000,8.89593310546875,-1.010589599609375,-0.0226287841796875,-0.0062255859375
1772867075843999200,8.905999267578125,-1.0111236572265625,-0.0231170654296875,-0.0060577392578125
1772867075854065200,8.916065185546875,-1.0110626220703125,-0.023712158203125,-0.006011962890625
1772867075864131300,8.92613134765625,-1.0102081298828125,-0.023406982421875,-0.0070953369140625
1772867075874197200,8.936197265625,-1.010986328125,-0.0235748291015625,-0.0066070556640625
1772867075884263200,8.94626318359375,-1.0102996826171875,-0.0237579345703125,-0.0063934326171875
1772867075894329000,8.9563291015625,-1.01019287109375,-0.0240478515625,-0.0054931640625
1772867075904395000,8.96639501953125,-1.011199951171875,-0.0237579345703125,-0.0058746337890625
1772867075914461200,8.976461181640625,-1.012176513671875,-0.0238800048828125,-0.006683349609375
1772867075924527000,8.986527099609376,-1.010772705078125,-0.02392578125,-0.0065765380859375
1772867075934593300,8.99659326171875,-1.0114288330078125,-0.0229339599609375,-0.00677490234375
1772867075944659200,9.0066591796875,-1.0106658935546875,-0.0237579345703125,-0.0058135986328125
1772867075954725400,9.016725341796874,-1.011474609375,-0.02386474609375,-0.0058746337890625
1772867075964791300,9.026791259765625,-1.01153564453125,-0.0234527587890625,-0.006500244140625
1772867075974857200,9.036857177734374,-1.0105438232421875,-0.023651123046875,-0.0061187744140625
1772867075984923100,9.046923095703125,-1.010772705078125,-0.0237274169921875,-0.0065460205078125
1772867075994989000,9.056989013671876,-1.0120697021484375,-0.0233154296875,-0.0066070556640625
1772867076005055200,9.06705517578125,-1.01092529296875,-0.023651123046875,-0.0058441162109375
1772867076015121200,9.07712109375,-1.0107269287109375,-0.0233154296875,-0.005645751953125
1772867076025187000,9.08718701171875,-1.0103302001953125,-0.0232086181640625,-0.00634765625
1772867076035253000,9.0972529296875,-1.0107421875,-0.0231170654296875,-0.0055999755859375
1772867076045319000,9.10731884765625,-1.0111083984375,-0.0229949951171875,-0.0070343017578125
1772867076055384800,9.117384765625,-1.010650634765625,-0.02301025390625,-0.0062255859375
1772867076065451000,9.127450927734374,-1.0120697021484375,-0.023162841796875,-0.0067138671875
1772867076075518000,9.13751806640625,-1.011138916015625,-0.0233612060546875,-0.006744384765625
1772867076085584000,9.147583984375,-1.0108795166015625,-0.023651123046875,-0.006805419921875
1772867076095650000,9.157650146484375,-1.0106658935546875,-0.023529052734375,-0.0062255859375
1772867076105716000,9.167716064453124,-1.010345458984375,-0.0231475830078125,-0.0067291259765625
1772867076115782100,9.1777822265625,-1.0103607177734375,-0.0225830078125,-0.006011962890625
1772867076125848000,9.18784814453125,-1.0103607177734375,-0.0235443115234375,-0.00634765625
1772867076135913700,9.197913818359375,-1.0109405517578125,-0.0236663818359375,-0.006591796875
1772867076145980000,9.20797998046875,-1.011260986328125,-0.022918701171875,-0.00701904296875
1772867076156045800,9.2180458984375,-1.011138916015625,-0.0236663818359375,-0.0068206787109375
1772867076166112000,9.228112060546875,-1.01080322265625,-0.0231170654296875,-0.0068359375
1772867076176178000,9.238177978515624,-1.0114593505859375,-0.023345947265625,-0.006317138671875
1772867076186244000,9.248244140625,-1.0104827880859375,-0.0232086181640625,-0.0062713623046875
1772867076196310000,9.25831005859375,-1.0104522705078125,-0.0228118896484375,-0.006744384765625
1772867076206376000,9.2683759765625,-1.01153564453125,-0.0232391357421875,-0.0064544677734375
1772867076216441900,9.27844189453125,-1.0101776123046875,-0.0227508544921875,-0.00628662109375
1772867076226507800,9.2885078125,-1.01055908203125,-0.02294921875,-0.006866455078125
1772867076236574000,9.298573974609376,-1.01171875,-0.023345947265625,-0.00579833984375
1772867076246639900,9.308639892578125,-1.010498046875,-0.023040771484375,-0.00616455078125
1772867076256706000,9.3187060546875,-1.0100250244140625,-0.0228424072265625,-0.0061492919921875
1772867076266772000,9.32877197265625,-1.01116943359375,-0.0229949951171875,-0.00665283203125
1772867076276838000,9.338837890625,-1.01123046875,-0.0234375,-0.005645751953125
1772867076286903800,9.34890380859375,-1.010833740234375,-0.02337646484375,-0.0060577392578125
1772867076296970000,9.358969970703125,-1.00970458984375,-0.0242919921875,-0.0066986083984375
1772867076307036000,9.369035888671876,-1.0111846923828125,-0.023681640625,-0.0059356689453125
1772867076317102000,9.37910205078125,-1.0104217529296875,-0.02435302734375,-0.006195068359375
1772867076327168000,9.38916796875,-1.0102386474609375,-0.023712158203125,-0.00634765625
1772867076337234000,9.39923388671875,-1.0109100341796875,-0.0244903564453125,-0.0066070556640625
1772867076347300000,9.409300048828126,-1.011505126953125,-0.0238494873046875,-0.00653076171875
1772867076357365800,9.41936572265625,-1.0103912353515625,-0.0232086181640625,-0.0065460205078125
1772867076367432000,9.429431884765625,-1.010986328125,-0.0238494873046875,-0.0057373046875
1772867076377497900,9.439497802734374,-1.012542724609375,-0.023223876953125,-0.005523681640625
1772867076387564000,9.44956396484375,-1.010528564453125,-0.0233917236328125,-0.0062408447265625
1772867076397630000,9.4596298828125,-1.011566162109375,-0.0234222412109375,-0.00640869140625
1772867076407696100,9.469696044921875,-1.0106353759765625,-0.0238037109375,-0.006195068359375
1772867076417762000,9.479761962890626,-1.0108184814453125,-0.0234375,-0.006988525390625
1772867076427827700,9.48982763671875,-1.0105743408203125,-0.02349853515625,-0.006439208984375
1772867076437894000,9.499893798828126,-1.011505126953125,-0.023590087890625,-0.0061798095703125
1772867076447959800,9.509959716796875,-1.01141357421875,-0.02362060546875,-0.0063323974609375
1772867076458026000,9.52002587890625,-1.0113067626953125,-0.0234375,-0.0062255859375
1772867076468092000,9.530091796875,-1.0112457275390625,-0.023162841796875,-0.005401611328125
1772867076478158000,9.540157958984375,-1.0112762451171875,-0.022796630859375,-0.005767822265625
1772867076488224000,9.55022412109375,-1.0113525390625,-0.023406982421875,-0.006744384765625
1772867076498290000,9.5602900390625,-1.01153564453125,-0.023345947265625,-0.0059661865234375
1772867076508355800,9.57035595703125,-1.011871337890625,-0.0236053466796875,-0.005950927734375
1772867076518422000,9.580422119140625,-1.0105743408203125,-0.0230560302734375,-0.0069122314453125
1772867076528488000,9.590488037109376,-1.011077880859375,-0.023681640625,-0.0058135986328125
1772867076538553900,9.600553955078125,-1.010650634765625,-0.02313232421875,-0.00555419921875
1772867076548620000,9.6106201171875,-1.0105438232421875,-0.0238800048828125,-0.0057525634765625
1772867076558686000,9.62068603515625,-1.0116119384765625,-0.0233001708984375,-0.0070037841796875
1772867076568752000,9.630752197265625,-1.01031494140625,-0.023101806640625,-0.0065765380859375
1772867076578817800,9.64081787109375,-1.01019287109375,-0.023040771484375,-0.0069732666015625
1772867076588884700,9.650884765625,-1.011627197265625,-0.0224151611328125,-0.006561279296875
1772867076598951000,9.660950927734374,-1.011871337890625,-0.0222625732421875,-0.0067138671875
1772867076609016800,9.671016845703125,-1.011444091796875,-0.0228729248046875,-0.005889892578125
1772867076619083000,9.6810830078125,-1.0110321044921875,-0.0231475830078125,-0.0055694580078125
1772867076629149000,9.69114892578125,-1.0113525390625,-0.023101806640625,-0.0064697265625
1772867076639215000,9.701215087890626,-1.01043701171875,-0.023284912109375,-0.00634765625
1772867076649281000,9.711281005859375,-1.01165771484375,-0.023529052734375,-0.0061492919921875
1772867076659347000,9.721346923828126,-1.0123138427734375,-0.022796630859375,-0.0071258544921875
1772867076669412900,9.731412841796875,-1.011932373046875,-0.0238037109375,-0.007598876953125
1772867076679478800,9.741478759765625,-1.0105743408203125,-0.0230560302734375,-0.006591796875
1772867076689545000,9.751544921875,-1.01123046875,-0.02392578125,-0.0067596435546875
1772867076699611000,9.76161083984375,-1.01068115234375,-0.024383544921875,-0.006378173828125
1772867076709677000,9.771677001953124,-1.011474609375,-0.024169921875,-0.0063018798828125
1772867076719743000,9.781742919921875,-1.01007080078125,-0.0240020751953125,-0.006591796875
1772867076729809200,9.79180908203125,-1.0099029541015625,-0.02392578125,-0.007049560546875
1772867076739874800,9.801874755859375,-1.009918212890625,-0.0243988037109375,-0.0070648193359375
1772867076749941000,9.81194091796875,-1.010894775390625,-0.0238800048828125,-0.0067291259765625
1772867076760007000,9.8220068359375,-1.01141357421875,-0.02423095703125,-0.0070037841796875
1772867076770072800,9.83207275390625,-1.0111846923828125,-0.0240325927734375,-0.006683349609375
1772867076780139000,9.842138916015625,-1.0114593505859375,-0.023712158203125,-0.006378173828125
1772867076790205000,9.852204833984375,-1.0110931396484375,-0.023284912109375,-0.007232666015625
1772867076800271000,9.86227099609375,-1.00970458984375,-0.0232696533203125,-0.0062713623046875
1772867076810336800,9.872336669921875,-1.0108795166015625,-0.0228424072265625,-0.00604248046875
1772867076820403000,9.88240283203125,-1.011962890625,-0.0234222412109375,-0.0070343017578125
1772867076830468900,9.89246875,-1.0112762451171875,-0.0234375,-0.006927490234375
1772867076840535000,9.90253515625,-1.0116119384765625,-0.023284912109375,-0.0063629150390625
1772867076850601000,9.91260107421875,-1.0103759765625,-0.0227203369140625,-0.0063629150390625
1772867076860667000,9.9226669921875,-1.01123046875,-0.023193359375,-0.0070648193359375
1772867076870733000,9.932733154296875,-1.0106353759765625,-0.0234375,-0.006317138671875
1772867076880799000,9.942799072265625,-1.0102996826171875,-0.0239715576171875,-0.005126953125
1772867076890865000,9.952864990234374,-1.0111846923828125,-0.022705078125,-0.006591796875
1772867076900930800,9.962930908203125,-1.010772705078125,-0.0228729248046875,-0.0063323974609375
1772867076910997000,9.9729970703125,-1.0118865966796875,-0.022491455078125,-0.0068206787109375
1772867076921063000,9.98306298828125,-1.01116943359375,-0.0235595703125,-0.00689697265625
1772867076931129000,9.993129150390626,-1.01116943359375,-0.023101806640625,-0.0071868896484375
1772867076941195000,10.003195068359375,-1.0114288330078125,-0.0235748291015625,-0.0069122314453125
1772867076951261000,10.013260986328126,-1.011077880859375,-0.0236358642578125,-0.00726318359375
1772867076961326800,10.023326904296875,-1.01031494140625,-0.0233306884765625,-0.007232666015625
1772867076971392800,10.033392822265625,-1.0107421875,-0.02349853515625,-0.0070343017578125
1772867076981459000,10.043458984375,-1.010284423828125,-0.023590087890625,-0.0064239501953125
1772867076991524900,10.05352490234375,-1.0108489990234375,-0.0239715576171875,-0.006439208984375
1772867077001591000,10.063591064453124,-1.010467529296875,-0.0234375,-0.0058746337890625
1772867077011657000,10.073656982421875,-1.0109710693359375,-0.0228424072265625,-0.006622314453125
1772867077021723100,10.08372314453125,-1.010711669921875,-0.0234375,-0.0064849853515625
1772867077031788500,10.09378857421875,-1.012115478515625,-0.023345947265625,-0.006011962890625
1772867077041854700,10.103854736328126,-1.011444091796875,-0.0236968994140625,-0.0068511962890625
1772867077051920400,10.11392041015625,-1.0108642578125,-0.0234527587890625,-0.00634765625
1772867077061986600,10.123986572265625,-1.0110321044921875,-0.0236663818359375,-0.0069122314453125
1772867077072052500,10.134052490234374,-1.011199951171875,-0.0233612060546875,-0.007080078125
1772867077082118400,10.144118408203125,-1.0115509033203125,-0.0222320556640625,-0.0062713623046875
1772867077092184600,10.1541845703125,-1.0111846923828125,-0.023651123046875,-0.0054931640625
1772867077102250500,10.16425048828125,-1.0115814208984375,-0.022796630859375,-0.006256103515625
1772867077112316700,10.174316650390624,-1.0107421875,-0.023284912109375,-0.0064239501953125
1772867077122382600,10.184382568359375,-1.011322021484375,-0.02325439453125,-0.006988525390625
1772867077132448500,10.194448486328126,-1.0110931396484375,-0.0225982666015625,-0.006805419921875
1772867077142514400,10.204514404296875,-1.0108184814453125,-0.022308349609375,-0.0070648193359375
1772867077152580600,10.21458056640625,-1.0108642578125,-0.0239715576171875,-0.0068511962890625
1772867077162646500,10.224646484375,-1.010498046875,-0.0242156982421875,-0.0063934326171875
1772867077172712400,10.23471240234375,-1.0118255615234375,-0.0233612060546875,-0.0066680908203125
1772867077182778600,10.244778564453124,-1.0119171142578125,-0.023681640625,-0.0061798095703125
1772867077192844500,10.254844482421875,-1.0119171142578125,-0.0235595703125,-0.00640869140625
1772867077202910500,10.264910400390624,-1.01025390625,-0.024383544921875,-0.006561279296875
1772867077212976400,10.274976318359375,-1.010894775390625,-0.02337646484375,-0.006072998046875
1772867077223042600,10.28504248046875,-1.0109405517578125,-0.0231170654296875,-0.0063629150390625
1772867077233108500,10.2951083984375,-1.0097808837890625,-0.0229949951171875,-0.0066680908203125
1772867077243174700,10.305174560546876,-1.0105438232421875,-0.0229949951171875,-0.007110595703125
1772867077253240600,10.315240478515625,-1.011322021484375,-0.0232696533203125,-0.0062255859375
1772867077263306500,10.325306396484375,-1.010498046875,-0.0232696533203125,-0.0062255859375
1772867077273372400,10.335372314453124,-1.0112152099609375,-0.023529052734375,-0.0060882568359375
1772867077283438300,10.345438232421875,-1.0113525390625,-0.0235137939453125,-0.0064849853515625
1772867077293504500,10.35550439453125,-1.01080322265625,-0.0228424072265625,-0.0059814453125
1772867077303570400,10.3655703125,-1.011322021484375,-0.0225677490234375,-0.0062103271484375
1772867077313636600,10.37563671875,-1.0104827880859375,-0.0233154296875,-0.0068206787109375
1772867077323702500,10.38570263671875,-1.0109405517578125,-0.0239105224609375,-0.0058441162109375
1772867077333768700,10.395768798828126,-1.0104827880859375,-0.0238494873046875,-0.0070037841796875
1772867077343834600,10.405834716796875,-1.0116424560546875,-0.023529052734375,-0.0076446533203125
1772867077353900500,10.415900634765626,-1.0110626220703125,-0.0240325927734375,-0.0067901611328125
1772867077363966500,10.425966552734375,-1.0107879638671875,-0.023590087890625,-0.0061798095703125
1772867077374032400,10.436032470703125,-1.011199951171875,-0.0241546630859375,-0.006683349609375
1772867077384098600,10.4460986328125,-1.0112457275390625,-0.0239105224609375,-0.00634765625
1772867077394164500,10.45616455078125,-1.0106964111328125,-0.023681640625,-0.006378173828125
1772867077404230700,10.466230712890624,-1.0109405517578125,-0.023101806640625,-0.007171630859375
1772867077414296600,10.476296630859375,-1.0110626220703125,-0.022857666015625,-0.0068817138671875
1772867077424362500,10.486362548828126,-1.0113067626953125,-0.02252197265625,-0.0059051513671875
1772867077434428400,10.496428466796875,-1.011260986328125,-0.0222015380859375,-0.0064239501953125
1772867077444494600,10.50649462890625,-1.0110015869140625,-0.0237274169921875,-0.0061798095703125
1772867077454560500,10.516560546875,-1.009979248046875,-0.02349853515625,-0.0057373046875
1772867077464626400,10.52662646484375,-1.0095062255859375,-0.022430419921875,-0.0066070556640625
1772867077474692600,10.536692626953124,-1.0108489990234375,-0.023223876953125,-0.0061187744140625
1772867077484758500,10.546758544921875,-1.012298583984375,-0.0226898193359375,-0.0064544677734375
1772867077494824400,10.556824462890624,-1.010467529296875,-0.023345947265625,-0.006866455078125
1772867077504890400,10.566890380859375,-1.009674072265625,-0.02288818359375,-0.0063018798828125
1772867077514956500,10.57695654296875,-1.009613037109375,-0.022979736328125,-0.006561279296875
1772867077525022500,10.5870224609375,-1.01165771484375,-0.023681640625,-0.0065460205078125
1772867077535088600,10.597088623046876,-1.0122833251953125,-0.02337646484375,-0.00616455078125
1772867077545154600,10.607154541015625,-1.0109405517578125,-0.023223876953125,-0.006622314453125
1772867077555220500,10.617220458984375,-1.01031494140625,-0.0242156982421875,-0.006744384765625
1772867077565286700,10.62728662109375,-1.01129150390625,-0.0239715576171875,-0.0066070556640625
1772867077575352300,10.637352294921875,-1.0087890625,-0.0235595703125,-0.0070037841796875
1772867077585418500,10.64741845703125,-1.010406494140625,-0.02459716796875,-0.0074462890625
1772867077595484400,10.657484375,-1.011688232421875,-0.023162841796875,-0.0065155029296875
1772867077605550600,10.667550537109374,-1.0110015869140625,-0.0238037109375,-0.0063934326171875
1772867077615616500,10.677616455078125,-1.01080322265625,-0.023681640625,-0.0071563720703125
1772867077625682700,10.6876826171875,-1.0110015869140625,-0.023681640625,-0.006500244140625
1772867077635748600,10.69774853515625,-1.0105743408203125,-0.02349853515625,-0.0066375732421875
1772867077645814500,10.707814453125,-1.010406494140625,-0.023193359375,-0.0059967041015625
1772867077655880400,10.71788037109375,-1.01104736328125,-0.0234375,-0.005615234375
1772867077665946400,10.7279462890625,-1.009857177734375,-0.0230560302734375,-0.0067901611328125
1772867077676012500,10.738012451171874,-1.0103607177734375,-0.023162841796875,-0.0051727294921875
1772867077686078500,10.748078369140625,-1.0107879638671875,-0.0233306884765625,-0.00616455078125
1772867077696144600,10.75814453125,-1.01080322265625,-0.023193359375,-0.0066375732421875
1772867077706210600,10.76821044921875,-1.011016845703125,-0.0230560302734375,-0.005401611328125
1772867077716276500,10.7782763671875,-1.0113372802734375,-0.022918701171875,-0.0058746337890625
1772867077726342400,10.78834228515625,-1.010406494140625,-0.0227508544921875,-0.0052642822265625
1772867077736408600,10.79840869140625,-1.0106353759765625,-0.0227508544921875,-0.0067291259765625
1772867077746474500,10.808474609375,-1.0121002197265625,-0.0225677490234375,-0.005889892578125
1772867077756540400,10.81854052734375,-1.012237548828125,-0.023101806640625,-0.0057830810546875
1772867077766606600,10.828606689453125,-1.01318359375,-0.0234832763671875,-0.006378173828125
1772867077776672500,10.838672607421875,-1.0114898681640625,-0.0243377685546875,-0.007232666015625
1772867077786738700,10.84873876953125,-1.0110626220703125,-0.0232391357421875,-0.007110595703125
1772867077796804400,10.858804443359375,-1.011566162109375,-0.0238037109375,-0.00628662109375
1772867077806870500,10.86887060546875,-1.00958251953125,-0.023040771484375,-0.006317138671875
1772867077816936400,10.8789365234375,-1.0105133056640625,-0.0234832763671875,-0.006256103515625
1772867077827002600,10.889002685546876,-1.010040283203125,-0.0232086181640625,-0.006439208984375
1772867077837068500,10.899068603515625,-1.0112457275390625,-0.02337646484375,-0.006317138671875
1772867077847134500,10.909134521484376,-1.0092620849609375,-0.023681640625,-0.0065460205078125
1772867077857200600,10.91920068359375,-1.0131378173828125,-0.0240020751953125,-0.0052490234375
1772867077867266300,10.929266357421875,-1.0087432861328125,-0.022918701171875,-0.0068206787109375
1772867077877332500,10.93933251953125,-1.01171875,-0.0235443115234375,-0.0062713623046875
1772867077887398400,10.9493984375,-1.009185791015625,-0.02410888671875,-0.0074615478515625
1772867077897464600,10.959464599609374,-1.0104522705078125,-0.0254364013671875,-0.0078125
1772867077907530500,10.969530517578125,-1.0112762451171875,-0.0236358642578125,-0.0058441162109375
1772867077917596700,10.9795966796875,-1.0111083984375,-0.0218963623046875,-0.0071868896484375
1772867077927662600,10.98966259765625,-1.010406494140625,-0.0229339599609375,-0.0072021484375
1772867077937728500,10.999728515625,-1.011322021484375,-0.024383544921875,-0.0057830810546875
1772867077947794400,11.00979443359375,-1.0103607177734375,-0.0248565673828125,-0.0067901611328125
1772867077957860400,11.0198603515625,-1.011383056640625,-0.0244903564453125,-0.0067596435546875
1772867077967926500,11.029926513671874,-1.01043701171875,-0.02276611328125,-0.006805419921875
1772867077977992400,11.039992431640625,-1.0102386474609375,-0.0218963623046875,-0.0058441162109375
1772867077988058600,11.05005859375,-1.0113372802734375,-0.0226898193359375,-0.00628662109375
1772867077998124500,11.06012451171875,-1.0112457275390625,-0.023895263671875,-0.005889892578125
1772867078008190700,11.070190673828124,-1.0110931396484375,-0.0231475830078125,-0.007080078125
1772867078018256400,11.08025634765625,-1.010650634765625,-0.02191162109375,-0.00616455078125
1772867078028322600,11.090322509765626,-1.0113983154296875,-0.0214996337890625,-0.0056915283203125
1772867078038388500,11.100388427734375,-1.0104217529296875,-0.0218963623046875,-0.005157470703125
1772867078048454400,11.110454345703126,-1.0108184814453125,-0.023162841796875,-0.0057220458984375
1772867078058520600,11.1205205078125,-1.0109710693359375,-0.0245361328125,-0.00677490234375
1772867078068586500,11.13058642578125,-1.00994873046875,-0.0229339599609375,-0.005950927734375
1772867078078652700,11.140652587890624,-1.011322021484375,-0.0223541259765625,-0.006805419921875
1772867078088718300,11.15071826171875,-1.011688232421875,-0.0230255126953125,-0.0069427490234375
1772867078098784500,11.160784423828124,-1.0121917724609375,-0.0235748291015625,-0.00677490234375
1772867078108850400,11.170850341796875,-1.011962890625,-0.0240936279296875,-0.0065155029296875
1772867078118916600,11.18091650390625,-1.0112457275390625,-0.0232391357421875,-0.006317138671875
1772867078128982500,11.190982421875,-1.0113983154296875,-0.0224761962890625,-0.0060577392578125
1772867078139048700,11.201048583984376,-1.0108642578125,-0.0225067138671875,-0.0067596435546875
1772867078149114600,11.211114501953125,-1.0117950439453125,-0.02264404296875,-0.006988525390625
1772867078159180500,11.2211806640625,-1.0101776123046875,-0.0235137939453125,-0.0062713623046875
1772867078169246500,11.23124658203125,-1.01068115234375,-0.0229949951171875,-0.0070343017578125
1772867078179312400,11.2413125,-1.010406494140625,-0.0232696533203125,-0.00689697265625
1772867078189378600,11.251378662109374,-1.01104736328125,-0.023162841796875,-0.0063629150390625
1772867078199444500,11.261444580078125,-1.0116119384765625,-0.023895263671875,-0.0073089599609375
1772867078209510700,11.2715107421875,-1.0115966796875,-0.024444580078125,-0.00701904296875
1772867078219576600,11.28157666015625,-1.0107879638671875,-0.0233154296875,-0.00616455078125
1772867078229642800,11.291642822265626,-1.0105438232421875,-0.023651123046875,-0.00634765625
1772867078239708400,11.30170849609375,-1.0101318359375,-0.02325439453125,-0.00665283203125
1772867078249774300,11.3117744140625,-1.009307861328125,-0.02337646484375,-0.0052490234375
1772867078259840500,11.321840576171875,-1.0096588134765625,-0.0233612060546875,-0.0062255859375
1772867078269906400,11.331906494140625,-1.010040283203125,-0.023651123046875,-0.0069580078125
1772867078279972600,11.34197265625,-1.0106964111328125,-0.0228729248046875,-0.0064849853515625
1772867078290038500,11.35203857421875,-1.0103912353515625,-0.022979736328125,-0.006622314453125
1772867078300103400,11.362103515625,-1.0030975341796875,-0.021087646484375,-0.0066680908203125
1772867078310169300,11.37216943359375,-1.017822265625,-0.02337646484375,-0.007080078125
1772867078320235500,11.382235595703126,-1.0076751708984375,-0.0235748291015625,-0.0059967041015625
1772867078330301400,11.392301513671875,-1.0161590576171875,-0.0226593017578125,-0.00579833984375
1772867078340367600,11.40236767578125,-1.010650634765625,-0.02276611328125,-0.006103515625
1772867078350433500,11.41243359375,-1.010101318359375,-0.0232696533203125,-0.006744384765625
1772867078360499700,11.422499755859375,-1.011627197265625,-0.0223846435546875,-0.005767822265625
1772867078370565400,11.4325654296875,-1.010101318359375,-0.0227508544921875,-0.00616455078125
1772867078380631600,11.442631591796875,-1.0110626220703125,-0.0229644775390625,-0.0057830810546875
1772867078390697500,11.452697509765626,-1.01116943359375,-0.0237884521484375,-0.0072784423828125
