time,seconds_elapsed,z,y,x
1772797369844706800,0.102706787109375,-0.7602525506019592,0.7936496471606195,0.7381735513933002
1772797369854733000,0.112733154296875,-1.4958645809441804,0.8193678065892308,0.9459557394772767
1772797369864759000,0.122759033203125,-1.8006266954421997,0.8110013255864381,1.1216166961573064
1772797369874785000,0.132784912109375,-1.7937410275816916,0.7208173429228365,1.2090811907291412
1772797369884811000,0.14281103515625,-1.4980851796030998,0.5638677721818909,1.1890955105379224
1772797369894837000,0.1528369140625,-0.918435279867053,0.34455676660668105,1.1265994530059396
1772797369904863000,0.162863037109375,-0.19266542910337447,0.0855371067058295,1.0636375315278768
1772797369914889000,0.172888916015625,0.4872510175019502,-0.08932256179498509,1.0109900833152234
1772797369924915000,0.1829150390625,0.9056967943251133,-0.20539280872941015,1.0375022426657379
1772797369934941000,0.19294091796875,1.048815809971094,-0.23578993802079928,1.0746164600513874
1772797369944967000,0.202966796875,1.0834726973325013,-0.15256731880242005,1.1732643196776509
1772797369954994000,0.212993896484375,1.1312573618143795,-0.09938174512507393,1.3977876530736684
1772797369965020000,0.22302001953125,1.139623039099574,0.000976462083030492,1.5680324299238622
1772797369975046000,0.2330458984375,1.1326567072182894,0.16138156183902172,1.6052200048066674
1772797369985071900,0.24307177734375,1.1208639780938625,0.23007446471713483,1.5932104180611668
1772797369995097900,0.253097900390625,1.220318039536476,0.29265001722611483,1.4793578289099036
1772797370005123800,0.263123779296875,1.2003186230808496,0.2821817051058635,1.400847332905233
1772797370015149800,0.27314990234375,1.1531979754656552,0.22407778158560393,1.2337325246438384
1772797370025175800,0.28317578125,1.126485909628868,0.2319714574448764,1.0497263489447533
1772797370035201800,0.293201904296875,1.0732090774714946,0.23020075797792522,0.8493287181541324
1772797370045228000,0.30322802734375,0.9591869769722223,0.2640184545688331,0.7260054130852222
1772797370055254000,0.31325390625,0.8396516660094261,0.39707762929759916,0.6381251773193478
1772797370065280000,0.323280029296875,0.6336755044341087,0.4865162369539961,0.6184516318172216
1772797370075306000,0.333305908203125,0.27063597301244735,0.4668003136148676,0.5594792183667421
1772797370085332000,0.34333203125,-0.19973054518401623,0.36739973592516034,0.4005199517711997
1772797370095358000,0.35335791015625,-0.6011988837212324,0.2064414409995079,0.2394878244243562
1772797370105384000,0.363384033203125,-0.9180857357770204,0.0016121113717555999,0.19376140764653682
1772797370115410000,0.373409912109375,-1.2429016272664068,-0.24630050011388957,0.17923033959940074
1772797370125436000,0.383435791015625,-1.3919202223449945,-0.11024762346185743,-0.19879151076823473
1772797370135463000,0.393462890625,-1.2188795311659575,-0.27995277701001614,-0.26621304200366136
1772797370145489000,0.403489013671875,-0.8060738060563802,-0.6168853323485702,-0.12178323602005839
1772797370155515000,0.413514892578125,-0.17907587969005107,-0.7456613498654217,-0.09892930691614746
1772797370165540900,0.423540771484375,0.4469622617334127,-0.9629446490053087,0.08309913896918296
1772797370175566800,0.43356689453125,0.8666554082691669,-1.2557456190094352,0.28009602140560746
1772797370185592800,0.4435927734375,0.9586813655376434,-1.5316463806822895,0.24320392233803867
1772797370195618800,0.453618896484375,0.8270902906000613,-1.8177536252014337,-0.01875043930783868
1772797370205644800,0.463644775390625,0.5529606302529573,-2.0803600210152564,-0.13969021024107933
1772797370215670800,0.4736708984375,0.2725508667230606,-2.137743411708623,-0.03991290819346904
1772797370225696800,0.48369677734375,-0.1315560036242008,-1.9926123255878685,0.18825243496671318
1772797370235722800,0.49372265625,-0.4461176276028156,-1.7788105849534273,0.5958550384752452
1772797370245749000,0.5037490234375,-0.798700062417984,-1.4604220961630343,1.0454721986316144
1772797370255775000,0.51377490234375,-1.308945002016425,-1.2026592679228634,1.5817892987281084
1772797370265801000,0.523801025390625,-1.7261492543458938,-0.9615184886597097,2.0159442474670706
1772797370275827000,0.533826904296875,-1.9866402654409407,-0.881259249291569,2.2519839772641657
1772797370285853000,0.54385302734375,-2.1103128223389387,-1.0669305086586625,2.2551054702855646
1772797370295880000,0.5538798828125,-2.210080187514424,-1.3083452825576065,1.8272304785989224
1772797370305906000,0.563906005859375,-2.268150683689117,-1.8275174788467585,1.225820582475513
1772797370315932000,0.573931884765625,-2.1823002001851797,-2.4336250312671064,0.4413794931650161
1772797370325958000,0.5839580078125,-2.0789947240114213,-2.6831416438832876,-0.3562174303166568
1772797370335983900,0.59398388671875,-2.0775386799842117,-2.688307356083393,-0.47567543825954195
1772797370346009900,0.604009765625,-1.995849407812953,-2.181625954185426,0.060680678673088545
1772797370356035800,0.614035888671875,-1.7485311820238827,-1.5185051595583556,1.0224106181263923
1772797370366061800,0.624061767578125,-1.0981745919018984,-1.0371850664753466,1.935961194691807
1772797370376087800,0.634087890625,-0.4904688105046749,-0.7511882235281169,2.5469591495022175
1772797370386114600,0.644114501953125,-0.501475942209363,-0.43137613167539235,2.735363121768832
1772797370396140500,0.654140625,-1.378392632251978,-0.20407471186816692,2.4522955372065303
1772797370406166800,0.664166748046875,-2.0721125632822512,-0.3118310299709439,2.354561285293847
1772797370416192800,0.67419287109375,-2.2875755151271817,-0.28175211804956196,2.378009527029097
1772797370426218800,0.68421875,-2.077601223826408,-0.20072949309349059,2.6103596085280176
1772797370436244700,0.69424462890625,-1.478358734869957,0.026972835664823648,2.740609497989714
1772797370446270700,0.704270751953125,-0.7677905448913573,0.16103592673912642,2.806805725213885
1772797370456297700,0.714297607421875,0.14795301167368888,0.2825846233509481,2.7008693160146473
1772797370466323700,0.72432373046875,0.9731623108327389,0.3632468905620277,2.5027640339449047
1772797370476349700,0.734349609375,1.5410755955457687,0.4616478992877528,2.3662995077520605
1772797370486375700,0.744375732421875,1.9121715921729803,0.6159240861009806,2.2051528141148387
1772797370496401700,0.754401611328125,1.9740654460281133,0.7764195492878556,2.0719098803170026
1772797370506427600,0.764427734375,1.8850421777069568,0.9816996914230286,1.8609088763169943
1772797370516453600,0.77445361328125,1.6390402952134608,1.2648995240628718,1.6483669264853
1772797370526479600,0.784479736328125,1.4573521871984003,1.4767244116663931,1.3793968408584594
1772797370536505600,0.794505615234375,1.3449959740847348,1.631986577309668,1.0177481792733072
1772797370546531600,0.804531494140625,1.2285825945347546,1.6688064879238604,0.6013445758022368
1772797370556557600,0.8145576171875,1.2896861747950314,1.6908295191615819,0.24990341997668145
1772797370566583600,0.82458349609375,1.1394693098425865,1.551673561927676,0.01705064965263009
1772797370576609500,0.834609619140625,0.39503859775066374,1.310346831638366,-0.08874167490079998
1772797370586635500,0.844635498046875,-0.6100362701714038,1.1189126978956163,-0.147257138364017
1772797370596662800,0.854662841796875,-1.6534662954509258,0.914333251375705,0.07603314610570669
1772797370606688800,0.864688720703125,-2.5766964083790778,0.7430384540159255,0.34664763793870806
1772797370616714800,0.87471484375,-3.1789895170778033,0.7339145787745713,0.5736722866311669
1772797370626740700,0.88474072265625,-3.3100440009206533,0.762431063684821,0.8303878708407282
1772797370636766700,0.8947666015625,-3.02692322486639,0.7101058331638574,1.0102207063779234
1772797370646792700,0.904792724609375,-2.3715596202373503,0.547508940718323,0.9927391179621219
1772797370656818700,0.914818603515625,-1.4228162958681583,0.2767396236497909,0.704715810688585
1772797370666844700,0.9248447265625,-0.33861119260787964,0.038410102415084836,0.3683724168822169
1772797370676870700,0.93487060546875,0.4629670555949211,-0.13731384563171303,0.052776773680746555
1772797370686896600,0.944896728515625,0.9913491249084472,-0.18290756680741904,-0.0826585555948317
1772797370696923000,0.9549228515625,1.370512692657113,-0.1724965743649751,-0.1118682834662497
1772797370706948900,0.964948974609375,1.54834646333158,-0.13586013055890797,-0.061553954376280307
1772797370716974800,0.974974853515625,1.472427591255307,-0.030958105908706783,0.0703388799868524
1772797370727001600,0.985001708984375,1.2251999663591384,0.09686338736228645,0.1663169358819723
1772797370737027600,0.995027587890625,0.9510369882643223,0.11081073723733424,0.2405930091872811
1772797370747053600,1.005053466796875,0.8265583756804465,0.103560035456717,0.2923074143335223
1772797370757079600,1.01507958984375,0.7489625103026628,0.13185812837593255,0.22898367380574344
1772797370767105500,1.02510546875,0.8337930031090974,0.09724084237255155,0.15253464037552475
1772797370777131800,1.0351318359375,0.8723007206797599,0.08649879134483635,0.1259386021338403
1772797370787157800,1.04515771484375,0.9066530721366405,0.15309044762738047,0.13356851249039173
1772797370797183700,1.055183837890625,0.9151555275440215,0.18092574534043668,0.18585005000010132
1772797370807209700,1.065209716796875,1.0970137314289807,0.2497949911661446,0.3069683923706412
1772797370817235700,1.075235595703125,1.3673463375806807,0.30916670613251623,0.5467100454255939
1772797370827261700,1.08526171875,1.5439239707142114,0.3239320213269442,0.7819514644518494
1772797370837287700,1.09528759765625,1.6382774941474199,0.3385375428497791,0.9205141319677234
1772797370847313700,1.105313720703125,1.5836393105089663,0.3610976035736501,0.9827689280897378
1772797370857340700,1.115340576171875,1.4414075990915298,0.33355635690372437,0.9395254141688346
1772797370867367000,1.125366943359375,1.3044593810349703,0.33823731779418886,0.8289945167861879
1772797370877393000,1.135392822265625,1.1368903992652892,0.2987573211252689,0.7275485508739948
1772797370887418600,1.145418701171875,1.0314531717598439,0.2466120868137106,0.5675567263603211
1772797370897444600,1.155444580078125,1.050095328387618,0.17033402603622524,0.3460065635561943
1772797370907470600,1.165470703125,1.2070792032569646,0.03798840640429407,0.11728227133899927
1772797370917496600,1.17549658203125,1.3737293166160582,-0.04217274288423359,-0.14672273922637105
1772797370927522600,1.1855224609375,1.4037462692171334,-0.0522964428178966,-0.3565820258453488
1772797370937548500,1.195548583984375,1.2624667439579962,-0.09591686375979333,-0.3822156487956643
1772797370947574500,1.205574462890625,0.9306143779605627,-0.19388817583136259,-0.2874740028277039
1772797370957600500,1.2156005859375,0.4285848935216665,-0.3223744896866381,-0.1314823538661003
1772797370967626500,1.22562646484375,-0.14111819721758365,-0.4508504282783717,0.03859408067986369
1772797370977653800,1.23565380859375,-0.769932233095169,-0.6486473019860685,0.17519056268930433
1772797370987679700,1.2456796875,-1.3657833260476588,-0.9068453798383473,0.18248247326314448
1772797370997705700,1.255705810546875,-1.859502078258991,-1.2027343059204518,0.09459785358309745
1772797371007731700,1.265731689453125,-2.309114562240243,-1.5673169751308857,-0.07074629174396395
1772797371017757700,1.2757578125,-2.6411124741882084,-2.052358938281238,-0.4121725417725742
1772797371027783700,1.28578369140625,-2.793241894763708,-2.6612895852982996,-0.8988044044628739
1772797371037809700,1.2958095703125,-2.712546309804916,-3.363704863959551,-1.474652135436982
1772797371047835600,1.305835693359375,-2.7867139542996884,-3.9524130994200704,-2.0279070724613963
1772797371057861600,1.315861572265625,-2.984256049528718,-4.351355718871951,-2.410172405617684
1772797371067887900,1.325887939453125,-3.1943694570392367,-4.624618825517595,-2.550213475123048
1772797371077913900,1.335913818359375,-3.141103146275878,-4.580406174303591,-2.3425188191920516
1772797371087939800,1.34593994140625,-2.383113864430785,-4.022792749808729,-1.7053475815966723
1772797371097966600,1.355966552734375,-1.0989859082847833,-2.972692452985048,-0.9307653307385743
1772797371107992600,1.36599267578125,-0.619148381909728,-1.7797062186188994,-0.0015044132135808466
1772797371118018600,1.3760185546875,-0.8506617203235626,-1.0203579964455216,1.4774908659942447
1772797371128044500,1.38604443359375,-1.8108762867778538,-0.1949940181814134,2.214495373608172
1772797371138070500,1.396070556640625,-3.1901649910867214,0.6851433144081384,2.086006064078212
1772797371148096500,1.406096435546875,-4.016491896098852,0.838617792917043,2.000387343503535
1772797371158122800,1.416122802734375,-4.745907994410396,1.0553693232677877,1.912945353024453
1772797371168148700,1.426148681640625,-4.154142709466814,1.2877620748646557,1.786630611054599
1772797371178174700,1.4361748046875,-2.3768834456086156,1.5532352582864462,1.52206387495324
1772797371188200700,1.44620068359375,-0.5883166057944298,1.7073660818122327,1.3712620497196912
1772797371198226700,1.456226806640625,1.1825099946677684,1.6979583481281995,1.286829908581078
1772797371208252700,1.466252685546875,2.1359248179793355,1.683590361688286,1.2139014504924417
1772797371218279700,1.47627978515625,1.6098744064837693,1.8227014568671582,1.3609990143805741
1772797371228305700,1.4863056640625,2.961504119494557,2.0222987310603258,0.9689272305462509
1772797371238332000,1.496331787109375,4.653556458449364,1.9364535082533954,0.5230657696615905
1772797371248358000,1.50635791015625,5.410232319608331,1.6680290738105772,0.1324910194519907
1772797371258384000,1.5163837890625,5.622502028369904,1.6265698129579425,-0.40748204586878417
1772797371268409900,1.526409912109375,5.193386388972401,1.5226193168789148,-1.0923169519148765
1772797371278435600,1.536435546875,4.842819970154762,1.5227894127488135,-1.5939311335511506
1772797371288461600,1.546461669921875,4.048140833815932,1.4812170469105244,-2.067326351919025
1772797371298487600,1.556487548828125,3.299128054630756,1.4410253217756748,-2.120804113475978
1772797371308513500,1.566513427734375,2.762827467277646,1.5780780231200158,-1.9747513824656604
1772797371318539500,1.57653955078125,2.415141572332382,1.5316696154274045,-1.595692298004776
1772797371328565500,1.5865654296875,1.8078344348639248,1.510591609954834,-1.1824946509681642
1772797371338592800,1.5965927734375,0.7144301261037588,1.6052945313476026,-0.8503962012551725
1772797371348618800,1.60661865234375,-0.27615035251975056,1.7074636969678103,-0.5138533393539488
1772797371358644700,1.616644775390625,-0.869057208713889,1.848700405998528,-0.20531667475327847
1772797371368670700,1.626670654296875,-1.0258505294471978,1.9890994951613246,0.09008256811574102
1772797371378696700,1.63669677734375,-0.7894605249077081,1.9809610507607458,0.35763263087682423
1772797371388722000,1.646721923828125,-0.486119383123517,1.8029490009099245,0.5078059489484876
1772797371398748000,1.656747802734375,-0.25569091733694077,1.5654384679079054,0.47710985497683284
1772797371408774000,1.66677392578125,-0.07993979815542697,1.2213552736297248,0.36364692273028193
1772797371418800000,1.676800048828125,-0.04231821576952934,0.7389934164088219,0.21405089308992026
1772797371428826000,1.686826171875,-0.08530629362463951,0.22826343323979525,0.027392303185909985
1772797371438852000,1.69685205078125,0.028708208090066908,-0.241625055648759,-0.12479513118714093
1772797371448879000,1.706879150390625,0.37452889368534087,-0.7813265374865382,-0.11614822580777108
1772797371458905000,1.716905029296875,0.7191600772351026,-1.0926575820460915,-0.1290019352272153
1772797371468931000,1.72693115234375,0.8633107740163802,-1.3910859634779393,-0.12975048857219518
1772797371478957000,1.73695703125,0.9816349556237458,-1.6531695044614374,0.08254230880402028
1772797371488983000,1.746983154296875,0.9114069886654614,-1.477090322369337,0.2672674464274198
1772797371499008800,1.7570087890625,0.8126017465204,-1.360389650310576,0.6628473114479333
1772797371509035000,1.767034912109375,0.8003694569349289,-1.284679744809866,0.9658889588288962
1772797371519061000,1.77706103515625,0.7659685901612043,-1.1624077023595571,1.1249201946821064
1772797371529087000,1.7870869140625,0.5459393533140421,-1.068268552329391,1.1842601993359625
1772797371539113000,1.797113037109375,0.18744740219414233,-0.9636294894643127,1.1071952259644866
1772797371549139000,1.807138916015625,-0.013089198675751685,-0.9592048779550939,0.923326120648533
1772797371559166000,1.817166015625,-0.1488017374575138,-0.9687904524240643,0.6156665311433375
1772797371569192000,1.82719189453125,-0.34126842911839483,-0.9700302964173256,0.28822774380445476
1772797371579218000,1.837218017578125,-0.16224457187652586,-0.8328479773439467,-0.1310489308848977
1772797371589244200,1.847244140625,-0.3821002057224512,-0.783061398455128,-0.5142468687161803
1772797371599270100,1.857270263671875,-0.8806178826481104,-0.830958948726952,-0.7230554772384464
1772797371609296100,1.867296142578125,-1.1477467243224382,-0.8550767602868378,-1.1071274214252829
1772797371619322000,1.877322021484375,-1.4022861335366963,-0.8962399608023465,-1.529423297805339
1772797371629348000,1.88734814453125,-1.5082909317970274,-1.0474608882308005,-1.7782108654946087
1772797371639374000,1.8973740234375,-1.345721365749836,-1.1469525052048266,-1.905437315481901
1772797371649400000,1.907400146484375,-1.1937217090338468,-1.217828268547356,-1.7479177263006567
1772797371659426000,1.917426025390625,-1.064202179673314,-1.141438710219413,-1.3255704119943081
1772797371669452000,1.9274521484375,-1.1623375597327947,-0.8802648314267396,-0.8103084479514508
1772797371679479000,1.93747900390625,-1.3295219260990618,-0.6303123116113245,-0.2798819402635097
1772797371689505000,1.947505126953125,-1.3617021942138672,-0.5679070011027157,0.06633315147683023
1772797371699531000,1.957531005859375,-1.1593091518223284,-0.6558930353306234,0.11105733240954577
1772797371709557000,1.967556884765625,-0.8257511509507894,-0.7765706481963396,-0.09895268779173493
1772797371719583000,1.9775830078125,-0.6447896036446095,-0.8349184269424528,-0.34378581876680253
1772797371729609000,1.98760888671875,-0.7747901945203542,-0.869001386873424,-0.42477424919232726
1772797371739635000,1.997635009765625,-1.0234487290024756,-0.7801666999269277,-0.39500184593684967
1772797371749661000,2.007660888671875,-1.2289946824669837,-0.748276719995588,-0.3126842857994139
1772797371759687000,2.01768701171875,-1.3258031978368758,-0.8540018245317041,-0.25342845229767264
1772797371769713000,2.027712890625,-1.355652392655611,-1.045897584436834,-0.20943930764123797
1772797371779739000,2.03773876953125,-1.3972107299685477,-1.3360098268136382,-0.1490980900555849
1772797371789766100,2.04776611328125,-1.65720665102303,-1.556243061800301,-0.17668810777068136
1772797371799792000,2.057792236328125,-1.908346480926871,-1.536130832619965,-0.1498710471894592
1772797371809818000,2.067818115234375,-1.7720424059927462,-1.3862375005334615,-0.1965541801702231
1772797371819844000,2.077843994140625,-1.1521423289328814,-1.1339994270641356,-0.2019623228240758
1772797371829870000,2.0878701171875,-1.3166577683508396,-0.6335647375360131,0.037902225958183405
1772797371839896000,2.09789599609375,-2.6480466573655606,-0.2252170878138393,0.7059576274432241
1772797371849922000,2.107922119140625,-3.7976919087857004,0.09118008102886378,1.3694672752574086
1772797371859948000,2.117947998046875,-4.22198173546195,0.2263249029252678,1.8550360387608409
1772797371869974000,2.12797412109375,-3.7570875111967323,0.2311775305882096,2.487270988997817
1772797371880000000,2.138,-2.853524806290865,0.6542122426368295,2.9661043067663906
1772797371890026000,2.14802587890625,-1.8409370785206556,0.8129764250516891,3.1721482728809116
1772797371900052000,2.158052001953125,-0.5732949777513742,0.6002415829963982,3.3469194411143657
1772797371910079000,2.168078857421875,0.62807812281847,0.5203851522754878,3.1006793659508225
1772797371920105000,2.17810498046875,1.6607593750685452,0.4712797971164807,2.8050518672838805
1772797371930131000,2.188130859375,2.4953917516112325,0.35894838965050874,2.4965730703502893
1772797371940157000,2.198156982421875,2.8548773899435997,0.2814655561931431,2.0919316547349096
1772797371950183000,2.208182861328125,3.050568304347992,0.3396137207139283,1.6968731832399964
1772797371960209200,2.218209228515625,2.8904297648400066,0.455055844078958,1.3523704483754933
1772797371970235100,2.228235107421875,2.217016708779335,0.6882793474115431,0.887474324414134
1772797371980261000,2.23826123046875,1.423245919457078,1.0461164878845215,0.44699360671974714
1772797371990287000,2.248287109375,0.7901888391822576,1.2618226008355617,0.14307649167850614
1772797372000313000,2.25831298828125,0.4899859954237938,1.3669899253584443,-0.24718305510208008
1772797372010339000,2.268339111328125,0.35983401337862014,1.3744595305867493,-0.56012657635957
1772797372020366000,2.278365966796875,0.16475918504595755,1.1548089908588677,-0.7517255452752113
1772797372030391800,2.288391845703125,-0.14054711933135985,0.9013318040486424,-0.8710068814769387
1772797372040417800,2.298417724609375,-0.5524141022861003,0.6759932818122207,-0.8050172096755355
1772797372050444000,2.308444091796875,-0.9318260918378829,0.4997632200073451,-0.5198748646657914
1772797372060470000,2.318469970703125,-1.0970973180592059,0.4980197738735005,-0.09343144015222787
1772797372070496000,2.32849609375,-1.0088777673363685,0.5506923565274104,0.39695261467844245
1772797372080522000,2.33852197265625,-0.632229397279024,0.565644353400357,0.8296150598373263
1772797372090548000,2.3485478515625,0.009116787913441657,0.5354674609972164,1.0422666075233369
1772797372100574000,2.358573974609375,0.6134791041016578,0.25790578037481754,1.0828714435037226
1772797372110600000,2.368599853515625,0.9723685301065444,-0.25414646437391636,0.8910098050639033
1772797372120626000,2.3786259765625,1.005743560963869,-0.7557179028470069,0.5181006946001202
1772797372130653000,2.38865283203125,0.9227139800995587,-1.2768971281096337,0.0384955887414515
1772797372140679200,2.39867919921875,0.579763296982646,-1.707311721276492,-0.3312485548853874
1772797372150705200,2.408705078125,0.2617985865622759,-1.7445860976599157,-0.2676788767725229
1772797372160731100,2.418731201171875,0.1463350550830364,-1.5230800662584603,-0.0321861863989383
1772797372170757000,2.428757080078125,0.5962228488743305,-1.3758362257674335,0.18269626214429735
1772797372180783000,2.438783203125,1.4230653021931647,-1.1953599777601658,0.3057207303971052
1772797372190809000,2.44880908203125,2.343575050246715,-1.0744943680416792,0.45903497684299943
1772797372200835000,2.4588349609375,2.813147203195095,-0.8974541588976979,0.5439698798719793
1772797372210861000,2.468861083984375,2.5832424690216778,-0.6113316072115674,0.47299854720048606
1772797372220887000,2.478886962890625,2.0822171931892632,-0.38841216534823175,0.440175451137498
1772797372230913000,2.4889130859375,1.9170517654299735,-0.23152740347180514,0.46211774528920646
1772797372240939000,2.49893896484375,2.2682442071914672,-0.039537462477199734,0.42682007580623027
1772797372250966000,2.508966064453125,2.808262938284874,0.0858786866851151,0.3937557913985103
1772797372260992000,2.518991943359375,3.3494436988949774,0.22657306900005786,0.37774230277389287
1772797372271018000,2.52901806640625,3.5032933673918247,0.36202801629155873,0.37183198275156315
1772797372281044000,2.5390439453125,3.2022815453380344,0.48816257938891644,0.3750204035293311
1772797372291070000,2.549070068359375,2.6470933021634817,0.5980202536851167,0.36013745330460367
1772797372301096000,2.559095947265625,2.038863789153099,0.6819114198148251,0.37590054736472667
1772797372311122000,2.569121826171875,1.3479191680550575,0.7170687309790402,0.43483905854560434
1772797372321148000,2.57914794921875,0.8028864081919193,0.7536597282081842,0.445932699489966
1772797372331174000,2.589173828125,0.4387859695404768,0.7216735213607549,0.3414122945684939
1772797372341200100,2.5992001953125,-0.03235328659415245,0.6624240445345639,0.18021474752686917
1772797372351226000,2.60922607421875,-0.6690028384029865,0.6048466656390578,-0.06408208461441099
1772797372361253000,2.619253173828125,-1.3282581897735595,0.5022617222921922,-0.3230626180812716
1772797372371279000,2.629279052734375,-1.896250384941697,0.4383373855227604,-0.5208141182772815
1772797372381305000,2.63930517578125,-2.3307862958222625,0.24401392354667184,-0.6515072945270687
1772797372391331000,2.6493310546875,-2.615424490702152,-0.03231974965073168,-0.8133510305177419
1772797372401357000,2.659357177734375,-2.723376915898919,-0.2828718062618747,-1.011740317160636
1772797372411383000,2.669383056640625,-2.7156922066152096,-0.7123153259068727,-1.044356054083258
1772797372421409000,2.679408935546875,-2.586171508210897,-1.266065060710907,-1.12819585535191
1772797372431435000,2.68943505859375,-2.3612474850594998,-1.7723948726922272,-1.2615109045378863
1772797372441461000,2.6994609375,-2.1668378426373005,-2.5032699376404284,-1.5019630439497529
1772797372451487000,2.709487060546875,-2.001171479618549,-3.2678003116920586,-2.1285345615975557
1772797372461513000,2.719512939453125,-1.896216482672095,-3.8467666130781173,-2.5895032829821107
1772797372471539000,2.7295390625,-1.977238230845332,-4.127963435332477,-2.8853718969285485
1772797372481566000,2.73956591796875,-1.95836811068058,-3.825886906656623,-2.663800691336393
1772797372491592000,2.749592041015625,-1.6830641458570956,-3.064234718389809,-1.7277908840730785
1772797372501618000,2.759617919921875,-1.3785785102128982,-2.1126500331148503,-0.19271876672580837
1772797372511644200,2.76964404296875,-1.741768263760209,-1.023136521248147,1.0974473005406558
1772797372521670100,2.779670166015625,-2.445280105486512,-0.15849754910161717,1.7637009863659738
1772797372531696000,2.789696044921875,-3.0187551159799098,0.29154857705654574,1.9077410623796283
1772797372541722000,2.79972216796875,-3.1312802559196946,0.49473311688564714,1.712988305608183
1772797372551748000,2.809748046875,-2.9597295110374686,0.7034495901450515,1.4850789830356836
1772797372561774000,2.819774169921875,-2.4733494311511515,0.9305757995158433,1.2618386751875281
1772797372571800000,2.829800048828125,-1.5681898124426603,1.1698725583475083,1.1843618330795318
1772797372581826000,2.839825927734375,-0.29004911401271816,1.377919607912749,1.2556620323792098
1772797372591852800,2.849852783203125,0.8417448388963937,1.5583885493963956,1.3178688977062702
1772797372601879000,2.859879150390625,1.8568606238394973,1.665168423682451,1.313065004555881
1772797372611905000,2.869905029296875,2.8579829547435045,1.716573909009993,1.2815035989917813
1772797372621931000,2.879930908203125,3.550357316383719,1.7640196969263255,1.0927167648874223
1772797372631957000,2.88995703125,3.8666824429035183,1.818296061515063,0.8104212606761604
1772797372641983000,2.89998291015625,3.9004613783866167,1.9064111289501189,0.5814622463876381
1772797372652009000,2.910009033203125,3.488091122084856,2.033427735579014,0.47380544313658024
1772797372662035000,2.920034912109375,3.5984593762516974,2.3068340500876308,0.376140858926624
1772797372672061000,2.93006103515625,4.1483547737151385,2.436600539946556,0.08665096796555444
1772797372682087000,2.9400869140625,3.776777131050825,2.4951830772966144,-0.307609466753155
1772797372692113000,2.95011279296875,3.0331361080318686,2.658620073828101,-0.6436833959683775
1772797372702139000,2.960138916015625,2.3348837942689658,2.7091987529426813,-0.9770105837587266
1772797372712166100,2.970166259765625,1.5700269647419451,2.587318924680352,-1.3456775266081094
1772797372722192100,2.980192138671875,1.0007990902990103,2.462204936802387,-1.6765001111663878
1772797372732218000,2.990218017578125,0.42592882605493065,2.300275568354875,-1.7336999619863926
1772797372742244000,3.000244140625,-0.3732072896927595,2.006503342165798,-1.3720879791498184
1772797372752270000,3.01027001953125,-1.4739672219127415,1.7134639602959154,-1.0302337860327213
1772797372762296000,3.020296142578125,-2.4202058699846267,1.5387494906857608,-0.8506134972676634
1772797372772322000,3.030322021484375,-2.812370958125591,1.1909312745977192,-0.5546340798905119
1772797372782348000,3.04034814453125,-2.6744360671192404,0.6658140522990376,-0.2065853795148432
1772797372792374000,3.0503740234375,-2.4145120422571895,0.1369724939812906,0.15879676951020955
1772797372802400000,3.06039990234375,-1.529131475251913,-0.3632090427696705,0.3031341479700059
1772797372812426000,3.070426025390625,-0.19251929863095282,-0.8544314481206238,0.20731603187695144
1772797372822453000,3.080452880859375,0.7422521990090608,-1.305076197759062,0.11896163926068692
1772797372832479000,3.09047900390625,1.1450573391079901,-1.6902527421869336,0.17529449798781424
1772797372842505000,3.1005048828125,1.1845073059648275,-1.8233868087828158,0.38000900559686124
1772797372852531000,3.110531005859375,1.3528098627060652,-1.6781776889897881,0.8124507206771522
1772797372862557000,3.120556884765625,1.3479489786714314,-1.4427015844248234,1.2783740687943994
1772797372872583000,3.1305830078125,1.2453572037249803,-1.199904927713424,1.757745585092902
1772797372882609200,3.140609130859375,1.3491793972492216,-1.056708901308477,2.2492414005577563
1772797372892635100,3.15063525390625,1.1116343774557114,-0.9625064767837523,2.421571459249407
1772797372902661000,3.1606611328125,0.7766647562205791,-0.6915521585371345,2.1927070279091594
1772797372912687000,3.17068701171875,0.631914339980483,-0.7276403938759118,2.14519928067252
1772797372922713000,3.180713134765625,0.7670406033068895,-0.7585599213398992,2.0753347401991484
1772797372932739000,3.190739013671875,0.7009124728828668,-0.609373349283263,1.8629392131008207
1772797372942765800,3.200765869140625,0.4945452661633491,-0.6698235071361065,1.7631037511251866
1772797372952791800,3.210791748046875,0.22472528570890427,-0.6358782751753926,1.66945998339653
1772797372962817800,3.22081787109375,-0.10525018050074576,-0.5190276732519269,1.5192026403032242
1772797372972844000,3.230843994140625,-0.37821079706847666,-0.46513702004514634,1.357776545202732
1772797372982870000,3.2408701171875,-0.5111410116553307,-0.39785716230273244,1.1519503134921192
1772797372992896000,3.25089599609375,-0.41868017010092734,-0.3507855414610356,0.8728186801392585
1772797373002922000,3.260921875,-0.14768880777955054,-0.42296383876949545,0.5160477441256865
1772797373012948000,3.270947998046875,0.14548749834299088,-0.49574492427669464,0.21914686452206222
1772797373022974000,3.280973876953125,0.2742185076743364,-0.6029932197920977,0.09584193536005914
1772797373033000000,3.291,0.21387363682687283,-0.7109069934789091,0.12565277092978358
1772797373043026000,3.30102587890625,-0.004160626810789108,-0.7589790966000407,0.31005035709924994
1772797373053053000,3.311052978515625,-0.48471945319771764,-0.7798201515115797,0.6340311129387468
1772797373063079200,3.3210791015625,-1.0021206942915917,-0.7316807553078979,0.9269530059088021
1772797373073105200,3.331105224609375,-1.1750053181260824,-0.6485467642210424,1.1435760875742882
1772797373083131100,3.341131103515625,-1.0230553457707166,-0.5850761625684797,1.3642917723156511
1772797373093157000,3.3511572265625,-0.734090519863367,-0.6330617564499378,1.5211691180706024
1772797373103183000,3.36118310546875,-0.7423696879088878,-0.7367680685095489,1.5282668212465942
1772797373113209000,3.371208984375,-1.0850152505993842,-0.8689408888578415,1.4043094560578464
1772797373123235000,3.381235107421875,-1.2644541183829308,-1.0074904046311974,1.1858690958373248
1772797373133261000,3.391260986328125,-1.2915414472728968,-1.2035466452166437,0.9330601636774838
1772797373143287000,3.401287109375,-1.2474457004368305,-1.3669741432674227,0.6554621696326881
1772797373153313000,3.41131298828125,-1.2112550276368856,-1.4056483034461735,0.34902386555075643
1772797373163339000,3.421339111328125,-1.1044973651826382,-1.3739296614937484,0.24769524240791796
1772797373173366000,3.431365966796875,-1.1581225723862647,-1.2711658909812569,0.35510983440093696
1772797373183392000,3.44139208984375,-1.2082055769383906,-1.144541936931759,0.4519516675185412
1772797373193418000,3.45141796875,-1.37346511272192,-1.0872277390170841,0.4686744734562933
1772797373203444000,3.46144384765625,-1.3846937782227993,-1.1966628770522774,0.7126458730354904
1772797373213470000,3.471469970703125,-1.597916842186451,-1.0658997043062002,0.6466798013053834
1772797373223496000,3.481495849609375,-2.088823459586501,-1.1766771237958222,0.3476722317460924
1772797373233522000,3.49152197265625,-2.5346950034737588,-1.2422028313472866,-0.022055326072126624
1772797373243548000,3.5015478515625,-2.7526526947438716,-1.057362542911619,-0.49137518475987013
1772797373253574000,3.511573974609375,-2.243846263515949,-0.9542996433220803,-0.5445505293041467
1772797373263600000,3.52160009765625,-1.1566957544535397,-0.8774472167227416,-0.4341919197484851
1772797373273626000,3.531626220703125,-0.3667886548221111,-0.7581010716564953,-0.26614202259406444
1772797373283652000,3.541652099609375,-0.4004255514860153,-0.5902717949828132,0.08999094430953264
1772797373293679000,3.55167919921875,-0.6485264520853757,-0.4815229587113484,0.6964221757262945
1772797373303705000,3.561705078125,-0.7311129653573035,-0.2084809109378606,1.46423011014387
1772797373313731000,3.57173095703125,-1.052034772017598,0.14646817994341255,1.8904535352312026
1772797373323757000,3.581757080078125,-1.0993582487285136,0.22515282693859187,2.3300934912525118
1772797373333782800,3.59178271484375,-0.5650783535480499,0.15022249097563325,2.6566218857482076
1772797373343809000,3.60180908203125,0.273393162766099,0.1857587549874559,2.727735111108422
1772797373353835000,3.6118349609375,1.153477961450815,0.2107414214820601,2.8106057020187376
1772797373363861000,3.621861083984375,1.7323738279491663,0.2283042036416009,2.8399598067969083
1772797373373887000,3.631886962890625,1.8984055171489715,0.3558880887644365,2.7107243550747633
1772797373383913000,3.641912841796875,1.8210569045305252,0.5788497258016839,2.4619763887435195
1772797373393938700,3.651938720703125,1.7262427778482436,0.8970190554160624,2.106712313628942
1772797373403964700,3.661964599609375,1.782108457455039,1.3071142794579267,1.7713930021733044
1772797373413991700,3.67199169921875,1.8643635468155144,1.6437965498298406,1.569337228912115
1772797373424017700,3.682017578125,1.749554679852724,1.827939065259695,1.3832210753217338
1772797373434043600,3.692043701171875,1.293896485966444,1.9343296479672192,1.2024829615078865
1772797373444070000,3.70206982421875,0.3626654374122619,1.99071642883867,1.0800925533749162
1772797373454096000,3.712095947265625,-0.804765061545372,1.9414092309646307,1.0439480578042566
1772797373464121900,3.722121826171875,-1.9130606499671934,1.8078076929874718,1.0694999938204883
1772797373474147800,3.73214794921875,-2.7988094657629725,1.6509455448016523,1.1186214598640798
1772797373484173800,3.742173828125,-3.464252565857768,1.4524107852734625,1.2747205147229135
1772797373494199800,3.75219970703125,-3.7619659308880564,1.3071886598683893,1.1731747416980565
1772797373504225800,3.762225830078125,-3.400122915774584,1.1926214927069843,0.8909969455823302
1772797373514251800,3.772251708984375,-2.4342910939604043,0.9557897357493639,0.6140910985201596
1772797373524278800,3.78227880859375,-1.1437637921661137,0.6228592191264033,0.43413098334148525
1772797373534304800,3.7923046875,0.09240706554055213,0.24568350072670728,0.40144276570454235
1772797373544330800,3.802330810546875,1.0905512574166059,0.05733969768211245,0.5340018088914453
1772797373554356700,3.812356689453125,1.5628659870713948,-0.11626834505610167,0.7270262805655598
1772797373564382700,3.8223828125,1.6361317142903804,-0.20443687797775492,0.8924765166155993
1772797373574408700,3.83240869140625,1.5760264974176883,-0.24483636411176993,1.0563684173077343
1772797373584434700,3.8424345703125,1.531902693530917,-0.32506957398951053,1.1625764830552041
1772797373594460700,3.852460693359375,1.5619558864891527,-0.432457314508222,1.1408071343176067
1772797373604486700,3.862486572265625,1.6858458855301142,-0.4936263246875256,0.9313276407964527
1772797373614512600,3.8725126953125,1.8945745606839657,-0.6536714137583971,0.7828994128264486
1772797373624538600,3.88253857421875,1.9009914419889449,-0.7694774019997567,0.6190436063610016
1772797373634564900,3.89256494140625,1.7602748113095759,-0.891343128671497,0.4416146170951426
1772797373644591900,3.902591796875,1.505449570891261,-0.9790950618825852,0.3034375878959894
1772797373654617900,3.912617919921875,1.2028513564288617,-1.003990214490518,0.14234737368635833
1772797373664643800,3.922643798828125,0.9247498698413371,-1.0214483489654957,0.21311587726213035
1772797373674669800,3.932669921875,0.6036433542639017,-0.9150490714948624,0.3831568021032959
1772797373684695800,3.94269580078125,0.2817272758692503,-0.7757594048786908,0.5536004625264555
1772797373694721800,3.9527216796875,0.21139234140515326,-0.5930364739231765,0.747779730258882
1772797373704747800,3.962747802734375,0.2953197478920221,-0.37856304457224904,0.8040835820872336
1772797373714773800,3.972773681640625,0.5043687410414218,-0.16659472991004584,0.689512761664018
1772797373724799700,3.9827998046875,0.587032995724678,0.037964358808426184,0.4553277928881347
1772797373734825700,3.99282568359375,0.548755579778552,0.2523601289464161,0.14515724347531794
1772797373744851700,4.002851806640625,0.4956833302825689,0.4006792705187574,-0.06064326927214861
1772797373754877700,4.012877685546875,0.5383247866570949,0.6149579444825649,-0.18301986807547507
1772797373764904700,4.02290478515625,0.7762094136685133,0.7433771844509989,-0.16473025121241808
1772797373774930700,4.0329306640625,0.9897165552705526,0.8469581896305084,-0.056679626338183874
1772797373784956700,4.042956787109375,1.0981348444133996,0.9417086764920503,0.06056523559987545
1772797373794982700,4.052982666015625,0.991450247195363,0.9341371452592313,0.2753781991034746
1772797373805008600,4.063008544921875,0.5112321970701217,0.8973930032949894,0.450043715005368
1772797373815035000,4.073034912109375,-0.2078396173596382,0.78427924981229,0.4901218236979097
1772797373825060900,4.083060791015625,-0.9364332933723926,0.5903764609336852,0.4806545418463647
1772797373835086800,4.0930869140625,-1.4662293211370705,0.3250609157590195,0.4618734151393175
1772797373845112800,4.10311279296875,-1.7586878343790768,-0.007324936060607433,0.4852370473310351
1772797373855138800,4.113138916015625,-2.0051918211758135,-0.3924439781475812,0.4331451871745288
1772797373865164800,4.123164794921875,-2.1461025131225586,-0.6875592164434492,0.4039955189272761
1772797373875190800,4.133190673828125,-2.284865087124705,-0.9709279759094118,0.4076309528201818
1772797373885216800,4.143216796875,-2.3913562075972554,-1.2383218982607125,0.3461505020715296
1772797373895243500,4.153243408203125,-2.3425807785123585,-1.5285302944883703,0.27782106221094727
1772797373905269800,4.163269775390625,-1.7950211305201051,-1.8802099352449178,0.047424306736886496
1772797373915295700,4.173295654296875,-0.8949813390433787,-2.054329069310427,-0.5650011235933751
1772797373925321700,4.18332177734375,-0.579863834747672,-2.073190713907778,-1.1046402807846665
1772797373935347700,4.19334765625,-1.3730027559071778,-1.791321399219334,-0.5341190055303275
1772797373945373700,4.203373779296875,-3.103027974903583,-1.06413978196159,0.673879650659114
1772797373955399700,4.213399658203125,-4.595149277666211,-0.040776913744816554,1.682035971853137
1772797373965425700,4.22342578125,-5.260160416084528,0.6181741300500929,2.5778625295490025
1772797373975451600,4.23345166015625,-4.7456917213112115,0.9946904712256044,3.2109485436573624
1772797373985477600,4.2434775390625,-3.2750112659841775,1.3307365625858305,3.4541166640296574
1772797373995503600,4.253503662109375,-1.516201266530156,1.6218118047758936,3.415568322187662
1772797374005529900,4.26352978515625,0.1948947955906391,1.8807494489490986,3.2168115904718637
1772797374015556900,4.273556884765625,1.6803659928143024,1.9403001006789504,3.00630567651242
1772797374025582800,4.283582763671875,2.7612632867008444,1.9724588876143097,2.604184134763479
1772797374035608800,4.29360888671875,3.368589128869772,1.8941402609199285,2.1466681841813027
1772797374045634800,4.303634765625,3.570297111606598,1.874760583797842,1.625929907619208
1772797374055660800,4.313660888671875,3.789448396575451,2.0077140331298113,1.1643340673122555
1772797374065686800,4.323686767578125,4.048427249541878,2.148250046545267,0.9527977143265306
1772797374075712800,4.333712646484375,4.335834909135103,2.3532686151348052,0.7802769553683697
1772797374085738800,4.34373876953125,4.808368834498524,2.458428925395012,0.6351692501232028
1772797374095765000,4.353764892578125,5.558281777393818,2.336747396183759,0.3960469345429912
1772797374105791000,4.363791015625,5.417632951253652,2.1413427513748404,0.06641545946542174
1772797374115816700,4.373816650390625,4.443933464804291,1.902928839792311,-0.07951514300256968
1772797374125842700,4.3838427734375,2.7130063285320998,1.7448294048964976,-0.10614676401428878
1772797374135869700,4.39386962890625,1.0655103396624326,1.3503978331282733,-0.035138533398509024
1772797374145895700,4.403895751953125,-0.4514981515973806,0.8140132938187569,0.163077771297656
1772797374155921700,4.413921630859375,-1.8418226291835307,0.6204433901563287,0.2698993293009698
1772797374165947600,4.42394775390625,-2.4713147104531523,0.8249772439688444,0.3834729919129982
1772797374175973600,4.4339736328125,-2.329662844750285,0.989142773970589,0.669515610230714
1772797374186000000,4.443999755859375,-1.836663638985157,0.9835497762691229,0.9373718893967569
1772797374196025900,4.45402587890625,-0.930595088738203,0.9318637934997678,1.040645362997055
1772797374206051800,4.4640517578125,0.005074819046258926,0.732102926242724,1.0978950443081557
1772797374216077800,4.474077880859375,0.24974457615315912,0.4459058845482766,1.1143490432418883
1772797374226103800,4.484103759765625,-0.18997078319191932,0.16659102184930816,1.071535956627503
1772797374236129800,4.4941298828125,0.048046530288457866,-0.07956361265364102,0.9779668615702539
1772797374246155800,4.50415576171875,0.4199649492144584,-0.30465536618791517,0.8756071418140083
1772797374256181800,4.514181640625,0.27529811960458755,-0.7412747322790324,0.844857856350392
1772797374266208800,4.524208740234375,-0.3986515275508165,-1.16863381033279,0.665413216413185
1772797374276234800,4.53423486328125,-1.1401163755744694,-1.3676304152190684,0.36353622889742254
1772797374286260700,4.5442607421875,-1.6979618552595377,-1.4995616818964481,0.1824975977670401
1772797374296286700,4.55428662109375,-1.8893115255892277,-1.3480308117359876,0.19573694550320506
1772797374306312700,4.564312744140625,-1.6607622976779937,-1.0620677249278874,0.3912801950652152
1772797374316338700,4.574338623046875,-0.8124094388186931,-1.0195265871226786,1.2003928573608398
1772797374326364700,4.58436474609375,0.3821452139079571,-0.5298551010081545,1.658374525758624
1772797374336390700,4.594390625,1.2091922498881815,-0.1304331005414948,2.115473127711564
1772797374346416600,4.604416748046875,2.0342326222211122,-0.06873910750686191,2.804392818853259
1772797374356442600,4.614442626953125,2.565375388419628,0.40301041688006367,3.0346587875545024
1772797374366468600,4.624468505859375,1.868812342917919,0.7679941777046769,2.9623835326775905
1772797374376494600,4.63449462890625,1.1694137817293404,0.6337591641295701,3.0539257980823513
1772797374386521900,4.64452197265625,0.6588865180581808,0.7205092268217355,2.9419790425524113
1772797374396548900,4.654548828125,0.1975871034145355,0.821782758776471,2.6630542568832634
1772797374406574800,4.664574951171875,0.00010755202770233153,0.7958860279105603,2.39491010068655
1772797374416600800,4.674600830078125,0.10861351945400237,0.7493846812374889,2.1857903803884984
1772797374426626800,4.684626708984375,0.23315175327062607,0.5358650820126757,1.9947765178844332
1772797374436652800,4.69465283203125,0.2590752990782261,0.22327333333492277,1.6598462057463823
1772797374446678800,4.7046787109375,0.42318098865151405,-0.25635391129031776,1.1370181172981857
1772797374456704800,4.714704833984375,0.29333120442330834,-0.8833649163339287,0.718536027052626
1772797374466730800,4.724730712890625,-0.2572527598261833,-1.0227197571408002,0.38758988917991516
1772797374476756700,4.7347568359375,-0.8525479724615812,-0.8838919358827173,0.42424452622979875
1772797374486782700,4.74478271484375,-1.1260410884708165,-0.7501779505070298,0.7659242395628243
1772797374496809000,4.75480908203125,-1.0836433777242898,-0.5120283889491111,0.9964271588250994
1772797374506835000,4.7648349609375,-1.1822136420696974,-0.5474237466529012,1.073434849051386
1772797374516861000,4.77486083984375,-1.4007044173032044,-0.8245018084768205,1.0422579127602278
1772797374526888000,4.784887939453125,-1.97621590206027,-1.0712291557006537,0.7429707225419581
1772797374536914000,4.794913818359375,-3.1435973011791702,-1.402525495250523,0.4376214923383668
1772797374546940000,4.80493994140625,-4.221495997771621,-1.665750607484579,0.17766550143547355
1772797374556966000,4.8149658203125,-4.83866518856287,-1.7219982721462845,-0.0763005648702383
1772797374566992000,4.824991943359375,-5.076601253500581,-1.5741665487647056,-0.331112909274362
1772797374577017900,4.835017822265625,-5.140517553094029,-1.4534629246748982,-0.14690094533748924
1772797374587044000,4.845044189453125,-4.530986894357204,-0.9980856666218488,0.14160809962637722
1772797374597070000,4.855070068359375,-3.0576030252903696,-0.6226907306917011,0.5559131233830005
1772797374607096000,4.865095947265625,-2.158225497114658,-0.034249110278114676,0.5094792889881878
1772797374617122000,4.8751220703125,-2.0265596033751963,0.3419817650195211,0.8753631769903004
1772797374627148000,4.88514794921875,-2.456856561511755,0.561993539275229,1.5798045546516775
1772797374637174000,4.895174072265625,-2.9906816986620424,0.8476857732526958,2.2218808076843617
1772797374647199700,4.90519970703125,-2.899983775126934,0.9059132866200059,2.9095611662894485
1772797374657226800,4.915226806640625,-1.7379846535682677,1.0490013956710695,3.363551134702563
1772797374667252700,4.925252685546875,-0.5380079757928848,1.1019527222011238,3.4061230329722165
1772797374677279000,4.935279052734375,0.627356238284707,1.1561130591947584,2.789030999070406
1772797374687305000,4.945304931640625,1.4006857126027346,1.1841118769064545,1.8749276109278201
1772797374697331000,4.9553310546875,1.8151976571083068,1.1201128674656151,1.2826710353359578
1772797374707357000,4.96535693359375,2.3087480670154092,1.434299812912941,0.7858037559658289
1772797374717383000,4.9753828125,3.0255361544221637,1.8398235643208025,0.432752242334187
1772797374727409000,4.985408935546875,4.215962913563847,2.2833434305153784,0.16157339461669326
1772797374737435000,4.995434814453125,4.8951294185847045,2.5153458676204083,0.0748160254009068
1772797374747460900,5.0054609375,5.2813160168379545,2.5202684187144038,0.17426562986411154
1772797374757486800,5.01548681640625,4.894491705203056,2.689185892483592,0.0897780322112143
1772797374767512800,5.025512939453125,3.584919511198997,2.6282193826064466,0.2868442535568029
1772797374777538800,5.035538818359375,1.187833820039034,2.393926058085263,0.5949996637549251
1772797374787565800,5.04556591796875,-1.437030114659667,2.1673145202383397,0.8829372655063867
1772797374797591800,5.055591796875,-3.6936639635562893,1.8890046515971421,1.1484206780612467
1772797374807617800,5.06561767578125,-5.0873225540012115,1.6287996178366242,1.2730822459965943
1772797374817643800,5.075643798828125,-5.398078355956077,1.3924898389264941,1.0300502461593597
1772797374827669800,5.085669677734375,-5.142864993003011,0.9938456909645348,0.4692826684825122
1772797374837695700,5.09569580078125,-4.636738594639301,0.527189133201912,-0.3548119474329054
1772797374847721700,5.1057216796875,-3.8589386969089507,0.03498454841319471,-1.1880704052738844
1772797374857747700,5.115747802734375,-2.1831705532789227,-0.46928497003745284,-1.6027924853987991
1772797374867773700,5.125773681640625,-0.4169353722602129,-0.7024427511900663,-1.6920011932894587
1772797374877800000,5.135800048828125,0.8600432966530323,-0.49470465797614305,-1.6885631816647946
1772797374887826000,5.145825927734375,1.7463877402544021,-0.1960958419434726,-1.435472948345542
1772797374897852000,5.155851806640625,2.441989831769466,0.2350659893941134,-1.1399413843337445
1772797374907878000,5.1658779296875,2.810394689616561,0.6016729309737682,-1.0122437366381287
1772797374917905000,5.17590478515625,2.95497150285542,0.6805078366272151,-0.8660504281133413
1772797374927931000,5.185930908203125,3.153523067387938,0.9366266970526427,-0.7234818859569728
1772797374937956900,5.195956787109375,3.6084909409224983,1.0669848691944033,-0.4700122979313135
1772797374947982800,5.20598291015625,4.299650081554055,0.9993651119731366,-0.216806037016958
1772797374958009000,5.216009033203125,4.5966526679664845,1.0359252026073633,-0.13221446753293276
1772797374968035000,5.22603515625,4.073768611547351,1.049517601564899,0.06213949917927384
1772797374978061000,5.23606103515625,3.249222744733095,1.0244820175729692,0.1778783404685557
1772797374988087000,5.246087158203125,2.717781872370839,0.9932884954731911,0.24438173394575713
1772797374998113000,5.256113037109375,2.621561970543861,0.8542926241718232,0.29238515574485063
1772797375008139000,5.266138916015625,2.7490391804218293,0.6504368157513439,0.2710790406048298
1772797375018165000,5.2761650390625,2.8394892666757103,0.4017190253626555,0.1143222524896264
1772797375028191000,5.28619091796875,2.740643107998371,0.03984006215296686,-0.01405555948987603
1772797375038216700,5.296216796875,2.053527689799666,-0.22436028832141308,-0.20608210616782308
1772797375048242700,5.30624267578125,1.1155050814092158,-0.4752901652690023,-0.5228624291092157
1772797375058268700,5.3162685546875,0.21351415586471556,-0.8024310656398534,-0.8549196700289845
1772797375068296000,5.3262958984375,-0.5219447297424078,-1.2069145872797817,-1.2891782252728938
1772797375078322000,5.336322021484375,-0.9794050046145916,-1.4698049876667558,-1.8858406346082686
1772797375088348000,5.346347900390625,-1.1928770749032496,-1.6802765609651802,-2.149160877779871
1772797375098374000,5.356373779296875,-1.1850503268003463,-1.779794043032825,-2.0304928511708975
1772797375108399900,5.36639990234375,-1.3332710494995117,-1.9089593521282076,-1.7399761196464298
1772797375118425900,5.37642578125,-1.2901286578655242,-1.9335268071517346,-1.631556515329331
1772797375128451800,5.386451904296875,-1.04416126216352,-2.033145411506295,-1.4320306989371776
1772797375138477800,5.396477783203125,-0.738247639542818,-1.9586476582743226,-1.1985426994495094
1772797375148503800,5.40650390625,-0.2572054135531187,-1.791882101842016,-0.9540428190167993
1772797375158530000,5.416530029296875,-0.08399579554796219,-1.6418061066649854,-0.5540987674374133
1772797375168556000,5.42655615234375,0.17085574835538864,-1.3884317957073449,0.08658800399824976
1772797375178582000,5.43658203125,0.4082248270601034,-1.1820854856453835,0.683764865661785
1772797375188608000,5.44660791015625,0.017894553130865097,-0.9981924149319529,0.9902039003960788
1772797375198634000,5.456634033203125,-0.5604056855618953,-0.9619795303001999,1.0889971598424018
1772797375208660700,5.46666064453125,-1.1957061608493327,-0.9344916577853262,0.6376920465990901
1772797375218686700,5.476686767578125,-1.6517881331056354,-1.1689551512416452,0.14257161089628934
1772797375228712700,5.486712646484375,-1.3972136525779961,-1.3778656857684253,-0.14370646014511584
1772797375238738700,5.49673876953125,-0.535637155008316,-1.1647849528849124,-0.6146357267908752
1772797375248765000,5.506764892578125,-0.1660258439809084,-0.9443754114832729,-0.6810914817340672
1772797375258791000,5.516791015625,-0.536832502272725,-0.4708468125266954,0.01838745121434331
1772797375268817000,5.52681689453125,-1.7217027963310478,0.1795878112675622,0.6509931344598532
1772797375278843000,5.5368427734375,-2.770978625029325,0.48982002773974087,0.8450509677696972
1772797375288868900,5.546868896484375,-3.118071814778447,0.7032346322201192,0.6100674690272658
1772797375298894800,5.556894775390625,-3.337090413278341,0.9802246504344045,0.4827629123024642
1772797375308920800,5.5669208984375,-3.6117525730669495,1.3204995384708047,0.5155254372846335
1772797375318946800,5.57694677734375,-4.538835269770026,1.6837426296405493,0.44281938977502283
1772797375328972800,5.586972900390625,-4.69569230338931,2.031526870393753,0.01730981204546988
1772797375339000000,5.597,-2.991686491790414,1.8420193207994102,-0.12241576176993549
1772797375349026000,5.607026123046875,-0.5893968022465705,1.4481240478649735,0.00572502658329904
1772797375359052000,5.617052001953125,1.3861504067718982,1.3804155163817107,0.0921286869905889
1772797375369078000,5.627078125,2.7433693180918692,1.200732902970165,0.8591898946940898
1772797375379104000,5.63710400390625,3.2614725699752567,1.5502236553803086,1.3639523112282157
1772797375389130000,5.6471298828125,3.5111657082021233,1.7429798315070568,1.6270342155992983
1772797375399155500,5.657155517578125,3.4976661751598117,1.9202730655640363,1.5548247194349765
1772797375409181400,5.667181396484375,3.279320361354947,1.9934441002368926,1.238496378044784
1772797375419207400,5.67720751953125,2.834431983286142,1.839423751348257,0.8255650537941605
1772797375429233400,5.6872333984375,2.5482670172303914,1.6273942810833453,0.37707711686342954
1772797375439259600,5.697259765625,2.514565238636732,1.5688088211238382,-0.18739874074682591
1772797375449285600,5.70728564453125,2.610201203095913,1.4229665179938078,-0.591094473009929
1772797375459311400,5.717311279296875,2.4391934790492056,1.1880280274368822,-0.7749168896399438
1772797375469337300,5.72733740234375,2.084931128323078,1.05886637160331,-1.0537654682677238
1772797375479363300,5.73736328125,1.6299878047078846,0.9151957134239375,-1.1935234830480068
1772797375489390300,5.747390380859375,0.7419494166702032,0.8117742827203124,-0.8814483421228826
1772797375499416300,5.757416259765625,-0.1559784972190857,0.8501067167893052,-0.502878502483666
1772797375509442300,5.7674423828125,-0.8348322830289602,0.9307435572981834,-0.17636523249186575
1772797375519468500,5.777468505859375,-1.3689321454674004,0.7931245273079722,0.05649805922619998
1772797375529494500,5.78749462890625,-1.711823791873455,0.5882587015947327,0.17763963634185492
1772797375539520500,5.7975205078125,-2.1507371871858836,0.5307635210899636,0.05102993001341819
1772797375549546500,5.80754638671875,-2.5779496233105657,0.4260363415500149,-0.07956278153657913
1772797375559572500,5.817572509765625,-2.1736983760565516,0.21790566882193088,-0.06785064336769282
1772797375569598500,5.827598388671875,-1.0914099200725556,0.01648410181105137,0.029800752567127345
1772797375579624400,5.83762451171875,0.058954877793788905,-0.16856705289632082,0.17712569547034798
1772797375589650400,5.847650390625,0.8661725931882858,-0.20134707700256257,0.31865904936008155
1772797375599676400,5.857676513671875,1.4288953235208988,-0.15323665116503835,0.5757300228785723
1772797375609702400,5.867702392578125,1.7211434088826179,0.04257752429284155,0.8882039538629353
1772797375619728400,5.877728271484375,1.6922107443869112,0.19648834839239715,1.2052789489019662
1772797375629754600,5.887754638671875,1.494250131484866,0.28727047961223867,1.38488813175112
1772797375639781400,5.897781494140625,1.1196610320448874,0.30498452507704493,1.3449712780348957
1772797375649807400,5.907807373046875,0.6217307996183633,0.2991883329536766,1.133730620060116
1772797375659833300,5.917833251953125,0.11059738674759864,0.22049020542241632,0.8248043716199696
1772797375669859300,5.927859375,0.02037701759636402,0.12143310740813612,0.6436361958257854
1772797375679885300,5.93788525390625,0.1066255605071783,0.05255520335193723,0.7161658638551831
1772797375689911300,5.947911376953125,0.25071137535870075,-0.025984189953655003,0.8802887968242168
1772797375699937300,5.957937255859375,0.4240227001726627,-0.10552399247344582,0.9411534537620841
1772797375709963300,5.96796337890625,0.5166834482133388,-0.2110205854833126,0.9603519290983676
1772797375719989500,5.977989501953125,0.47827393032014365,-0.2773076693287119,0.9133528620362281
1772797375730015500,5.988015380859375,0.3906289646148681,-0.3468660299297422,0.8141837550148368
1772797375740041500,5.99804150390625,0.3684837683022022,-0.49594351558871563,0.5981093932732939
1772797375750067500,6.0080673828125,0.3331307153701782,-0.6510523903664202,0.37046018294170496
1772797375760093400,6.018093505859375,0.18499883999824523,-0.7858058017924427,0.21142375945672393
1772797375770119400,6.028119384765625,-0.07919336370229721,-0.8654837341412901,0.1364563428863883
1772797375780145400,6.0381455078125,-0.22401099995970725,-0.9322434404671192,0.09491758705675601
1772797375790172400,6.04817236328125,-0.15468436575531957,-0.9325259837355464,0.06160261582359671
1772797375800198400,6.058198486328125,-0.07120879468917846,-0.8950941517680883,0.06283887962028384
1772797375810224600,6.068224609375,-0.043029578909277916,-0.8124960941888392,0.08233633790314197
1772797375820250600,6.078250732421875,0.06729775872528553,-0.7591266153119504,0.17025179111286998
1772797375830276600,6.088276611328125,0.09744447518587111,-0.6602119945082813,0.25251886317208405
1772797375840302600,6.098302490234375,-0.17904490002989767,-0.5248357019435614,0.31740473845005035
1772797375850328300,6.108328369140625,-0.560680410850048,-0.42456309065967796,0.4094245582386851
1772797375860354300,6.118354248046875,-0.5099620310038327,-0.4540231400303542,0.633711306399852
1772797375870380300,6.12838037109375,-0.36694822929799553,-0.4024735700570047,0.7018309029020369
1772797375880406300,6.13840625,-0.4392693691432476,-0.40459184085261074,0.600444265961647
1772797375890432300,6.148432373046875,-0.5592541774392128,-0.46493736928720025,0.48977322945594787
1772797375900458200,6.158458251953125,-0.6752940475016832,-0.5028821557454765,0.2912292637079954
1772797375910484200,6.168484130859375,-0.8523661861538887,-0.5061253023851663,0.07436623580679297
1772797375920510500,6.178510498046875,-0.9690554600358009,-0.5698746479138732,-0.07591741077154875
1772797375930536400,6.188536376953125,-0.9063491207540034,-0.706235859862715,-0.2798918771356344
1772797375940563500,6.1985634765625,-0.8723094885081052,-0.943315965558216,-0.5800761623241008
1772797375950589400,6.20858935546875,-0.8522329151630401,-1.2490499207630752,-0.7985650378614664
1772797375960615400,6.218615478515625,-0.9361644133031368,-1.5176771843016146,-1.0247826079547404
1772797375970641400,6.228641357421875,-1.115036879375577,-1.738966942603886,-1.2716266403608023
1772797375980667400,6.23866748046875,-1.6283131494939327,-1.7549720287263393,-1.5619719608411191
1772797375990693400,6.248693359375,-2.078205619460344,-1.7461252899259327,-1.8136339149229228
1772797376000719600,6.2587197265625,-2.420174890324473,-1.1628560306489466,-1.7120134692266582
1772797376010745600,6.26874560546875,-1.9966163005322217,-0.5795904611663892,-1.0573954222679138
1772797376020771600,6.278771484375,-1.0417460177153348,-0.3548896888442337,-0.5916751224420964
1772797376030797600,6.288797607421875,-0.2371153962045908,-0.07308416010700165,-0.414711120339483
1772797376040823600,6.298823486328125,-0.10844167001843452,0.10548165116906165,0.11424363429546355
1772797376050849500,6.308849609375,-0.6324667131662368,0.32550043968744574,0.9581424363553523
1772797376060875500,6.31887548828125,-1.3008739237636326,0.7348055362649262,1.6277775813125073
1772797376070901500,6.328901611328125,-1.896073274809122,1.004154538206756,2.12631177098155
1772797376080927500,6.338927490234375,-2.0625778422176837,0.9771850635427981,2.4611112963467834
1772797376090953500,6.348953369140625,-1.8103414492487906,0.9392712932772934,2.589874162121117
1772797376100979500,6.3589794921875,-1.3707424097597598,0.9568111877515911,2.699929989337921
1772797376111006500,6.36900634765625,-0.7303571785539388,0.8978609861329198,2.608542622233927
1772797376121032400,6.379032470703125,0.09067921883463859,0.8033886586256325,2.41327563233003
1772797376131058400,6.389058349609375,0.8812269544571638,0.7147980826333165,2.1886014922864736
1772797376141084400,6.39908447265625,1.5043243662536143,0.6810710965331643,1.8424122656397521
1772797376151110400,6.4091103515625,1.8298235638320446,0.6820910872306675,1.436713011534512
1772797376161136400,6.419136474609375,1.645498677572608,0.6570826104413717,1.0162133709214627
1772797376171162400,6.429162353515625,0.9053881667673588,0.7091070313848554,0.5799434758551418
1772797376181188400,6.439188232421875,0.00092412910759449,0.7582715328525751,0.1896142248392105
1772797376191214300,6.44921435546875,-0.7088362516194582,0.800115116847679,-0.1271501698806882
1772797376201240600,6.459240478515625,-1.12278939319849,0.7146291558071971,-0.41521439368650315
1772797376211266600,6.4692666015625,-1.1364642828077076,0.44504320330433544,-0.7865086893647909
1772797376221292500,6.47929248046875,-0.9046645286679267,0.06000170169929042,-1.202642535983771
1772797376231318500,6.489318603515625,-0.7791887217402458,-0.26125286231301725,-1.4051698722794652
1772797376241344500,6.499344482421875,-1.3018570895820856,-0.37705841216295954,-1.2805651490978895
1772797376251370500,6.50937060546875,-1.8038193540036678,-0.479997904568538,-0.9344814286522567
1772797376261397200,6.519397216796875,-1.6836404844403265,-0.49445298477001487,-0.450920205578953
1772797376271423200,6.52942333984375,-1.223171675401926,-0.4647072503257543,0.049243777249008414
1772797376281449200,6.53944921875,-0.8094482509255408,-0.45923780593872066,0.4989420398175716
1772797376291475500,6.549475341796875,-0.4901864864319563,-0.3677783965118229,0.7428447580747306
1772797376301501400,6.55950146484375,-0.13583762646615505,-0.32018976605869826,0.7470582841165363
1772797376311527400,6.56952734375,0.36251112363338467,-0.26566198399215935,0.6489236347094178
1772797376321553400,6.579553466796875,1.215969196677208,-0.3004777517097071,0.6308356048330664
1772797376331579400,6.589579345703125,2.273067681825161,-0.25073420824501663,0.7306276660583912
1772797376341605400,6.59960546875,3.0397903052240607,-0.16480032077394424,0.7749810409173369
1772797376351631400,6.60963134765625,3.379538392907381,-0.1397738699365407,0.8574855749942362
1772797376361657300,6.6196572265625,3.5035809521615504,0.011423238224908708,1.0012876044683159
1772797376371683300,6.629683349609375,3.3145512492120264,0.13110263383351264,1.1698857831552625
1772797376381709300,6.639709228515625,3.0512416735649106,0.16788469665534794,1.2595545097731053
1772797376391734800,6.64973486328125,2.74301392878294,0.25401187820881604,1.170987022395432
1772797376401760800,6.6597607421875,2.482225980567932,0.11691080767810344,1.100136101233214
1772797376411786800,6.669786865234375,2.2996406314522027,-0.03514225972555578,1.0303852502673865
1772797376421814000,6.67981396484375,2.0745178708583114,-0.145620623203367,0.840400584680587
1772797376431840000,6.689840087890625,1.7609119401693343,-0.2451437312941998,0.6902418796561658
1772797376441866000,6.699865966796875,1.3994769213348626,-0.3447158661585301,0.5259153869390487
1772797376451892000,6.70989208984375,0.8250158224135636,-0.5053138398718089,0.37928544056266544
1772797376461918000,6.71991796875,0.26744740610420703,-0.6048342445489019,0.21392741284072397
1772797376471944000,6.72994384765625,-0.1748562161684036,-0.7032197269119322,0.05421352848559618
1772797376481970000,6.739969970703125,-0.328634572994709,-0.7970271607697009,-0.08222659391835331
1772797376491996000,6.749995849609375,-0.20103519804179668,-0.9417173712551593,-0.1468196237295866
1772797376502022000,6.76002197265625,0.05176818116009235,-0.9966151556778698,-0.2953080574542284
1772797376512048000,6.770048095703125,0.36604689654409883,-1.1076329597946255,-0.4917115040421486
1772797376522074000,6.78007421875,0.5476636928886175,-1.2443313678085803,-0.5422551118433475
1772797376532099800,6.790099853515625,0.508148844102025,-1.2898895884126425,-0.30641967244669793
1772797376542125800,6.800125732421875,0.2798474534720182,-1.111851235076785,0.03456190255433321
1772797376552151800,6.81015185546875,-0.1328285077780485,-0.8328273729473352,0.42166956117525695
1772797376562177800,6.820177734375,-0.549098694127798,-0.4968621648035943,0.6353679875656962
1772797376572203800,6.830203857421875,-0.8218161495894193,-0.20222002391219138,0.612167729242146
1772797376582229800,6.840229736328125,-0.984340707451105,-0.03761347214467823,0.5505844026409089
1772797376592256800,6.8502568359375,-1.0723439850747585,0.011978607085347174,0.4956432905331254
1772797376602283000,6.860282958984375,-1.1286281823545694,-0.06060315645746887,0.38277503624409437
1772797376612309000,6.87030908203125,-1.0936071378558874,-0.20131174996085463,0.1887332042209804
1772797376622335000,6.8803349609375,-0.8773200101464986,-0.5055774592440575,-0.20550021462664006
1772797376632361000,6.89036083984375,-0.6808516816288233,-1.2562842559307812,-0.822582311656326
1772797376642387000,6.900386962890625,-0.8027297563254833,-2.140974502584338,-2.1491464108631013
1772797376652413000,6.910412841796875,-1.0676865146577357,-3.012443156354129,-3.4528713401436804
1772797376662439000,6.92043896484375,-0.6639484776228666,-3.7303669697925446,-4.059900829714536
1772797376672465000,6.93046484375,-0.5552461108416319,-3.1525141826063394,-4.118897793084383
1772797376682491000,6.940490966796875,-1.0824947922110557,-1.7270064556971192,-2.7748703717708585
1772797376692516900,6.950516845703125,-2.45555950743854,-0.9401673653341829,-0.3755314948566258
1772797376702542800,6.96054296875,-4.163191692841052,0.10276263800133019,1.354766549731791
1772797376712569000,6.970569091796875,-4.6164060007065535,0.8375051555000245,2.2801323595143854
1772797376722595000,6.980594970703125,-4.094615584743023,1.3662738860435784,2.776305373010039
1772797376732621000,6.99062109375,-2.846623940861225,1.8232731192752718,2.778446476691961
1772797376742647000,7.00064697265625,-1.1322364359796047,1.8505114009432493,2.620575589855015
1772797376752673800,7.010673828125,0.3116290776580572,1.7424594608947634,2.469115154582262
1772797376762699800,7.02069970703125,0.8516238433539867,1.6733239653483032,2.3974318742491305
1772797376772725800,7.030725830078125,0.6852174756228924,1.7600101690240204,2.3821437042243776
1772797376782751700,7.040751708984375,0.9392349067896604,1.9715157615453003,2.3638002382822334
1772797376792777700,7.05077783203125,1.592209570455551,1.8920238532878457,2.2901545718349516
1772797376802804000,7.060803955078125,2.13642107706368,1.7767212114587425,2.095317205519974
1772797376812830000,7.070829833984375,2.4962141739100216,1.692036995255202,1.8479509028054772
1772797376822856000,7.08085595703125,2.5996885769098994,1.6203398325271903,1.5065103319905697
1772797376832882000,7.0908818359375,2.761276146182418,1.4836476350583134,1.174304476380348
1772797376842908000,7.100907958984375,2.7593220895051953,1.3239581544920802,0.7277548871010542
1772797376852934000,7.110933837890625,2.2088287261486053,1.1437120619788765,0.4005272582948208
1772797376862959900,7.1209599609375,1.568005688047409,0.9075423491265624,0.16575491808503864
1772797376872985900,7.13098583984375,1.0711655889451503,0.7106545530878007,-0.23824776123538613
1772797376883011800,7.14101171875,0.7683136919826269,0.5095156024105847,-0.4737355562381446
1772797376893037800,7.151037841796875,0.33003684100806713,0.321475787281245,-0.3799257842928171
1772797376903063800,7.161063720703125,-0.26171207732260227,0.200636407982558,-0.08720219037383795
1772797376913090000,7.171090087890625,-0.7344926709234714,0.15850370484776793,0.24580270665958523
1772797376923116000,7.181115966796875,-1.1368167495071888,0.140271992184408,0.47923429978489873
1772797376933142000,7.19114208984375,-1.5769991418421268,0.18840411839708684,0.74722384994179
1772797376943168800,7.201168701171875,-1.550558294162154,0.2709844211239368,0.9543070959761738
1772797376953194800,7.21119482421875,-0.9949427654862403,0.2566048538440838,1.1592200122341514
1772797376963220700,7.221220703125,-0.19876082336902617,0.06729096365831792,1.2483759670242667
1772797376973246700,7.231246826171875,0.5664262610256672,-0.12280154621712863,1.3514404740490018
1772797376983272700,7.241272705078125,1.1755576913118362,-0.3141796389237046,1.5180916103214024
1772797376993298700,7.251298583984375,1.6544921313673258,-0.3680461806025356,1.6648640339083969
1772797377003325000,7.261324951171875,1.9455133052825926,-0.4619865201249718,1.7614970465809106
1772797377013351000,7.271350830078125,2.0863807426095007,-0.5711020708169787,1.663686076170206
1772797377023377000,7.281376953125,2.14606276563406,-0.7498427272032946,1.4889189995899796
1772797377033403000,7.29140283203125,2.0989614072412253,-0.8472268505040556,1.4097925636440514
1772797377043428900,7.301428955078125,1.9108277763485908,-0.8168851959932595,1.6142711801379919
1772797377053454800,7.311454833984375,1.4362047697514295,-0.6564127483557909,1.9365458627119658
1772797377063480800,7.321480712890625,0.995402199691534,-0.4888946199905127,2.2077336243882772
1772797377073506800,7.3315068359375,0.7889718646079301,-0.44525713831596075,2.2458944282174107
1772797377083532800,7.34153271484375,0.7096154192984103,-0.43110126025676726,2.1473123273037373
1772797377093558800,7.351558837890625,0.7393751822680235,-0.529831391339004,1.8401345299661158
1772797377103585000,7.3615849609375,0.7808049247652292,-0.6688326694678515,1.550694780023396
1772797377113612000,7.371612060546875,0.7594505865693092,-0.788492191332206,1.2763555685788393
1772797377123638000,7.381637939453125,0.4120815024882555,-0.8795950424063951,1.0806018180713057
1772797377133664000,7.3916640625,-0.4835241059333086,-0.9763963973831384,0.8793693438917398
1772797377143690000,7.40168994140625,-1.2590198183745145,-1.047435680724308,0.674406743273139
1772797377153716000,7.411716064453125,-1.8357295730054377,-0.9668397567477076,0.615408903120458
1772797377163742000,7.421741943359375,-2.695114698010683,-0.7209899230107665,0.8960288022696972
1772797377173767700,7.431767578125,-3.203487413996458,-0.30785087429359553,1.3011501103565095
1772797377183793700,7.441793701171875,-3.052808192229271,0.016652297984808682,1.5502999354869127
1772797377193820000,7.45181982421875,-2.5507301924735306,0.18344477895665912,1.687064759800583
1772797377203846000,7.461845947265625,-1.960632548481226,0.15855265855602918,1.811916735741496
1772797377213871900,7.471871826171875,-1.0600590885192156,-0.08605440857820212,1.5739171040482818
1772797377223897900,7.48189794921875,-0.601971621659398,-0.3565670474719256,1.0607418100863695
1772797377233923800,7.491923828125,-0.9843623347610234,-0.6255195243768393,0.6209169990174472
1772797377243949800,7.50194970703125,-1.5477748009234666,-0.8181203638114035,0.27115502845048906
1772797377253975800,7.511975830078125,-1.9607132125020026,-0.5728898310165852,-0.0437261828713119
1772797377264001800,7.522001708984375,-2.168287456923723,-0.016282770552672444,-0.15635624449029564
1772797377274027800,7.53202783203125,-1.6977438285946844,0.3364186875322833,-0.2611317932166159
1772797377284053800,7.5420537109375,-0.9853227042257785,0.5489980102322995,-0.31119886954724785
1772797377294081000,7.5520810546875,-1.2786919025719166,0.6920638343863189,0.024877397755533454
1772797377304107000,7.56210693359375,-2.4916356139481066,0.7224144028559327,0.7325102649345994
1772797377314133000,7.572133056640625,-3.4456145008832215,0.8517522920392453,1.6267491150476037
1772797377324159000,7.582158935546875,-3.8118788395702836,0.968406713803485,2.410851327792555
1772797377334185000,7.59218505859375,-3.4620465802460907,1.0938684191405772,2.788023283332586
1772797377344211000,7.6022109375,-2.815084308737516,1.1096877003673464,2.700853241662681
1772797377354237000,7.61223681640625,-2.30969791508615,1.079356348054856,2.3856657408706843
1772797377364263000,7.622262939453125,-1.9785989978045224,1.160547972902283,2.0173565984830257
1772797377374289000,7.632288818359375,-1.4254168337553739,1.2432312976121902,1.6489771673381328
1772797377384315000,7.64231494140625,-0.4825953006505966,1.2472966473549603,1.4216203640818594
1772797377394341400,7.65234130859375,0.43681320816278457,1.1946323941379784,1.1547117410294712
1772797377404367400,7.662367431640625,1.3970260210514067,1.0674348049189895,0.804959122812748
1772797377414393600,7.6723935546875,2.0758488272011277,0.9700146604567765,0.4541416518434882
1772797377424419600,7.682419677734375,2.1782576467961072,0.900379252564162,0.1458461025223136
1772797377434445600,7.692445556640625,1.7871604801476,0.9552011222064495,-0.03642112055495381
1772797377444471600,7.702471435546875,1.1247820283204317,1.0130481848888098,-0.08391951544135809
1772797377454497500,7.71249755859375,0.5283446599125862,1.1550206608481703,-0.0365742652900517
1772797377464523500,7.7225234375,0.3189145584911108,1.2599405864812434,-0.09323547918871045
1772797377474550500,7.732550537109375,0.18442191689312457,1.2284335414528846,-0.1045645363241434
1772797377484576500,7.742576416015625,-0.3082084555596113,1.1005479699697345,-0.10026537782549858
1772797377494602500,7.7526025390625,-0.8061240749388933,1.003952074437216,-0.187026546433568
1772797377504628700,7.762628662109375,-1.2360434319347142,0.9021440702795982,-0.21190102157965301
1772797377514654700,7.77265478515625,-1.4898124412983655,0.7896665688738227,-0.1984526342026889
1772797377524680700,7.7826806640625,-1.2377590036809443,0.6997567269764841,-0.09565423076823353
1772797377534706700,7.792706787109375,-0.8379220657378434,0.4664399193372577,0.07574819168448448
1772797377544732700,7.802732666015625,-0.522227638337016,0.3231265866955742,0.24409984826445577
1772797377554758700,7.812758544921875,-0.3287526464164257,0.25086554300710556,0.37228199154138564
1772797377564784600,7.82278466796875,-0.21527999649345875,0.17456337070167063,0.3616626901105046
1772797377574810600,7.832810546875,0.02172550959587097,0.138755048282817,0.23510069538131353
1772797377584836600,7.842836669921875,0.3088192809343338,0.14462459790334103,0.19474939577057956
1772797377594862300,7.8528623046875,0.4369681064635515,0.09960201854594052,0.2738112420476973
1772797377604888300,7.862888427734375,0.6335398953557014,0.09758088798187672,0.3369341993063688
1772797377614914600,7.87291455078125,0.7472112827211618,0.1459420371774584,0.2737247328080237
1772797377624940500,7.8829404296875,0.9321890799313783,0.10056742951199411,0.28896804077774285
1772797377634966500,7.892966552734375,0.9754553902059793,0.11587412157412617,0.22890023330599069
1772797377644992500,7.902992431640625,1.1690355960667134,0.1503463365510106,0.24696239808872342
1772797377655018500,7.9130185546875,1.5981804615586994,0.1761697829850018,0.3686011110715568
1772797377665045500,7.92304541015625,1.9024363801002502,0.1550571445904672,0.5806978013537824
1772797377675071500,7.933071533203125,2.095151493564248,0.1786832271106541,0.7847203446432948
1772797377685097500,7.943097412109375,2.261550847032666,0.31306276372298597,0.8842385573633015
1772797377695123700,7.953123779296875,2.4078800568968055,0.44021037632040677,0.9146490393266081
1772797377705149700,7.963149658203125,2.5580922456741333,0.5552681765429676,0.8940367516696452
1772797377715175700,7.97317578125,2.6970307607650756,0.6170986097730696,0.8529775960505008
1772797377725201700,7.98320166015625,2.753099853989482,0.5774987861167639,0.7684259201854466
1772797377735227600,7.9932275390625,2.549920629656315,0.4952914814207703,0.6620679245732725
1772797377745253600,8.003253662109374,2.174290496730804,0.3595825959008187,0.528802778943628
1772797377755279600,8.013279541015624,1.8098440211206674,0.21901728332564233,0.362037807033211
1772797377765305600,8.0233056640625,1.5121441000938414,0.07168196515887976,0.20448796884417533
1772797377775331600,8.03333154296875,1.1607418149739503,-0.11255736170895397,0.029775837321579453
1772797377785357600,8.043357666015625,0.6455453904479742,-0.2642345450049266,-0.1523068229690194
1772797377795383600,8.053383544921875,0.1609580391973257,-0.4507988076889887,-0.28994010068029163
1772797377805409800,8.063409912109375,-0.29456980630755425,-0.5288535227501765,-0.4075698702827096
1772797377815435500,8.073435546875,-0.6063643036603927,-0.5613126443389803,-0.34052886279746886
1772797377825461500,8.08346142578125,-0.8067968596339226,-0.5685318915354087,-0.10812281332761049
1772797377835487500,8.093487548828126,-1.0701713172107934,-0.47730512182060625,0.07231456397399307
1772797377845513500,8.103513427734375,-1.5291040027230978,-0.3967226418474689,0.24782749048545955
1772797377855539500,8.11353955078125,-1.9459160408645868,-0.2970635228194296,0.46749753863140936
1772797377865566500,8.12356640625,-2.1384324168860913,-0.23171134520396588,0.675163991381228
1772797377875592400,8.133592529296875,-2.002010853052139,-0.23750004814062267,0.7145264260850847
1772797377885618400,8.143618408203125,-1.6156220102250576,-0.4278313352080062,0.5245565196759998
1772797377895644700,8.153644775390624,-1.282031276127696,-0.7707740907467902,0.06217544727548956
1772797377905670700,8.163670654296874,-1.2823211989849805,-1.409103412336111,-1.0081995758138595
1772797377915696600,8.173696533203126,-1.0566232688516377,-2.436931963858008,-1.8950981461666523
1772797377925722600,8.18372265625,-0.630006460532546,-2.8890596455305815,-2.4268786257468165
1772797377935748600,8.19374853515625,0.3501823879361152,-2.9657874959021804,-2.3971898821868
1772797377945774600,8.203774658203125,1.037431661647558,-2.417337767202407,-2.312741520565748
1772797377955800600,8.213800537109375,1.0081056139200926,-1.072687610880658,-1.3937866007387638
1772797377965826600,8.22382666015625,-0.2804161932706833,-0.3419306193541735,0.568133795595914
1772797377975852500,8.2338525390625,-2.5419869140475986,0.634766952932626,1.5837062382653355
1772797377985878500,8.24387841796875,-4.101200223830342,1.1295284921951592,2.08410636793673
1772797377995904500,8.253904541015626,-4.345357939761877,1.2661194212466478,2.0307532556727526
1772797378005930800,8.2639306640625,-3.5912095512539146,1.5209490455791352,1.6663430204197764
1772797378015956700,8.273956787109375,-2.3422540307760236,1.4443966979049145,1.7150211266100406
1772797378025982700,8.283982666015625,-0.5082020355939865,1.354406776508689,1.7544168790616095
1772797378036008700,8.2940087890625,1.0020347695738077,1.3097602639220653,1.6529038392625748
1772797378046034700,8.30403466796875,1.0452432121813298,1.2994482748746872,1.5939321564644575
1772797378056060700,8.314060791015624,0.5639525643885135,1.3411571265742182,1.6276872726805507
1772797378066087400,8.32408740234375,0.984223218551278,1.1807041142895818,1.8514925209350883
1772797378076113400,8.334113525390626,1.4233563940942286,1.1794554294027388,1.8759755125455557
1772797378086139400,8.344139404296875,1.7795646181911229,1.3419301567733286,1.7994542906619608
1772797378096165600,8.35416552734375,2.188422482457757,1.3603180463790894,1.8840109349630771
1772797378106191600,8.364191650390625,2.3414508976995942,1.3777549188703297,1.9112591535031795
1772797378116217600,8.374217529296875,2.2488953635990616,1.4233597550950943,1.8435905156388879
1772797378126243600,8.38424365234375,2.0373224049299954,1.440377671521902,1.7215930523462593
1772797378136269600,8.39426953125,1.7016443431645631,1.374979608938098,1.490341871999949
1772797378146295600,8.404295654296876,1.3910866941303015,1.2502408841133117,1.1128962140850722
1772797378156321500,8.414321533203125,1.1883230648607015,1.135861056217551,0.7854064272113144
1772797378166347500,8.424347412109375,0.711395288452506,0.8738630015604197,0.6813759977638721
1772797378176373500,8.43437353515625,-0.21761516144275664,0.5902762154296041,0.6137758950911462
1772797378186399500,8.4443994140625,-1.162993393293023,0.5365240573780611,0.48165524332150816
1772797378196425500,8.454425537109374,-1.8134715639680623,0.5032641042677686,0.5061472950212658
1772797378206451700,8.46445166015625,-2.368466330397129,0.47485831319037825,0.6454699871242046
1772797378216477700,8.474477783203126,-2.3782617482244968,0.5390100289748981,0.7363250009171665
1772797378226503700,8.484503662109375,-2.165791548454761,0.49240533152520655,1.0196785628139973
1772797378236529700,8.49452978515625,-1.4561007258325815,0.39131358587816356,1.3457608209773897
1772797378246555600,8.5045556640625,-0.24483634584546088,0.24552418197914957,1.478802094723284
1772797378256581600,8.51458154296875,0.7718284221053123,0.033308998150099065,1.5645754213377832
1772797378266608400,8.5246083984375,1.4413421326398848,-0.2141730398985557,1.6324775756970047
1772797378276634400,8.53463427734375,1.8312714245527981,-0.35611579657308756,1.7776031088598072
1772797378286660600,8.54466064453125,1.5549626666009426,-0.3418544123128056,1.8378161700211464
1772797378296686600,8.5546865234375,1.0486509747982025,-0.37403453429713845,1.9308644560746848
1772797378306712600,8.564712646484375,1.0855348905593156,-0.2764452438130975,1.9830438483841717
1772797378316738600,8.574738525390625,1.20128776037395,-0.06454345504846423,2.0165937974169847
1772797378326764500,8.5847646484375,1.4567793557465076,-0.02049106329693459,2.178141180809587
1772797378336790500,8.59479052734375,1.4725158540606498,0.12189013046063482,1.9919925862543284
1772797378346816500,8.60481640625,0.874396816176176,0.06778462892677635,1.5411691190481185
1772797378356842500,8.614842529296874,0.6664052231252193,-0.29541772837378083,1.3821573916129768
1772797378366868500,8.624868408203126,0.8403291268795728,-0.38823911033626646,1.1521228935800492
1772797378376894500,8.63489453125,0.573502483022213,-0.27965123678017406,0.9517501049697399
1772797378386920400,8.64492041015625,0.1697597698122263,-0.428719881545566,0.7818070875450969
1772797378396946200,8.6549462890625,-0.09076865068376064,-0.5041200269773602,0.6055743223264813
1772797378406972200,8.66497216796875,-0.3184650611579418,-0.5273833771323785,0.42128129251003266
1772797378416998100,8.674998046875,-0.543902879050374,-0.6494944933999329,0.37282077459320423
1772797378427024100,8.685024169921874,-0.7231558688730001,-0.7824580987997353,0.379324457398802
1772797378437050000,8.695050048828126,-1.0229448711335658,-0.9455415326531976,0.40388445976823567
1772797378447076000,8.705076171875,-1.2301771702498197,-0.9530968434035777,0.49510757622122764
1772797378457102000,8.71510205078125,-1.6654980940282345,-0.8459764851167798,0.92641853370592
1772797378467128000,8.725128173828125,-1.5854706175893545,-0.5111984409309923,1.2553773702189326
1772797378477155300,8.7351552734375,-0.9929834481120109,-0.30306250750590114,1.371900347623229
1772797378487181300,8.745181396484375,-0.258730431163311,-0.4263051485540345,1.4419121876128016
1772797378497207000,8.75520703125,0.5906722290098667,-0.19018880985677242,1.3783626755051315
1772797378507233000,8.76523291015625,-0.48237902755141254,-0.32532793266475196,2.016729698756337
1772797378517259000,8.775259033203126,0.12907821533381938,-0.6491149925630539,2.4043831546917556
1772797378527285000,8.785284912109375,-0.05208733011186122,-0.16255590284802018,2.16241827262938
1772797378537311000,8.79531103515625,-0.6697042646706104,-0.08469291096664965,2.1131629510730505
1772797378547337000,8.8053369140625,-0.9945727631300687,-0.17156557712517678,2.053155641616881
1772797378557363000,8.815363037109375,-1.1196136857718229,-0.22539375955499708,1.5946575481295584
1772797378567389200,8.82538916015625,-1.057469656547904,-0.4217032807817682,1.0016741195678711
1772797378577415200,8.835415283203124,-1.0801011750727891,-0.6812913151551038,0.3970743413619697
1772797378587441200,8.845441162109376,-1.1237596995353698,-0.9947615637004374,-0.04164616172686219
1772797378597467100,8.855467041015626,-1.6482313174068928,-1.2087405605979262,-0.38604178295508024
1772797378607493000,8.8654931640625,-1.8725597127526998,-1.1706132206469773,-0.4120562219165265
