time,seconds_elapsed,z,y,x
1772797369844706800,0.102706787109375,1.0800927877426147,-0.45727893710136414,-0.21906781196594238
1772797369854733000,0.112733154296875,1.1030598878860474,-0.38192054629325867,-0.16053710877895355
1772797369864759000,0.122759033203125,1.1507574319839478,-0.24768392741680145,-0.08446817845106125
1772797369874785000,0.132784912109375,1.2006417512893677,-0.07456003874540329,-0.01593652367591858
1772797369884811000,0.14281103515625,1.2293150424957275,0.08356568217277527,0.01775885745882988
1772797369894837000,0.1528369140625,1.2169089317321777,0.19253244996070862,0.0010003774659708142
1772797369904863000,0.162863037109375,1.1745250225067139,0.2788342833518982,-0.04872456565499306
1772797369914889000,0.172888916015625,1.127399206161499,0.3331739008426666,-0.1148708388209343
1772797369924915000,0.1829150390625,1.0832514762878418,0.36723437905311584,-0.15340065956115723
1772797369934941000,0.19294091796875,1.063348650932312,0.3772773742675781,-0.15410664677619934
1772797369944967000,0.202966796875,1.0635733604431152,0.3354545533657074,-0.1483888477087021
1772797369954994000,0.212993896484375,1.094541072845459,0.2800603210926056,-0.13056989014148712
1772797369965020000,0.22302001953125,1.1570854187011719,0.23537273705005646,-0.09894006699323654
1772797369975046000,0.2330458984375,1.2337652444839478,0.20755957067012787,-0.05272410809993744
1772797369985071900,0.24307177734375,1.3245446681976318,0.21722444891929626,-0.006452746689319611
1772797369995097900,0.253097900390625,1.4074972867965698,0.2033456563949585,0.024640724062919617
1772797370005123800,0.263123779296875,1.4536075592041016,0.14605200290679932,0.028719354420900345
1772797370015149800,0.27314990234375,1.45857834815979,0.0967237800359726,0.025226622819900513
1772797370025175800,0.28317578125,1.447059154510498,0.0589982345700264,0.02135172300040722
1772797370035201800,0.293201904296875,1.4347310066223145,0.0249774232506752,0.01242985762655735
1772797370045228000,0.30322802734375,1.4311556816101074,-0.010210124775767326,-0.004238600842654705
1772797370055254000,0.31325390625,1.4405425786972046,-0.07290741801261902,-0.03637762740254402
1772797370065280000,0.323280029296875,1.4481797218322754,-0.1824517548084259,-0.07162456214427948
1772797370075306000,0.333305908203125,1.448201298713684,-0.318765252828598,-0.09270640462636948
1772797370085332000,0.34333203125,1.4063835144042969,-0.4765958786010742,-0.09961064904928207
1772797370095358000,0.35335791015625,1.3302068710327148,-0.6056010127067566,-0.0800342932343483
1772797370105384000,0.363384033203125,1.2640397548675537,-0.687993049621582,-0.03835049271583557
1772797370115410000,0.373409912109375,1.1682393550872803,-0.6670205593109131,0.025349123403429985
1772797370125436000,0.383435791015625,1.0289839506149292,-0.5622997283935547,0.09373723715543747
1772797370135463000,0.393462890625,0.9026159644126892,-0.41591694951057434,0.12427916377782822
1772797370145489000,0.403489013671875,0.7933829426765442,-0.23309309780597687,0.10872470587491989
1772797370155515000,0.413514892578125,0.7157385945320129,-0.0711519867181778,0.056638870388269424
1772797370165540900,0.423540771484375,0.6571991443634033,0.02046182192862034,-0.01577248051762581
1772797370175566800,0.43356689453125,0.5875170230865479,0.06276734918355942,-0.09032662212848663
1772797370185592800,0.4435927734375,0.4407787024974823,0.056438080966472626,-0.14533047378063202
1772797370195618800,0.453618896484375,0.2457822561264038,-0.025944087654352188,-0.1949792504310608
1772797370205644800,0.463644775390625,0.05473507195711136,-0.09093879163265228,-0.2267233282327652
1772797370215670800,0.4736708984375,-0.09787290543317795,-0.13498924672603607,-0.2311154156923294
1772797370225696800,0.48369677734375,-0.1737455576658249,-0.13994485139846802,-0.22990554571151733
1772797370235722800,0.49372265625,-0.18903231620788574,-0.09209807217121124,-0.23272982239723206
1772797370245749000,0.5037490234375,-0.16146567463874817,-0.05255545675754547,-0.22358106076717377
1772797370255775000,0.51377490234375,-0.0820474699139595,-0.04405992850661278,-0.1825912892818451
1772797370265801000,0.523801025390625,0.041482195258140564,-0.030933741480112076,-0.1239681988954544
1772797370275827000,0.533826904296875,0.20438745617866516,-0.0527585968375206,-0.07696472853422165
1772797370285853000,0.54385302734375,0.3211710751056671,-0.08886813372373581,-0.01788170449435711
1772797370295880000,0.5538798828125,0.39023488759994507,-0.15094289183616638,0.04510071873664856
1772797370305906000,0.563906005859375,0.3836403489112854,-0.23253709077835083,0.08559142053127289
1772797370315932000,0.573931884765625,0.2558107376098633,-0.29180067777633667,0.13375629484653473
1772797370325958000,0.5839580078125,0.10241131484508514,-0.35217881202697754,0.2060461938381195
1772797370335983900,0.59398388671875,-0.014895210042595863,-0.4220745861530304,0.31612130999565125
1772797370346009900,0.604009765625,-0.040364086627960205,-0.4978790879249573,0.4379204511642456
1772797370356035800,0.614035888671875,0.04444625973701477,-0.5093722343444824,0.45458757877349854
1772797370366061800,0.624061767578125,0.2148859053850174,-0.46142467856407166,0.32021138072013855
1772797370376087800,0.634087890625,0.49409106373786926,-0.325217068195343,0.11039982736110687
1772797370386114600,0.644114501953125,0.6491487622261047,-0.2975425720214844,0.026348335668444633
1772797370396140500,0.654140625,0.7404637336730957,-0.34628772735595703,0.10036078095436096
1772797370406166800,0.664166748046875,0.7787416577339172,-0.44865456223487854,0.26395928859710693
1772797370416192800,0.67419287109375,0.8255883455276489,-0.5319762229919434,0.4569697678089142
1772797370426218800,0.68421875,0.8725079298019409,-0.5178380012512207,0.6174764037132263
1772797370436244700,0.69424462890625,0.9418321847915649,-0.41271358728408813,0.7335252165794373
1772797370446270700,0.704270751953125,1.0290822982788086,-0.2330905646085739,0.78914874792099
1772797370456297700,0.714297607421875,1.0953278541564941,-0.03573121875524521,0.7791166305541992
1772797370466323700,0.72432373046875,1.1583596467971802,0.14531740546226501,0.7417961359024048
1772797370476349700,0.734349609375,1.1945750713348389,0.25897854566574097,0.6945370435714722
1772797370486375700,0.744375732421875,1.2316728830337524,0.28115203976631165,0.6606203317642212
1772797370496401700,0.754401611328125,1.259212613105774,0.25661367177963257,0.6622840166091919
1772797370506427600,0.764427734375,1.28922700881958,0.203005850315094,0.6925063729286194
1772797370516453600,0.77445361328125,1.3211665153503418,0.11115538328886032,0.7212599515914917
1772797370526479600,0.784479736328125,1.3537225723266602,0.008732873946428299,0.7239753603935242
1772797370536505600,0.794505615234375,1.3525328636169434,-0.09294694662094116,0.6835997104644775
1772797370546531600,0.804531494140625,1.318037986755371,-0.1515095978975296,0.5714324116706848
1772797370556557600,0.8145576171875,1.2754768133163452,-0.13615989685058594,0.36610350012779236
1772797370566583600,0.82458349609375,1.2005506753921509,-0.12242995947599411,0.15915271639823914
1772797370576609500,0.834609619140625,1.1089723110198975,-0.12335479259490967,0.004206004552543163
1772797370586635500,0.844635498046875,1.0215189456939697,-0.1467336118221283,-0.07663638144731522
1772797370596662800,0.854662841796875,0.9602215886116028,-0.14463448524475098,-0.08980704098939896
1772797370606688800,0.864688720703125,0.9278244972229004,-0.042402930557727814,-0.024611258879303932
1772797370616714800,0.87471484375,0.9395595192909241,0.12635961174964905,0.08476874977350235
1772797370626740700,0.88474072265625,1.0023659467697144,0.2901242971420288,0.22555862367153168
1772797370636766700,0.8947666015625,1.0855085849761963,0.3796324133872986,0.36360520124435425
1772797370646792700,0.904792724609375,1.129012107849121,0.371865838766098,0.4858245849609375
1772797370656818700,0.914818603515625,1.1745463609695435,0.33425435423851013,0.5317707657814026
1772797370666844700,0.9248447265625,1.1695773601531982,0.26170504093170166,0.5307454466819763
1772797370676870700,0.93487060546875,1.140520691871643,0.19522829353809357,0.4949834644794464
1772797370686896600,0.944896728515625,1.1076709032058716,0.14879395067691803,0.43606022000312805
1772797370696923000,0.9549228515625,1.0827592611312866,0.12073717266321182,0.3504398465156555
1772797370706948900,0.964948974609375,1.070128321647644,0.10722615569829941,0.26351216435432434
1772797370716974800,0.974974853515625,1.0515223741531372,0.11249108612537384,0.2017638236284256
1772797370727001600,0.985001708984375,1.0286327600479126,0.1142173483967781,0.16391390562057495
1772797370737027600,0.995027587890625,1.0241910219192505,0.12672103941440582,0.14283764362335205
1772797370747053600,1.005053466796875,1.0169788599014282,0.1360173374414444,0.12273318320512772
1772797370757079600,1.01507958984375,0.9907503724098206,0.13448265194892883,0.09872611612081528
1772797370767105500,1.02510546875,0.9594606161117554,0.13428770005702972,0.0684925764799118
1772797370777131800,1.0351318359375,0.9302681684494019,0.14584504067897797,0.052463285624980927
1772797370787157800,1.04515771484375,0.9078446626663208,0.16919350624084473,0.05126326531171799
1772797370797183700,1.055183837890625,0.8892478942871094,0.20096008479595184,0.056630853563547134
1772797370807209700,1.065209716796875,0.8942540884017944,0.2294692099094391,0.046529483050107956
1772797370817235700,1.075235595703125,0.9222844243049622,0.23427505791187286,0.020257938653230667
1772797370827261700,1.08526171875,0.9820513725280762,0.211715430021286,-0.009248021990060806
1772797370837287700,1.09528759765625,1.0414456129074097,0.18253175914287567,-0.01870676688849926
1772797370847313700,1.105313720703125,1.0919064283370972,0.12930609285831451,-0.014992190524935722
1772797370857340700,1.115340576171875,1.1312768459320068,0.062468305230140686,-0.00010911724530160427
1772797370867367000,1.125366943359375,1.157025694847107,0.02441946044564247,0.018752189353108406
1772797370877393000,1.135392822265625,1.1790869235992432,0.012823444791138172,0.04346924647688866
1772797370887418600,1.145418701171875,1.1825625896453857,0.03565419092774391,0.04155576229095459
1772797370897444600,1.155444580078125,1.1570698022842407,0.08202692121267319,0.006890731863677502
1772797370907470600,1.165470703125,1.1005088090896606,0.16452951729297638,-0.05755909904837608
1772797370917496600,1.17549658203125,1.0241366624832153,0.2552891969680786,-0.14758619666099548
1772797370927522600,1.1855224609375,0.9466906189918518,0.3386509120464325,-0.2297135591506958
1772797370937548500,1.195548583984375,0.899003803730011,0.3718646466732025,-0.2917870581150055
1772797370947574500,1.205574462890625,0.867918074131012,0.3224440813064575,-0.3071497678756714
1772797370957600500,1.2156005859375,0.8436933159828186,0.22121480107307434,-0.2789575159549713
1772797370967626500,1.22562646484375,0.8532439470291138,0.11133331060409546,-0.2177295982837677
1772797370977653800,1.23565380859375,0.8665370941162109,0.009433913044631481,-0.12551525235176086
1772797370987679700,1.2456796875,0.8665720224380493,-0.0533200167119503,-0.01667531579732895
1772797370997705700,1.255705810546875,0.8483734130859375,-0.08087833970785141,0.08254554867744446
1772797371007731700,1.265731689453125,0.7976018786430359,-0.08702624589204788,0.20374414324760437
1772797371017757700,1.2757578125,0.6903068423271179,-0.104424849152565,0.30821356177330017
1772797371027783700,1.28578369140625,0.50486159324646,-0.08340798318386078,0.36578020453453064
1772797371037809700,1.2958095703125,0.2611345052719116,-0.01312534511089325,0.40538856387138367
1772797371047835600,1.305835693359375,-0.02432122454047203,0.05835416540503502,0.46724608540534973
1772797371057861600,1.315861572265625,-0.31416037678718567,0.06989678740501404,0.5715184211730957
1772797371067887900,1.325887939453125,-0.5635291337966919,0.03945925086736679,0.7280356287956238
1772797371077913900,1.335913818359375,-0.6653740406036377,0.07812798768281937,0.7846834063529968
1772797371087939800,1.34593994140625,-0.5262622237205505,0.3736265003681183,0.5941459536552429
1772797371097966600,1.355966552734375,-0.4130629003047943,0.7792540788650513,0.337367445230484
1772797371107992600,1.36599267578125,-0.23761622607707977,1.021571397781372,0.006879010703414679
1772797371118018600,1.3760185546875,0.09090351313352585,1.1567836999893188,-0.27453696727752686
1772797371128044500,1.38604443359375,0.3974402844905853,1.0637989044189453,-0.29679006338119507
1772797371138070500,1.396070556640625,0.6170565485954285,0.8287339806556702,-0.11009661108255386
1772797371148096500,1.406096435546875,0.724310040473938,0.43528124690055847,0.32136157155036926
1772797371158122800,1.416122802734375,0.7673228979110718,0.04833737015724182,0.7936921119689941
1772797371168148700,1.426148681640625,0.7555307149887085,-0.0444578155875206,1.1532773971557617
1772797371178174700,1.4361748046875,0.811027467250824,0.020824607461690903,1.2746105194091797
1772797371188200700,1.44620068359375,0.8951884508132935,0.20812153816223145,1.22639799118042
1772797371198226700,1.456226806640625,0.9659825563430786,0.3913620710372925,1.118131160736084
1772797371208252700,1.466252685546875,1.0536588430404663,0.13553054630756378,1.3635832071304321
1772797371218279700,1.47627978515625,1.1455479860305786,-0.15516749024391174,1.5440952777862549
1772797371228305700,1.4863056640625,1.2581884860992432,-0.31942275166511536,1.479522705078125
1772797371238332000,1.496331787109375,1.3418041467666626,-0.415996253490448,1.2260360717773438
1772797371248358000,1.50635791015625,1.3476377725601196,-0.4089638888835907,0.9208609461784363
1772797371258384000,1.5163837890625,1.2764683961868286,-0.3496773838996887,0.5970656275749207
1772797371268409900,1.526409912109375,1.1496087312698364,-0.14042189717292786,0.29432329535484314
1772797371278435600,1.536435546875,0.994065523147583,0.11634908616542816,0.012588554993271828
1772797371288461600,1.546461669921875,0.8209392428398132,0.34896501898765564,-0.21510426700115204
1772797371298487600,1.556487548828125,0.618826150894165,0.49702024459838867,-0.3633088767528534
1772797371308513500,1.566513427734375,0.4706774055957794,0.5339463353157043,-0.5020606517791748
1772797371318539500,1.57653955078125,0.3747939467430115,0.47376230359077454,-0.6486351490020752
1772797371328565500,1.5865654296875,0.3036936819553375,0.30465981364250183,-0.7109576463699341
1772797371338592800,1.5965927734375,0.2462082803249359,0.06491690874099731,-0.6753506660461426
1772797371348618800,1.60661865234375,0.21148279309272766,-0.15210728347301483,-0.5806718468666077
1772797371358644700,1.616644775390625,0.21610838174819946,-0.273843914270401,-0.4913283884525299
1772797371368670700,1.626670654296875,0.26528871059417725,-0.28777384757995605,-0.45913106203079224
1772797371378696700,1.63669677734375,0.3161628842353821,-0.22774265706539154,-0.4950869083404541
1772797371388722000,1.646721923828125,0.3220175802707672,-0.10666496306657791,-0.5713004469871521
1772797371398748000,1.656747802734375,0.3100910484790802,0.07298985868692398,-0.6635345220565796
1772797371408774000,1.66677392578125,0.300540953874588,0.2635885775089264,-0.7508257627487183
1772797371418800000,1.676800048828125,0.279403954744339,0.38264769315719604,-0.7742202877998352
1772797371428826000,1.686826171875,0.21515706181526184,0.3972727060317993,-0.7416146397590637
1772797371438852000,1.69685205078125,0.1461719125509262,0.36905139684677124,-0.7053797245025635
1772797371448879000,1.706879150390625,0.08456287533044815,0.3454619348049164,-0.6832605600357056
1772797371458905000,1.716905029296875,0.007729005068540573,0.2874785363674164,-0.6596830487251282
1772797371468931000,1.72693115234375,-0.016376331448554993,0.26491811871528625,-0.6738396286964417
1772797371478957000,1.73695703125,-0.0065293037332594395,0.2773458659648895,-0.676426351070404
1772797371488983000,1.746983154296875,0.06089634448289871,0.2789762318134308,-0.6721663475036621
1772797371499008800,1.7570087890625,0.16777895390987396,0.26477327942848206,-0.6730449199676514
1772797371509035000,1.767034912109375,0.27987220883369446,0.2422053962945938,-0.6913831830024719
1772797371519061000,1.77706103515625,0.40164896845817566,0.21280400454998016,-0.7011966705322266
1772797371529087000,1.7870869140625,0.5235639810562134,0.1808577924966812,-0.670907199382782
1772797371539113000,1.797113037109375,0.6209653615951538,0.13801880180835724,-0.616208553314209
1772797371549139000,1.807138916015625,0.692227840423584,0.10194496810436249,-0.5783623456954956
1772797371559166000,1.817166015625,0.7254624366760254,0.010959219187498093,-0.5826835632324219
1772797371569192000,1.82719189453125,0.6951679587364197,0.03549332544207573,-0.5734016299247742
1772797371579218000,1.837218017578125,0.622465968132019,0.07985611259937286,-0.5466774106025696
1772797371589244200,1.847244140625,0.5307056903839111,0.047780465334653854,-0.5210474133491516
1772797371599270100,1.857270263671875,0.4401152431964874,0.06531678140163422,-0.4739163815975189
1772797371609296100,1.867296142578125,0.3225715756416321,0.10391291230916977,-0.3785528242588043
1772797371619322000,1.877322021484375,0.16949643194675446,0.11536145210266113,-0.26123976707458496
1772797371629348000,1.88734814453125,-0.007878889329731464,0.11735669523477554,-0.14726075530052185
1772797371639374000,1.8973740234375,-0.18732383847236633,0.07345548272132874,-0.07842150330543518
1772797371649400000,1.907400146484375,-0.3275773525238037,0.0010824804194271564,-0.044643837958574295
1772797371659426000,1.917426025390625,-0.4142739772796631,-0.06975305080413818,0.0109629575163126
1772797371669452000,1.9274521484375,-0.44208139181137085,-0.14717300236225128,0.09435158967971802
1772797371679479000,1.93747900390625,-0.437177836894989,-0.2178492695093155,0.1835395246744156
1772797371689505000,1.947505126953125,-0.44236859679222107,-0.2551862597465515,0.254425972700119
1772797371699531000,1.957531005859375,-0.49281346797943115,-0.2787610590457916,0.25156891345977783
1772797371709557000,1.967556884765625,-0.5835468173027039,-0.28911304473876953,0.17852239310741425
1772797371719583000,1.9775830078125,-0.6812376976013184,-0.2861355245113373,0.08191196620464325
1772797371729609000,1.98760888671875,-0.7559175491333008,-0.24848775565624237,0.011198915541172028
1772797371739635000,1.997635009765625,-0.8077629208564758,-0.184956356883049,-0.03017168678343296
1772797371749661000,2.007660888671875,-0.8547642230987549,-0.11056014150381088,-0.05134541168808937
1772797371759687000,2.01768701171875,-0.8987507224082947,-0.07212076336145401,-0.06398157775402069
1772797371769713000,2.027712890625,-0.9352895617485046,-0.06755317747592926,-0.06636884063482285
1772797371779739000,2.03773876953125,-0.9661797881126404,-0.11507311463356018,-0.03407694399356842
1772797371789766100,2.04776611328125,-0.9789038300514221,-0.18187105655670166,0.049961235374212265
1772797371799792000,2.057792236328125,-0.9712859392166138,-0.24964004755020142,0.12021727859973907
1772797371809818000,2.067818115234375,-0.9625928401947021,-0.26993441581726074,0.0472852848470211
1772797371819844000,2.077843994140625,-0.9662742018699646,-0.34021130204200745,-0.1426074057817459
1772797371829870000,2.0878701171875,-0.9621923565864563,-0.49410951137542725,-0.1923627108335495
1772797371839896000,2.09789599609375,-0.9357455968856812,-0.6480362415313721,-0.054906345903873444
1772797371849922000,2.107922119140625,-0.9138669371604919,-0.7604386806488037,0.166081964969635
1772797371859948000,2.117947998046875,-0.8011221289634705,-0.7067857384681702,0.36650773882865906
1772797371869974000,2.12797412109375,-0.5576258897781372,-0.4024098813533783,0.4707790017127991
1772797371880000000,2.138,-0.32478389143943787,-0.04763910174369812,0.5086726546287537
1772797371890026000,2.14802587890625,-0.13888804614543915,0.26397231221199036,0.5054161548614502
1772797371900052000,2.158052001953125,0.012091297656297684,0.5428314805030823,0.515535295009613
1772797371910079000,2.168078857421875,0.149577796459198,0.7107205986976624,0.513075590133667
1772797371920105000,2.17810498046875,0.25626659393310547,0.7428757548332214,0.5066944360733032
1772797371930131000,2.188130859375,0.3260304927825928,0.6074212789535522,0.5373982787132263
1772797371940157000,2.198156982421875,0.3722338378429413,0.3610261380672455,0.5407943725585938
1772797371950183000,2.208182861328125,0.387490838766098,0.07880270481109619,0.5064393281936646
1772797371960209200,2.218209228515625,0.3788388967514038,-0.1599244475364685,0.502605140209198
1772797371970235100,2.228235107421875,0.36503493785858154,-0.33614394068717957,0.5344038009643555
1772797371980261000,2.23826123046875,0.36253252625465393,-0.48680344223976135,0.5734478831291199
1772797371990287000,2.248287109375,0.3455285131931305,-0.5472865104675293,0.5909685492515564
1772797372000313000,2.25831298828125,0.2970316708087921,-0.5310311913490295,0.5501854419708252
1772797372010339000,2.268339111328125,0.23324468731880188,-0.44681060314178467,0.4499240815639496
1772797372020366000,2.278365966796875,0.13576194643974304,-0.28645119071006775,0.32265186309814453
1772797372030391800,2.288391845703125,0.022121677175164223,-0.09419863671064377,0.2211175262928009
1772797372040417800,2.298417724609375,-0.088349349796772,0.09425529837608337,0.16666093468666077
1772797372050444000,2.308444091796875,-0.16136232018470764,0.26017794013023376,0.16876830160617828
1772797372060470000,2.318469970703125,-0.17275793850421906,0.3913622498512268,0.20671623945236206
1772797372070496000,2.32849609375,-0.11191242933273315,0.5077037811279297,0.24686631560325623
1772797372080522000,2.33852197265625,-0.010116501711308956,0.6181065440177917,0.2646482288837433
1772797372090548000,2.3485478515625,0.1252908557653427,0.6720981597900391,0.2456311285495758
1772797372100574000,2.358573974609375,0.255944162607193,0.6351345181465149,0.21681439876556396
1772797372110600000,2.368599853515625,0.3631949722766876,0.490660160779953,0.20849362015724182
1772797372120626000,2.3786259765625,0.43797436356544495,0.31497684121131897,0.19988228380680084
1772797372130653000,2.38865283203125,0.44880783557891846,0.13605716824531555,0.23634175956249237
1772797372140679200,2.39867919921875,0.47760695219039917,-0.009366050362586975,0.32658669352531433
1772797372150705200,2.408705078125,0.5194182991981506,-0.10395807027816772,0.4933285415172577
1772797372160731100,2.418731201171875,0.5566191673278809,-0.16997739672660828,0.5859282612800598
1772797372170757000,2.428757080078125,0.586931049823761,-0.17388026416301727,0.58218914270401
1772797372180783000,2.438783203125,0.6360082030296326,-0.09942755103111267,0.4469994008541107
1772797372190809000,2.44880908203125,0.7088610529899597,0.059636130928993225,0.24997633695602417
1772797372200835000,2.4588349609375,0.7847469449043274,0.22913233935832977,0.09525653719902039
1772797372210861000,2.468861083984375,0.8409508466720581,0.3146267235279083,0.07420824468135834
1772797372220887000,2.478886962890625,0.8609878420829773,0.28999873995780945,0.16758854687213898
1772797372230913000,2.4889130859375,0.8688820004463196,0.21747128665447235,0.27670225501060486
1772797372240939000,2.49893896484375,0.8883273601531982,0.1186428815126419,0.30913636088371277
1772797372250966000,2.508966064453125,0.8907042145729065,0.0626366063952446,0.24890094995498657
1772797372260992000,2.518991943359375,0.9047359824180603,0.046802666038274765,0.13111147284507751
1772797372271018000,2.52901806640625,0.9355340600013733,0.0433911569416523,0.003130607306957245
1772797372281044000,2.5390439453125,0.9704626798629761,0.03744807094335556,-0.07921060174703598
1772797372291070000,2.549070068359375,1.015733242034912,0.017804328352212906,-0.12360096722841263
1772797372301096000,2.559095947265625,1.0682286024093628,-0.04214467108249664,-0.13334627449512482
1772797372311122000,2.569121826171875,1.1214447021484375,-0.11425215005874634,-0.13416387140750885
1772797372321148000,2.57914794921875,1.1728683710098267,-0.1556406319141388,-0.16517558693885803
1772797372331174000,2.589173828125,1.2286301851272583,-0.16857799887657166,-0.20970071852207184
1772797372341200100,2.5992001953125,1.2777445316314697,-0.18047085404396057,-0.24421393871307373
1772797372351226000,2.60922607421875,1.300575852394104,-0.18699213862419128,-0.23481591045856476
1772797372361253000,2.619253173828125,1.2949020862579346,-0.17489315569400787,-0.19485142827033997
1772797372371279000,2.629279052734375,1.28939950466156,-0.1450449675321579,-0.1603616327047348
1772797372381305000,2.63930517578125,1.2952020168304443,-0.07709880918264389,-0.13025808334350586
1772797372391331000,2.6493310546875,1.2990425825119019,0.026770861819386482,-0.10676473379135132
1772797372401357000,2.659357177734375,1.2964956760406494,0.11903979629278183,-0.08144926279783249
1772797372411383000,2.669383056640625,1.265466570854187,0.1930844634771347,-0.06201404333114624
1772797372421409000,2.679408935546875,1.1847652196884155,0.2758179008960724,-0.02628800831735134
1772797372431435000,2.68943505859375,1.0441592931747437,0.2995959520339966,0.013806947506964207
1772797372441461000,2.6994609375,0.8163434267044067,0.2384720742702484,0.06207594648003578
1772797372451487000,2.709487060546875,0.5480312705039978,0.15335585176944733,0.08817972242832184
1772797372461513000,2.719512939453125,0.25552132725715637,0.11471206694841385,0.11738234758377075
1772797372471539000,2.7295390625,-0.020984293892979622,0.10320588201284409,0.12246792018413544
1772797372481566000,2.73956591796875,-0.2073066681623459,0.16349953413009644,0.05081876367330551
1772797372491592000,2.749592041015625,-0.2033582627773285,0.3138134181499481,-0.09862904250621796
1772797372501618000,2.759617919921875,0.009795746766030788,0.48923248052597046,-0.2716953456401825
1772797372511644200,2.76964404296875,0.2726327180862427,0.5580517649650574,-0.3523763418197632
1772797372521670100,2.779670166015625,0.4835336208343506,0.49292439222335815,-0.29661083221435547
1772797372531696000,2.789696044921875,0.6246883273124695,0.3012649416923523,-0.1379183977842331
1772797372541722000,2.79972216796875,0.7286514639854431,0.06768965721130371,0.08949025720357895
1772797372551748000,2.809748046875,0.7837940454483032,-0.11441649496555328,0.34573057293891907
1772797372561774000,2.819774169921875,0.8149348497390747,-0.16834396123886108,0.5698835253715515
1772797372571800000,2.829800048828125,0.8516156077384949,-0.08585759997367859,0.7014412879943848
1772797372581826000,2.839825927734375,0.8964638113975525,0.08967231959104538,0.7435809969902039
1772797372591852800,2.849852783203125,0.9391774535179138,0.2985410988330841,0.7317304611206055
1772797372601879000,2.859879150390625,0.997048020362854,0.5114431381225586,0.66033935546875
1772797372611905000,2.869905029296875,1.0474395751953125,0.6610827445983887,0.5551327466964722
1772797372621931000,2.879930908203125,1.068617820739746,0.7106143832206726,0.44520068168640137
1772797372631957000,2.88995703125,1.0803836584091187,0.6832187175750732,0.3696843683719635
1772797372641983000,2.89998291015625,1.1136212348937988,0.5010747313499451,0.41543880105018616
1772797372652009000,2.910009033203125,1.1621471643447876,0.26100248098373413,0.46601036190986633
1772797372662035000,2.920034912109375,1.215693712234497,0.1656288504600525,0.30284383893013
1772797372672061000,2.93006103515625,1.220770239830017,0.15652669966220856,0.09687948226928711
1772797372682087000,2.9400869140625,1.1985812187194824,0.1451905518770218,-0.054272495210170746
1772797372692113000,2.95011279296875,1.1654413938522339,0.08211944252252579,-0.16984595358371735
1772797372702139000,2.960138916015625,1.095486044883728,-0.021966151893138885,-0.2557297348976135
1772797372712166100,2.970166259765625,0.9918656945228577,-0.1347491592168808,-0.34511685371398926
1772797372722192100,2.980192138671875,0.8581469655036926,-0.28488707542419434,-0.46525096893310547
1772797372732218000,2.990218017578125,0.7329096794128418,-0.45927032828330994,-0.6284627914428711
1772797372742244000,3.000244140625,0.6273165345191956,-0.5569626688957214,-0.762963056564331
1772797372752270000,3.01027001953125,0.5272815227508545,-0.4638899564743042,-0.7985828518867493
1772797372762296000,3.020296142578125,0.43909430503845215,-0.2135014832019806,-0.7799692749977112
1772797372772322000,3.030322021484375,0.3482877314090729,0.08456723392009735,-0.7485383749008179
1772797372782348000,3.04034814453125,0.26892605423927307,0.2678900957107544,-0.6387454867362976
1772797372792374000,3.0503740234375,0.21758165955543518,0.36094704270362854,-0.5254668593406677
1772797372802400000,3.06039990234375,0.19644223153591156,0.4547101557254791,-0.512800931930542
1772797372812426000,3.070426025390625,0.1710953265428543,0.4822016954421997,-0.5551102757453918
1772797372822453000,3.080452880859375,0.1312633752822876,0.39026135206222534,-0.5864000916481018
1772797372832479000,3.09047900390625,0.09872592985630035,0.19814914464950562,-0.5678455829620361
1772797372842505000,3.1005048828125,0.12263142317533493,0.05368467792868614,-0.5534842014312744
1772797372852531000,3.110531005859375,0.19210770726203918,-0.04392789676785469,-0.548215389251709
1772797372862557000,3.120556884765625,0.3082026243209839,-0.08513480424880981,-0.5550330281257629
1772797372872583000,3.1305830078125,0.5049633383750916,0.017376918345689774,-0.5892732739448547
1772797372882609200,3.140609130859375,0.6907739043235779,0.08982248604297638,-0.616737425327301
1772797372892635100,3.15063525390625,0.7974470853805542,0.09478475898504257,-0.5943477153778076
1772797372902661000,3.1606611328125,0.8848340511322021,0.06403885036706924,-0.4971950650215149
1772797372912687000,3.17068701171875,1.02426278591156,0.029920823872089386,-0.43155398964881897
1772797372922713000,3.180713134765625,1.1234819889068604,-0.031300440430641174,-0.3886568546295166
1772797372932739000,3.190739013671875,1.173038363456726,-0.12835802137851715,-0.3381529450416565
1772797372942765800,3.200765869140625,1.2118189334869385,-0.24414370954036713,-0.26561322808265686
1772797372952791800,3.210791748046875,1.2458887100219727,-0.37344446778297424,-0.16895167529582977
1772797372962817800,3.22081787109375,1.2811918258666992,-0.5033217072486877,-0.0502583272755146
1772797372972844000,3.230843994140625,1.3112136125564575,-0.6278945207595825,0.0706811472773552
1772797372982870000,3.2408701171875,1.3136836290359497,-0.7209949493408203,0.1702761948108673
1772797372992896000,3.25089599609375,1.2587575912475586,-0.7549337148666382,0.21014797687530518
1772797373002922000,3.260921875,1.143941879272461,-0.7160776853561401,0.1802518516778946
1772797373012948000,3.270947998046875,1.0052976608276367,-0.6150115132331848,0.09307700395584106
1772797373022974000,3.280973876953125,0.858013391494751,-0.4927988052368164,-0.005651945248246193
1772797373033000000,3.291,0.714558482170105,-0.38310161232948303,-0.08620777726173401
1772797373043026000,3.30102587890625,0.6035746932029724,-0.32186710834503174,-0.13161921501159668
1772797373053053000,3.311052978515625,0.5247322916984558,-0.2843916416168213,-0.11298534274101257
1772797373063079200,3.3210791015625,0.4767412543296814,-0.23109988868236542,-0.05677559971809387
1772797373073105200,3.331105224609375,0.46102964878082275,-0.17403501272201538,-0.014919496141374111
1772797373083131100,3.341131103515625,0.4601404368877411,-0.12144316732883453,-0.042144447565078735
1772797373093157000,3.3511572265625,0.4836881160736084,-0.0980938971042633,-0.07936851680278778
1772797373103183000,3.36118310546875,0.5267954468727112,-0.12246265262365341,-0.05461417883634567
1772797373113209000,3.371208984375,0.579262912273407,-0.17086480557918549,0.002753770211711526
1772797373123235000,3.381235107421875,0.6253271698951721,-0.2180563360452652,0.053123731166124344
1772797373133261000,3.391260986328125,0.6599277853965759,-0.24948057532310486,0.08807718753814697
1772797373143287000,3.401287109375,0.6639710068702698,-0.276652455329895,0.10304202884435654
1772797373153313000,3.41131298828125,0.6461797952651978,-0.27763012051582336,0.100223608314991
1772797373163339000,3.421339111328125,0.637420654296875,-0.30484113097190857,0.09465359896421432
1772797373173366000,3.431365966796875,0.6662014722824097,-0.31732895970344543,0.0988968163728714
1772797373183392000,3.44139208984375,0.6279219388961792,-0.4050227701663971,0.13400180637836456
1772797373193418000,3.45141796875,0.6648128032684326,-0.48108795285224915,0.14790217578411102
1772797373203444000,3.46144384765625,0.7669690251350403,-0.527438223361969,0.15752045810222626
1772797373213470000,3.471469970703125,0.8464246988296509,-0.5832951068878174,0.22732163965702057
1772797373223496000,3.481495849609375,0.9200005531311035,-0.6472740173339844,0.35582903027534485
1772797373233522000,3.49152197265625,0.8771119713783264,-0.7775204181671143,0.561417818069458
1772797373243548000,3.5015478515625,0.7995955348014832,-0.8883575797080994,0.7327113151550293
1772797373253574000,3.511573974609375,0.7181832194328308,-0.9083954691886902,0.7352911233901978
1772797373263600000,3.52160009765625,0.600505530834198,-0.8567578792572021,0.5875319838523865
1772797373273626000,3.531626220703125,0.4617744982242584,-0.7959081530570984,0.420718789100647
1772797373283652000,3.541652099609375,0.3690530061721802,-0.7196803689002991,0.32469186186790466
1772797373293679000,3.55167919921875,0.41796064376831055,-0.5502465963363647,0.26444822549819946
1772797373303705000,3.561705078125,0.48511043190956116,-0.3598887324333191,0.30180758237838745
1772797373313731000,3.57173095703125,0.5298701524734497,-0.19911985099315643,0.40521731972694397
1772797373323757000,3.581757080078125,0.5597588419914246,-0.029404934495687485,0.5167340040206909
1772797373333782800,3.59178271484375,0.5981634855270386,0.1685962975025177,0.5790168046951294
1772797373343809000,3.60180908203125,0.6609428524971008,0.3444960117340088,0.5681061148643494
1772797373353835000,3.6118349609375,0.7401673793792725,0.45770832896232605,0.5332932472229004
1772797373363861000,3.621861083984375,0.806148111820221,0.4703388512134552,0.5124918222427368
1772797373373887000,3.631886962890625,0.850000262260437,0.39661774039268494,0.5394310355186462
1772797373383913000,3.641912841796875,0.8744591474533081,0.286551833152771,0.5888340473175049
1772797373393938700,3.651938720703125,0.8972606062889099,0.18813391029834747,0.631712019443512
1772797373403964700,3.661964599609375,0.9337806105613708,0.07715719938278198,0.6040124297142029
1772797373413991700,3.67199169921875,0.966560423374176,-0.06760131567716599,0.5034596920013428
1772797373424017700,3.682017578125,0.994310200214386,-0.19858896732330322,0.354410856962204
1772797373434043600,3.692043701171875,1.021431565284729,-0.31964561343193054,0.21669746935367584
1772797373444070000,3.70206982421875,1.0547159910202026,-0.4306749105453491,0.13997873663902283
1772797373454096000,3.712095947265625,1.1027770042419434,-0.5249150991439819,0.13093064725399017
1772797373464121900,3.722121826171875,1.1742756366729736,-0.6068032383918762,0.1822393834590912
1772797373474147800,3.73214794921875,1.2508665323257446,-0.6585231423377991,0.28017207980155945
1772797373484173800,3.742173828125,1.3057464361190796,-0.5891668796539307,0.42456546425819397
1772797373494199800,3.75219970703125,1.3297710418701172,-0.34626132249832153,0.5722587704658508
1772797373504225800,3.762225830078125,1.3246798515319824,0.030578626319766045,0.6444091200828552
1772797373514251800,3.772251708984375,1.2854310274124146,0.40441960096359253,0.6193248629570007
1772797373524278800,3.78227880859375,1.2013641595840454,0.670336127281189,0.5231096148490906
1772797373534304800,3.7923046875,1.1441706418991089,0.8479465842247009,0.38533923029899597
1772797373544330800,3.802330810546875,1.1327816247940063,0.8914790749549866,0.2582675516605377
1772797373554356700,3.812356689453125,1.1303983926773071,0.8067393898963928,0.19065682590007782
1772797373564382700,3.8223828125,1.1447523832321167,0.6310268640518188,0.19426915049552917
1772797373574408700,3.83240869140625,1.1704121828079224,0.4103003442287445,0.2438444197177887
1772797373584434700,3.8424345703125,1.190985918045044,0.21672599017620087,0.2925560474395752
1772797373594460700,3.852460693359375,1.2098815441131592,0.11613946408033371,0.3072628080844879
1772797373604486700,3.862486572265625,1.2209399938583374,0.10461419075727463,0.25573915243148804
1772797373614512600,3.8725126953125,1.221716284751892,0.1319296956062317,0.15388870239257812
1772797373624538600,3.88253857421875,1.2086092233657837,0.20195364952087402,0.041221801191568375
1772797373634564900,3.89256494140625,1.2014117240905762,0.27702391147613525,-0.05892237648367882
1772797373644591900,3.902591796875,1.1825885772705078,0.3349599242210388,-0.12809345126152039
1772797373654617900,3.912617919921875,1.1870036125183105,0.37209343910217285,-0.15266484022140503
1772797373664643800,3.922643798828125,1.2028474807739258,0.36618611216545105,-0.12931370735168457
1772797373674669800,3.932669921875,1.250437617301941,0.28484758734703064,-0.03423938900232315
1772797373684695800,3.94269580078125,1.3201963901519775,0.18228037655353546,0.09525494277477264
1772797373694721800,3.9527216796875,1.4176359176635742,0.054233722388744354,0.2083468735218048
1772797373704747800,3.962747802734375,1.5228183269500732,-0.03546065464615822,0.27805325388908386
1772797373714773800,3.972773681640625,1.5807188749313354,-0.08911216259002686,0.3060361444950104
1772797373724799700,3.9827998046875,1.5937418937683105,-0.08860526233911514,0.33670327067375183
1772797373734825700,3.99282568359375,1.5762503147125244,-0.05765160545706749,0.37115684151649475
1772797373744851700,4.002851806640625,1.5378872156143188,-0.03930554911494255,0.3891555368900299
1772797373754877700,4.012877685546875,1.4963383674621582,-0.027768734842538834,0.3766748905181885
1772797373764904700,4.02290478515625,1.4725911617279053,-0.017737559974193573,0.3452996611595154
1772797373774930700,4.0329306640625,1.4465994834899902,-0.028473559767007828,0.2829958200454712
1772797373784956700,4.042956787109375,1.4352537393569946,-0.046320125460624695,0.19448858499526978
1772797373794982700,4.052982666015625,1.4478355646133423,-0.10027230530977249,0.11302542686462402
1772797373805008600,4.063008544921875,1.4646663665771484,-0.17012234032154083,0.08882394433021545
1772797373815035000,4.073034912109375,1.4669417142868042,-0.2235296368598938,0.10887648165225983
1772797373825060900,4.083060791015625,1.4480100870132446,-0.23544354736804962,0.15192675590515137
1772797373835086800,4.0930869140625,1.408750057220459,-0.19915984570980072,0.15775880217552185
1772797373845112800,4.10311279296875,1.3457244634628296,-0.10645652562379837,0.147025465965271
1772797373855138800,4.113138916015625,1.2831758260726929,0.024374186992645264,0.1281159669160843
1772797373865164800,4.123164794921875,1.2167950868606567,0.13238146901130676,0.1423308551311493
1772797373875190800,4.133190673828125,1.1358776092529297,0.18186992406845093,0.22096841037273407
1772797373885216800,4.143216796875,1.0549358129501343,0.1357111781835556,0.3397935926914215
1772797373895243500,4.153243408203125,1.0267741680145264,0.10547763854265213,0.3967418372631073
1772797373905269800,4.163269775390625,0.9782598614692688,0.2638590335845947,0.24940644204616547
1772797373915295700,4.173295654296875,0.742507815361023,0.5336005091667175,-0.07644437253475189
1772797373925321700,4.18332177734375,0.49126580357551575,0.7858874201774597,-0.38527172803878784
1772797373935347700,4.19334765625,0.5022585391998291,0.9061331152915955,-0.4522864520549774
1772797373945373700,4.203373779296875,0.652201235294342,0.8438751697540283,-0.23943117260932922
1772797373955399700,4.213399658203125,0.8605788946151733,0.6175051927566528,0.20778387784957886
1772797373965425700,4.22342578125,1.0631359815597534,0.30334213376045227,0.7108773589134216
1772797373975451600,4.23345166015625,1.2334333658218384,0.06041126325726509,1.068281888961792
1772797373985477600,4.2434775390625,1.384548306465149,0.015482397750020027,1.2321226596832275
1772797373995503600,4.253503662109375,1.5265544652938843,0.14498713612556458,1.2488702535629272
1772797374005529900,4.26352978515625,1.6621474027633667,0.3796553313732147,1.1882396936416626
1772797374015556900,4.273556884765625,1.7737258672714233,0.5251531600952148,1.0679105520248413
1772797374025582800,4.283582763671875,1.8370939493179321,0.5929112434387207,0.9543995261192322
1772797374035608800,4.29360888671875,1.8613898754119873,0.5857582688331604,0.8738399744033813
1772797374045634800,4.303634765625,1.8548563718795776,0.5728991627693176,0.8376901745796204
1772797374055660800,4.313660888671875,1.8704828023910522,0.5515410900115967,0.7858173847198486
1772797374065686800,4.323686767578125,1.9137747287750244,0.5174067616462708,0.7082648277282715
1772797374075712800,4.333712646484375,1.9629480838775635,0.4743865728378296,0.5587421655654907
1772797374085738800,4.34373876953125,2.0059027671813965,0.5843243598937988,0.20662754774093628
1772797374095765000,4.353764892578125,1.993524193763733,0.7637439370155334,-0.2215091437101364
1772797374105791000,4.363791015625,1.9382305145263672,0.8737747669219971,-0.5998018980026245
1772797374115816700,4.373816650390625,1.8928924798965454,0.7732039093971252,-0.7801545858383179
1772797374125842700,4.3838427734375,1.8470282554626465,0.4251405894756317,-0.7990816831588745
1772797374135869700,4.39386962890625,1.799466609954834,-0.11494448035955429,-0.7397981286048889
1772797374145895700,4.403895751953125,1.6820950508117676,-0.6413398385047913,-0.6183694005012512
1772797374155921700,4.413921630859375,1.5545498132705688,-0.8602455258369446,-0.4445613920688629
1772797374165947600,4.42394775390625,1.4913767576217651,-0.8055099844932556,-0.32334762811660767
1772797374175973600,4.4339736328125,1.475770115852356,-0.5696564316749573,-0.3129517138004303
1772797374186000000,4.443999755859375,1.4639861583709717,-0.1766040176153183,-0.43409889936447144
1772797374196025900,4.45402587890625,1.4523204565048218,0.2723604738712311,-0.6710216999053955
1772797374206051800,4.4640517578125,1.4420750141143799,0.5872921347618103,-0.8763729929924011
1772797374216077800,4.474077880859375,1.4016413688659668,0.5648592710494995,-0.8304955363273621
1772797374226103800,4.484103759765625,1.3791838884353638,0.40118539333343506,-0.6937893629074097
1772797374236129800,4.4941298828125,1.3863749504089355,0.20038384199142456,-0.5856149196624756
1772797374246155800,4.50415576171875,1.3991050720214844,-0.09972286224365234,-0.5213624238967896
1772797374256181800,4.514181640625,1.3933496475219727,-0.40475574135780334,-0.43387171626091003
1772797374266208800,4.524208740234375,1.3610364198684692,-0.5724588632583618,-0.30372491478919983
1772797374276234800,4.53423486328125,1.310920238494873,-0.6032524704933167,-0.1258784979581833
1772797374286260700,4.5442607421875,1.269563913345337,-0.5340763330459595,0.060621343553066254
1772797374296286700,4.55428662109375,1.2228792905807495,-0.35607463121414185,0.2604540288448334
1772797374306312700,4.564312744140625,1.241770625114441,-0.20638996362686157,0.36035585403442383
1772797374316338700,4.574338623046875,1.2717849016189575,-0.07325399667024612,0.33768436312675476
1772797374326364700,4.58436474609375,1.296612024307251,0.07427994906902313,0.2484985589981079
1772797374336390700,4.594390625,1.4012316465377808,0.13374248147010803,0.040649499744176865
1772797374346416600,4.604416748046875,1.5827561616897583,0.27620774507522583,-0.21764864027500153
1772797374356442600,4.614442626953125,1.664658546447754,0.24021458625793457,-0.3512503504753113
1772797374366468600,4.624468505859375,1.7151775360107422,0.032279081642627716,-0.35103410482406616
1772797374376494600,4.63449462890625,1.7247090339660645,-0.25321364402770996,-0.27451908588409424
1772797374386521900,4.64452197265625,1.7006285190582275,-0.4900810718536377,-0.13925927877426147
1772797374396548900,4.654548828125,1.640906810760498,-0.6086857318878174,-0.011002780869603157
1772797374406574800,4.664574951171875,1.5589784383773804,-0.6043429374694824,0.03271939605474472
1772797374416600800,4.674600830078125,1.4685875177383423,-0.49990472197532654,-0.026167888194322586
1772797374426626800,4.684626708984375,1.3498731851577759,-0.30788129568099976,-0.15000033378601074
1772797374436652800,4.69465283203125,1.1677985191345215,-0.041706595569849014,-0.3338066339492798
1772797374446678800,4.7046787109375,0.9512478709220886,0.1900199055671692,-0.5506407022476196
1772797374456704800,4.714704833984375,0.7593612670898438,0.40535297989845276,-0.6775850653648376
1772797374466730800,4.724730712890625,0.6149595975875854,0.5860759019851685,-0.7415589690208435
1772797374476756700,4.7347568359375,0.56784588098526,0.7025058269500732,-0.763033926486969
1772797374486782700,4.74478271484375,0.5844377279281616,0.8066906929016113,-0.7871975898742676
1772797374496809000,4.75480908203125,0.6429585218429565,0.8056198358535767,-0.8186087608337402
1772797374506835000,4.7648349609375,0.7010094523429871,0.6973991394042969,-0.8558430075645447
1772797374516861000,4.77486083984375,0.7327501177787781,0.5168288350105286,-0.8719630837440491
1772797374526888000,4.784887939453125,0.7767537236213684,0.2799641489982605,-0.8185539245605469
1772797374536914000,4.794913818359375,0.7969322204589844,0.013500751927495003,-0.6456298232078552
1772797374546940000,4.80493994140625,0.7997723817825317,-0.1610935777425766,-0.3798564374446869
1772797374556966000,4.8149658203125,0.7692738771438599,-0.2238866537809372,-0.03634089231491089
1772797374566992000,4.824991943359375,0.7165325880050659,-0.33123570680618286,0.3182526230812073
1772797374577017900,4.835017822265625,0.5946149230003357,-0.5590319037437439,0.6112879514694214
1772797374587044000,4.845044189453125,0.5905817151069641,-0.6026845574378967,0.7152678966522217
1772797374597070000,4.855070068359375,0.5471546649932861,-0.5607568025588989,0.6690436601638794
1772797374607096000,4.865095947265625,0.47476926445961,-0.559942901134491,0.5944696068763733
1772797374617122000,4.8751220703125,0.4199230670928955,-0.6555652618408203,0.61684250831604
1772797374627148000,4.88514794921875,0.4101799428462982,-0.7631238102912903,0.7726379632949829
1772797374637174000,4.895174072265625,0.4758114218711853,-0.7955893278121948,1.0209417343139648
1772797374647199700,4.90519970703125,0.6410545110702515,-0.661547064781189,1.1917942762374878
1772797374657226800,4.915226806640625,0.8994647264480591,-0.48337364196777344,1.15824294090271
1772797374667252700,4.925252685546875,1.1134368181228638,-0.21057936549186707,1.0821551084518433
1772797374677279000,4.935279052734375,1.182240605354309,0.027506167069077492,1.0778388977050781
1772797374687305000,4.945304931640625,1.1539963483810425,0.09047266840934753,1.1407073736190796
1772797374697331000,4.9553310546875,1.0829930305480957,0.058328043669462204,1.2433109283447266
1772797374707357000,4.96535693359375,0.9963407516479492,0.00620132964104414,1.3478718996047974
1772797374717383000,4.9753828125,0.9303675889968872,0.04715701937675476,1.3573511838912964
1772797374727409000,4.985408935546875,0.8785282373428345,0.007284847088158131,1.142943024635315
1772797374737435000,4.995434814453125,0.8644108176231384,-0.08807096630334854,0.762605607509613
1772797374747460900,5.0054609375,0.8255449533462524,-0.11363065242767334,0.3594391942024231
1772797374757486800,5.01548681640625,0.7982723116874695,-0.10247839987277985,-0.08380081504583359
1772797374767512800,5.025512939453125,0.7667295932769775,-0.12017492949962616,-0.38013607263565063
1772797374777538800,5.035538818359375,0.7397651076316833,-0.21636724472045898,-0.4407197833061218
1772797374787565800,5.04556591796875,0.720500648021698,-0.36358556151390076,-0.31613391637802124
1772797374797591800,5.055591796875,0.7721741795539856,-0.4660711884498596,-0.12152422964572906
1772797374807617800,5.06561767578125,0.8872437477111816,-0.384935200214386,0.02589000016450882
1772797374817643800,5.075643798828125,1.0171185731887817,-0.1289188712835312,0.10054958611726761
1772797374827669800,5.085669677734375,1.1121463775634766,0.19215725362300873,0.2055492401123047
1772797374837695700,5.09569580078125,1.1174918413162231,0.33400440216064453,0.4262179732322693
1772797374847721700,5.1057216796875,1.0871833562850952,0.319387823343277,0.6147130727767944
1772797374857747700,5.115747802734375,1.1162904500961304,0.2208886742591858,0.7339835166931152
1772797374867773700,5.125773681640625,1.138289451599121,0.039312466979026794,0.8047794103622437
1772797374877800000,5.135800048828125,1.1732064485549927,-0.19579538702964783,0.8533791303634644
1772797374887826000,5.145825927734375,1.238520860671997,-0.40152600407600403,0.866560161113739
1772797374897852000,5.155851806640625,1.2504483461380005,-0.5572956204414368,0.8687911033630371
1772797374907878000,5.1658779296875,1.223188877105713,-0.6539182662963867,0.8750535249710083
1772797374917905000,5.17590478515625,1.151355504989624,-0.6821810603141785,0.8677381277084351
1772797374927931000,5.185930908203125,1.0769776105880737,-0.6166675686836243,0.7850392460823059
1772797374937956900,5.195956787109375,1.0142614841461182,-0.4215771555900574,0.5474450588226318
1772797374947982800,5.20598291015625,0.9696345925331116,-0.09139391779899597,0.24340607225894928
1772797374958009000,5.216009033203125,0.9333751201629639,0.16102235019207,-0.014051828533411026
1772797374968035000,5.22603515625,0.8892495036125183,0.2727770209312439,-0.13624031841754913
1772797374978061000,5.23606103515625,0.8523732423782349,0.27648600935935974,-0.16147030889987946
1772797374988087000,5.246087158203125,0.8054977655410767,0.2203049510717392,-0.15846705436706543
1772797374998113000,5.256113037109375,0.7769052386283875,0.16560149192810059,-0.1981649398803711
1772797375008139000,5.266138916015625,0.7406582236289978,0.1568111926317215,-0.31100597977638245
1772797375018165000,5.2761650390625,0.714867889881134,0.21288856863975525,-0.4807089865207672
1772797375028191000,5.28619091796875,0.6995722651481628,0.2686009109020233,-0.6439035534858704
1772797375038216700,5.296216796875,0.665128231048584,0.28104186058044434,-0.7418567538261414
1772797375048242700,5.30624267578125,0.614967942237854,0.2791815400123596,-0.7732561826705933
1772797375058268700,5.3162685546875,0.557060956954956,0.2787354588508606,-0.7417401075363159
1772797375068296000,5.3262958984375,0.4605099558830261,0.27266281843185425,-0.66298907995224
1772797375078322000,5.336322021484375,0.3599623143672943,0.2576460540294647,-0.5437977313995361
1772797375088348000,5.346347900390625,0.2632852792739868,0.20665521919727325,-0.40513038635253906
1772797375098374000,5.356373779296875,0.18835647404193878,0.10604526102542877,-0.25986531376838684
1772797375108399900,5.36639990234375,0.08535293489694595,0.03485778719186783,-0.11192885786294937
1772797375118425900,5.37642578125,-0.01649460569024086,0.03956571966409683,0.02162334695458412
1772797375128451800,5.386451904296875,-0.11380326747894287,0.06421317905187607,0.10672199726104736
1772797375138477800,5.396477783203125,-0.2426869422197342,0.11822687834501266,0.14710192382335663
1772797375148503800,5.40650390625,-0.33597949147224426,0.09611399471759796,0.16714593768119812
1772797375158530000,5.416530029296875,-0.3848780691623688,0.019568083807826042,0.1617644727230072
1772797375168556000,5.42655615234375,-0.3570922613143921,-0.03858540952205658,0.11351252347230911
1772797375178582000,5.43658203125,-0.2388729304075241,-0.13039442896842957,0.03160221129655838
1772797375188608000,5.44660791015625,-0.07868669927120209,-0.21276113390922546,-0.03531264513731003
1772797375198634000,5.456634033203125,0.0362396165728569,-0.14525265991687775,-0.034328605979681015
1772797375208660700,5.46666064453125,0.004102488048374653,-0.03459646925330162,0.014177409000694752
1772797375218686700,5.476686767578125,-0.06063389778137207,0.10958867520093918,-0.054661042988300323
1772797375228712700,5.486712646484375,-0.1432196944952011,0.4239077568054199,-0.29190582036972046
1772797375238738700,5.49673876953125,-0.24926145374774933,0.817501962184906,-0.6456425786018372
1772797375248765000,5.506764892578125,-0.21170079708099365,1.0806553363800049,-1.0673248767852783
1772797375258791000,5.516791015625,-0.05905798822641373,1.0138424634933472,-1.3443721532821655
1772797375268817000,5.52681689453125,0.12766818702220917,0.7140322327613831,-1.3510780334472656
1772797375278843000,5.5368427734375,0.2248637080192566,0.3190441429615021,-1.200714349746704
1772797375288868900,5.546868896484375,0.23748107254505157,-0.1125994399189949,-1.0186289548873901
1772797375298894800,5.556894775390625,0.2240920215845108,-0.4766594171524048,-0.770354151725769
1772797375308920800,5.5669208984375,0.21546593308448792,-0.6246886849403381,-0.3122638165950775
1772797375318946800,5.57694677734375,0.19298085570335388,-0.44925668835639954,0.3807317018508911
1772797375328972800,5.586972900390625,0.2025977224111557,-0.11958812922239304,0.9592547416687012
1772797375339000000,5.597,0.21339364349842072,0.1768195629119873,1.209713339805603
1772797375349026000,5.607026123046875,0.16087478399276733,0.34813618659973145,1.2082277536392212
1772797375359052000,5.617052001953125,0.18147513270378113,0.3350006937980652,1.0528899431228638
1772797375369078000,5.627078125,0.2456972599029541,0.1395082175731659,0.8375698328018188
1772797375379104000,5.63710400390625,0.38343673944473267,-0.04699614644050598,0.5958277583122253
1772797375389130000,5.6471298828125,0.5938228964805603,-0.18484246730804443,0.4007062315940857
1772797375399155500,5.657155517578125,0.763377845287323,-0.25055330991744995,0.268695205450058
1772797375409181400,5.667181396484375,0.8826497197151184,-0.2850065529346466,0.19784153997898102
1772797375419207400,5.67720751953125,0.9503394961357117,-0.29333025217056274,0.1403268426656723
1772797375429233400,5.6872333984375,0.9613627195358276,-0.22899667918682098,0.05403880774974823
1772797375439259600,5.697259765625,0.9068983793258667,-0.12558560073375702,-0.07627046853303909
1772797375449285600,5.70728564453125,0.8248767256736755,-0.049432653933763504,-0.25080734491348267
1772797375459311400,5.717311279296875,0.7079700827598572,-0.011206172406673431,-0.41838783025741577
1772797375469337300,5.72733740234375,0.5736905932426453,0.012952778488397598,-0.5634968280792236
1772797375479363300,5.73736328125,0.44476059079170227,-0.05460362508893013,-0.6379356384277344
1772797375489390300,5.747390380859375,0.32630428671836853,-0.18031993508338928,-0.6574518084526062
1772797375499416300,5.757416259765625,0.2442067563533783,-0.2808036506175995,-0.648058295249939
1772797375509442300,5.7674423828125,0.1989062875509262,-0.3350411355495453,-0.6442158818244934
1772797375519468500,5.777468505859375,0.18988031148910522,-0.29636138677597046,-0.6548048853874207
1772797375529494500,5.78749462890625,0.16864174604415894,-0.1540929079055786,-0.5664356350898743
1772797375539520500,5.7975205078125,0.12037354707717896,-0.006183064542710781,-0.312116801738739
1772797375549546500,5.80754638671875,0.08061065524816513,0.10144471377134323,-0.004948870744556189
1772797375559572500,5.817572509765625,0.03414515033364296,0.14660286903381348,0.22689367830753326
1772797375569598500,5.827598388671875,0.0016492775175720453,0.13876031339168549,0.3359415829181671
1772797375579624400,5.83762451171875,-0.006510913837701082,0.09272650629281998,0.3423619568347931
1772797375589650400,5.847650390625,0.01908792182803154,-0.006426712032407522,0.2667902112007141
1772797375599676400,5.857676513671875,0.052518848329782486,-0.12070268392562866,0.1617700755596161
1772797375609702400,5.867702392578125,0.0999985858798027,-0.23622000217437744,0.05641435459256172
1772797375619728400,5.877728271484375,0.16615496575832367,-0.3154490292072296,-0.049533650279045105
1772797375629754600,5.887754638671875,0.2486296445131302,-0.3561614751815796,-0.13990215957164764
1772797375639781400,5.897781494140625,0.3153335750102997,-0.33379065990448,-0.1844957172870636
1772797375649807400,5.907807373046875,0.32957959175109863,-0.2559119760990143,-0.16410815715789795
1772797375659833300,5.917833251953125,0.32392969727516174,-0.11049643903970718,-0.12499245256185532
1772797375669859300,5.927859375,0.33526819944381714,0.0386354923248291,-0.1066398099064827
1772797375679885300,5.93788525390625,0.34363240003585815,0.10785876959562302,-0.11201699823141098
1772797375689911300,5.947911376953125,0.3451061546802521,0.11444451659917831,-0.13024340569972992
1772797375699937300,5.957937255859375,0.3584667146205902,0.09019297361373901,-0.15555062890052795
1772797375709963300,5.96796337890625,0.36897262930870056,0.04404596984386444,-0.17443670332431793
1772797375719989500,5.977989501953125,0.37681856751441956,-0.007645187899470329,-0.18940073251724243
1772797375730015500,5.988015380859375,0.36558741331100464,-0.05059289187192917,-0.21121549606323242
1772797375740041500,5.99804150390625,0.344789981842041,-0.06538515537977219,-0.21907740831375122
1772797375750067500,6.0080673828125,0.31101176142692566,-0.07434900104999542,-0.2015082687139511
1772797375760093400,6.018093505859375,0.27776485681533813,-0.0856192335486412,-0.15177081525325775
1772797375770119400,6.028119384765625,0.24556198716163635,-0.06740500032901764,-0.08039648830890656
1772797375780145400,6.0381455078125,0.21762436628341675,-0.021407146006822586,-0.011683203279972076
1772797375790172400,6.04817236328125,0.20655009150505066,0.03736812248826027,0.037243589758872986
1772797375800198400,6.058198486328125,0.178020179271698,0.04307474195957184,0.06206052377820015
1772797375810224600,6.068224609375,0.15273496508598328,0.020519139245152473,0.05934916064143181
1772797375820250600,6.078250732421875,0.12519627809524536,-0.008597200736403465,0.01801903173327446
1772797375830276600,6.088276611328125,0.09075035899877548,-0.057577602565288544,-0.011286664754152298
1772797375840302600,6.098302490234375,0.025352180004119873,-0.141630157828331,0.0539085827767849
1772797375850328300,6.108328369140625,0.03139658644795418,-0.20982210338115692,0.11269388347864151
1772797375860354300,6.118354248046875,0.08423209935426712,-0.227042093873024,0.1085771694779396
1772797375870380300,6.12838037109375,0.1180761381983757,-0.23118805885314941,0.0751693993806839
1772797375880406300,6.13840625,0.13567803800106049,-0.2123728096485138,0.04570845142006874
1772797375890432300,6.148432373046875,0.1444663107395172,-0.18173938989639282,0.027438368648290634
1772797375900458200,6.158458251953125,0.12978218495845795,-0.15824498236179352,0.030810730531811714
1772797375910484200,6.168484130859375,0.10804049670696259,-0.1307719647884369,0.04387858137488365
1772797375920510500,6.178510498046875,0.09631433337926865,-0.09590878337621689,0.03645315393805504
1772797375930536400,6.188536376953125,0.06388682126998901,-0.07547874748706818,0.01216194313019514
1772797375940563500,6.1985634765625,0.018161674961447716,-0.1078830286860466,-0.027077605947852135
1772797375950589400,6.20858935546875,-0.05181649327278137,-0.16975493729114532,-0.06816857308149338
1772797375960615400,6.218615478515625,-0.08989036828279495,-0.19584698975086212,-0.12573200464248657
1772797375970641400,6.228641357421875,-0.1831473857164383,-0.26055923104286194,-0.0910978615283966
1772797375980667400,6.23866748046875,-0.3369161784648895,-0.308603972196579,0.01472284086048603
1772797375990693400,6.248693359375,-0.5091856122016907,-0.36855804920196533,0.18139252066612244
1772797376000719600,6.2587197265625,-0.6073321104049683,-0.3495984673500061,0.33557063341140747
1772797376010745600,6.26874560546875,-0.639040470123291,-0.27003422379493713,0.31948885321617126
1772797376020771600,6.278771484375,-0.7016974687576294,-0.20598144829273224,0.13249953091144562
1772797376030797600,6.288797607421875,-0.7706761956214905,-0.17530715465545654,-0.08841313421726227
1772797376040823600,6.298823486328125,-0.7649973034858704,-0.2144167423248291,-0.2003156989812851
1772797376050849500,6.308849609375,-0.683333694934845,-0.2533853054046631,-0.20159214735031128
1772797376060875500,6.31887548828125,-0.5926645398139954,-0.27828025817871094,-0.07397080957889557
1772797376070901500,6.328901611328125,-0.45961153507232666,-0.2737185060977936,0.11369521915912628
1772797376080927500,6.338927490234375,-0.32312268018722534,-0.22342659533023834,0.2921150326728821
1772797376090953500,6.348953369140625,-0.17997640371322632,-0.10778636485338211,0.4571053087711334
1772797376100979500,6.3589794921875,-0.01704501546919346,0.04858912155032158,0.6028598546981812
1772797376111006500,6.36900634765625,0.11750124394893646,0.16649572551250458,0.7076464295387268
1772797376121032400,6.379032470703125,0.2297433763742447,0.19074992835521698,0.7287975549697876
1772797376131058400,6.389058349609375,0.3163379430770874,0.14291465282440186,0.6941207647323608
1772797376141084400,6.39908447265625,0.36820435523986816,0.028225893154740334,0.6122381687164307
1772797376151110400,6.4091103515625,0.40621185302734375,-0.15290267765522003,0.5128218531608582
1772797376161136400,6.419136474609375,0.4175705015659332,-0.3739040195941925,0.45671436190605164
1772797376171162400,6.429162353515625,0.4341919720172882,-0.5684442520141602,0.4754449129104614
1772797376181188400,6.439188232421875,0.4434533715248108,-0.7040457725524902,0.5267131924629211
1772797376191214300,6.44921435546875,0.41630804538726807,-0.7677111029624939,0.5504573583602905
1772797376201240600,6.459240478515625,0.36325603723526,-0.6580740809440613,0.4895370304584503
1772797376211266600,6.4692666015625,0.29370319843292236,-0.38930803537368774,0.3086532652378082
1772797376221292500,6.47929248046875,0.21196120977401733,-0.012580199167132378,0.05357596278190613
1772797376231318500,6.489318603515625,0.12804512679576874,0.3022482097148895,-0.07904013991355896
1772797376241344500,6.499344482421875,0.06524351239204407,0.45305129885673523,-0.037422917783260345
1772797376251370500,6.50937060546875,0.047716256231069565,0.42966845631599426,0.0721009150147438
1772797376261397200,6.519397216796875,0.07897430658340454,0.3129112124443054,0.20456653833389282
1772797376271423200,6.52942333984375,0.1478165239095688,0.1390465497970581,0.34575191140174866
1772797376281449200,6.53944921875,0.2311023622751236,-0.050618719309568405,0.4910888671875
1772797376291475500,6.549475341796875,0.3116856515407562,-0.16506241261959076,0.6817352771759033
1772797376301501400,6.55950146484375,0.35444217920303345,-0.19967179000377655,0.8663027286529541
1772797376311527400,6.56952734375,0.3768977224826813,-0.1811964511871338,0.9337871670722961
1772797376321553400,6.579553466796875,0.39000552892684937,-0.08907905220985413,0.8684859275817871
1772797376331579400,6.589579345703125,0.39155110716819763,0.017184128984808922,0.7137579321861267
1772797376341605400,6.59960546875,0.3983682692050934,0.07979557663202286,0.5165449976921082
1772797376351631400,6.60963134765625,0.4052462577819824,0.13113152980804443,0.3211541771888733
1772797376361657300,6.6196572265625,0.43228426575660706,0.15789736807346344,0.18485276401042938
1772797376371683300,6.629683349609375,0.48876091837882996,0.1564229428768158,0.08895713090896606
1772797376381709300,6.639709228515625,0.5193307995796204,0.1598549634218216,0.06833893805742264
1772797376391734800,6.64973486328125,0.5423558354377747,0.13275137543678284,0.06555220484733582
1772797376401760800,6.6597607421875,0.5593122243881226,0.09228543192148209,0.035891514271497726
1772797376411786800,6.669786865234375,0.5654181838035583,0.07014863193035126,-0.016109375283122063
1772797376421814000,6.67981396484375,0.5593712329864502,0.06656748056411743,-0.0751095786690712
1772797376431840000,6.689840087890625,0.548090398311615,0.07081086933612823,-0.12210557609796524
1772797376441866000,6.699865966796875,0.533372163772583,0.0636616200208664,-0.1369795948266983
1772797376451892000,6.70989208984375,0.5148307085037231,0.049280013889074326,-0.09431389719247818
1772797376461918000,6.71991796875,0.46922406554222107,0.0670960322022438,0.023644965142011642
1772797376471944000,6.72994384765625,0.40866249799728394,0.07809444516897202,0.14682497084140778
1772797376481970000,6.739969970703125,0.36946210265159607,0.08445540815591812,0.25074735283851624
1772797376491996000,6.749995849609375,0.3221104145050049,0.10989376157522202,0.3019580543041229
1772797376502022000,6.76002197265625,0.253362774848938,0.19531385600566864,0.2865633964538574
1772797376512048000,6.770048095703125,0.1728513091802597,0.272240549325943,0.1961544305086136
1772797376522074000,6.78007421875,0.11141404509544373,0.2995544672012329,0.08685802668333054
1772797376532099800,6.790099853515625,0.0883980393409729,0.28033068776130676,0.0064886147156357765
1772797376542125800,6.800125732421875,0.11449168622493744,0.20445242524147034,-0.027251772582530975
1772797376552151800,6.81015185546875,0.17647092044353485,0.1173253133893013,-0.013037155382335186
1772797376562177800,6.820177734375,0.2392171323299408,0.07488571107387543,0.004237706307321787
1772797376572203800,6.830203857421875,0.30716583132743835,0.10787659138441086,0.035213734954595566
1772797376582229800,6.840229736328125,0.38934192061424255,0.1690794974565506,0.07478964328765869
1772797376592256800,6.8502568359375,0.45962151885032654,0.2040635347366333,0.12078429758548737
1772797376602283000,6.860282958984375,0.5003992915153503,0.17795071005821228,0.1650763899087906
1772797376612309000,6.87030908203125,0.5105339884757996,0.12888126075267792,0.17323553562164307
1772797376622335000,6.8803349609375,0.5139217972755432,0.1120958924293518,0.12866273522377014
1772797376632361000,6.89036083984375,0.41647034883499146,0.1421109437942505,0.08412934094667435
1772797376642387000,6.900386962890625,0.1932377964258194,0.16075332462787628,0.07124017179012299
1772797376652413000,6.910412841796875,0.008627542294561863,0.2893577218055725,-0.06200522184371948
1772797376662439000,6.92043896484375,-0.19847850501537323,0.5306952595710754,-0.3280760645866394
1772797376672465000,6.93046484375,-0.4293387830257416,0.7204508781433105,-0.6153514981269836
1772797376682491000,6.940490966796875,-0.4431390166282654,0.7948433756828308,-0.7352976202964783
1772797376692516900,6.950516845703125,-0.2614534795284271,0.6278550028800964,-0.5531784296035767
1772797376702542800,6.96054296875,0.013639344833791256,0.4231433868408203,-0.11756250262260437
1772797376712569000,6.970569091796875,0.31985005736351013,0.2331356704235077,0.40375953912734985
1772797376722595000,6.980594970703125,0.5000767707824707,-0.012816041707992554,0.7907224297523499
1772797376732621000,6.99062109375,0.5422571301460266,-0.19361621141433716,0.9254487752914429
1772797376742647000,7.00064697265625,0.5678450465202332,-0.21061517298221588,0.7967954874038696
1772797376752673800,7.010673828125,0.6273685693740845,-0.0733378455042839,0.5929840803146362
1772797376762699800,7.02069970703125,0.7121420502662659,0.09394195675849915,0.5521418452262878
1772797376772725800,7.030725830078125,0.8262792229652405,0.19622302055358887,0.5613307952880859
1772797376782751700,7.040751708984375,0.9529919028282166,0.2382839173078537,0.5708300471305847
1772797376792777700,7.05077783203125,1.0691033601760864,0.16393978893756866,0.5487247109413147
1772797376802804000,7.060803955078125,1.1700893640518188,0.011670360341668129,0.5078195929527283
1772797376812830000,7.070829833984375,1.2348864078521729,-0.17545917630195618,0.4688695967197418
1772797376822856000,7.08085595703125,1.2957086563110352,-0.3205859959125519,0.33327049016952515
1772797376832882000,7.0908818359375,1.3060414791107178,-0.30912670493125916,0.14129596948623657
1772797376842908000,7.100907958984375,1.2851197719573975,-0.24576424062252045,-0.06254664063453674
1772797376852934000,7.110933837890625,1.249983549118042,-0.16521573066711426,-0.23564359545707703
1772797376862959900,7.1209599609375,1.1691813468933105,-0.07703713327646255,-0.3621956706047058
1772797376872985900,7.13098583984375,1.0581804513931274,0.005338456016033888,-0.47840481996536255
1772797376883011800,7.14101171875,0.945341169834137,0.013612098060548306,-0.5643109679222107
1772797376893037800,7.151037841796875,0.8467825055122375,-0.06454816460609436,-0.609281599521637
1772797376903063800,7.161063720703125,0.7815680503845215,-0.1425396353006363,-0.6260473132133484
1772797376913090000,7.171090087890625,0.7405087947845459,-0.1639789342880249,-0.5879158973693848
1772797376923116000,7.181115966796875,0.7132614850997925,-0.143202543258667,-0.48508700728416443
1772797376933142000,7.19114208984375,0.6935593485832214,-0.05558048561215401,-0.3311125934123993
1772797376943168800,7.201168701171875,0.68470299243927,0.05349300429224968,-0.18051348626613617
1772797376953194800,7.21119482421875,0.6663675308227539,0.10878078639507294,-0.07870430499315262
1772797376963220700,7.221220703125,0.6393620371818542,0.08863797038793564,-0.032355718314647675
1772797376973246700,7.231246826171875,0.6394489407539368,0.010298192501068115,-0.02410178817808628
1772797376983272700,7.241272705078125,0.6541101932525635,-0.10835602134466171,-0.047351982444524765
1772797376993298700,7.251298583984375,0.6819907426834106,-0.21135136485099792,-0.08094748854637146
1772797377003325000,7.261324951171875,0.7001993656158447,-0.28664347529411316,-0.1119094043970108
1772797377013351000,7.271350830078125,0.702021598815918,-0.32841557264328003,-0.13593031466007233
1772797377023377000,7.281376953125,0.6761982440948486,-0.3669610917568207,-0.17744126915931702
1772797377033403000,7.29140283203125,0.6657448410987854,-0.39614757895469666,-0.24156539142131805
1772797377043428900,7.301428955078125,0.6982851624488831,-0.3660660982131958,-0.29587072134017944
1772797377053454800,7.311454833984375,0.787464439868927,-0.27900663018226624,-0.32052305340766907
1772797377063480800,7.321480712890625,0.9389887452125549,-0.12605969607830048,-0.33430758118629456
1772797377073506800,7.3315068359375,1.100537896156311,0.024050191044807434,-0.3383640944957733
1772797377083532800,7.34153271484375,1.1361502408981323,0.09237385541200638,-0.3416099548339844
1772797377093558800,7.351558837890625,1.0937864780426025,0.08303733915090561,-0.3634984791278839
1772797377103585000,7.3615849609375,1.0122088193893433,0.06333687901496887,-0.43333402276039124
1772797377113612000,7.371612060546875,0.9357016086578369,0.0743505135178566,-0.5360934734344482
1772797377123638000,7.381637939453125,0.8521231412887573,0.024391207844018936,-0.5588603019714355
1772797377133664000,7.3916640625,0.7498801350593567,-0.02530328556895256,-0.5475285053253174
1772797377143690000,7.40168994140625,0.6377884745597839,-0.011044985614717007,-0.561525821685791
1772797377153716000,7.411716064453125,0.5681806802749634,-0.015649618580937386,-0.42163902521133423
1772797377163742000,7.421741943359375,0.5648554563522339,-0.007770390249788761,-0.14838698506355286
1772797377173767700,7.431767578125,0.6078542470932007,0.023634791374206543,0.13777022063732147
1772797377183793700,7.441793701171875,0.6511679291725159,0.027455361559987068,0.3617369830608368
1772797377193820000,7.45181982421875,0.6964830756187439,-0.04000912234187126,0.5026901364326477
1772797377203846000,7.461845947265625,0.7356061935424805,-0.10714927315711975,0.47700047492980957
1772797377213871900,7.471871826171875,0.7521815896034241,-0.13750196993350983,0.33375170826911926
1772797377223897900,7.48189794921875,0.7072218060493469,-0.22078700363636017,0.2241692841053009
1772797377233923800,7.491923828125,0.6303411722183228,-0.35027655959129333,0.16764527559280396
1772797377243949800,7.50194970703125,0.526398241519928,-0.42322561144828796,0.17868222296237946
1772797377253975800,7.511975830078125,0.418691486120224,-0.41781431436538696,0.23155103623867035
1772797377264001800,7.522001708984375,0.32007595896720886,-0.31684109568595886,0.2014905959367752
1772797377274027800,7.53202783203125,0.2181481122970581,-0.17693941295146942,-0.007049287669360638
1772797377284053800,7.5420537109375,0.11741536110639572,-0.08816292881965637,-0.27142688632011414
1772797377294081000,7.5520810546875,0.028102757409214973,-0.09395673871040344,-0.33091098070144653
1772797377304107000,7.56210693359375,0.05481452867388725,-0.12651494145393372,-0.2027655392885208
1772797377314133000,7.572133056640625,0.17876020073890686,-0.1774284690618515,0.029623497277498245
1772797377324159000,7.582158935546875,0.35306623578071594,-0.21967633068561554,0.24648897349834442
1772797377334185000,7.59218505859375,0.5321505069732666,-0.2543724775314331,0.4156516492366791
1772797377344211000,7.6022109375,0.7030186653137207,-0.2776692807674408,0.5799188613891602
1772797377354237000,7.61223681640625,0.8524979948997498,-0.2869967222213745,0.800726592540741
1772797377364263000,7.622262939453125,0.9552547335624695,-0.2646333575248718,1.038751482963562
1772797377374289000,7.632288818359375,1.0246890783309937,-0.16096621751785278,1.2164942026138306
1772797377384315000,7.64231494140625,1.0629957914352417,-0.05035609006881714,1.275858998298645
1772797377394341400,7.65234130859375,1.04004967212677,0.030888358131051064,1.1671302318572998
1772797377404367400,7.662367431640625,0.9759628176689148,0.07859675586223602,0.9408304691314697
1772797377414393600,7.6723935546875,0.9003407955169678,0.09392057359218597,0.7018815279006958
1772797377424419600,7.682419677734375,0.8410590887069702,0.04509977251291275,0.5249046087265015
1772797377434445600,7.692445556640625,0.8094442486763,-0.048957258462905884,0.43841126561164856
1772797377444471600,7.702471435546875,0.8260895609855652,-0.14226031303405762,0.43477070331573486
1772797377454497500,7.71249755859375,0.8535110950469971,-0.17929545044898987,0.40679529309272766
1772797377464523500,7.7225234375,0.8761690258979797,-0.1658659279346466,0.3194521367549896
1772797377474550500,7.732550537109375,0.8866152167320251,-0.13414998352527618,0.2493140548467636
1772797377484576500,7.742576416015625,0.8973134160041809,-0.07980712503194809,0.23135821521282196
1772797377494602500,7.7526025390625,0.8960937857627869,-0.0028750128112733364,0.2490200251340866
1772797377504628700,7.762628662109375,0.8727709054946899,0.09629683941602707,0.2889450788497925
1772797377514654700,7.77265478515625,0.8531453013420105,0.22368282079696655,0.33123818039894104
1772797377524680700,7.7826806640625,0.8712199330329895,0.32675379514694214,0.3340457081794739
1772797377534706700,7.792706787109375,0.8989421129226685,0.3476313352584839,0.3185064494609833
1772797377544732700,7.802732666015625,0.9358788132667542,0.30429184436798096,0.3170105516910553
1772797377554758700,7.812758544921875,0.9693281650543213,0.22679518163204193,0.3512822389602661
1772797377564784600,7.82278466796875,0.9919538497924805,0.16695448756217957,0.3702165186405182
1772797377574810600,7.832810546875,1.0212222337722778,0.14624062180519104,0.38700079917907715
1772797377584836600,7.842836669921875,1.0376170873641968,0.10120070725679398,0.4115530252456665
1772797377594862300,7.8528623046875,1.0657660961151123,0.05579588562250137,0.4257444739341736
1772797377604888300,7.862888427734375,1.0644363164901733,0.012582633644342422,0.4487943947315216
1772797377614914600,7.87291455078125,1.0580395460128784,0.001012430526316166,0.47506460547447205
1772797377624940500,7.8829404296875,1.0206530094146729,-0.0007724198512732983,0.5125526189804077
1772797377634966500,7.892966552734375,0.9675516486167908,0.006482657976448536,0.5512840151786804
1772797377644992500,7.902992431640625,0.9262492656707764,0.02465500310063362,0.5614802241325378
1772797377655018500,7.9130185546875,0.8924281001091003,-0.0005174698308110237,0.5462881922721863
1772797377665045500,7.92304541015625,0.8780947327613831,-0.05971021577715874,0.5122897624969482
1772797377675071500,7.933071533203125,0.8736935257911682,-0.11086491495370865,0.46979501843452454
1772797377685097500,7.943097412109375,0.8776195645332336,-0.10515829920768738,0.417385071516037
1772797377695123700,7.953123779296875,0.8999119400978088,-0.0553659051656723,0.3575609028339386
1772797377705149700,7.963149658203125,0.9241318106651306,0.0012694122269749641,0.27648335695266724
1772797377715175700,7.97317578125,0.9435198903083801,0.05039247125387192,0.18934312462806702
1772797377725201700,7.98320166015625,0.9541453719139099,0.06871049106121063,0.11603908240795135
1772797377735227600,7.9932275390625,0.9580420255661011,0.040862806141376495,0.08028774708509445
1772797377745253600,8.003253662109374,0.9647833108901978,-0.011650733649730682,0.06956799328327179
1772797377755279600,8.013279541015624,0.962190568447113,-0.062204375863075256,0.03918798640370369
1772797377765305600,8.0233056640625,0.9459418058395386,-0.06584411859512329,-0.0039352490566670895
1772797377775331600,8.03333154296875,0.9219417572021484,-0.07340622693300247,-0.045537833124399185
1772797377785357600,8.043357666015625,0.8878260850906372,-0.059761255979537964,-0.0637996643781662
1772797377795383600,8.053383544921875,0.8292036056518555,-0.03150167688727379,-0.07083094120025635
1772797377805409800,8.063409912109375,0.7696899175643921,-0.0158766470849514,-0.07332552224397659
1772797377815435500,8.073435546875,0.7333296537399292,-0.0014231568202376366,-0.07619080692529678
1772797377825461500,8.08346142578125,0.705028772354126,0.028501717373728752,-0.06854087859392166
1772797377835487500,8.093487548828126,0.7070812582969666,0.04090194031596184,-0.024084998294711113
1772797377845513500,8.103513427734375,0.7330899238586426,0.032040808349847794,0.07944618165493011
1772797377855539500,8.11353955078125,0.7956433296203613,-0.007991916500031948,0.21525488793849945
1772797377865566500,8.12356640625,0.8596764206886292,-0.07163693755865097,0.31787046790122986
1772797377875592400,8.133592529296875,0.9237258434295654,-0.10544991493225098,0.3625237047672272
1772797377885618400,8.143618408203125,0.9761832356452942,-0.08161675184965134,0.3788461983203888
1772797377895644700,8.153644775390624,0.9031963348388672,-0.0841553658246994,0.438930869102478
1772797377905670700,8.163670654296874,0.6961603164672852,-0.09561867266893387,0.5036064982414246
1772797377915696600,8.173696533203126,0.4427078664302826,-0.09300398826599121,0.5521786212921143
1772797377925722600,8.18372265625,0.3013552725315094,0.06771033257246017,0.40004685521125793
1772797377935748600,8.19374853515625,0.1779250055551529,0.3495451807975769,0.04236114025115967
1772797377945774600,8.203774658203125,-0.011038778349757195,0.6202166676521301,-0.3698035180568695
1772797377955800600,8.213800537109375,0.019626766443252563,0.80642169713974,-0.704774022102356
1772797377965826600,8.22382666015625,0.1887127310037613,0.6895449161529541,-0.7426964044570923
1772797377975852500,8.2338525390625,0.4306126832962036,0.3376656770706177,-0.41849011182785034
1772797377985878500,8.24387841796875,0.612758219242096,-0.04039319232106209,0.1476031392812729
1772797377995904500,8.253904541015626,0.6427878737449646,-0.26200374960899353,0.6818271279335022
1772797378005930800,8.2639306640625,0.6501259803771973,-0.3649492859840393,0.9574970602989197
1772797378015956700,8.273956787109375,0.6643867492675781,-0.2995075583457947,0.8869062662124634
1772797378025982700,8.283982666015625,0.678074300289154,0.024141618981957436,0.5695589184761047
1772797378036008700,8.2940087890625,0.7200707793235779,0.4406132698059082,0.35897982120513916
1772797378046034700,8.30403466796875,0.7668430805206299,0.6182810068130493,0.3387147784233093
1772797378056060700,8.314060791015624,0.8454158902168274,0.5932072401046753,0.3792984187602997
1772797378066087400,8.32408740234375,0.9387567639350891,0.4896928071975708,0.4441269338130951
1772797378076113400,8.334113525390626,1.0151492357254028,0.3605896830558777,0.46652308106422424
1772797378086139400,8.344139404296875,1.0968236923217773,0.2865367531776428,0.4125663638114929
1772797378096165600,8.35416552734375,1.1827212572097778,0.24782532453536987,0.2995804250240326
1772797378106191600,8.364191650390625,1.2565385103225708,0.23505999147891998,0.172234445810318
1772797378116217600,8.374217529296875,1.3158527612686157,0.21302096545696259,0.06627499312162399
1772797378126243600,8.38424365234375,1.3499345779418945,0.15337787568569183,-0.01588299497961998
1772797378136269600,8.39426953125,1.3454111814498901,0.0757656916975975,-0.09619994461536407
1772797378146295600,8.404295654296876,1.32233464717865,0.0013287467882037163,-0.1854022592306137
1772797378156321500,8.414321533203125,1.2933762073516846,-0.11896568536758423,-0.27935829758644104
1772797378166347500,8.424347412109375,1.2324912548065186,-0.30027472972869873,-0.3507014513015747
1772797378176373500,8.43437353515625,1.1420286893844604,-0.4041697680950165,-0.383025586605072
1772797378186399500,8.4443994140625,1.0718352794647217,-0.3463813066482544,-0.37674078345298767
1772797378196425500,8.454425537109374,1.0083602666854858,-0.16838103532791138,-0.32978367805480957
1772797378206451700,8.46445166015625,0.935117244720459,0.12174585461616516,-0.27626290917396545
1772797378216477700,8.474477783203126,0.866679847240448,0.39128378033638,-0.1524384468793869
1772797378226503700,8.484503662109375,0.8427734375,0.5404770374298096,0.0005337938200682402
1772797378236529700,8.49452978515625,0.8439961671829224,0.6240684390068054,0.09152389317750931
1772797378246555600,8.5045556640625,0.849322497844696,0.6165183782577515,0.1016034260392189
1772797378256581600,8.51458154296875,0.8509237170219421,0.46634259819984436,0.06260062754154205
1772797378266608400,8.5246083984375,0.9021109938621521,0.28136929869651794,-0.01925135962665081
1772797378276634400,8.53463427734375,0.9698793292045593,0.07692217826843262,-0.01707555539906025
1772797378286660600,8.54466064453125,1.0483003854751587,-0.17931200563907623,0.060150790959596634
1772797378296686600,8.5546865234375,1.163791298866272,-0.32743316888809204,0.11328565329313278
1772797378306712600,8.564712646484375,1.2811535596847534,-0.33838942646980286,0.13105612993240356
1772797378316738600,8.574738525390625,1.4420982599258423,-0.20369501411914825,0.05914624035358429
1772797378326764500,8.5847646484375,1.603804588317871,0.03275906294584274,-0.0882892832159996
1772797378336790500,8.59479052734375,1.605468511581421,0.10327594727277756,-0.14019109308719635
1772797378346816500,8.60481640625,1.5620640516281128,0.04372740164399147,-0.15272925794124603
1772797378356842500,8.614842529296874,1.5524884462356567,0.05742908641695976,-0.18659216165542603
1772797378366868500,8.624868408203126,1.5200608968734741,0.06545452773571014,-0.22173549234867096
1772797378376894500,8.63489453125,1.4488153457641602,-0.012159944511950016,-0.23567500710487366
1772797378386920400,8.64492041015625,1.3646519184112549,-0.11231956630945206,-0.21908670663833618
1772797378396946200,8.6549462890625,1.2507511377334595,-0.16535018384456635,-0.2312629520893097
1772797378406972200,8.66497216796875,1.1426044702529907,-0.1460033804178238,-0.25655022263526917
1772797378416998100,8.674998046875,1.0187015533447266,-0.06322341412305832,-0.3010700047016144
1772797378427024100,8.685024169921874,0.888356626033783,0.02275700867176056,-0.3132734000682831
1772797378437050000,8.695050048828126,0.7484888434410095,0.13388276100158691,-0.3180239498615265
1772797378447076000,8.705076171875,0.6751131415367126,0.237285315990448,-0.17684020102024078
1772797378457102000,8.71510205078125,0.7180454134941101,0.3929428458213806,0.03772350773215294
1772797378467128000,8.725128173828125,0.8094874620437622,0.5284687280654907,0.24028433859348297
1772797378477155300,8.7351552734375,0.8273096084594727,0.518763542175293,0.27794569730758667
1772797378487181300,8.745181396484375,0.8053326606750488,0.6104758381843567,0.3946819007396698
1772797378497207000,8.75520703125,0.6939443945884705,0.14227738976478577,0.3750682473182678
1772797378507233000,8.76523291015625,0.7453300952911377,-0.1763104498386383,0.26468607783317566
1772797378517259000,8.775259033203126,0.8514683246612549,-0.34233036637306213,0.23661263287067413
1772797378527285000,8.785284912109375,0.9232146739959717,-0.5300983786582947,0.26500406861305237
1772797378537311000,8.79531103515625,0.9717889428138733,-0.7187643647193909,0.2828403115272522
1772797378547337000,8.8053369140625,0.9967129826545715,-0.8087272644042969,0.27958059310913086
1772797378557363000,8.815363037109375,1.003576397895813,-0.7146154046058655,0.20854932069778442
1772797378567389200,8.82538916015625,0.978175699710846,-0.5082665085792542,0.07699821144342422
1772797378577415200,8.835415283203124,0.9093515276908875,-0.2946763336658478,-0.09308058023452759
1772797378587441200,8.845441162109376,0.7801892757415771,-0.2485423982143402,-0.16748929023742676
1772797378597467100,8.855467041015626,0.6103278398513794,-0.30152466893196106,-0.08620376139879227
1772797378607493000,8.8654931640625,0.5087261199951172,-0.33811596035957336,0.06939248740673065
