time,seconds_elapsed,z,y,x
1772797501562744600,0.09974462890625,0.006001844070851803,-0.06888437271118164,0.01358037069439888
1772797501572771600,0.109771484375,0.004360271617770195,-0.06304991990327835,0.013803277164697647
1772797501582797600,0.119797607421875,0.008287444710731506,-0.045662522315979004,0.0154517637565732
1772797501592823800,0.12982373046875,0.01576107367873192,-0.03915668651461601,0.02883628010749817
1772797501602850600,0.1398505859375,0.01252887211740017,-0.03592708706855774,0.04241468384861946
1772797501612876500,0.14987646484375,0.01132858544588089,-0.03591936454176903,0.06756797432899475
1772797501622902500,0.159902587890625,0.009890972636640072,-0.03132274001836777,0.0915025919675827
1772797501632929500,0.169929443359375,0.0059252590872347355,-0.03686664253473282,0.11077509075403214
1772797501642955500,0.17995556640625,-0.0048739733174443245,-0.042053818702697754,0.11489793658256531
1772797501652981500,0.1899814453125,-0.015743931755423546,-0.0431574322283268,0.10499097406864166
1772797501663008800,0.2000087890625,-0.03556576371192932,-0.036437928676605225,0.07848802953958511
1772797501673034800,0.21003466796875,-0.04241035506129265,-0.04091336950659752,0.0597393773496151
1772797501683061500,0.2200615234375,-0.05222554877400398,-0.034392960369586945,0.05828285217285156
1772797501693087500,0.23008740234375,-0.04987184703350067,-0.017712783068418503,0.07979027926921844
1772797501703113500,0.240113525390625,-0.04259651154279709,-0.01425778865814209,0.09640950709581375
1772797501713140700,0.250140625,-0.03526829183101654,-0.01606580801308155,0.10616067051887512
1772797501723166700,0.260166748046875,-0.03029586374759674,-0.009884333238005638,0.0900963842868805
1772797501733192700,0.270192626953125,-0.027691558003425598,0.0005049244500696659,0.05884285643696785
1772797501743219700,0.2802197265625,-0.030490346252918243,0.01931142807006836,0.02412540651857853
1772797501753245700,0.29024560546875,-0.040365613996982574,0.018127918243408203,-0.012820892035961151
1772797501763271700,0.300271728515625,-0.049714721739292145,-0.014317108318209648,-0.044904161244630814
1772797501773298700,0.310298583984375,-0.050632182508707047,-0.04946817085146904,-0.056646570563316345
1772797501783324700,0.32032470703125,-0.02723284810781479,-0.04833563417196274,-0.047502897679805756
1772797501793350700,0.3303505859375,0.008267621509730816,-0.03691359981894493,-0.029263973236083984
1772797501803377700,0.340377685546875,0.048746682703495026,-0.0291312076151371,-0.001080613350495696
1772797501813403600,0.350403564453125,0.078635074198246,-0.0210045725107193,0.024228736758232117
1772797501823429600,0.3604296875,0.09218412637710571,-0.002846719231456518,0.03846767917275429
1772797501833456600,0.37045654296875,0.10169880092144012,0.011389208026230335,0.039544928818941116
1772797501843482600,0.380482666015625,0.10170326381921768,0.032950934022665024,0.027915887534618378
1772797501853508600,0.390508544921875,0.10422448068857193,0.03237569332122803,0.016156965866684914
1772797501863535600,0.40053564453125,0.09876620769500732,0.044928405433893204,0.010512999258935452
1772797501873561600,0.4105615234375,0.08149880170822144,0.04954419657588005,0.010156402364373207
1772797501883587600,0.420587646484375,0.07633394747972488,0.033865511417388916,0.006891889497637749
1772797501893614600,0.430614501953125,0.07320739328861237,0.015556015074253082,0.0027461466379463673
1772797501903640600,0.440640625,0.06829485297203064,-0.010929575189948082,0.011948108673095703
1772797501913667600,0.45066748046875,0.06663037836551666,-0.02108234353363514,0.02937263995409012
1772797501923693600,0.460693603515625,0.0652131587266922,-0.013660200871527195,0.05097280442714691
1772797501933719600,0.470719482421875,0.06249114125967026,-0.00123655516654253,0.06114448234438896
1772797501943746600,0.48074658203125,0.06417018920183182,0.018178172409534454,0.061970580369234085
1772797501953772500,0.4907724609375,0.06626716256141663,0.03974578529596329,0.05544743686914444
1772797501963798500,0.500798583984375,0.04737967625260353,0.05110155791044235,0.039065323770046234
1772797501973825800,0.51082568359375,0.038865551352500916,0.06399977952241898,0.02249806560575962
1772797501983851800,0.520851806640625,0.02330508455634117,0.0643744170665741,0.01117558404803276
1772797501993877800,0.530877685546875,0.008516551926732063,0.05700065940618515,0.018487559631466866
1772797502003904500,0.540904541015625,-0.00022535421885550022,0.05614478141069412,0.039217930287122726
1772797502013930500,0.550930419921875,-0.008890748023986816,0.06920012831687927,0.0667227953672409
1772797502023956500,0.56095654296875,-0.011376120150089264,0.0980767086148262,0.08696543425321579
1772797502033983700,0.570983642578125,-0.007892705500125885,0.12062089890241623,0.09160572290420532
1772797502044009700,0.581009765625,0.013583250343799591,0.16714999079704285,0.0823129341006279
1772797502054035700,0.59103564453125,0.03975360468029976,0.2368001788854599,0.06719843298196793
1772797502064062700,0.601062744140625,0.06461983919143677,0.2949921190738678,0.03775878995656967
1772797502074088400,0.61108837890625,0.09795862436294556,0.3289799094200134,0.013966906815767288
1772797502084115700,0.62111572265625,0.1335909515619278,0.3506062924861908,0.0030567944049835205
1772797502094141700,0.6311416015625,0.1516146957874298,0.3724740445613861,0.01809060573577881
1772797502104167700,0.641167724609375,0.15053679049015045,0.3842424750328064,0.02074093371629715
1772797502114194700,0.651194580078125,0.15248756110668182,0.33959218859672546,0.012717895209789276
1772797502124220700,0.661220703125,0.15596766769886017,0.2894878685474396,-0.008449172601103783
1772797502134246700,0.67124658203125,0.16668476164340973,0.23983615636825562,-0.03660144656896591
1772797502144273400,0.6812734375,0.1554509401321411,0.18825308978557587,-0.05937942489981651
1772797502154299600,0.691299560546875,0.1423300802707672,0.15000396966934204,-0.047838352620601654
1772797502164325600,0.70132568359375,0.1319131702184677,0.1356581598520279,-0.014429092407226562
1772797502174352600,0.7113525390625,0.11334667354822159,0.11309586465358734,0.01940716803073883
1772797502184378600,0.721378662109375,0.10441306233406067,0.09151461720466614,0.03154190629720688
1772797502194405600,0.731405517578125,0.11541244387626648,0.06274395436048508,0.021995004266500473
1772797502204431600,0.741431640625,0.1337742656469345,0.03576222062110901,0.008327977731823921
1772797502214457600,0.75145751953125,0.11846054345369339,0.043670739978551865,-0.006083186715841293
1772797502224484600,0.761484619140625,0.05330976843833923,0.03512236475944519,-0.01438689511269331
1772797502234510600,0.771510498046875,0.008506077341735363,0.03260035067796707,-0.019068200141191483
1772797502244536600,0.78153662109375,-0.009760232642292976,0.03930560499429703,-0.022748494520783424
1772797502254563600,0.7915634765625,-0.024444103240966797,0.012374122627079487,-0.03444882482290268
1772797502264589600,0.801589599609375,-0.0427539087831974,0.003728118957951665,-0.03161704167723656
1772797502274615600,0.811615478515625,-0.04834894463419914,0.008710892871022224,-0.025234777480363846
1772797502284642800,0.821642822265625,-0.04683440923690796,-0.005852498579770327,-0.020995263010263443
1772797502294668800,0.831668701171875,-0.04695718362927437,-0.01597064733505249,-0.017517708241939545
1772797502304695600,0.841695556640625,-0.05138053372502327,-0.030167341232299805,-0.02436264045536518
1772797502314721500,0.851721435546875,-0.04980314150452614,-0.04799747094511986,-0.039781540632247925
1772797502324747500,0.86174755859375,-0.037102486938238144,-0.07065485417842865,-0.055589526891708374
1772797502334774800,0.87177490234375,-0.029044296592473984,-0.09592745453119278,-0.0522611066699028
1772797502344800800,0.88180078125,-0.01567576825618744,-0.11954166740179062,-0.028623608872294426
1772797502354826800,0.89182666015625,-0.011138008907437325,-0.14454367756843567,-0.0012622922658920288
1772797502364853500,0.901853515625,-0.008029564283788204,-0.18495085835456848,0.02759569324553013
1772797502374879500,0.91187939453125,-0.006999453529715538,-0.21170364320278168,0.05265231058001518
1772797502384905500,0.921905517578125,-0.011229014955461025,-0.2101440131664276,0.07707487046718597
1772797502394932500,0.931932373046875,-0.01366873737424612,-0.1948753148317337,0.08832166343927383
1772797502404958700,0.941958740234375,0.0008764202939346433,-0.1663414090871811,0.09605150669813156
1772797502414985700,0.95198583984375,0.00626932131126523,-0.10349240899085999,0.10631399601697922
1772797502425011700,0.96201171875,0.019921187311410904,-0.03453484922647476,0.10394797474145889
1772797502435037700,0.97203759765625,0.03153283894062042,0.004118804819881916,0.09249664843082428
1772797502445064400,0.982064453125,0.027762599289417267,0.01963438093662262,0.07166700065135956
1772797502455090400,0.99209033203125,0.02321072481572628,0.007536172866821289,0.05091671645641327
1772797502465116700,1.00211669921875,0.02231190726161003,-0.01730792410671711,0.03592817857861519
1772797502475143700,1.012143798828125,0.016187436878681183,-0.05100063979625702,0.03438381105661392
1772797502485169700,1.022169677734375,0.007933919318020344,-0.06774833798408508,0.040366608649492264
1772797502495196700,1.03219677734375,0.004922416526824236,-0.05766000971198082,0.05049114674329758
1772797502505222700,1.04222265625,0.003574435831978917,-0.03785410523414612,0.054576460272073746
1772797502515248600,1.05224853515625,0.0038202456198632717,-0.024127643555402756,0.043207958340644836
1772797502525275600,1.062275634765625,-0.004339295439422131,-0.015812953934073448,0.02709393948316574
1772797502535301600,1.072301513671875,-0.005103889852762222,-0.021515049040317535,0.009922408498823643
1772797502545327900,1.082327880859375,-0.015481770969927311,-0.026688754558563232,-0.0015904526226222515
1772797502555355000,1.09235498046875,-0.025771690532565117,-0.03339805826544762,-0.007628105115145445
1772797502565380900,1.102380859375,-0.04053064063191414,-0.02378203719854355,-0.006854868493974209
1772797502575407600,1.11240771484375,-0.04746471345424652,-0.017922550439834595,-0.008224798366427422
1772797502585433600,1.12243359375,-0.05058126151561737,-0.010788346640765667,-0.004915550351142883
1772797502595459600,1.13245947265625,-0.04640622437000275,-0.002404714934527874,-0.0004694031085819006
1772797502605486800,1.14248681640625,-0.04106946662068367,-0.01693764142692089,-0.005253584124147892
1772797502615512800,1.152512939453125,-0.026933938264846802,-0.04026932641863823,-0.012929612770676613
1772797502625538800,1.162538818359375,-0.027676308527588844,-0.048588477075099945,-0.022992929443717003
1772797502635565800,1.17256591796875,-0.02549651265144348,-0.042027246206998825,-0.03207670524716377
1772797502645591800,1.182591796875,-0.03496737405657768,-0.034612298011779785,-0.03649506717920303
1772797502655618800,1.192618896484375,-0.047970257699489594,-0.028369585052132607,-0.04802921786904335
1772797502665644800,1.202644775390625,-0.06189652904868126,-0.027116918936371803,-0.05500701442360878
1772797502675670800,1.2126708984375,-0.061797190457582474,-0.022629227489233017,-0.06253177672624588
1772797502685697800,1.22269775390625,-0.050336237996816635,-0.021739045158028603,-0.061232708394527435
1772797502695723800,1.232723876953125,-0.03857598453760147,-0.027699997648596764,-0.05524592101573944
1772797502705750800,1.242750732421875,-0.025959335267543793,-0.0273137204349041,-0.038916200399398804
1772797502715776800,1.25277685546875,-0.0210625808686018,-0.025013279169797897,-0.026063520461320877
1772797502725803000,1.262802978515625,-0.018839681521058083,-0.022259192541241646,-0.020296957343816757
1772797502735829800,1.272829833984375,-0.01990281604230404,-0.020158225670456886,-0.02891627699136734
1772797502745855700,1.282855712890625,-0.01764136552810669,-0.023841530084609985,-0.0455976203083992
1772797502755881700,1.2928818359375,-0.013354474678635597,-0.012700196355581284,-0.05682790279388428
1772797502765908700,1.30290869140625,-0.011311274021863937,0.002281795023009181,-0.048876628279685974
1772797502775934700,1.312934814453125,-0.005155377089977264,0.016265787184238434,-0.027364147827029228
1772797502785962000,1.3229619140625,0.0010298507986590266,0.014105689711868763,-0.0032172563951462507
1772797502795988000,1.332988037109375,0.015577102079987526,0.010876607149839401,0.018894970417022705
1772797502806013700,1.343013671875,0.027157898992300034,0.0032164438161998987,0.028544379398226738
1772797502816040700,1.353040771484375,0.03271032124757767,-0.004022294655442238,0.02001374214887619
1772797502826066700,1.363066650390625,0.03643723577260971,-0.011975089088082314,0.00937514379620552
1772797502836092700,1.3730927734375,0.035852670669555664,-0.019086528569459915,-0.003739059902727604
1772797502846120000,1.383119873046875,0.03118889220058918,-0.016326799988746643,-0.008748624473810196
1772797502856146000,1.39314599609375,0.0239578764885664,-0.007905885577201843,-0.006616764236241579
1772797502866172700,1.403172607421875,0.02383122593164444,0.0005857404321432114,-0.001843851525336504
1772797502876198700,1.41319873046875,0.02947952412068844,0.00216366327367723,0.015567096881568432
1772797502886224600,1.423224609375,0.028849570080637932,0.013648941181600094,0.03519086912274361
1772797502896251600,1.433251708984375,0.022263839840888977,0.02724437788128853,0.05435897037386894
1772797502906278000,1.44327783203125,0.01529652439057827,0.03886832669377327,0.056419938802719116
1772797502916304000,1.453303955078125,0.0008067971793934703,0.035045359283685684,0.03651973605155945
1772797502926331000,1.463330810546875,-0.011102372780442238,0.031135257333517075,0.007881751284003258
1772797502936356900,1.47335693359375,-0.017661472782492638,0.017281491309404373,-0.015190279111266136
1772797502946383600,1.483383544921875,-0.019299305975437164,0.004090913105756044,-0.013944512233138084
1772797502956409600,1.49340966796875,-0.02071451023221016,0.013079348020255566,0.0062148189172148705
1772797502966435800,1.503435791015625,-0.019325070083141327,0.023184798657894135,0.030020061880350113
1772797502976462800,1.513462890625,-0.018001480028033257,0.021850556135177612,0.04413454979658127
1772797502986488800,1.52348876953125,-0.017140811309218407,0.012292012572288513,0.042734984308481216
1772797502996514800,1.533514892578125,-0.004356838762760162,-0.007394872605800629,0.051340192556381226
1772797503006541800,1.543541748046875,-0.00786898285150528,-0.002543029375374317,0.06399423629045486
1772797503016567800,1.55356787109375,-0.0167855117470026,-0.013946419581770897,0.057071615010499954
1772797503026594800,1.5635947265625,-0.008502930402755737,-0.007707568351179361,0.04976417124271393
1772797503036620800,1.573620849609375,-0.012616448104381561,0.009947857819497585,0.04064018279314041
1772797503046646800,1.583646728515625,-0.015175333246588707,0.02510147914290428,0.020462777465581894
1772797503056673800,1.593673828125,-0.013773178681731224,0.02953830361366272,-0.0016648960299789906
1772797503066699800,1.60369970703125,-0.011618795804679394,0.011079797521233559,-0.019283832982182503
1772797503076726800,1.613726806640625,-0.009529545903205872,-0.015734773129224777,-0.03088296391069889
1772797503086752800,1.623752685546875,-0.0068323020823299885,-0.04683639481663704,-0.03807692974805832
1772797503096778800,1.63377880859375,0.002931645605713129,-0.05410948768258095,-0.043408311903476715
1772797503106805800,1.6438056640625,0.0018722455715760589,-0.05304885655641556,-0.04351593554019928
1772797503116831700,1.653831787109375,0.0029963660053908825,-0.03791730850934982,-0.0374886691570282
1772797503126857700,1.663857666015625,0.005207468289881945,-0.017224576324224472,-0.027077538892626762
1772797503136884700,1.673884765625,0.012880567461252213,-0.0007702363654971123,-0.010070059448480606
1772797503146911000,1.683910888671875,0.023997751995921135,0.010253960266709328,0.009251130744814873
1772797503156937700,1.693937744140625,0.038926634937524796,0.020771581679582596,0.016425952315330505
1772797503166963700,1.703963623046875,0.052628133445978165,0.02101268619298935,0.01705876737833023
1772797503176989700,1.71398974609375,0.0594644658267498,0.020527992397546768,0.013391595333814621
1772797503187016700,1.7240166015625,0.053494591265916824,0.010715825483202934,0.008863033726811409
1772797503197042700,1.734042724609375,0.045681409537792206,-0.006297512445598841,-0.005542803555727005
1772797503207070000,1.744070068359375,0.03588063642382622,-0.009826185181736946,-0.0267274659126997
1772797503217096000,1.754095947265625,0.0308280847966671,-0.014670474454760551,-0.04670889675617218
1772797503227122000,1.764121826171875,0.02308550290763378,-0.014259244315326214,-0.06039958447217941
1772797503237148700,1.774148681640625,0.019454283639788628,-0.011017643846571445,-0.061801470816135406
1772797503247174700,1.784174560546875,0.019308120012283325,-0.00794750265777111,-0.053519356995821
1772797503257200600,1.79420068359375,0.026904255151748657,-0.006722448859363794,-0.03421490266919136
1772797503267228000,1.804227783203125,0.02622787095606327,0.0077252318151295185,-0.011466868221759796
1772797503277254000,1.81425390625,0.02417723648250103,0.02871147356927395,0.007721738889813423
1772797503287281000,1.824281005859375,0.01856817677617073,0.02500748634338379,0.017972437664866447
1772797503297307000,1.834306884765625,0.008715279400348663,0.019612185657024384,0.02507988177239895
1772797503307332900,1.844332763671875,0.001813401933759451,0.021404560655355453,0.029335280880331993
1772797503317359600,1.854359619140625,-0.007208055816590786,0.013986857607960701,0.025437744334340096
1772797503327385900,1.8643857421875,-0.0171757023781538,0.012719288468360901,0.017477594316005707
1772797503337412900,1.874412841796875,-0.017120573669672012,0.02299642562866211,0.012510531581938267
1772797503347438800,1.88443896484375,-0.0226905420422554,0.0359373576939106,-0.0019176385831087828
1772797503357464800,1.89446484375,-0.021704908460378647,0.03407873585820198,-0.012065880000591278
1772797503367491800,1.904491943359375,-0.02198636159300804,0.02531735599040985,-0.014086442068219185
1772797503377517800,1.914517822265625,-0.019954636693000793,0.018160909414291382,-0.016716845333576202
1772797503387543600,1.92454345703125,-0.017942138016223907,0.004012389574199915,-0.014409666880965233
1772797503397570800,1.93457080078125,-0.010389146395027637,-0.004779504612088203,-0.002206529723480344
1772797503407596800,1.9445966796875,-0.008654918521642685,-0.01325105968862772,0.013698567636311054
1772797503417623800,1.954623779296875,-0.004129941575229168,-0.013320834375917912,0.03156678006052971
1772797503427649800,1.96464990234375,0.00726925116032362,-0.004368957597762346,0.03627825528383255
1772797503437675800,1.97467578125,0.012355356477200985,-0.005200396757572889,0.033773019909858704
1772797503447702800,1.984702880859375,0.010117326863110065,-0.005667683202773333,0.02622871659696102
1772797503457728800,1.994728759765625,0.006942573003470898,0.0025020958855748177,0.019384659826755524
1772797503467754800,2.004754638671875,0.0042121075093746185,0.018472788855433464,0.017757482826709747
1772797503477781800,2.01478173828125,0.003743124892935157,0.03378383442759514,0.011719297617673874
1772797503487807700,2.024807861328125,0.008282593451440334,0.03222266584634781,0.009154965169727802
1772797503497834800,2.034834716796875,0.0143290339037776,0.01784186251461506,0.008974935859441757
1772797503507861000,2.044861083984375,0.016361374408006668,0.00609762966632843,0.011380793526768684
1772797503517887000,2.054886962890625,0.013221774250268936,0.003052837448194623,0.004146050661802292
1772797503527914000,2.0649140625,0.005752956494688988,0.004845822229981422,-0.010449274443089962
1772797503537940000,2.07493994140625,-0.000367520609870553,0.006498047150671482,-0.034455277025699615
1772797503547967200,2.08496728515625,-0.0034616070333868265,0.0014314474537968636,-0.04182111844420433
1772797503557993200,2.0949931640625,-0.0025718447286635637,-0.012112323194742203,-0.0411585234105587
1772797503568019200,2.105019287109375,0.0009165972005575895,-0.014092747122049332,-0.029668083414435387
1772797503578046200,2.115046142578125,-0.000399536918848753,0.010378507897257805,-0.01458420604467392
1772797503588072000,2.125072021484375,0.010610499419271946,0.020158804953098297,-0.0034380496945232153
1772797503598098000,2.135097900390625,0.014209495857357979,0.007093602791428566,-0.0026161980349570513
1772797503608125200,2.145125244140625,0.016019083559513092,-0.007786743808537722,-0.011678468436002731
1772797503618151200,2.155151123046875,0.01501746941357851,-0.014675542712211609,-0.02419372834265232
1772797503628178200,2.16517822265625,0.014549759216606617,-0.01806308701634407,-0.03521588072180748
1772797503638204200,2.1752041015625,0.01314973458647728,-0.029270999133586884,-0.03661350533366203
1772797503648230100,2.185230224609375,0.016919229179620743,-0.033894672989845276,-0.02952508255839348
1772797503658257200,2.195257080078125,0.022726519033312798,-0.02622104063630104,-0.014182076789438725
1772797503668283100,2.205283203125,0.030722355470061302,-0.018286144360899925,-0.0011834627948701382
1772797503678309000,2.21530908203125,0.04046126827597618,-0.03396390378475189,0.010038564912974834
1772797503688336100,2.225336181640625,0.04695090278983116,-0.03786661848425865,0.026083024218678474
1772797503698362000,2.235362060546875,0.051237791776657104,-0.023938549682497978,0.03899802640080452
1772797503708389000,2.24538916015625,0.03995031863451004,-0.014034964144229889,0.04386499896645546
1772797503718415000,2.2554150390625,0.028971970081329346,-0.001578028779476881,0.041422080248594284
1772797503728441300,2.26544140625,0.014000322669744492,0.015371369197964668,0.032466959208250046
1772797503738468000,2.275468017578125,0.009014884941279888,0.0235038623213768,0.01840253919363022
1772797503748494000,2.285494140625,0.004560715518891811,0.016620028764009476,0.0043857516720891
1772797503758521000,2.29552099609375,0.002945508109405637,0.009987692348659039,-0.0067800842225551605
1772797503768547000,2.305547119140625,0.004614895675331354,-0.006610692013055086,-0.014509141445159912
1772797503778573000,2.315572998046875,0.005790148861706257,-0.02346024475991726,-0.020794468000531197
1772797503788600300,2.325600341796875,0.008915016427636147,-0.033559687435626984,-0.017726968973875046
1772797503798626300,2.335626220703125,0.009897456504404545,-0.03388486057519913,-0.00383245968259871
1772797503808652300,2.34565234375,0.0027844563592225313,-0.030649127438664436,0.011947310529649258
1772797503818679000,2.355678955078125,0.0034124297089874744,-0.014468559995293617,0.02714916504919529
1772797503828705000,2.365705078125,0.0036758529022336006,-0.0006438330747187138,0.02639230526983738
1772797503838732300,2.375732177734375,0.002292873337864876,0.009389892220497131,0.019626811146736145
1772797503848758300,2.38575830078125,-0.0004491792060434818,0.014611255377531052,0.016416002064943314
1772797503858784300,2.3957841796875,-0.0008406639099121094,0.018967121839523315,0.02302010916173458
1772797503868811000,2.40581103515625,0.0015092981047928333,0.013653630390763283,0.03243553265929222
1772797503878837000,2.4158369140625,0.0022565810941159725,0.005028184037655592,0.0368686281144619
1772797503888863000,2.425863037109375,0.004297471139580011,0.007908102124929428,0.039030879735946655
1772797503898890000,2.435889892578125,0.0032625668682157993,0.01330073643475771,0.03225766122341156
1772797503908916200,2.445916259765625,-0.0030261389911174774,0.009568356908857822,0.02047526091337204
1772797503918943200,2.455943115234375,-0.005939636845141649,0.008209079504013062,0.006917106918990612
1772797503928969200,2.46596923828125,-0.00497187115252018,-0.001238255761563778,0.00009905686601996422
1772797503938995200,2.4759951171875,-0.010305384173989296,-0.0035176551900804043,-0.0037066000513732433
1772797503949022000,2.48602197265625,-0.008205229416489601,-0.00006684660911560059,-0.007486844900995493
1772797503959048000,2.4960478515625,-0.008822550065815449,0.009916279464960098,-0.0059914798475801945
1772797503969074000,2.506073974609375,-0.00670583313331008,0.02356870099902153,-0.007543029263615608
1772797503979101200,2.51610107421875,-0.008756201714277267,0.01759975776076317,-0.015323454514145851
1772797503989127200,2.526127197265625,-0.0110886599868536,0.0014987867325544357,-0.025762613862752914
1772797503999154200,2.536154296875,-0.009577848948538303,-0.004186262842267752,-0.02669551968574524
1772797504009180200,2.54618017578125,-0.0026211091317236423,-0.00412880489602685,-0.020696420222520828
1772797504019206100,2.5562060546875,0.004456241615116596,-0.011402163654565811,-0.01330561563372612
1772797504029233200,2.566233154296875,0.010267333127558231,-0.016944751143455505,-0.005170173943042755
1772797504039259100,2.576259033203125,0.019212624058127403,-0.022956037893891335,0.004543972201645374
1772797504049286100,2.5862861328125,0.019464218989014626,-0.01885475404560566,0.0211626123636961
1772797504059312000,2.59631201171875,0.016291063278913498,-0.005292606074362993,0.03504088148474693
1772797504069338000,2.606338134765625,0.01782502979040146,0.00715186120942235,0.030768193304538727
1772797504079365000,2.616365234375,0.016377335414290428,0.015171438455581665,0.014282427728176117
1772797504089391000,2.62639111328125,0.01483991090208292,0.012449800968170166,-0.005242391023784876
1772797504099417000,2.6364169921875,0.012090196833014488,0.004205453675240278,-0.009443260729312897
1772797504109444000,2.646444091796875,0.007530516479164362,0.00020667584612965584,0.0013473761500790715
1772797504119470000,2.656469970703125,0.006415983662009239,0.0023984576109796762,0.0168168805539608
1772797504129497000,2.6664970703125,0.006987194996327162,-0.001801072619855404,0.02279726415872574
1772797504139523000,2.676523193359375,0.00987672433257103,-0.008798262104392052,0.015278629027307034
1772797504149549300,2.68654931640625,0.008859815075993538,-0.010682053864002228,-0.0025810571387410164
1772797504159576000,2.696576171875,0.00047884753439575434,-0.01237475872039795,-0.017509406432509422
1772797504169602000,2.70660205078125,-0.0008987649343907833,-0.01091732271015644,-0.027669917792081833
1772797504179628000,2.7166279296875,-0.00893112551420927,-0.008259488269686699,-0.028151683509349823
1772797504189655000,2.726655029296875,-0.018539847806096077,-0.004466872196644545,-0.010571368038654327
1772797504199681000,2.736680908203125,-0.025690967217087746,0.010908888652920723,0.01588154397904873
1772797504209708300,2.746708251953125,-0.022284293547272682,0.01802896149456501,0.034325286746025085
1772797504219734300,2.756734375,-0.020299438387155533,0.017595132812857628,0.041060689836740494
1772797504229760300,2.76676025390625,-0.02413078583776951,0.0161144882440567,0.03997977450489998
1772797504239787000,2.776787109375,-0.028462950140237808,0.018658604472875595,0.03427634760737419
1772797504249813000,2.78681298828125,-0.026822462677955627,0.02477441169321537,0.023150071501731873
1772797504259839000,2.7968388671875,-0.02690981514751911,0.020400170236825943,0.01224415935575962
1772797504269866200,2.8068662109375,-0.02483532764017582,0.01173357293009758,-0.0019523492082953453
1772797504279892200,2.816892333984375,-0.022984962910413742,0.00028650835156440735,-0.016707593575119972
1772797504289919200,2.826919189453125,-0.017424700781702995,-0.01252662017941475,-0.024751408025622368
1772797504299945200,2.8369453125,-0.014073112048208714,-0.011515418067574501,-0.021561473608016968
1772797504309971200,2.84697119140625,-0.006365091539919376,-0.007501141168177128,-0.012971678748726845
1772797504319998000,2.856998046875,-0.0042793033644557,-0.008403952233493328,0.0006490583764389157
1772797504330024200,2.867024169921875,0.0019832001999020576,-0.017176896333694458,0.006825155578553677
1772797504340050200,2.87705029296875,0.003037811955437064,-0.023071803152561188,0.0026013818569481373
1772797504350077200,2.8870771484375,-0.0011644745245575905,-0.023010486736893654,-0.008620844222605228
1772797504360103200,2.897103271484375,-0.0017407825216650963,-0.01305665634572506,-0.016944555565714836
1772797504370130200,2.907130126953125,-0.00351543165743351,-0.0020407158881425858,-0.011567406356334686
1772797504380156200,2.91715625,-0.004700538236647844,0.0005510724149644375,0.004454437177628279
1772797504390182100,2.92718212890625,0.0006196617614477873,-0.008336266502737999,0.011885161511600018
1772797504400209200,2.937209228515625,0.006140128709375858,-0.018239231780171394,0.01584368385374546
1772797504410235100,2.947235107421875,0.013936984352767467,-0.018450461328029633,0.006364734843373299
1772797504420261000,2.95726123046875,0.017673399299383163,-0.006648130714893341,-0.00013976986519992352
1772797504430288100,2.9672880859375,0.01674487255513668,0.0044442350044846535,-0.005748951341956854
1772797504440314000,2.977314208984375,0.012039067223668098,-0.0037252772599458694,-0.005042947828769684
1772797504450341000,2.987341064453125,0.010839310474693775,-0.012172985821962357,0.010790636762976646
1772797504460367000,2.9973671875,0.008410773240029812,-0.00888504832983017,0.026122456416487694
1772797504470393000,3.00739306640625,0.009061767719686031,0.0013788077048957348,0.03810052573680878
1772797504480420000,3.017420166015625,0.010993358679115772,0.01207486167550087,0.03220188990235329
1772797504490446000,3.027446044921875,0.00907108560204506,0.021095093339681625,0.016012027859687805
1772797504500473000,3.03747314453125,0.011265263892710209,0.026882674545049667,0.002833108650520444
1772797504510499300,3.047499267578125,0.004243914037942886,0.021958474069833755,-0.009413421154022217
1772797504520525300,3.057525390625,-0.0026241124141961336,0.008332941681146622,-0.012089098803699017
1772797504530552300,3.06755224609375,-0.005924220196902752,-0.005705071613192558,-0.00626746891066432
1772797504540578300,3.077578369140625,-0.009717893786728382,-0.012862849980592728,-0.001377905486151576
1772797504550604300,3.087604248046875,-0.0064564417116343975,-0.019050367176532745,0.004819064401090145
1772797504560631300,3.09763134765625,-0.0036124521866440773,-0.021678641438484192,0.01432308740913868
1772797504570657300,3.1076572265625,-0.002886880189180374,-0.004149194341152906,0.02710534818470478
1772797504580684300,3.117684326171875,-0.00474203797057271,0.006461638491600752,0.03571934252977371
1772797504590710500,3.12771044921875,-0.005670502781867981,0.007819217629730701,0.030855439603328705
1772797504600736300,3.137736328125,-0.006195678375661373,0.008777156472206116,0.019734878093004227
1772797504610763300,3.14776318359375,-0.007553849369287491,0.010390919633209705,0.008850250393152237
1772797504620789200,3.157789306640625,-0.010864424519240856,0.006653173360973597,0.0004016384482383728
1772797504630815200,3.167815185546875,-0.008844754658639431,-0.0067929476499557495,0.009029172360897064
1772797504640842200,3.17784228515625,-0.005728323943912983,-0.01990368962287903,0.021048283204436302
1772797504650868200,3.1878681640625,-0.000675662886351347,-0.013325441628694534,0.038327962160110474
1772797504660894500,3.19789453125,-0.006729028187692165,0.004096958786249161,0.054279763251543045
1772797504670921200,3.207921142578125,-0.01358841359615326,0.01753636822104454,0.05918660759925842
1772797504680947200,3.217947265625,-0.016520287841558456,0.02223525010049343,0.04947459325194359
1772797504690974200,3.22797412109375,-0.017409974709153175,0.016484033316373825,0.026187101379036903
1772797504701000200,3.238000244140625,-0.01262160949409008,0.002410824876278639,0.004425879567861557
1772797504711026200,3.248026123046875,-0.01315093133598566,-0.01942935585975647,-0.008849449455738068
1772797504721053400,3.258053466796875,-0.00484453234821558,-0.0319608598947525,-0.011296628043055534
1772797504731079400,3.268079345703125,0.003106821794062853,-0.03851458057761192,-0.0013078367337584496
1772797504741105400,3.27810546875,0.006750292144715786,-0.027682170271873474,0.016087664291262627
1772797504751132200,3.288132080078125,0.0010123932734131813,-0.011468080803751945,0.03014545887708664
1772797504761158100,3.298158203125,0.0029727460350841284,0.0033289743587374687,0.03230448439717293
1772797504771185400,3.308185302734375,0.0011192267993465066,0.020127814263105392,0.023973830044269562
1772797504781211400,3.31821142578125,0.00048299762420356274,0.023018941283226013,0.010951238684356213
1772797504791237400,3.3282373046875,-0.004275915678590536,0.022063959389925003,-0.003376326058059931
1772797504801264400,3.338264404296875,-0.006202979013323784,0.009224592708051205,-0.012768762186169624
1772797504811290400,3.348290283203125,-0.008107291534543037,-0.007770765107125044,-0.017303863540291786
1772797504821316400,3.35831640625,-0.00682817492634058,-0.017006607726216316,-0.005583557765930891
1772797504831343400,3.36834326171875,-0.0080961799249053,-0.016594866290688515,0.0037537359166890383
1772797504841369300,3.378369384765625,-0.007893247529864311,-0.015009751543402672,0.004929255228489637
1772797504851396400,3.388396240234375,-0.004758672788739204,-0.011120909824967384,-0.003498814767226577
1772797504861422300,3.39842236328125,-0.002656906144693494,-0.013780342414975166,-0.013416426256299019
1772797504871448300,3.4084482421875,0.002936382545158267,-0.011630073189735413,-0.020523902028799057
1772797504881475300,3.418475341796875,0.0006529883248731494,-0.0064643388614058495,-0.01699521392583847
1772797504891501300,3.428501220703125,0.004780472721904516,-0.0019071036949753761,0.0009890816872939467
1772797504901527300,3.43852734375,0.005469698924571276,0.00034007150679826736,0.0290774405002594
1772797504911554300,3.44855419921875,0.0066232262179255486,-0.0006999187171459198,0.05013933777809143
1772797504921580300,3.458580322265625,0.006070353556424379,0.009083735756576061,0.057382870465517044
1772797504931607300,3.468607177734375,0.008012484759092331,0.023631278425455093,0.05082214996218681
1772797504941633300,3.47863330078125,0.005096057429909706,0.021428843960165977,0.03882487863302231
1772797504951659300,3.4886591796875,0.004839133936911821,0.013222667388617992,0.02383877895772457
1772797504961686300,3.498686279296875,0.00470943795517087,0.009464148432016373,0.01612786389887333
1772797504971712300,3.508712158203125,0.0066325063817203045,0.0005332375876605511,0.01667567528784275
1772797504981738200,3.51873828125,0.003353622741997242,-0.01737998239696026,0.019650159403681755
1772797504991765200,3.52876513671875,0.001771177863702178,-0.04066260904073715,0.03446873649954796
1772797505001791200,3.538791259765625,-0.003545556915923953,-0.0398080013692379,0.051545724272727966
1772797505011818500,3.548818603515625,-0.006099937949329615,-0.01722460240125656,0.058916494250297546
1772797505021844500,3.558844482421875,-0.007113803643733263,-0.003108515404164791,0.04792456328868866
1772797505031870500,3.568870361328125,-0.012706644833087921,0.0073589361272752285,0.02607635222375393
1772797505041897200,3.578897216796875,-0.01600310392677784,0.013723624870181084,0.006911179516464472
1772797505051923200,3.588923095703125,-0.019832398742437363,0.011962135322391987,0.005585264414548874
1772797505061949200,3.59894921875,-0.01999165490269661,0.009864097461104393,0.014871174469590187
1772797505071976200,3.60897607421875,-0.026852363720536232,0.010831447318196297,0.021418999880552292
1772797505082002400,3.61900244140625,-0.03234114125370979,0.006874256767332554,0.023470699787139893
1772797505092029400,3.629029541015625,-0.035177942365407944,0.009480264037847519,0.02417726255953312
1772797505102055400,3.639055419921875,-0.03297923505306244,0.008175848051905632,0.02159799262881279
1772797505112081400,3.649081298828125,-0.03381634131073952,-0.0029497570358216763,0.014127010479569435
1772797505122108200,3.659108154296875,-0.032888494431972504,-0.014924928545951843,0.00517293019220233
1772797505132134100,3.669134033203125,-0.035077545791864395,-0.011103469878435135,0.0011864881962537766
1772797505142160100,3.67916015625,-0.03757665678858757,0.007636662106961012,0.009042547084391117
1772797505152187400,3.6891875,-0.03528176248073578,0.019673829898238182,0.007879205048084259
1772797505162213400,3.69921337890625,-0.034767769277095795,0.019616039469838142,-0.00022346293553709984
1772797505172239400,3.7092392578125,-0.03548096492886543,0.012995583936572075,-0.010236174799501896
1772797505182266000,3.71926611328125,-0.029305892065167427,-0.0024379678070545197,-0.01896841451525688
1772797505192292000,3.7292919921875,-0.022432545199990273,-0.010456537827849388,-0.019159842282533646
1772797505202319400,3.7393193359375,-0.018536074087023735,-0.0031381710432469845,-0.018853845074772835
1772797505212345300,3.749345458984375,-0.012064900249242783,-0.0052520763128995895,-0.02402302250266075
1772797505222371300,3.759371337890625,-0.0025733939837664366,-0.01674121990799904,-0.02811523526906967
1772797505232398300,3.7693984375,-0.0005452451296150684,-0.033615414053201675,-0.03309667482972145
1772797505242424300,3.77942431640625,-0.0013990546576678753,-0.05387621000409126,-0.03338216617703438
1772797505252450300,3.7894501953125,-0.0006187483668327332,-0.055809397250413895,-0.028180480003356934
1772797505262477300,3.799477294921875,0.000022540800273418427,-0.04777970165014267,-0.01727456785738468
1772797505272503300,3.80950341796875,0.004323087632656097,-0.04081901162862778,0.002817399799823761
1772797505282530300,3.8195302734375,0.015034588053822517,-0.027668055146932602,0.02639116905629635
1772797505292556300,3.829556396484375,0.02775632217526436,-0.014823589473962784,0.051359329372644424
1772797505302582300,3.839582275390625,0.03234521672129631,-0.001960787922143936,0.05465046688914299
1772797505312609300,3.849609375,0.03829129412770271,0.009986677207052708,0.042116306722164154
1772797505322635500,3.859635498046875,0.03646782785654068,0.008103555999696255,0.02197934500873089
1772797505332661500,3.86966162109375,0.030247289687395096,0.003983895294368267,0.011334439739584923
1772797505342688300,3.879688232421875,0.02484479919075966,0.0054358504712581635,0.010514985769987106
1772797505352714200,3.88971435546875,0.0225633904337883,0.0008764490485191345,0.010496018454432487
1772797505362741200,3.8997412109375,0.021527953445911407,-0.01631132699549198,0.007901834324002266
1772797505372767200,3.909767333984375,0.022486994042992592,-0.03514760732650757,0.008265629410743713
1772797505382793200,3.919793212890625,0.020448345690965652,-0.04105716198682785,-0.0012573020067065954
1772797505392820500,3.929820556640625,0.018697084859013557,-0.04049567133188248,-0.011059032753109932
1772797505402846500,3.939846435546875,0.014098071493208408,-0.029399611055850983,-0.01363484188914299
1772797505412872200,3.9498720703125,0.007187629118561745,-0.011229749768972397,-0.011635914444923401
1772797505422899200,3.959899169921875,-0.005241609178483486,0.002159559866413474,-0.0024517374113202095
1772797505432925200,3.96992529296875,-0.011542496271431446,0.0027554379776120186,-0.00022107013501226902
1772797505442951200,3.979951171875,-0.015254410915076733,0.004003661684691906,-0.0011691553518176079
1772797505452978400,3.989978515625,-0.01784159615635872,-0.005166152026504278,-0.003920185845345259
1772797505463004400,4.00000439453125,-0.021835539489984512,-0.004083310719579458,-0.005054159555584192
1772797505473031200,4.01003125,-0.02901873178780079,-0.0005041593685746193,-0.0014442407991737127
1772797505483057200,4.02005712890625,-0.031813982874155045,0.005785960704088211,0.0006197087932378054
1772797505493083100,4.030083251953125,-0.035522930324077606,0.012508200481534004,-0.007312801666557789
1772797505503110400,4.0401103515625,-0.03899276256561279,0.02307988330721855,-0.0076294513419270515
1772797505513136400,4.050136474609375,-0.036262188106775284,0.025611845776438713,-0.01858539506793022
1772797505523161600,4.06016162109375,-0.027979759499430656,0.016310757026076317,-0.02346137911081314
1772797505533188600,4.070188720703125,-0.019798146560788155,0.004762894939631224,-0.028172245249152184
1772797505543214600,4.080214599609375,-0.013274733908474445,-0.01876719854772091,-0.026974355801939964
1772797505553240600,4.090240478515625,-0.0037035176064819098,-0.038934580981731415,-0.017815010622143745
1772797505563267600,4.100267578125,0.0032822201028466225,-0.05360646918416023,-0.0006642527878284454
1772797505573293600,4.11029345703125,0.003104050410911441,-0.044139787554740906,0.015203178860247135
1772797505583320600,4.120320556640625,0.004927783273160458,-0.02713710069656372,0.025159405544400215
1772797505593346600,4.1303466796875,0.0021702360827475786,0.0015700985677540302,0.02302510105073452
1772797505603372500,4.14037255859375,0.0002500970149412751,0.024701783433556557,0.012627854011952877
1772797505613399800,4.15039990234375,-0.0026871056761592627,0.023180954158306122,0.015218868851661682
1772797505623425800,4.16042578125,-0.0004548439756035805,0.010010292753577232,0.02928222343325615
1772797505633451800,4.17045166015625,-0.00007960689254105091,0.004304572939872742,0.03860224783420563
1772797505643478500,4.180478515625,0.009064090438187122,0.002870993223041296,0.035395003855228424
1772797505653504500,4.19050439453125,0.015182851813733578,0.0026187589392066,0.019883185625076294
1772797505663531500,4.200531494140625,0.01643959805369377,-0.00512864300981164,-0.005600335542112589
1772797505673557500,4.2105576171875,0.01696001924574375,-0.0011404058896005154,-0.025722935795783997
1772797505683583700,4.220583740234375,0.014204978942871094,0.0029030716978013515,-0.039846744388341904
1772797505693610800,4.23061083984375,0.009107542224228382,0.0007090899161994457,-0.05357539281249046
1772797505703636700,4.24063671875,0.007766906637698412,-0.004257172346115112,-0.06972746551036835
1772797505713662700,4.250662841796875,0.012310070917010307,-0.018187860026955605,-0.07948346436023712
1772797505723689500,4.260689453125,0.017609495669603348,-0.022869164124131203,-0.0675751268863678
1772797505733715500,4.270715576171875,0.02468661218881607,-0.017194300889968872,-0.03907206282019615
1772797505743741400,4.280741455078125,0.020979758352041245,-0.006698250770568848,-0.01638592593371868
1772797505753768700,4.290768798828125,0.02022779919207096,0.0035533548798412085,-0.006930134259164333
1772797505763794700,4.300794677734375,0.020668286830186844,-0.0025090654380619526,-0.01311079878360033
1772797505773821700,4.31082177734375,0.016711967065930367,-0.013848984614014626,-0.018494606018066406
1772797505783847700,4.32084765625,0.010087886825203896,-0.020766811445355415,-0.02201024442911148
1772797505793873700,4.330873779296875,0.00873896200209856,-0.021504439413547516,-0.014303112402558327
1772797505803900700,4.340900634765625,0.009603956714272499,-0.02375986985862255,-0.0052542248740792274
1772797505813926700,4.3509267578125,0.009287036955356598,-0.028277182951569557,0.0071737333200871944
1772797505823952600,4.36095263671875,0.017552688717842102,-0.02589418552815914,0.020349988713860512
1772797505833979600,4.370979736328125,0.020805513486266136,-0.009991233237087727,0.03642001748085022
1772797505844005600,4.381005615234375,0.02172989770770073,0.008618403226137161,0.047049492597579956
1772797505854031600,4.391031494140625,0.02085162326693535,0.022033004090189934,0.039009951055049896
1772797505864058600,4.40105859375,0.01706567406654358,0.03633551299571991,0.02554820105433464
1772797505874084600,4.411084716796875,0.01337920967489481,0.0396103635430336,0.01461036317050457
1772797505884111600,4.421111572265625,0.01064147986471653,0.02499094232916832,0.0027268053963780403
1772797505894137600,4.4311376953125,0.0066535454243421555,0.0049189310520887375,-0.007588651496917009
1772797505904163600,4.44116357421875,0.005197595339268446,-0.013742370530962944,-0.024161236360669136
1772797505914190600,4.451190673828125,-0.0003346581943333149,-0.022998113185167313,-0.027808237820863724
1772797505924216600,4.461216552734375,-0.00859791412949562,-0.017705876380205154,-0.021329300478100777
1772797505934242800,4.471242919921875,-0.01661285012960434,0.003832678310573101,-0.003950021229684353
1772797505944269600,4.48126953125,-0.02113622985780239,0.017415598034858704,0.0010601840913295746
1772797505954295600,4.491295654296875,-0.02678106538951397,0.01883666217327118,-0.0038538805674761534
1772797505964321500,4.501321533203125,-0.026030587032437325,0.010487917810678482,-0.013997595757246017
1772797505974348500,4.5113486328125,-0.02306862361729145,0.004072732292115688,-0.02802097424864769
1772797505984374500,4.52137451171875,-0.024002062156796455,0.0008356599137187004,-0.025418534874916077
1772797505994401800,4.53140185546875,-0.029094476252794266,0.007422764785587788,-0.01090700738132
1772797506004427800,4.541427734375,-0.030165866017341614,0.02323102205991745,-0.0032504191622138023
1772797506014453800,4.551453857421875,-0.028352564200758934,0.027465132996439934,0.0033774347975850105
1772797506024480500,4.56148046875,-0.02573574148118496,0.02232975885272026,0.0065718963742256165
1772797506034506500,4.571506591796875,-0.022264724597334862,0.010096725076436996,0.010541548952460289
1772797506044532500,4.581532470703125,-0.015851832926273346,0.004677191376686096,0.015209536999464035
1772797506054559700,4.591559814453125,-0.010772954672574997,0.0005109510384500027,0.011109593324363232
1772797506064585700,4.601585693359375,-0.011084012687206268,0.004593576770275831,0.008475194685161114
1772797506074611700,4.61161181640625,-0.008796585723757744,0.004704355727881193,-0.00013692863285541534
1772797506084638700,4.621638671875,-0.008693521842360497,0.006525691598653793,-0.0024866354651749134
1772797506094664400,4.63166455078125,-0.008655324578285217,0.01623331755399704,-0.005263517610728741
1772797506104691700,4.641691650390625,-0.011215954087674618,0.017904184758663177,-0.01028277724981308
1772797506114717700,4.6517177734375,-0.008111280389130116,0.013128982856869698,-0.016163019463419914
1772797506124743700,4.66174365234375,-0.0016113030724227428,0.007714509963989258,-0.023578591644763947
1772797506134770700,4.671770751953125,0.006427376065403223,0.004147118888795376,-0.030517764389514923
1772797506144796700,4.681796630859375,0.011801103129982948,0.008488871157169342,-0.02579491212964058
1772797506154822700,4.69182275390625,0.015282118692994118,0.009097239933907986,-0.016496460884809494
1772797506164849400,4.701849365234375,0.018999624997377396,0.0017264089547097683,-0.009023098275065422
1772797506174875600,4.711875732421875,0.0239099208265543,-0.012476116418838501,-0.014070834964513779
1772797506184901600,4.721901611328125,0.02819867618381977,-0.019707130268216133,-0.023242762312293053
1772797506194928600,4.7319287109375,0.030463920906186104,-0.02706640213727951,-0.030018625780940056
1772797506204954600,4.74195458984375,0.03204823657870293,-0.028271213173866272,-0.024607347324490547
1772797506214980600,4.751980712890625,0.02995530143380165,-0.016689710319042206,-0.00927400030195713
1772797506225007600,4.762007568359375,0.025636719539761543,-0.0037760422565042973,0.008125762455165386
1772797506235033600,4.77203369140625,0.01589175872504711,0.01082664541900158,0.02524852193892002
1772797506245060600,4.782060546875,0.0132933109998703,0.016036853194236755,0.030639559030532837
1772797506255086600,4.792086669921875,0.01794961839914322,0.008274898864328861,0.02236435003578663
1772797506265112600,4.802112548828125,0.022417869418859482,-0.007727503776550293,0.008919646963477135
1772797506275139600,4.8121396484375,0.018911130726337433,-0.024214789271354675,-0.0004764706827700138
1772797506285165600,4.82216552734375,0.017764106392860413,-0.019506320357322693,-0.0017334828153252602
1772797506295191600,4.832191650390625,0.022456105798482895,-0.010532481595873833,0.028175370767712593
1772797506305218800,4.84221875,-0.0030670971609652042,0.01788477785885334,0.054648786783218384
1772797506315244800,4.852244873046875,-0.012345017865300179,0.0034326016902923584,0.04411651939153671
1772797506325270500,4.8622705078125,-0.0057622166350483894,-0.005375803913921118,0.01402120292186737
1772797506335297500,4.872297607421875,-0.011459403671324253,0.0008833985775709152,-0.008689948357641697
1772797506345323500,4.882323486328125,-0.007335498929023743,0.004471741616725922,-0.014287913218140602
1772797506355350800,4.892350830078125,0.00006980099715292454,-0.0057338871993124485,0.0012742659309878945
1772797506365376800,4.902376708984375,0.0036336430348455906,-0.00831715390086174,0.027982043102383614
1772797506375402800,4.91240283203125,0.006691407412290573,-0.006996637675911188,0.04403345659375191
1772797506385429500,4.922429443359375,0.002892408287152648,0.0016045738011598587,0.048410095274448395
1772797506395455500,4.93245556640625,-0.0036040276754647493,0.007635078392922878,0.028586022555828094
1772797506405481500,4.9424814453125,-0.01277595479041338,0.016846952959895134,0.000850265845656395
1772797506415508500,4.952508544921875,-0.007051984779536724,0.017625652253627777,-0.021272605285048485
1772797506425534700,4.96253466796875,0.0001065919641405344,0.00452609546482563,-0.031242946162819862
1772797506435560700,4.972560791015625,0.010137383826076984,-0.007866451516747475,-0.019209139049053192
1772797506445587700,4.982587646484375,0.02024834230542183,-0.01608230173587799,-0.003090356010943651
1772797506455613700,4.99261376953125,0.03660963103175163,-0.01762339100241661,0.010372650809586048
1772797506465639700,5.0026396484375,0.04445849731564522,-0.020118240267038345,0.009373965673148632
1772797506475666400,5.01266650390625,0.05016587674617767,-0.02050045318901539,0.002069755457341671
1772797506485692700,5.022692626953125,0.05587010085582733,-0.02465951256453991,-0.011372816748917103
1772797506495719700,5.0327197265625,0.05796213448047638,-0.024253448471426964,-0.017546875402331352
1772797506505745700,5.04274560546875,0.066462941467762,-0.01930529624223709,-0.007809292525053024
1772797506515771600,5.052771728515625,0.06474539637565613,-0.004516315180808306,0.0020464982371777296
1772797506525798700,5.062798583984375,0.06915079802274704,-0.0013410281389951706,0.01339981984347105
1772797506535824600,5.07282470703125,0.06445787847042084,-0.008685106411576271,0.011157289147377014
1772797506545850600,5.0828505859375,0.055721916258335114,-0.015567246824502945,0.001564317150041461
1772797506555877400,5.09287744140625,0.044760577380657196,-0.016013097018003464,-0.009789618663489819
1772797506565903400,5.1029033203125,0.037660855799913406,-0.008837474510073662,-0.003650233382359147
1772797506575929300,5.112929443359375,0.0309758223593235,0.010797410272061825,0.006473829038441181
1772797506585956600,5.12295654296875,0.024514194577932358,0.023647962138056755,0.014763716608285904
1772797506595982600,5.132982666015625,0.021637262776494026,0.0356631800532341,0.009355553425848484
1772797506606008600,5.143008544921875,0.0212875884026289,0.03336780518293381,-0.002958104247227311
1772797506616035600,5.15303564453125,0.020030880346894264,0.005669957026839256,-0.015064006671309471
1772797506626061300,5.163061279296875,0.016926433891057968,-0.018756821751594543,-0.022013258188962936
1772797506636088600,5.173088623046875,0.013732010498642921,-0.033057842403650284,-0.014441907405853271
1772797506646114600,5.183114501953125,0.00699847424402833,-0.019154010340571404,0.005415153689682484
1772797506656140500,5.193140625,0.006379441358149052,0.006686503067612648,0.023522522300481796
1772797506666167600,5.20316748046875,0.0056992704048752785,0.024793334305286407,0.026180356740951538
1772797506676193500,5.213193603515625,0.007666049525141716,0.032075148075819016,0.01194288581609726
1772797506686219500,5.223219482421875,0.004865735769271851,0.028458308428525925,-0.012366981245577335
1772797506696246300,5.233246337890625,0.01310415007174015,0.02713330090045929,-0.024948058649897575
1772797506706272500,5.2432724609375,0.0096708033233881,0.025606244802474976,-0.017978565767407417
1772797506716298500,5.253298583984375,0.011065348982810974,0.017029138281941414,0.0035365764051675797
1772797506726325500,5.263325439453125,0.009393682703375816,0.006912854500114918,0.02466503158211708
1772797506736351500,5.2733515625,0.0059930142015218735,0.000983283855021,0.03725702315568924
1772797506746377500,5.28337744140625,0.010232234373688698,0.003511156188324094,0.034095052629709244
1772797506756404500,5.293404541015625,0.011825187131762505,0.004503750242292881,0.022797362878918648
1772797506766430700,5.3034306640625,0.01564975269138813,0.007628437131643295,0.012955917045474052
1772797506776456700,5.313456787109375,0.014741728082299232,0.004925732966512442,0.008057028986513615
1772797506786483500,5.3234833984375,0.01574467495083809,0.00473798019811511,0.014533570036292076
1772797506796509400,5.333509521484375,0.019725721329450607,0.010387903079390526,0.02473026141524315
1772797506806536400,5.343536376953125,0.015033232048153877,0.014824729412794113,0.03461618348956108
1772797506816562400,5.3535625,0.016673091799020767,0.01246093399822712,0.03180572763085365
1772797506826588400,5.36358837890625,0.011615216732025146,0.005076786503195763,0.019975699484348297
1772797506836615700,5.37361572265625,0.007879752665758133,-0.005791977513581514,0.01043706014752388
1772797506846641700,5.3836416015625,0.004167039878666401,-0.013001685962080956,0.0030156290158629417
1772797506856667400,5.39366748046875,0.0009263536194339395,0.001237204298377037,0.0026182604487985373
1772797506866694400,5.4036943359375,0.01981322653591633,-0.0009119664318859577,0.020255044102668762
1772797506876720400,5.413720458984375,0.022486241534352303,0.021955635398626328,0.04101201146841049
1772797506886746400,5.423746337890625,0.026292163878679276,0.014316890388727188,0.03715495392680168
1772797506896773600,5.433773681640625,0.03718315809965134,0.006834206636995077,0.03143688291311264
1772797506906799600,5.443799560546875,0.03401506319642067,0.021946847438812256,0.037421006709337234
1772797506916825600,5.45382568359375,0.02427063323557377,0.034658730030059814,0.04252365604043007
1772797506926852400,5.463852294921875,0.022855428978800774,0.03639111667871475,0.041118305176496506
1772797506936878300,5.47387841796875,0.01898585446178913,0.03797127306461334,0.03188967704772949
1772797506946904300,5.483904296875,0.014016661792993546,0.025288235396146774,0.009380107745528221
1772797506956931600,5.493931640625,0.012558583170175552,0.0043421052396297455,-0.010952085256576538
1772797506966957600,5.50395751953125,0.011150569655001163,-0.006660211831331253,-0.027675405144691467
1772797506976983600,5.513983642578125,0.002688224893063307,-0.0056828991509974,-0.0298515222966671
1772797506987010600,5.524010498046875,-0.0013611114118248224,0.004931129515171051,-0.028385452926158905
1772797506997036500,5.53403662109375,-0.0034978422336280346,0.006399552803486586,-0.02057649940252304
1772797507007063300,5.544063232421875,-0.00626752944663167,0.011933069676160812,-0.009082828648388386
1772797507017089500,5.554089599609375,-0.002702355617657304,0.005843647755682468,0.0028821981977671385
1772797507027115500,5.564115478515625,-0.00742547120898962,0.008641831576824188,0.016529567539691925
1772797507037142500,5.574142578125,-0.013208719901740551,0.02610819973051548,0.02608826756477356
1772797507047168500,5.58416845703125,-0.02021416462957859,0.04323365539312363,0.020179780200123787
1772797507057194500,5.594194580078125,-0.029332485049962997,0.041531529277563095,0.003288024105131626
1772797507067221500,5.604221435546875,-0.030886173248291016,0.026924090459942818,-0.015709102153778076
1772797507077247700,5.614247802734375,-0.034264884889125824,0.005553156603127718,-0.03642014414072037
1772797507087273500,5.6242734375,-0.027701260522007942,-0.011306783184409142,-0.03751629963517189
1772797507097300500,5.634300537109375,-0.024295570328831673,-0.021482404321432114,-0.02702268771827221
1772797507107326500,5.644326416015625,-0.01717694103717804,-0.024800436571240425,-0.01818472146987915
1772797507117352400,5.6543525390625,-0.014115674421191216,-0.010619401931762695,-0.00680297426879406
1772797507127379500,5.66437939453125,-0.0034973854199051857,0.0017597698606550694,0.012609339319169521
1772797507137405400,5.674405517578125,0.004862348549067974,0.004223792813718319,0.015368524007499218
1772797507147431700,5.684431640625,0.01070186123251915,0.00805608183145523,0.009033129550516605
1772797507157458400,5.69445849609375,0.015157449059188366,0.012912409380078316,-0.0017714551649987698
1772797507167484400,5.704484375,0.013173660263419151,0.01462056115269661,-0.00955001637339592
1772797507177510400,5.714510498046875,0.010537435300648212,0.017560189589858055,-0.008846869692206383
1772797507187537400,5.724537353515625,0.007862289436161518,0.007904632948338985,-0.013164387084543705
1772797507197563400,5.7345634765625,0.007104429416358471,-0.0016020704060792923,-0.02047741413116455
1772797507207589400,5.74458935546875,0.008120691403746605,-0.01409948617219925,-0.025258053094148636
1772797507217616600,5.75461669921875,0.0010657887905836105,-0.02681310661137104,-0.028217658400535583
1772797507227642600,5.764642578125,-0.006058433558791876,-0.032314665615558624,-0.01922762580215931
1772797507237669400,5.77466943359375,-0.012164566665887833,-0.036271847784519196,-0.01451889704912901
1772797507247695400,5.7846953125,-0.02219190075993538,-0.030744723975658417,-0.0026491875760257244
1772797507257721300,5.794721435546875,-0.035234805196523666,-0.01044103130698204,0.012359309941530228
1772797507267748600,5.80474853515625,-0.046005960553884506,0.014799876138567924,0.022099822759628296
1772797507277774600,5.814774658203125,-0.055574432015419006,0.04017101228237152,0.022715279832482338
1772797507287800600,5.824800537109375,-0.06071486696600914,0.04648057371377945,0.022160276770591736
1772797507297827600,5.83482763671875,-0.06412436068058014,0.040643054991960526,0.019759438931941986
1772797507307853600,5.844853515625,-0.05347810685634613,0.02082141302525997,0.01409755926579237
1772797507317879600,5.854879638671875,-0.04740271717309952,-0.00027266982942819595,0.01795140653848648
1772797507327906600,5.864906494140625,-0.05398285388946533,-0.01187792606651783,0.020094718784093857
1772797507337932500,5.8749326171875,-0.06584145128726959,-0.01725456491112709,0.022660396993160248
1772797507347958500,5.88495849609375,-0.07196298986673355,-0.006364899221807718,0.025475889444351196
1772797507357985500,5.894985595703125,-0.07145794481039047,0.009645998477935791,0.018482713028788567
1772797507368011500,5.905011474609375,-0.06665120273828506,0.015762213617563248,0.0033807263243943453
1772797507378037500,5.91503759765625,-0.06633778661489487,0.024295624345541,-0.001920812763273716
1772797507388064500,5.925064453125,-0.06042370945215225,0.033475276082754135,-0.000030501047149300575
1772797507398090500,5.935090576171875,-0.0543372817337513,0.0320424847304821,0.009272726252675056
1772797507408116500,5.945116455078125,-0.047278571873903275,0.03241559490561485,0.023637549951672554
1772797507418143500,5.9551435546875,-0.04169057682156563,0.03612683713436127,0.03986499086022377
1772797507428169500,5.96516943359375,-0.02436804585158825,0.03436595946550369,0.05245774984359741
1772797507438195500,5.975195556640625,-0.00939525943249464,0.022596187889575958,0.05009787529706955
1772797507448222500,5.985222412109375,0.003440910018980503,0.0026871939189732075,0.04057148098945618
1772797507458248700,5.995248779296875,0.010526401922106743,-0.0038444078527390957,0.026122013106942177
1772797507468274700,6.005274658203125,0.018835730850696564,-0.005668140482157469,0.01154786441475153
1772797507478301400,6.015301513671875,0.028351813554763794,0.0003012153320014477,0.00130746781360358
1772797507488327400,6.025327392578125,0.036377519369125366,-0.006122861988842487,-0.006318494211882353
1772797507498353400,6.035353515625,0.04527030512690544,-0.00492719653993845,-0.012103972025215626
1772797507508380400,6.04538037109375,0.051135383546352386,-0.009605038911104202,-0.009890618734061718
1772797507518406400,6.055406494140625,0.055805504322052,-0.02505207061767578,-0.001834003021940589
1772797507528434000,6.065433837890625,0.05702097341418266,-0.03148040547966957,0.009832772426307201
1772797507538460000,6.0754599609375,0.05599561706185341,-0.030545363202691078,0.014227515086531639
1772797507548486100,6.085486083984375,0.05600360408425331,-0.02244056575000286,0.013739091344177723
1772797507558513200,6.09551318359375,0.05079974979162216,-0.009710850194096565,0.004896816331893206
1772797507568539100,6.1055390625,0.04757865518331528,-0.014607603661715984,-0.000766129232943058
1772797507578565000,6.115565185546875,0.04377627372741699,-0.021737826988101006,-0.006656410172581673
1772797507588592000,6.125592041015625,0.04145532846450806,-0.024760780856013298,-0.0017351543065160513
1772797507598618000,6.1356181640625,0.038947850465774536,-0.015719261020421982,0.010361658409237862
1772797507608644000,6.14564404296875,0.0363113209605217,-0.0062096454203128815,0.028731610625982285
1772797507618671000,6.155671142578125,0.03240758180618286,-0.0012631756253540516,0.040083568543195724
1772797507628697000,6.165697021484375,0.029705801978707314,0.004043972119688988,0.039605263620615005
1772797507638723000,6.17572314453125,0.025335442274808884,0.009667200967669487,0.03612160682678223
1772797507648750000,6.18575,0.02032443694770336,0.014229195192456245,0.02699495293200016
1772797507658776000,6.195776123046875,0.01340474747121334,0.006516947411000729,0.013683943077921867
1772797507668802000,6.205802001953125,0.006949510890990496,-0.0017210086807608604,0.0026954736094921827
1772797507678829300,6.215829345703125,0.0015361031983047724,-0.001277858391404152,0.0007825250504538417
1772797507688855300,6.225855224609375,0.0029521060641855,0.007963577285408974,0.008320602588355541
1772797507698881000,6.235881103515625,0.004405315965414047,0.01429489254951477,0.01445702649652958
1772797507708908000,6.245907958984375,0.010390503332018852,0.004012694116681814,0.010644178837537766
1772797507718934000,6.25593408203125,0.010964948683977127,-0.005173942074179649,0.0014387370320037007
1772797507728960000,6.2659599609375,0.014604957774281502,-0.004835454747080803,-0.006348079070448875
1772797507738987300,6.2759873046875,0.01027857419103384,0.006916787475347519,-0.00447435025125742
1772797507749013200,6.28601318359375,0.003981262911111116,0.014595478773117065,-0.00233476678840816
1772797507759039200,6.296039306640625,0.002879972569644451,0.016163811087608337,0.00040278583765029907
1772797507769066000,6.30606591796875,0.006083223037421703,0.017700454220175743,0.009021307341754436
1772797507779092000,6.316092041015625,0.008595839142799377,0.010807741433382034,0.009626857005059719
1772797507789118000,6.326117919921875,0.010539679788053036,0.015426460653543472,0.015961451455950737
1772797507799145200,6.336145263671875,0.011925474740564823,0.02339433692395687,0.01928323693573475
1772797507809171200,6.346171142578125,0.009628232568502426,0.024922458454966545,0.011735305190086365
1772797507819197200,6.356197265625,0.011767587624490261,0.01692178100347519,0.0008272692793980241
1772797507829224200,6.36622412109375,0.014338603243231773,-0.006863975431770086,-0.019014345481991768
1772797507839250200,6.376250244140625,0.0215225201100111,-0.025432772934436798,-0.028849637135863304
1772797507849276200,6.386276123046875,0.026046164333820343,-0.030940990895032883,-0.02635638788342476
1772797507859303200,6.39630322265625,0.029664942994713783,-0.01530323177576065,-0.01764204353094101
1772797507869329200,6.4063291015625,0.030336858704686165,-0.009028291329741478,-0.010956975631415844
1772797507879355100,6.416355224609375,0.0335858017206192,-0.013441614806652069,-0.01776929572224617
1772797507889382100,6.426382080078125,0.03297007828950882,-0.029430966824293137,-0.02691512368619442
1772797507899408100,6.436408203125,0.031012501567602158,-0.04109930992126465,-0.03950204700231552
1772797507909434000,6.44643408203125,0.03285381197929382,-0.0568537712097168,-0.04883962497115135
1772797507919461000,6.456461181640625,0.028102656826376915,-0.07089792937040329,-0.04612986743450165
1772797507929487000,6.466487060546875,0.017922190949320793,-0.06755167245864868,-0.0379776656627655
1772797507939513000,6.47651318359375,0.01100101601332426,-0.05908939987421036,-0.023084431886672974
1772797507949540000,6.4865400390625,0.013760050758719444,-0.03342291712760925,-0.009403505362570286
1772797507959566000,6.496566162109375,0.01636686734855175,-0.01226736605167389,0.0029806806705892086
1772797507969592000,6.506592041015625,0.02124284952878952,0.01320790033787489,0.018929287791252136
1772797507979619000,6.516619140625,0.025067945942282677,0.029404282569885254,0.028581401333212852
1772797507989645300,6.526645263671875,0.023621316999197006,0.03601717948913574,0.033948738127946854
1772797507999671300,6.53667138671875,0.017623499035835266,0.03187699243426323,0.04474335163831711
1772797508009698000,6.546697998046875,0.012493718415498734,0.020900774747133255,0.04999111220240593
1772797508019724000,6.55672412109375,0.00795751716941595,0.00018591806292533875,0.04978417605161667
1772797508029750000,6.56675,0.0044064586982131,-0.00588608905673027,0.017569515854120255
1772797508039777000,6.576777099609375,-0.00030079344287514687,-0.002911680843681097,-0.011171889491379261
1772797508049803000,6.586802978515625,-0.009255671873688698,-0.003044573124498129,-0.0270182304084301
1772797508059829200,6.596829345703125,-0.013458939269185066,-0.0002383589744567871,-0.022503575310111046
1772797508069856300,6.606856201171875,-0.01071828044950962,0.0059875790029764175,-0.0031844729091972113
1772797508079882200,6.61688232421875,-0.008531522005796432,0.011514020152390003,0.023088596761226654
1772797508089908200,6.626908203125,-0.004455021116882563,0.01531674712896347,0.04791085794568062
1772797508099935000,6.63693505859375,0.0017456181813031435,0.02026563696563244,0.052928026765584946
1772797508109961000,6.6469609375,0.008208044804632664,0.019707705825567245,0.03951980918645859
1772797508119987000,6.656987060546875,0.016312574967741966,0.019808702170848846,0.016047999262809753
1772797508130014200,6.66701416015625,0.020356586202979088,0.022259075194597244,-0.013959435746073723
1772797508140040200,6.677040283203125,0.022304916754364967,0.018079888075590134,-0.022298576310276985
1772797508150066200,6.687066162109375,0.029024338349699974,-0.0019076690077781677,-0.021321728825569153
1772797508160093200,6.69709326171875,0.03354569897055626,-0.026482749730348587,-0.02152947708964348
1772797508170119200,6.707119140625,0.03636758401989937,-0.04141829162836075,-0.029628949239850044
1772797508180145200,6.717145263671875,0.037556685507297516,-0.05630280077457428,-0.027453966438770294
1772797508190172200,6.727172119140625,0.03408418968319893,-0.05769989266991615,-0.008192387409508228
1772797508200198100,6.7371982421875,0.035352353006601334,-0.04647861793637276,0.018869910389184952
1772797508210224000,6.74722412109375,0.03715771064162254,-0.04750313609838486,0.04347246140241623
1772797508220251100,6.757251220703125,0.03768421337008476,-0.038959383964538574,0.0577581487596035
1772797508230277000,6.767277099609375,0.03358640521764755,-0.032349683344364166,0.06383361667394638
1772797508240303000,6.77730322265625,0.025378011167049408,-0.021645210683345795,0.058700352907180786
1772797508250330000,6.787330078125,0.017017018049955368,-0.013067168183624744,0.044849518686532974
1772797508260356000,6.797356201171875,0.0009378412505611777,0.007117314264178276,0.027557622641324997
1772797508270382000,6.807382080078125,-0.0041354806162416935,0.005835800897330046,0.015465807169675827
1772797508280409000,6.8174091796875,-0.004263008013367653,-0.0007816306315362453,0.010052138939499855
1772797508290435000,6.82743505859375,-0.0008693416602909565,-0.00238911435008049,0.019616616889834404
1772797508300461000,6.8374609375,0.00614352198317647,-0.008428089320659637,0.02961917594075203
1772797508310488300,6.84748828125,0.008894035592675209,-0.014683056622743607,0.038989774882793427
1772797508320514300,6.857514404296875,0.004296355415135622,-0.018092231824994087,0.03307466581463814
1772797508330540300,6.867540283203125,-0.002162342891097069,-0.021799618378281593,0.012100942432880402
1772797508340567000,6.877567138671875,-0.007520508952438831,-0.023512693122029305,-0.008513525128364563
1772797508350593000,6.887593017578125,-0.0077239740639925,-0.023752376437187195,-0.027726901695132256
1772797508360619000,6.897618896484375,-0.010207567363977432,-0.01322905346751213,-0.025789516046643257
1772797508370646300,6.907646240234375,-0.018756581470370293,0.00976068526506424,-0.016039948910474777
1772797508380672300,6.91767236328125,-0.02444702759385109,0.023559315130114555,-0.011959635652601719
1772797508390698200,6.9276982421875,-0.025853976607322693,0.028807606548070908,-0.019854843616485596
1772797508400725200,6.937725341796875,-0.023233123123645782,0.018964147195219994,-0.03974766284227371
1772797508410751200,6.947751220703125,-0.022956954315304756,0.0018834308721125126,-0.05644461512565613
1772797508420777000,6.95777685546875,-0.023303236812353134,-0.01665344461798668,-0.06212829053401947
1772797508430804000,6.967803955078125,-0.014403221197426319,-0.02663923054933548,-0.052825067192316055
1772797508440830200,6.977830322265625,-0.006999822333455086,-0.01775900274515152,-0.034102726727724075
1772797508450856200,6.987856201171875,0.000975546077825129,0.00025248806923627853,-0.019105669111013412
1772797508460883200,6.99788330078125,0.015153110958635807,-0.003254393581300974,-0.015602880157530308
1772797508470909200,7.0079091796875,0.03728131577372551,-0.020821934565901756,-0.01641780696809292
1772797508480935200,7.01793505859375,0.057747744023799896,-0.026769785210490227,-0.01705087348818779
1772797508490962000,7.0279619140625,0.07075516134500504,-0.02492448128759861,-0.011866230517625809
1772797508500988200,7.03798828125,0.08251476287841797,-0.0197773240506649,-0.005216543562710285
1772797508511014100,7.04801416015625,0.09112023562192917,-0.022197870537638664,-0.003602667711675167
1772797508521041200,7.058041259765625,0.10751122981309891,-0.018229542300105095,-0.005607546307146549
1772797508531067400,7.0680673828125,0.12355943769216537,-0.01844925247132778,-0.0006609908305108547
1772797508541093400,7.07809326171875,0.12770038843154907,-0.024377981200814247,0.00268527097068727
1772797508551120600,7.08812060546875,0.12813740968704224,-0.03642372786998749,0.006956448778510094
1772797508561146600,7.098146728515625,0.1282365322113037,-0.05095410719513893,0.005360173061490059
1772797508571172400,7.10817236328125,0.12471475452184677,-0.05493926256895065,-0.005264773964881897
1772797508581199400,7.118199462890625,0.11313480138778687,-0.06482364982366562,-0.025508753955364227
1772797508591225300,7.128225341796875,0.10059663653373718,-0.059612903743982315,-0.043848615139722824
1772797508601251300,7.138251220703125,0.08989301323890686,-0.04660193994641304,-0.05057874321937561
1772797508611278600,7.148278564453125,0.07054168730974197,-0.03287601098418236,-0.05040457099676132
1772797508621304600,7.1583046875,0.054506566375494,-0.020771482959389687,-0.04353037476539612
1772797508631330600,7.16833056640625,0.03912787511944771,-0.012756699696183205,-0.047364529222249985
1772797508641357300,7.178357421875,0.02951587736606598,-0.01069212518632412,-0.049603771418333054
1772797508651383300,7.18838330078125,0.024570653215050697,-0.012930512428283691,-0.04643407464027405
1772797508661409300,7.1984091796875,0.017707383260130882,-0.012546209618449211,-0.036497559398412704
1772797508671436300,7.208436279296875,0.011231640353798866,-0.01867973618209362,-0.03684510290622711
1772797508681462500,7.218462646484375,0.008701184764504433,-0.02315525896847248,-0.02973441407084465
1772797508691488500,7.228488525390625,0.002126905135810375,-0.016143688932061195,-0.022410454228520393
1772797508701515500,7.238515625,-0.015470501966774464,0.01207767240703106,-0.009947113692760468
1772797508711541500,7.24854150390625,-0.02943158894777298,0.03802085667848587,-0.010222750715911388
1772797508721567500,7.2585673828125,-0.040867432951927185,0.05386975407600403,-0.021352380514144897
1772797508731594200,7.26859423828125,-0.051701437681913376,0.04754554480314255,-0.04109279438853264
1772797508741620200,7.2786201171875,-0.055354006588459015,0.036643434315919876,-0.06029210239648819
1772797508751646500,7.288646484375,-0.05915806442499161,0.030176743865013123,-0.073316290974617
1772797508761673500,7.298673583984375,-0.05814933776855469,0.033673591911792755,-0.08125436305999756
1772797508771699500,7.308699462890625,-0.05748221278190613,0.03131083771586418,-0.08435162156820297
1772797508781725400,7.318725341796875,-0.05741909518837929,0.01939622312784195,-0.06894441694021225
1772797508791752400,7.32875244140625,-0.05672720819711685,0.003389559453353286,-0.049664195626974106
1772797508801778400,7.3387783203125,-0.05342382565140724,-0.020192667841911316,-0.03134674206376076
1772797508811804400,7.348804443359375,-0.051627255976200104,-0.022467274218797684,-0.016636241227388382
1772797508821831400,7.35883154296875,-0.04427206143736839,-0.015191536396741867,-0.012406865134835243
1772797508831857400,7.368857421875,-0.04152580723166466,0.0014524217694997787,-0.0099831223487854
1772797508841883400,7.37888330078125,-0.03469087928533554,0.0203070230782032,-0.00859745405614376
1772797508851910400,7.388910400390625,-0.02975923754274845,0.03226887807250023,0.0002615514677017927
1772797508861936400,7.398936279296875,-0.020740937441587448,0.028188640251755714,0.02812541276216507
1772797508871962400,7.40896240234375,-0.015374933369457722,0.029511699452996254,0.05741965025663376
1772797508881989400,7.4189892578125,-0.004443762358278036,0.03647230938076973,0.06722405552864075
1772797508892015400,7.429015380859375,0.012296602129936218,0.04624851047992706,0.04975398629903793
1772797508902041300,7.439041259765625,0.027482252568006516,0.042681194841861725,0.013075071386992931
1772797508912068400,7.449068359375,0.03912745416164398,0.018511410802602768,-0.017077770084142685
1772797508922094300,7.45909423828125,0.04467397928237915,-0.01660698838531971,-0.03748239949345589
1772797508932120300,7.469120361328125,0.05038832500576973,-0.05108959600329399,-0.040317602455616
1772797508942146300,7.479146240234375,0.06088932231068611,-0.06875261664390564,-0.04118658974766731
1772797508952173600,7.489173583984375,0.0636182650923729,-0.07300888746976852,-0.041685666888952255
1772797508962199600,7.499199462890625,0.06563310325145721,-0.07588433474302292,-0.04226062446832657
1772797508972225500,7.5092255859375,0.06707493960857391,-0.07741538435220718,-0.04022383689880371
1772797508982252300,7.519252197265625,0.05599580705165863,-0.06756944954395294,-0.03356990963220596
1772797508992278300,7.5292783203125,0.03614913299679756,-0.05179634317755699,-0.024230200797319412
1772797509002304300,7.53930419921875,0.017490146681666374,-0.03404512628912926,-0.016500137746334076
1772797509012331500,7.54933154296875,-0.0027871623169630766,-0.01691381260752678,-0.01125903706997633
1772797509022357500,7.559357421875,-0.012859919108450413,-0.004616058897227049,-0.007000076584517956
1772797509032383500,7.569383544921875,-0.02034127153456211,-0.006832341197878122,0.007268874906003475
1772797509042410500,7.579410400390625,-0.027455609291791916,-0.006873867940157652,0.02120617963373661
1772797509052436200,7.589436279296875,-0.032455697655677795,-0.0037912591360509396,0.029189538210630417
1772797509062462200,7.599462158203125,-0.035255927592515945,-0.004747150931507349,0.0312868170440197
1772797509072489500,7.609489501953125,-0.04603693634271622,0.00008914992213249207,0.02804655209183693
1772797509082515500,7.619515380859375,-0.049481283873319626,-0.0012494376860558987,0.02251433953642845
1772797509092541400,7.62954150390625,-0.05226215720176697,-0.008896438404917717,0.02256893366575241
1772797509102568400,7.639568359375,-0.05204658582806587,-0.007864288985729218,0.01884215883910656
1772797509112594400,7.649594482421875,-0.04747500270605087,-0.010808413848280907,0.015274586156010628
1772797509122620400,7.659620361328125,-0.04206433892250061,-0.011571327224373817,0.0017438186332583427
1772797509132647400,7.6696474609375,-0.03383277729153633,-0.01988731324672699,-0.0035545402206480503
1772797509142673400,7.67967333984375,-0.02740679308772087,-0.026316789910197258,-0.010156210511922836
1772797509152699400,7.689699462890625,-0.022009363397955894,-0.028883812949061394,-0.008211569860577583
1772797509162726400,7.699726318359375,-0.01668570563197136,-0.022593526169657707,-0.004312720149755478
1772797509172752400,7.70975244140625,-0.011677898466587067,-0.011259378865361214,0.00022530648857355118
1772797509182778400,7.7197783203125,-0.004358431324362755,-0.005969485733658075,0.004749721847474575
1772797509192805600,7.7298056640625,0.00457381084561348,-0.004694630857557058,-0.0026727744843810797
1772797509202831600,7.73983154296875,0.004376552999019623,-0.0055335089564323425,-0.007695699110627174
1772797509212857600,7.749857666015625,0.003761895466595888,-0.009324518963694572,-0.013665973208844662
1772797509222884400,7.75988427734375,0.011900057084858418,-0.013479802757501602,-0.024809997528791428
1772797509232910300,7.769910400390625,0.007327675819396973,-0.023186227306723595,-0.027966909110546112
1772797509242936300,7.779936279296875,-0.0013202521950006485,-0.03322628140449524,-0.024513814598321915
1772797509252963300,7.78996337890625,-0.008480960503220558,-0.03856351971626282,-0.026934094727039337
1772797509262989600,7.799989501953125,-0.00980363879352808,-0.040320903062820435,-0.03008357249200344
1772797509273015600,7.810015625,-0.01782987266778946,-0.03091488406062126,-0.035454630851745605
1772797509283041500,7.82004150390625,-0.015520038083195686,-0.012890893965959549,-0.03136960417032242
1772797509293068300,7.830068359375,-0.012035025283694267,-0.010144909843802452,-0.021830691024661064
1772797509303094300,7.84009423828125,-0.006876863539218903,-0.009184545837342739,0.001313761225901544
1772797509313120300,7.850120361328125,-0.007193513214588165,-0.024711575359106064,0.029501989483833313
1772797509323147500,7.8601474609375,-0.000212798360735178,-0.025538597255945206,0.05334791913628578
1772797509333173500,7.870173583984375,-0.00024954997934401035,-0.023560401052236557,0.06401494890451431
1772797509343199500,7.880199462890625,0.0005309822736307979,-0.015595244243741035,0.06276030838489532
1772797509353226500,7.8902265625,0.0012497694697231054,0.006515119224786758,0.049337442964315414
1772797509363252500,7.90025244140625,0.002352090086787939,0.026944750919938087,0.030719555914402008
1772797509373278500,7.910278564453125,0.003557436866685748,0.047506485134363174,0.024505868554115295
1772797509383305200,7.92030517578125,0.005394984036684036,0.05197558179497719,0.02471577562391758
1772797509393331500,7.93033154296875,-0.0010360172018408775,0.04248087853193283,0.04120234027504921
1772797509403357400,7.940357421875,-0.00240214797668159,0.020586876198649406,0.06356483697891235
1772797509413384400,7.950384521484375,-0.002408273285254836,0.000945796724408865,0.07156897336244583
1772797509423410400,7.960410400390625,-0.005900021642446518,-0.010501516982913017,0.05220325291156769
1772797509433436400,7.9704365234375,-0.011674020439386368,-0.012408606708049774,0.02207704447209835
1772797509443463400,7.98046337890625,-0.016502445563673973,-0.005539651494473219,-0.004135648719966412
1772797509453489400,7.990489501953125,-0.013445137068629265,0.02344352938234806,-0.014660727232694626
1772797509463515600,8.000515625,-0.008196385577321053,0.04678262770175934,-0.003194197081029415
1772797509473542400,8.01054248046875,-0.003500433638691902,0.033468954265117645,-0.006117282900959253
1772797509483568400,8.020568359375,-0.0006215537432581186,0.005961365066468716,-0.017086541280150414
1772797509493594400,8.030594482421876,0.01021085400134325,-0.019828153774142265,-0.014196744188666344
1772797509503621400,8.040621337890625,0.014193073846399784,-0.03295411169528961,0.0039992500096559525
1772797509513647400,8.0506474609375,0.014756864868104458,-0.021069757640361786,0.017320914193987846
1772797509523673600,8.060673583984375,0.01195765845477581,0.011166669428348541,0.007382303476333618
1772797509533698000,8.070697998046874,0.010050036013126373,0.02542230300605297,-0.011359425261616707
1772797509543725000,8.08072509765625,0.005908019840717316,0.013908026739954948,-0.018958507105708122
1772797509553751000,8.0907509765625,0.00208238884806633,-0.005723465699702501,-0.019836019724607468
1772797509563777000,8.100777099609376,0.0018969927914440632,-0.0045432448387146,-0.007976187393069267
1772797509573804000,8.110803955078126,-0.00006602308712899685,0.005537885241210461,0.006538840010762215
1772797509583830000,8.120830078125,-0.009281548671424389,0.0027045293245464563,0.021257076412439346
1772797509593856000,8.13085595703125,-0.01991421915590763,0.002146863378584385,0.031002648174762726
1772797509603883000,8.140883056640625,-0.031480517238378525,-0.008810032159090042,0.03237656503915787
1772797509613909000,8.150908935546875,-0.036286722868680954,-0.026410330086946487,0.017692161723971367
1772797509623935000,8.16093505859375,-0.04391797259449959,-0.03375028073787689,-0.005327398888766766
1772797509633962200,8.170962158203125,-0.050932738929986954,-0.030040763318538666,-0.024235842749476433
1772797509643988200,8.18098828125,-0.0401080921292305,-0.008270541206002235,-0.035968367010354996
1772797509654014200,8.19101416015625,-0.034238219261169434,0.022468196228146553,-0.028487015515565872
1772797509664041000,8.201041015625,-0.03304722160100937,0.039461247622966766,-0.003728720359504223
1772797509674067000,8.21106689453125,-0.038302965462207794,0.03557329997420311,0.009600134566426277
1772797509684093000,8.221093017578125,-0.0502195842564106,0.021991124376654625,0.028300348669290543
1772797509694120000,8.231119873046875,-0.04924459755420685,0.02381938323378563,0.028719795867800713
1772797509704146200,8.241146240234375,-0.049893345683813095,0.012696957215666771,0.005470932461321354
1772797509714172200,8.251172119140625,-0.059823475778102875,-0.004438353236764669,-0.030857780948281288
1772797509724199200,8.26119921875,-0.06303635239601135,-0.017468327656388283,-0.07253283262252808
1772797509734225200,8.27122509765625,-0.06259826570749283,-0.0030353255569934845,-0.08992327004671097
1772797509744251100,8.281251220703124,-0.055387068539857864,0.020128214731812477,-0.08304321020841599
1772797509754276900,8.29127685546875,-0.0433913916349411,0.02647319622337818,-0.057272061705589294
1772797509764304100,8.30130419921875,-0.0387423112988472,0.020573128014802933,-0.03705895319581032
1772797509774330000,8.311330078125,-0.034937720745801926,0.00031952187418937683,-0.027969319373369217
1772797509784356000,8.321356201171875,-0.03340267390012741,-0.0257840845733881,-0.028607161715626717
1772797509794383000,8.331383056640625,-0.04153304174542427,-0.04906170815229416,-0.03878416493535042
1772797509804409000,8.3414091796875,-0.0423026941716671,-0.037012770771980286,-0.041476354002952576
1772797509814435000,8.35143505859375,-0.043661437928676605,-0.0071044061332941055,-0.030234619975090027
1772797509824461800,8.3614619140625,-0.030195770785212517,0.022140150889754295,-0.021918626502156258
1772797509834488000,8.371488037109375,-0.018567876890301704,0.032250043004751205,-0.009347174316644669
1772797509844514000,8.38151416015625,-0.00767433550208807,0.01921193301677704,0.005344655830413103
1772797509854541000,8.391541015625,-0.006754213012754917,-0.0029405076056718826,0.014560524374246597
1772797509864567000,8.401567138671876,-0.0018319266382604837,-0.02339177578687668,0.018336649984121323
1772797509874593000,8.411593017578125,-0.0023576344829052687,-0.03286384418606758,0.021001407876610756
1772797509884620000,8.4216201171875,0.0005034744972363114,-0.02586410939693451,0.01390301063656807
1772797509894646000,8.43164599609375,0.0061837309040129185,-0.0242326557636261,-0.00008684024214744568
1772797509904672300,8.44167236328125,0.017397267743945122,-0.027133150026202202,-0.005818006116896868
1772797509914699000,8.451698974609375,0.022001873701810837,-0.024977320805191994,0.0061806002631783485
1772797509924725000,8.46172509765625,0.022009821608662605,-0.013483472168445587,0.01737331598997116
1772797509934751000,8.4717509765625,0.02276322990655899,-0.012936193495988846,0.01532667689025402
1772797509944777000,8.48177685546875,0.019400356337428093,-0.011703217402100563,-0.0004977288190275431
1772797509954804000,8.491803955078124,0.016567286103963852,-0.03750818222761154,-0.014230584725737572
1772797509964830200,8.501830322265626,0.012552600353956223,-0.045285023748874664,-0.018060006201267242
1772797509974856200,8.511856201171875,0.0008666497888043523,-0.04768160730600357,-0.027865765616297722
1772797509984883000,8.521883056640625,-0.004403859376907349,-0.044561050832271576,-0.049255743622779846
1772797509994909000,8.531908935546875,-0.006674204487353563,-0.04778267443180084,-0.054546646773815155
1772797510004935000,8.541934814453125,-0.0028277544770389795,-0.0450698547065258,-0.04022568464279175
1772797510014962000,8.5519619140625,-0.001518012024462223,-0.04672900214791298,-0.027999913319945335
1772797510024988000,8.56198779296875,-0.0015736434143036604,-0.042142488062381744,-0.015004034154117107
1772797510035014100,8.57201416015625,-0.005335891153663397,-0.00892860721796751,0.0029102517291903496
1772797510045041200,8.582041259765624,-0.0057481443509459496,0.013316446915268898,0.03249533846974373
1772797510055067100,8.592067138671876,-0.004200846888124943,0.06945241987705231,0.046564288437366486
1772797510065093000,8.602093017578126,0.0008275037398561835,0.10798372328281403,0.03855428472161293
1772797510075119900,8.612119873046876,-0.009994251653552055,0.22826752066612244,0.1659948080778122
1772797510085145900,8.622145751953125,-0.017784610390663147,0.08223726600408554,0.22407537698745728
1772797510095171800,8.632171875,0.05079657956957817,-0.029010696336627007,0.20841893553733826
1772797510105199000,8.64219921875,0.06734398007392883,-0.12932507693767548,0.16132253408432007
1772797510115225000,8.65222509765625,0.06198010966181755,-0.1627006083726883,0.080678291618824
1772797510125251000,8.6622509765625,0.030087346211075783,-0.11444491147994995,0.0014628235949203372
1772797510135277000,8.672277099609374,0.001620019436813891,-0.07382079213857651,-0.06175582855939865
1772797510145304000,8.682303955078124,-0.008565961383283138,0.019375715404748917,-0.12809382379055023
1772797510155330000,8.692330078125,-0.008601914159953594,0.013507175259292126,-0.18743465840816498
1772797510165356000,8.70235595703125,-0.008507105521857738,0.07705259323120117,-0.2229473739862442
1772797510175383000,8.712383056640626,-0.011122063733637333,0.08538855612277985,-0.24634617567062378
1772797510185409000,8.722408935546875,-0.02168252319097519,0.058165714144706726,-0.24069254100322723
1772797510195435000,8.73243505859375,-0.03385316953063011,0.0068021249026060104,-0.22493913769721985
1772797510205462000,8.7424619140625,-0.039113108068704605,-0.054376762360334396,-0.13379007577896118
