time,seconds_elapsed,z,y,x
1772819333558178600,0.075178466796875,0.026509542018175125,0.060757145285606384,0.06430239975452423
1772819333568243700,0.08524365234375,0.02880733646452427,0.03189094737172127,0.07419230043888092
1772819333578308900,0.095308837890625,0.030664624646306038,-0.017390049993991852,0.0656542032957077
1772819333588372700,0.105372802734375,0.03117728978395462,-0.04890649765729904,0.04805940017104149
1772819333598438000,0.11543798828125,0.02509622648358345,-0.057832881808280945,0.027994081377983093
1772819333608502800,0.125502685546875,0.026841595768928528,-0.05133054405450821,0.024102777242660522
1772819333618566700,0.135566650390625,0.0214494951069355,-0.03137174993753433,0.029826710000634193
1772819333628631800,0.1456318359375,0.011649541556835175,-0.010503355413675308,0.03044513799250126
1772819333638696700,0.15569677734375,0.013271939009428024,0.0003767227753996849,0.02618994005024433
1772819333648760800,0.1657607421875,0.008967045694589615,0.02159975841641426,0.025228045880794525
1772819333658822100,0.175822265625,0.01062646135687828,0.04060354456305504,0.02392895519733429
1772819333668887000,0.185886962890625,0.0055473074316978455,0.028843391686677933,0.023494962602853775
1772819333678952200,0.1959521484375,0.0022039751056581736,0.006151130422949791,0.028532065451145172
1772819333689016000,0.20601611328125,0.010812366381287575,-0.011450368911027908,0.037458110600709915
1772819333699081200,0.216081298828125,0.012435296550393105,-0.017273103818297386,0.039623793214559555
1772819333709146000,0.22614599609375,0.009820546954870224,-0.019624779000878334,0.04743778705596924
1772819333719210200,0.236210205078125,0.01274070329964161,-0.023129764944314957,0.045733895152807236
1772819333729275100,0.246275146484375,0.008112186565995216,-0.016300518065690994,0.0442904494702816
1772819333739340000,0.256340087890625,-0.003207046538591385,-0.008637804538011551,0.04595625773072243
1772819333749405200,0.2664052734375,0.004779754672199488,-0.0023938240483403206,0.053748950362205505
1772819333759469000,0.276468994140625,0.0004185622092336416,-0.006759810261428356,0.047580536454916
1772819333769534200,0.2865341796875,0.007646345533430576,-0.0004121018573641777,0.04352102801203728
1772819333779599000,0.29659912109375,-0.0021282541565597057,0.015944501385092735,0.03994120657444
1772819333789663000,0.3066630859375,-0.0008490961045026779,0.022369779646396637,0.040634918957948685
1772819333799728000,0.31672802734375,0.0026481670793145895,0.005816102027893066,0.046121563762426376
1772819333809793300,0.326793212890625,0.003328625112771988,0.000721110962331295,0.0470392182469368
1772819333819858200,0.336858154296875,0.0031560524366796017,-0.0021649571135640144,0.045157164335250854
1772819333829922300,0.34692236328125,0.0017655298579484224,-0.015692321583628654,0.039770253002643585
1772819333839987000,0.356987060546875,0.013377977535128593,-0.01524544321000576,0.03959821164608002
1772819333850052000,0.367052001953125,0.0020470302551984787,-0.008942442014813423,0.03282121568918228
1772819333860116200,0.3771162109375,0.011526285670697689,-0.009826344437897205,0.025030137971043587
1772819333870181000,0.38718115234375,0.01187040749937296,-0.014239965006709099,0.022576043382287025
1772819333880246300,0.397246337890625,0.010570252314209938,-0.010664938017725945,0.02254595048725605
1772819333890311200,0.407311279296875,0.012403268367052078,-0.009864327497780323,0.022014593705534935
1772819333900375000,0.417375,0.009928924962878227,-0.0029046889394521713,0.022975727915763855
1772819333910440200,0.427440185546875,0.008849303238093853,0.010084149427711964,0.030987828969955444
1772819333920505000,0.437505126953125,0.012844311073422432,0.011729183606803417,0.04266791790723801
1772819333930569200,0.4475693359375,0.017583375796675682,0.0034137284383177757,0.047759734094142914
1772819333940634000,0.457634033203125,0.007641794625669718,0.0020376723259687424,0.05157630890607834
1772819333950699000,0.467698974609375,0.015465894713997841,-0.008599791675806046,0.05144554749131203
1772819333960764200,0.47776416015625,0.013137226924300194,-0.0005503874272108078,0.04840501770377159
1772819333970828000,0.487828125,0.013185914605855942,0.004708520136773586,0.03647538274526596
1772819333980893200,0.49789306640625,0.008463863283395767,-0.0027070511132478714,0.02696443535387516
1772819333990958300,0.507958251953125,0.0030848984606564045,-0.0016894862055778503,0.02381157875061035
1772819334001022200,0.518022216796875,-0.004321086220443249,0.0052650924772024155,0.02421717904508114
1772819334011087000,0.528087158203125,-0.0020928303711116314,0.0037427954375743866,0.024173378944396973
1772819334021152000,0.538152099609375,0.0007237286772578955,0.004327626898884773,0.026846393942832947
1772819334031217200,0.548217041015625,0.005205756984651089,0.003132294863462448,0.03177618980407715
1772819334041281300,0.55828125,0.00963379442691803,-0.0010957391932606697,0.038422904908657074
1772819334051346200,0.56834619140625,0.016672538593411446,-0.001460658386349678,0.04485487565398216
1772819334061411000,0.5784111328125,0.011326242238283157,0.007668125443160534,0.04484795033931732
1772819334071475000,0.588474853515625,0.006415626034140587,-0.0037616631016135216,0.04912459850311279
1772819334081540000,0.5985400390625,0.004192419350147247,-0.0022705597802996635,0.04307442903518677
1772819334091605200,0.608605224609375,0.0006317682564258575,0.002787749283015728,0.03742191568017006
1772819334101670100,0.618670166015625,-0.0012287162244319916,0.018208783119916916,0.03519178554415703
1772819334111734300,0.628734375,-0.005586603656411171,0.020699499174952507,0.03237364441156387
1772819334121799200,0.638799072265625,-0.005507241003215313,0.014531882479786873,0.022805705666542053
1772819334131864000,0.648864013671875,-0.0043059843592345715,0.008706126362085342,0.017489343881607056
1772819334141929200,0.65892919921875,-0.005914267618209124,0.009314658120274544,0.009087071754038334
1772819334151993000,0.6689931640625,-0.010099168866872787,0.010136042721569538,0.00948104914277792
1772819334162058200,0.679058349609375,-0.014044906944036484,0.011187459342181683,-0.002117549767717719
1772819334172123100,0.689123046875,-0.020822947844862938,0.012519768439233303,-0.0065476964227855206
1772819334182187000,0.69918701171875,-0.023996904492378235,0.017238888889551163,-0.009376772679388523
1772819334192252200,0.709252197265625,-0.025096194818615913,0.021162498742341995,-0.01063627190887928
1772819334202317300,0.7193173828125,-0.02103460766375065,0.012585786171257496,-0.0166598092764616
1772819334212382000,0.7293818359375,-0.013854248449206352,0.0025023892521858215,-0.013768107630312443
1772819334222446000,0.739446044921875,-0.008220598101615906,-0.007397911977022886,-0.016524745151400566
1772819334232511000,0.749510986328125,-0.006609362084418535,-0.018367502838373184,-0.020193755626678467
1772819334242576100,0.759576171875,-0.007672229316085577,-0.01479460671544075,-0.023734161630272865
1772819334252641300,0.769641357421875,-0.009277574717998505,-0.00021626334637403488,-0.019346168264746666
1772819334262705200,0.779705078125,-0.014313610270619392,0.001702277921140194,-0.020047377794981003
1772819334272770000,0.78977001953125,-0.012724759057164192,0.006328655406832695,-0.020065849646925926
1772819334282835200,0.799835205078125,-0.011157756671309471,0.013501878827810287,-0.019026950001716614
1772819334292899000,0.809899169921875,-0.008828380145132542,0.009226501919329166,-0.016900084912776947
1772819334302964200,0.819964111328125,-0.010078733786940575,-0.00822785496711731,-0.02052224986255169
1772819334313029000,0.830029052734375,-0.010254532098770142,-0.02048262394964695,-0.018333157524466515
1772819334323094000,0.840093994140625,-0.014847684651613235,-0.021786773577332497,-0.013827621936798096
1772819334333158100,0.850158203125,-0.020489564165472984,-0.025061164051294327,-0.007687944453209639
1772819334343223000,0.86022314453125,-0.017185112461447716,-0.019386766478419304,0.006244116462767124
1772819334353288200,0.8702880859375,-0.015764351934194565,0.002015393227338791,0.02045316994190216
1772819334363352000,0.88035205078125,-0.009068098850548267,0.014725595712661743,0.03355032578110695
1772819334373417200,0.890417236328125,-0.005579532124102116,0.01990368589758873,0.03689843788743019
1772819334383482000,0.900482177734375,0.0013420234899967909,0.016967549920082092,0.03202085569500923
1772819334393547000,0.910547119140625,0.0005169711075723171,0.013864600099623203,0.030971087515354156
1772819334403611100,0.920611083984375,0.0012107244692742825,0.0024052849039435387,0.0243131835013628
1772819334413676000,0.930676025390625,0.0007555594202131033,-0.00731052877381444,0.030008643865585327
1772819334423741200,0.9407412109375,0.0029318947345018387,-0.011401942931115627,0.02833857387304306
1772819334433806000,0.95080615234375,0.005787522532045841,-0.019635174423456192,0.02530643902719021
1772819334443870000,0.960869873046875,0.0038173156790435314,-0.02257663570344448,0.01857769675552845
1772819334453935000,0.97093505859375,0.006945309229195118,-0.021780479699373245,0.008981099352240562
1772819334464000300,0.981000244140625,0.005376174580305815,-0.023357603698968887,-0.0017093615606427193
1772819334474065200,0.991065185546875,0.008039084263145924,-0.011503039859235287,-0.005058962851762772
1772819334484129300,1.00112939453125,0.007667040452361107,-0.007994857616722584,-0.00935197900980711
1772819334494194000,1.01119384765625,0.010964320972561836,-0.008914290927350521,-0.005049800965934992
1772819334504259000,1.021259033203125,0.0069773029536008835,-0.008292975835502148,-0.0032196762040257454
1772819334514323200,1.0313232421875,0.009250476956367493,-0.007640561554580927,0.0007216155645437539
1772819334524388000,1.04138818359375,0.006213941611349583,0.0032698772847652435,0.003979460336267948
1772819334534453200,1.051453369140625,0.005347365513443947,0.0062324125319719315,0.007265657186508179
1772819334544518100,1.06151806640625,0.004997426178306341,0.0033886879682540894,0.00992642156779766
1772819334554582000,1.07158203125,0.004060875158756971,-0.00024383794516324997,0.01270309742540121
1772819334564647200,1.081647216796875,0.012766482308506966,-0.0009074974805116653,0.006245197728276253
1772819334574712000,1.091712158203125,0.019877519458532333,-0.000585116446018219,0.004040202591568232
1772819334584777200,1.101777099609375,0.019521722570061684,-0.00014995597302913666,0.004457786679267883
1772819334594841300,1.11184130859375,0.01636115089058876,-0.009537464007735252,0.007774443365633488
1772819334604906000,1.121906005859375,0.010924840345978737,-0.010619506239891052,0.0032457374036312103
1772819334614971100,1.13197119140625,0.006608622148633003,-0.013088855892419815,0.0010606360156089067
1772819334625036300,1.142036376953125,0.0075425924733281136,-0.016597837209701538,-0.010875118896365166
1772819334635100200,1.15210009765625,0.008963098749518394,-0.015885576605796814,-0.008752387948334217
1772819334645165300,1.162165283203125,0.009945273399353027,-0.016664285212755203,-0.007807764690369368
1772819334655229700,1.172229736328125,0.00969716813415289,-0.017058538272976875,0.0008258099551312625
1772819334665293600,1.18229345703125,0.008699281141161919,-0.010627537034451962,0.011838779784739017
1772819334675358700,1.192358642578125,0.0069330004043877125,0.003667851909995079,0.023808777332305908
1772819334685423900,1.202423828125,0.011867305263876915,0.011067446321249008,0.03019423969089985
1772819334695488800,1.21248876953125,0.008324170485138893,0.006842038594186306,0.025045013055205345
1772819334705553000,1.222552978515625,0.006310554221272469,0.0014869533479213715,0.02598431147634983
1772819334715617500,1.232617431640625,0.0032111420296132565,-0.004219534806907177,0.019976411014795303
1772819334725682700,1.2426826171875,-0.003591103944927454,-0.012171467766165733,0.01761818118393421
1772819334735747800,1.252747802734375,-0.0011363886296749115,-0.012617843225598335,0.014333345927298069
1772819334745811700,1.262811767578125,-0.0011555636301636696,-0.009768794290721416,0.019037554040551186
1772819334755876900,1.272876953125,0.004070836119353771,-0.013579613529145718,0.015846721827983856
1772819334765941800,1.282941650390625,0.005366996396332979,-0.020702239125967026,0.013181429356336594
1772819334776006700,1.293006591796875,0.010297983884811401,-0.017038997262716293,0.020698536187410355
1772819334786070800,1.30307080078125,0.004805480595678091,-0.008674274198710918,0.02380005270242691
1772819334796135700,1.3131357421875,0.005301178433001041,-0.018471108749508858,0.01977597177028656
1772819334806200800,1.323200927734375,0.005781079642474651,-0.014135216362774372,0.022707579657435417
1772819334816265000,1.333264892578125,0.006129732355475426,-0.004459517076611519,0.024370919913053513
1772819334826329600,1.34332958984375,0.0067968545481562614,0.0017784051597118378,0.021026521921157837
1772819334836394800,1.353394775390625,0.006720452569425106,-0.012228598818182945,0.011271888390183449
1772819334846460000,1.3634599609375,0.006431499496102333,-0.0152358403429389,0.00895786751061678
1772819334856523800,1.373523681640625,0.0029197921976447105,-0.008154887706041336,0.0031854466069489717
1772819334866589000,1.3835888671875,0.001234277617186308,-0.01194057147949934,0.0002788727288134396
1772819334876653600,1.393653564453125,-0.0007095439359545708,-0.007892000488936901,0.004830869380384684
1772819334886718700,1.40371875,-0.001415547914803028,-0.002873007208108902,0.008330795913934708
1772819334896782600,1.413782470703125,0.0063918172381818295,-0.0038736555725336075,0.00810888409614563
1772819334906847700,1.42384765625,0.006550008896738291,-0.01179469469934702,0.013873029500246048
1772819334916913000,1.433912841796875,0.007125914096832275,-0.0138927036896348,0.018184365704655647
1772819334926977500,1.4439775390625,0.009130476042628288,-0.008386884815990925,0.02079080231487751
1772819334937041700,1.454041748046875,0.004864399787038565,-0.0065329913049936295,0.023415325209498405
1772819334947106800,1.46410693359375,0.007147527765482664,0.00020906701683998108,0.022285612300038338
1772819334957171700,1.474171630859375,0.007687138393521309,-0.002108554355800152,0.015693509951233864
1772819334967236900,1.48423681640625,0.008377696387469769,-0.0029916586354374886,0.008301373571157455
1772819334977300700,1.49430078125,0.0058886026963591576,-0.002391410991549492,0.001156696118414402
1772819334987365600,1.50436572265625,0.002039802260696888,-0.009368093684315681,-0.006306014023721218
1772819334997430800,1.5144306640625,0.0006065175402909517,-0.010616715997457504,-0.008559240028262138
1772819335007495700,1.52449560546875,0.013388358056545258,-0.014036747626960278,-0.0030733952298760414
1772819335017559800,1.534559814453125,0.0019909117836505175,-0.01454515103250742,0.002972073620185256
1772819335027625000,1.544625,0.00043509318493306637,0.004224542528390884,0.00410205265507102
1772819335037689600,1.554689697265625,0.011125421151518822,-0.003392527811229229,0.006955607794225216
1772819335047754800,1.564754638671875,0.0019702722784131765,0.00496793445199728,0.012629739008843899
1772819335057818600,1.574818603515625,0.0039721326902508736,0.0046470556408166885,0.012390295043587685
1772819335067883800,1.5848837890625,0.006653936114162207,0.006557341665029526,0.00850900448858738
1772819335077949000,1.594948974609375,0.0037437211722135544,0.0093279629945755,0.007424785289913416
1772819335088013600,1.605013671875,0.004680355079472065,0.0035731391981244087,0.0013487836113199592
1772819335098077700,1.61507763671875,0.011643664911389351,-0.0077692661434412,-0.008167902939021587
1772819335108142800,1.625142822265625,0.012280959635972977,-0.023699764162302017,-0.01664181426167488
1772819335118207700,1.635207763671875,0.009583694860339165,-0.02931603603065014,-0.02132994681596756
1772819335128273000,1.64527294921875,0.005685093346983194,-0.02192097157239914,-0.017516300082206726
1772819335138336800,1.655336669921875,0.00405005132779479,-0.004474606364965439,-0.016662783920764923
1772819335148401700,1.665401611328125,0.004188003018498421,0.01308894157409668,-0.014455022290349007
1772819335158466800,1.675466796875,0.00930918101221323,0.026681721210479736,-0.014355514198541641
1772819335168531700,1.68553173828125,0.01843077503144741,0.032259710133075714,-0.006501852534711361
1772819335178595800,1.695595947265625,0.016245216131210327,0.021093269810080528,0.0028141483198851347
1772819335188660700,1.70566064453125,0.01126510463654995,0.008754579350352287,0.002407749881967902
1772819335198725600,1.7157255859375,0.006830182857811451,-0.007656916044652462,0.00388316554017365
1772819335208790800,1.725790771484375,-0.0009220126084983349,-0.017212871462106705,0.0015297303907573223
1772819335218854700,1.735854736328125,-0.00191177474334836,-0.01955438405275345,-0.005014791619032621
1772819335228919800,1.745919921875,-0.0018292167223989964,-0.015583611093461514,-0.014084719121456146
1772819335238984700,1.755984619140625,-0.004633761011064053,-0.0021815933287143707,-0.01393280178308487
1772819335249049600,1.766049560546875,-0.0016930983401834965,0.01196964643895626,-0.0031272917985916138
1772819335259113700,1.77611376953125,0.0038239823188632727,0.022291891276836395,0.0027216398157179356
1772819335269179000,1.786178955078125,0.008530586957931519,0.015602032653987408,0.011420322582125664
1772819335279243800,1.796243896484375,0.007099556736648083,0.001482357271015644,0.0077742887660861015
1772819335289308700,1.80630859375,0.0071765221655368805,-0.010692017152905464,0.009086161851882935
1772819335299372800,1.816372802734375,0.005301762372255325,-0.008659731596708298,0.01239082682877779
1772819335309437700,1.826437744140625,0.0027398010715842247,-0.0041320910677313805,0.014239859767258167
1772819335319502800,1.8365029296875,0.008275534957647324,0.0036534303799271584,0.019911063835024834
1772819335329567700,1.846567626953125,0.011729122139513493,0.0069259218871593475,0.02573459781706333
1772819335339631900,1.8566318359375,0.01156257838010788,0.0045712850987911224,0.022089842706918716
1772819335349696500,1.866696533203125,0.018110493198037148,0.006458401679992676,0.023353245109319687
1772819335359761700,1.87676171875,0.00903770886361599,0.0013843821361660957,0.019243285059928894
1772819335369826800,1.886826904296875,0.00487225828692317,-0.007212035357952118,0.011675648391246796
1772819335379890700,1.896890625,0.003547229804098606,-0.009270627051591873,0.002983186161145568
1772819335389955800,1.906955810546875,-0.0014344793744385242,-0.007138234097510576,-0.0023559192195534706
1772819335400020700,1.917020751953125,-0.0013064667582511902,-0.0032687559723854065,-0.0022662165574729443
1772819335410085600,1.927085693359375,0.00024482468143105507,-0.0016732560470700264,0.0024201481137424707
1772819335420149800,1.937149658203125,0.003022809512913227,0.009491640143096447,0.001480073668062687
1772819335430214700,1.947214599609375,0.008397601544857025,0.010876749642193317,0.0017399981152266264
1772819335440279800,1.95727978515625,0.008858062326908112,0.008152070455253124,0.0017937941011041403
1772819335450344700,1.9673447265625,0.011273282580077648,-0.000833434984087944,0.0003290554159320891
1772819335460408600,1.97740869140625,0.010434802621603012,-0.0029557710513472557,0.0006448348867706954
1772819335470473700,1.9874736328125,0.005224328488111496,-0.004046335816383362,-0.0015365603612735868
1772819335480539000,1.997538818359375,-0.0007414831779897213,-0.01726813241839409,-0.005229445174336433
1772819335490603800,2.007603759765625,0.00229745008982718,-0.016752811148762703,-0.006671546958386898
1772819335500668000,2.01766796875,0.0007358617149293423,-0.009646836668252945,-0.009776357561349869
1772819335510732500,2.027732666015625,0.005045388825237751,-0.00862737838178873,-0.01194736547768116
1772819335520797700,2.037797607421875,0.007494478486478329,-0.008644187822937965,-0.006206632126122713
1772819335530862800,2.04786279296875,0.005739987827837467,-0.004973552655428648,0.005967475939542055
1772819335540926700,2.0579267578125,0.0008350831922143698,-0.0048698196187615395,0.01278725080192089
1772819335550992000,2.067991943359375,0.0036242117639631033,0.0009140335023403168,0.023399947211146355
1772819335561056800,2.078056884765625,0.0042604743503034115,0.006314258091151714,0.024311088025569916
1772819335571121700,2.08812158203125,0.005192580632865429,0.010120182298123837,0.022615453228354454
1772819335581185800,2.098185791015625,0.002652594819664955,0.01344416942447424,0.023457737639546394
1772819335591250700,2.108250732421875,-0.0015216441825032234,0.002388056367635727,0.021580476313829422
1772819335601315800,2.11831591796875,-0.005234099924564362,-0.0002011684700846672,0.017207879573106766
1772819335611380700,2.128380615234375,-0.00786690041422844,-0.00481829047203064,0.01392127200961113
1772819335621444600,2.138444580078125,-0.0024894829839468002,-0.004212821833789349,0.004956467542797327
1772819335631509800,2.148509765625,-0.003978189546614885,0.0013734251260757446,0.0007526677218265831
1772819335641575000,2.158574951171875,-0.009593198075890541,0.00021068844944238663,-0.004967269487679005
1772819335651639600,2.1686396484375,-0.009032869711518288,0.0016775578260421753,-0.007266642991453409
1772819335661703700,2.17870361328125,-0.010768765583634377,0.0012349719181656837,-0.011827063746750355
1772819335671768300,2.188768310546875,-0.009902440011501312,0.004503736272454262,-0.011995907872915268
1772819335681833500,2.19883349609375,-0.006981106474995613,0.004573115147650242,-0.009132793173193932
1772819335691898600,2.208898681640625,-0.003947233781218529,-0.005213735159486532,-0.007842225022614002
1772819335701963500,2.218963623046875,-0.0005266428925096989,-0.012719822116196156,-0.009249584749341011
1772819335712027600,2.229027587890625,0.0030651625711470842,-0.011619670316576958,-0.008620812557637691
1772819335722092300,2.23909228515625,0.00016604550182819366,-0.015063670463860035,-0.011232041753828526
1772819335732157400,2.249157470703125,-0.003666509408503771,-0.010744822211563587,-0.007237033452838659
1772819335742222600,2.25922265625,-0.00537579832598567,-0.001316433772444725,-0.005974574014544487
1772819335752286500,2.269286376953125,-0.004225312266498804,0.01330298837274313,-0.004029933828860521
1772819335762351600,2.2793515625,-0.004930233582854271,0.02111131139099598,0.00044168304884806275
1772819335772416500,2.28941650390625,-0.003665763884782791,0.018385298550128937,0.00036232086131349206
1772819335782481400,2.2994814453125,0.0010933240409940481,0.004832633771002293,-0.002639979124069214
1772819335792545500,2.309545654296875,0.00309895072132349,0.006869153119623661,0.004413669463247061
1772819335802610400,2.3196103515625,0.0027276016771793365,0.0022515002638101578,0.008747453801333904
1772819335812675600,2.329675537109375,0.0016093405429273844,-0.0013522887602448463,0.009711251594126225
1772819335822740500,2.339740478515625,0.0010027296375483274,0.007864979095757008,0.011804737150669098
1772819335832804400,2.349804443359375,-0.0037209191359579563,0.010905510745942593,0.005718349479138851
1772819335842869500,2.359869384765625,-0.0046431259252130985,0.0036883121356368065,-0.0033379720989614725
1772819335852934700,2.3699345703125,-0.007069798652082682,-0.007413873448967934,-0.00996817834675312
1772819335862999600,2.37999951171875,-0.007636671420186758,-0.009458119980990887,-0.017571525648236275
1772819335873063700,2.390063720703125,-0.006327727343887091,-0.005786419380456209,-0.02018621750175953
1772819335883128300,2.40012841796875,-0.007379360496997833,0.0009031426161527634,-0.012496848590672016
1772819335893193500,2.410193359375,-0.00901241134852171,0.014086855575442314,-0.003422393696382642
1772819335903258600,2.420258544921875,-0.007946502417325974,0.02131401002407074,-0.0034125889651477337
1772819335913323500,2.430323486328125,-0.008557964116334915,0.027146335691213608,-0.008058207109570503
1772819335923387600,2.4403876953125,-0.01473754458129406,0.016603879630565643,-0.021262789145112038
1772819335933452500,2.45045263671875,-0.016323192045092583,-0.00028482358902692795,-0.035265687853097916
1772819335943517400,2.460517333984375,-0.01438845880329609,-0.013333582319319248,-0.03639138489961624
1772819335953582600,2.47058251953125,-0.009151618927717209,-0.014766097068786621,-0.029298853129148483
1772819335963646500,2.480646484375,-0.005145986098796129,-0.0073739937506616116,-0.017590653151273727
1772819335973711600,2.490711669921875,-0.005657312925904989,-0.0009030448272824287,-0.008857615292072296
1772819335983776500,2.500776611328125,-0.0024537965655326843,0.013345932587981224,0.0014368337579071522
1772819335993841400,2.51084130859375,-0.0008551008068025112,0.019849371165037155,-0.0015821255510672927
1772819336003905500,2.520905517578125,0.0020524414721876383,0.021732289344072342,-0.0006093204137869179
1772819336013970700,2.530970703125,-0.001442424487322569,0.017904527485370636,-0.0024801911786198616
1772819336024035300,2.541035400390625,-0.0035114013589918613,0.009251847863197327,-0.010304020717740059
1772819336034100500,2.5511005859375,-0.004462149925529957,-0.009293073788285255,-0.019977156072854996
1772819336044165600,2.56116552734375,-0.006998904515057802,-0.01917925849556923,-0.030367989093065262
1772819336054229500,2.5712294921875,-0.004933090414851904,-0.021077025681734085,-0.02890458144247532
1772819336064294700,2.581294677734375,-0.007603486999869347,-0.016030697152018547,-0.022195063531398773
1772819336074359300,2.591359375,-0.010343347676098347,-0.019524497911334038,-0.014491339214146137
1772819336084424400,2.601424560546875,-0.01375117339193821,-0.012666027061641216,-0.009792748838663101
1772819336094488600,2.611488525390625,-0.015027893707156181,-0.00022027641534805298,-0.002769193146377802
1772819336104553500,2.621553466796875,-0.011185294017195702,0.011693638749420643,0.0007907755789346993
1772819336114618600,2.63161865234375,-0.007906409911811352,0.025169767439365387,0.002348724752664566
1772819336124683500,2.64168359375,-0.0038365572690963745,0.018479738384485245,0.007457951083779335
1772819336134747400,2.651747314453125,-0.00022105034440755844,0.008954677730798721,0.008570087142288685
1772819336144812500,2.6618125,-0.0005986462347209454,0.004233089275658131,0.01790606789290905
1772819336154877400,2.67187744140625,0.0030541452579200268,0.012057988904416561,0.028836214914917946
1772819336164942600,2.681942626953125,0.004818449728190899,0.014110557734966278,0.03241896256804466
1772819336175007500,2.692007568359375,0.005784377921372652,0.011756323277950287,0.024646790698170662
1772819336185071400,2.7020712890625,0.004127526190131903,0.0057935696095228195,0.01350407861173153
1772819336195136500,2.712136474609375,0.005400517489761114,0.0016225269064307213,0.0010729748755693436
1772819336205201400,2.722201416015625,0.003976890817284584,-0.004964600317180157,-0.00899559073150158
1772819336215266600,2.7322666015625,0.0013339696452021599,-0.0017989007756114006,-0.010485363192856312
1772819336225330700,2.74233056640625,0.0005898536182940006,-0.006884773261845112,-0.008442040532827377
1772819336235395300,2.752395263671875,0.003012264845892787,-0.0059167142026126385,-0.005851317662745714
1772819336245460500,2.76246044921875,0.003229477209970355,-0.003663082607090473,-0.005275855306535959
1772819336255525600,2.772525634765625,0.003306975122541189,-0.0004944531247019768,-0.0033746245317161083
1772819336265589500,2.782589599609375,-0.004082519095391035,0.00645033735781908,-0.0003015059046447277
1772819336275654700,2.792654541015625,-0.003945366013795137,0.008725476451218128,-0.001671436009928584
1772819336285719300,2.80271923828125,0.0007153172045946121,0.02157273329794407,0.0026237808633595705
1772819336295784400,2.812784423828125,0.002351030707359314,0.02025180496275425,0.002949485322460532
1772819336305849600,2.822849609375,0.003608721774071455,0.010302900336682796,-0.004921170882880688
1772819336315913500,2.83291357421875,0.00168298976495862,-0.005367938429117203,-0.003895587520673871
1772819336325978600,2.842978515625,-0.0010859970934689045,-0.014412729069590569,0.0005761001375503838
1772819336336043500,2.85304345703125,0.0031066176015883684,-0.008974287658929825,0.005996165797114372
1772819336346108400,2.8631083984375,0.0015835557132959366,-0.0009208880364894867,0.01474038790911436
1772819336356172500,2.873172607421875,-0.00069770822301507,0.007878994569182396,0.0086550647392869
1772819336366237400,2.883237548828125,-0.0023822542279958725,0.006594083271920681,-0.0037611715961247683
1772819336376302600,2.893302490234375,0.004073514603078365,0.007533379830420017,-0.009524784982204437
1772819336386367500,2.903367431640625,0.0036712430883198977,0.011714308522641659,-0.012891720980405807
1772819336396432400,2.913432373046875,0.004151410888880491,0.010067942552268505,-0.013528216630220413
1772819336406496500,2.92349658203125,0.0009006042964756489,0.0077917734161019325,-0.011009134352207184
1772819336416561700,2.933561767578125,0.0017000853549689054,0.0007485123351216316,-0.005633809138089418
1772819336426626600,2.94362646484375,-0.001801053062081337,0.003499487414956093,0.002146763727068901
1772819336436691500,2.95369140625,-0.00436407933011651,0.0035215914249420166,0.006829399615526199
1772819336446755300,2.96375537109375,-0.005938689690083265,0.006524607539176941,0.005818994250148535
1772819336456820500,2.973820556640625,-0.005279823672026396,0.002048366703093052,-0.0009270590962842107
1772819336466885600,2.9838857421875,-0.006884603761136532,0.0003230385482311249,-0.007210182957351208
1772819336476950500,2.993950439453125,-0.009342968463897705,0.000607464462518692,-0.007663452997803688
1772819336487015400,3.004015380859375,-0.00889640673995018,-0.0002505742013454437,-0.007996637374162674
1772819336497079600,3.01407958984375,-0.009789364412426949,0.00037713348865509033,-0.009364170953631401
1772819336507144400,3.02414453125,-0.009904976934194565,0.005236303433775902,-0.008153884671628475
1772819336517209600,3.034209716796875,-0.008379785344004631,0.008360190317034721,-0.002805458614602685
1772819336527274500,3.0442744140625,-0.012722274288535118,0.004898947663605213,-0.009817586280405521
1772819336537338400,3.05433837890625,-0.013469289988279343,-0.004605341237038374,-0.011325734667479992
1772819336547403500,3.064403564453125,-0.016337893903255463,-0.005579560063779354,-0.017913328483700752
1772819336557468400,3.074468505859375,-0.011504790745675564,-0.008306903764605522,-0.01981775462627411
1772819336567533600,3.084533447265625,-0.011272469535470009,-0.0026739509776234627,-0.01856011524796486
1772819336577598500,3.094598388671875,-0.015302363783121109,0.013176385313272476,-0.013358162716031075
1772819336587662300,3.104662353515625,-0.006953460164368153,0.033073991537094116,-0.007134667597711086
1772819336597727500,3.1147275390625,-0.010233142413198948,0.019601592794060707,0.0019056989112868905
1772819336607792600,3.124792724609375,-0.010647785849869251,0.007140763103961945,0.012612889520823956
1772819336617857500,3.134857421875,-0.006452508270740509,0.005838742479681969,0.018818853422999382
1772819336627921700,3.144921630859375,-0.004542926792055368,0.010557698085904121,0.017996830865740776
1772819336637986300,3.154986328125,-0.004959445912390947,0.0030936570838093758,0.015885476022958755
1772819336648051500,3.165051513671875,-0.008760137483477592,0.0020900778472423553,0.009668231941759586
1772819336658121000,3.175120849609375,-0.0054373107850551605,0.006284821778535843,0.005647923797369003
1772819336668185900,3.185185791015625,-0.00879266019910574,0.005813940428197384,0.008656908757984638
1772819336678249700,3.195249755859375,-0.009254186414182186,0.0072259483858942986,0.017393676564097404
1772819336688315000,3.20531494140625,-0.011553116142749786,0.009730915538966656,0.01958984136581421
1772819336698380000,3.215380126953125,-0.01572655513882637,0.0176229290664196,0.019279850646853447
1772819336708445000,3.22544482421875,-0.0212860070168972,0.008569148369133472,0.006532165687531233
1772819336718509000,3.235509033203125,-0.0197091493755579,0.008284722454845905,-0.0008503833669237792
1772819336728574000,3.245573974609375,-0.01832270808517933,0.0027109934017062187,-0.008074474520981312
1772819336738638800,3.255638916015625,-0.014987897127866745,0.006189613603055477,-0.01064975094050169
1772819336748704000,3.2657041015625,-0.015005188062787056,0.0034749843180179596,-0.014871387742459774
1772819336758769200,3.27576904296875,-0.0162800420075655,0.0038161352276802063,-0.013087335973978043
1772819336768833000,3.2858330078125,-0.013031324371695518,0.010603132657706738,-0.011355988681316376
1772819336778898000,3.29589794921875,-0.009797448292374611,0.00971816387027502,-0.01445670798420906
1772819336788962800,3.305962890625,-0.00465429900214076,0.012756171636283398,-0.008157298900187016
1772819336799028000,3.316028076171875,-0.0036361729726195335,0.022513728588819504,-0.00008365930989384651
1772819336809091800,3.326091796875,-0.00486963614821434,0.02886982634663582,-0.0002792531449813396
1772819336819157000,3.336156982421875,-0.004622494801878929,0.026477240025997162,-0.006787752732634544
1772819336829222000,3.346221923828125,-0.009700922295451164,0.013880354352295399,-0.015077179297804832
1772819336839286800,3.356286865234375,-0.006346405018121004,-0.0029345788061618805,-0.026508532464504242
1772819336849352000,3.36635205078125,-0.009974926710128784,-0.018598193302750587,-0.030901029706001282
1772819336859416000,3.376416015625,-0.008883031085133553,-0.027322441339492798,-0.0313686802983284
1772819336869481000,3.38648095703125,-0.00884241797029972,-0.01839832030236721,-0.023061268031597137
1772819336879545900,3.3965458984375,-0.004696142394095659,0.012054926715791225,-0.009212830103933811
1772819336889611000,3.406611083984375,-0.00402092095464468,0.02126646414399147,-0.006016887724399567
1772819336899675000,3.4166748046875,0.0010614555794745684,0.028646349906921387,-0.011521641165018082
1772819336909740000,3.426739990234375,0.0028755064122378826,0.0301038958132267,-0.009680474177002907
1772819336919805000,3.436804931640625,-0.001954935025423765,0.02186327800154686,-0.009561165235936642
1772819336929869800,3.446869873046875,-0.007577075157314539,0.010792751796543598,-0.016288820654153824
1772819336939935000,3.45693505859375,-0.01274227537214756,-0.008565765805542469,-0.019616704434156418
1772819336949998800,3.466998779296875,-0.014155905693769455,-0.019521677866578102,-0.021296530961990356
1772819336960064000,3.47706396484375,-0.015397204086184502,-0.027959637343883514,-0.028271349146962166
1772819336970129000,3.48712890625,-0.010726626962423325,-0.027361921966075897,-0.02898324280977249
1772819336980193800,3.49719384765625,-0.008846434764564037,-0.014677817933261395,-0.028836768120527267
1772819336990259000,3.507259033203125,-0.004671312402933836,-0.00033616553992033005,-0.027176305651664734
1772819337000322800,3.51732275390625,-0.0014970903284847736,0.010126861743628979,-0.022687014192342758
1772819337010388000,3.527387939453125,0.00025565130636096,0.021842842921614647,-0.010359996929764748
1772819337020452900,3.537452880859375,0.005371051374822855,0.02516220696270466,-0.005355650559067726
1772819337030517800,3.547517822265625,0.007361080497503281,0.02072487771511078,0.0017524270806461573
1772819337040582000,3.557581787109375,0.002138355514034629,0.004730996675789356,-0.0020873185712844133
1772819337050647000,3.56764697265625,0.00237698620185256,-0.006213961634784937,-0.0007717657135799527
1772819337060712000,3.5777119140625,0.0049256314523518085,-0.013034317642450333,-0.004173421300947666
1772819337070776800,3.58777685546875,0.003055074717849493,-0.01063494198024273,-0.006415997631847858
1772819337080842000,3.597842041015625,0.0019136439077556133,-0.0052883801981806755,-0.010184903629124165
1772819337090905900,3.60790576171875,0.0010627047158777714,0.003285433165729046,-0.014383666217327118
1772819337100971000,3.617970947265625,0.00012846756726503372,0.004580794833600521,-0.021580858156085014
1772819337111036000,3.628035888671875,-0.004022589884698391,-0.0017529008910059929,-0.030141904950141907
1772819337121100800,3.638100830078125,-0.00042492523789405823,-0.01699763350188732,-0.02823241800069809
1772819337131166000,3.648166015625,0.001425124704837799,-0.022031676024198532,-0.02786816842854023
1772819337141229800,3.658229736328125,0.0016126111149787903,-0.021724078804254532,-0.017737770453095436
1772819337151295000,3.668294921875,0.003674671985208988,-0.01806403137743473,-0.010352195240557194
1772819337161360100,3.678360107421875,0.007312550209462643,-0.017800377681851387,0.001959598623216152
1772819337171424800,3.6884248046875,0.0072067854925990105,-0.010019187815487385,0.0037504546344280243
1772819337181490000,3.698489990234375,0.0095176100730896,0.0032489467412233353,0.009263996966183186
1772819337191553800,3.7085537109375,0.0057920049875974655,0.0035149650648236275,0.006636952981352806
1772819337201619000,3.718618896484375,0.004384258296340704,0.005281439051032066,0.007799689657986164
1772819337211684000,3.72868408203125,0.00856403075158596,0.0011152233928442001,0.009082244709134102
1772819337221748700,3.738748779296875,0.008728880435228348,-0.0011082496494054794,0.016453608870506287
1772819337231812900,3.748812744140625,0.00723373144865036,0.0008305683732032776,0.027688026428222656
1772819337241878000,3.7588779296875,0.0048360880464315414,-0.007971977815032005,0.02500089630484581
1772819337251943000,3.76894287109375,-0.0011323955841362476,-0.005745813716202974,0.018012577667832375
1772819337262008000,3.779008056640625,-0.008140238001942635,-0.0006141681224107742,0.00006287312135100365
1772819337272073000,3.789072998046875,-0.007291921880096197,-0.004113028757274151,-0.009937687776982784
1772819337282136800,3.79913671875,-0.013445155695080757,-0.005834229290485382,-0.019056083634495735
1772819337292202000,3.809201904296875,-0.016961097717285156,-0.00993419997394085,-0.01630728878080845
1772819337302267000,3.819266845703125,-0.014620711095631123,-0.013215746730566025,-0.005723354406654835
1772819337312332000,3.82933203125,-0.011766335926949978,-0.008607412688434124,0.004442464094609022
1772819337322397000,3.83939697265625,-0.004685789346694946,-0.00112153310328722,0.015365151688456535
1772819337332460800,3.849460693359375,0.00042407866567373276,0.005883346311748028,0.010790929198265076
1772819337342526000,3.85952587890625,-0.0005330615676939487,-0.003676336258649826,0.002676810370758176
1772819337352591000,3.869591064453125,-0.0014170166105031967,-0.007010983768850565,-0.0005467901355586946
1772819337362656000,3.879656005859375,-0.008921803906559944,-0.0037552695721387863,-0.005236616358160973
1772819337372721000,3.889720947265625,-0.01012505404651165,-0.005734594538807869,-0.002994049806147814
1772819337382784800,3.89978466796875,-0.01156529225409031,-0.002660508267581463,-0.004620175808668137
1772819337392850000,3.909849853515625,-0.008265780285000801,0.0026673469692468643,-0.0009470991790294647
1772819337402915000,3.9199150390625,-0.002721345517784357,0.0029557673260569572,-0.0011630816152319312
1772819337412980000,3.92997998046875,0.002754766959697008,0.003226209431886673,-0.0016386694042012095
1772819337423043800,3.9400439453125,0.006332191172987223,-0.0032684411853551865,-0.010450003668665886
1772819337433108700,3.950108642578125,0.005440767854452133,-0.009217909537255764,-0.006696034222841263
1772819337443174000,3.960173828125,0.0031959894113242626,-0.010020320303738117,-0.009741625748574734
1772819337453239000,3.970239013671875,-0.0016509382985532284,-0.010767936706542969,-0.01285389345139265
1772819337463303700,3.9803037109375,-0.0034677465446293354,-0.009743418544530869,-0.017163153737783432
1772819337473367800,3.990367919921875,-0.002426634542644024,-0.0014115208759903908,-0.01343217957764864
1772819337483433000,4.000432861328125,-0.004135319031774998,0.009048310108482838,-0.007883217185735703
1772819337493497900,4.010497802734375,0.003375840838998556,0.015152578242123127,-0.0038177655078470707
1772819337503563000,4.02056298828125,0.0036123294848948717,0.01318077277392149,-0.0018070787191390991
1772819337513627000,4.030626953125,0.008303588256239891,0.004536183550953865,0.0025875058490782976
1772819337523691800,4.04069189453125,0.008219698444008827,-0.006765473634004593,0.002863143105059862
1772819337533757000,4.0507568359375,0.004777221009135246,-0.009340314194560051,0.010386639274656773
1772819337543821800,4.06082177734375,-7.566995918750763e-7,-0.007175164762884378,0.010502752847969532
1772819337553887000,4.070886962890625,0.0008381344377994537,0.003953150473535061,0.005496237892657518
1772819337563951000,4.080951171875,0.008086193352937698,0.017847128212451935,0.003774770302698016
1772819337574015700,4.091015625,0.013679152354598045,0.015175015665590763,0.002651292597874999
1772819337584081000,4.101080810546875,0.01918710209429264,0.005073112435638905,0.0033636882435530424
1772819337594146000,4.11114599609375,0.01653926447033882,-0.00854116678237915,0.01185619831085205
1772819337604211000,4.1212109375,0.017454057931900024,-0.012574258260428905,0.011288145557045937
1772819337614275000,4.131275146484375,0.01896994560956955,-0.01182461529970169,0.014328008517622948
1772819337624339700,4.141339599609375,0.017267121002078056,-0.015206296928226948,0.007927900180220604
1772819337634404900,4.15140478515625,0.01499711349606514,-0.018200552091002464,0.004271972458809614
1772819337644470000,4.161469970703125,0.015142789110541344,-0.004377148114144802,0.0033904663287103176
1772819337654534000,4.171533935546875,0.011869439855217934,0.003774152137339115,0.008824802935123444
1772819337664594700,4.1815947265625,0.011431615799665451,0.004062573425471783,0.007547018118202686
1772819337674659800,4.191659912109375,0.011240155436098576,0.0058269863948225975,0.00710891792550683
1772819337684724700,4.201724853515625,0.011492889374494553,-0.007506662048399448,0.006039126310497522
1772819337694789600,4.21178955078125,0.013255864381790161,-0.013032754883170128,0.009944798424839973
1772819337704853800,4.221853759765625,0.009567120112478733,-0.0156256090849638,0.013791467994451523
1772819337714919000,4.2319189453125,0.0068851374089717865,-0.010196320712566376,0.014299524948000908
1772819337724983800,4.24198388671875,0.0018062228336930275,0.0027559632435441017,0.01935580186545849
1772819337735048700,4.252048583984375,-0.005428802687674761,0.015865569934248924,0.0212586410343647
1772819337745113900,4.26211376953125,-0.010499194264411926,0.02017323300242424,0.0031755100935697556
1772819337755177700,4.272177734375,-0.008202392607927322,0.007725520059466362,-0.011501513421535492
1772819337765243000,4.282242919921875,-0.00975368358194828,-0.010011132806539536,-0.0244830921292305
1772819337775307800,4.292307861328125,-0.009769661352038383,-0.02671714313328266,-0.02659764140844345
1772819337785372700,4.30237255859375,-0.006544040981680155,-0.031061025336384773,-0.02345111593604088
1772819337795437800,4.312437744140625,-0.010057150386273861,-0.022320732474327087,-0.014505336061120033
1772819337805501700,4.322501708984375,-0.008352461270987988,-0.011362888850271702,-0.010189151391386986
1772819337815566800,4.33256689453125,-0.0025732163339853287,0.0020238254219293594,-0.009948819875717163
1772819337825631700,4.3426318359375,0.0030220849439501762,0.021381543949246407,-0.012279883958399296
1772819337835696600,4.352696533203125,0.005290044471621513,0.026145368814468384,-0.01246031653136015
1772819337845761800,4.36276171875,0.0038772374391555786,0.02052503451704979,-0.010911421850323677
1772819337855825700,4.37282568359375,-0.0011336165480315685,0.008589580655097961,-0.007024810183793306
1772819337865890800,4.382890869140625,-0.0026827771216630936,-0.005750475917011499,-0.009744962677359581
1772819337875955700,4.392955810546875,0.0005857734940946102,-0.022284843027591705,-0.014599834568798542
1772819337886020600,4.4030205078125,0.0045501552522182465,-0.03337131440639496,-0.02002842165529728
1772819337896085800,4.413085693359375,0.005149499047547579,-0.03935297578573227,-0.021189603954553604
1772819337906150000,4.42314990234375,0.004301282111555338,-0.03924618661403656,-0.01833389513194561
1772819337916214800,4.43321484375,0.004054700490087271,-0.02731182798743248,-0.005380378570407629
1772819337926279700,4.44327978515625,0.010524850338697433,-0.011232459917664528,0.006190523970872164
1772819337936344800,4.4533447265625,0.020511703565716743,0.005026671104133129,0.01728338748216629
1772819337946409700,4.46340966796875,0.024180741980671883,0.016535256057977676,0.023319177329540253
1772819337956473900,4.473473876953125,0.02858222834765911,0.008949307724833488,0.030360547825694084
1772819337966538800,4.483538818359375,0.030767884105443954,-0.0071388487704098225,0.03589113429188728
1772819337976603600,4.493603759765625,0.03606805577874184,-0.016906123608350754,0.04249543696641922
1772819337986668800,4.503668701171875,0.03186691924929619,-0.017461126670241356,0.040365707129240036
1772819337996733700,4.513733642578125,0.0286182202398777,-0.022802196443080902,0.04147696867585182
1772819338006797800,4.5237978515625,0.02254221774637699,-0.016505151987075806,0.033125560730695724
1772819338016863000,4.533863037109375,0.019758403301239014,-0.0015332261100411415,0.02599233202636242
1772819338026927600,4.543927734375,0.019333895295858383,-0.0048011913895606995,0.014869906939566135
1772819338036992800,4.55399267578125,0.016392074525356293,-0.006380347069352865,0.0012202172074466944
1772819338047058000,4.564057861328125,0.01444636844098568,-0.021746786311268806,-0.010440433397889137
1772819338057121800,4.574121826171875,0.008254865184426308,-0.026864249259233475,-0.012373914942145348
1772819338067187000,4.58418701171875,-0.0057866512797772884,-0.032461948692798615,-0.016047479584813118
1772819338077251600,4.59425146484375,-0.005325875710695982,-0.027601148933172226,-0.01592818647623062
1772819338087316700,4.604316650390625,-0.004051553551107645,-0.011031225323677063,-0.01185701135545969
1772819338097382000,4.6143818359375,-0.0007592025212943554,0.009556908160448074,-0.01148044690489769
1772819338107445800,4.62444580078125,0.004705337807536125,0.01898290030658245,-0.015411006286740303
1772819338117511700,4.63451171875,0.006633917801082134,0.010936624370515347,-0.017649365589022636
1772819338127575600,4.644575439453125,0.00934448279440403,0.01036031637340784,-0.015553191304206848
1772819338137640700,4.654640625,0.00893374439328909,0.0046622855588793755,-0.012904563918709755
1772819338147705900,4.664705810546875,0.006346749607473612,0.006213310174643993,-0.01570354588329792
1772819338157770800,4.674770751953125,0.007951832376420498,0.0035574696958065033,-0.013772042468190193
1772819338167835600,4.684835693359375,0.006604538764804602,-0.0033473074436187744,-0.017825905233621597
1772819338177899800,4.694899658203125,0.01016867533326149,-0.01563466526567936,-0.021293174475431442
1772819338187964700,4.704964599609375,0.012475771829485893,-0.019875217229127884,-0.016894429922103882
1772819338198029800,4.71502978515625,0.012923013418912888,-0.012017659842967987,-0.010889078490436077
1772819338208094700,4.7250947265625,0.007243023253977299,-0.008289766497910023,-0.001269474159926176
1772819338218159600,4.73515966796875,0.005457133520394564,-0.01280099805444479,0.0009716100757941604
1772819338228223700,4.7452236328125,0.007687264587730169,-0.005438689142465591,-0.0003439914435148239
1772819338238288600,4.75528857421875,0.0038128169253468513,-0.0008636750280857086,-0.0019254812505096197
1772819338248353800,4.765353759765625,0.004781408701092005,-0.0009720660746097565,-0.00653674453496933
1772819338258418700,4.775418701171875,0.0035372618585824966,-0.004324120469391346,-0.003189444774761796
1772819338268483600,4.785483642578125,0.007036388851702213,-0.006686610635370016,0.005123878829181194
1772819338278547700,4.795547607421875,0.004360881634056568,-0.00866896752268076,0.015224259346723557
1772819338288612900,4.80561279296875,0.0009818628896027803,-0.0009431373327970505,0.025436418130993843
1772819338298677800,4.815677734375,0.0005870980676263571,-0.0013908827677369118,0.025574397295713425
1772819338308742700,4.82574267578125,0.0014749958645552397,-0.003564022481441498,0.00917571596801281
1772819338318807800,4.835807861328125,-0.0004185261204838753,-0.004579585045576096,-0.0007602224359288812
1772819338328871700,4.84587158203125,-0.0002803080715239048,-0.009593518450856209,-0.00488838879391551
1772819338338936800,4.855936767578125,0.0026131179183721542,-0.013305298052728176,-0.0022484520450234413
1772819338349001700,4.866001708984375,0.007472587749361992,-0.01593650132417679,0.0022861124016344547
1772819338359066600,4.876066650390625,0.0099471565335989,-0.014878195710480213,0.007793942000716925
1772819338369131800,4.8861318359375,0.009114385582506657,-0.01626570150256157,0.010209962725639343
1772819338379195600,4.896195556640625,0.011579673737287521,-0.010424325242638588,0.006181664764881134
1772819338389260800,4.9062607421875,0.006622465793043375,-0.007600575219839811,0.0016337846172973514
1772819338399326000,4.916325927734375,0.007535168901085854,-0.00998170766979456,0.000053983007092028856
1772819338409390600,4.926390625,0.005358833819627762,0.0006040912121534348,0.006401360966265202
1772819338419455700,4.936455810546875,0.007628401275724173,0.0010791970416903496,0.007568611763417721
1772819338429521000,4.94652099609375,0.004750855732709169,-0.0013762377202510834,0.008013891987502575
1772819338439584800,4.956584716796875,0.003934870939701796,-0.0002026483416557312,0.006306188181042671
1772819338449650000,4.96664990234375,0.0015934195835143328,-0.0024069463834166527,0.0017047782894223928
1772819338459714600,4.976714599609375,0.00003973115235567093,-0.002110270783305168,0.0033130613155663013
1772819338469779700,4.98677978515625,-0.007539891172200441,-0.002336905337870121,0.0038153333589434624
1772819338479844900,4.996844970703125,-0.009526447393000126,0.003930944949388504,0.00420609675347805
1772819338489908700,5.00690869140625,-0.003834206610918045,0.005442021414637566,0.008001632988452911
1772819338499974000,5.016973876953125,0.0018433111254125834,0.006188207305967808,0.01140105351805687
1772819338510038800,5.027038818359375,-0.00011517759412527084,0.0055442554876208305,0.008652139455080032
1772819338520103700,5.037103759765625,0.003393227467313409,0.001133759506046772,0.005862624384462833
1772819338530168800,5.0471689453125,-0.0014729001559317112,-0.003041543997824192,-0.00005651719402521849
1772819338540232700,5.057232666015625,-0.009773163124918938,-0.0019534770399332047,-0.0037630689330399036
1772819338550297900,5.0672978515625,-0.009572360664606094,0.003734768368303776,-0.0009185465751215816
1772819338560362800,5.07736279296875,-0.008680552244186401,0.011240490712225437,-0.0017910550814121962
1772819338570427600,5.087427734375,-0.003822946920990944,0.00044803041964769363,-0.0035945475101470947
1772819338580492800,5.097492919921875,0.003006565384566784,-0.005458161700516939,-0.004593842662870884
1772819338590557700,5.1075576171875,0.008687354624271393,-0.010111769661307335,-0.003503278363496065
1772819338600621800,5.117621826171875,0.00901428796350956,-0.005581366829574108,0.0037480536848306656
1772819338610686700,5.127686767578125,0.006236079148948193,0.005749051459133625,0.00985654629766941
1772819338620752000,5.137751953125,0.002853951882570982,0.009623751044273376,0.016835596412420273
1772819338630816800,5.147816650390625,-0.004731529392302036,0.016958096995949745,0.008697244338691235
1772819338640881700,5.157881591796875,-0.004557935521006584,0.020234815776348114,0.0007814113050699234
1772819338650945500,5.167945556640625,-0.00961368065327406,0.012491942383348942,-0.01094635110348463
1772819338661011000,5.178010986328125,-0.0007476028986275196,-0.00588946184143424,-0.015083977952599525
1772819338671076000,5.188076171875,-0.0007611848413944244,-0.017650246620178223,-0.011278053745627403
1772819338681141000,5.19814111328125,0.002648992696776986,-0.026375828310847282,-0.009070826694369316
1772819338691206000,5.208205810546875,0.0067726313136518,-0.023312661796808243,-0.0044036367908120155
1772819338701270000,5.21827001953125,0.007800298277288675,-0.009647281840443611,0.0015145025681704283
1772819338711335000,5.2283349609375,0.006865794770419598,0.01823095604777336,0.0012870687060058117
1772819338721400000,5.238400146484375,0.005177412647753954,0.026340745389461517,0.001839562552049756
1772819338731465200,5.24846533203125,-0.0016013975255191326,0.025310102850198746,-0.0008869817829690874
1772819338741529900,5.25852978515625,-0.0021592997945845127,0.011654411442577839,-0.002033570781350136
1772819338751594000,5.268593994140625,0.001227974658831954,-0.002536242827773094,-0.0014077279483899474
1772819338761659000,5.278658935546875,0.000865366542711854,-0.007462758105248213,-0.0011092289350926876
1772819338771724000,5.28872412109375,0.0016712392680346966,-0.00369864609092474,0.0005344741512089968
1772819338781789200,5.2987890625,0.002515849657356739,-0.0004876730963587761,-0.003938698209822178
1772819338791853800,5.308853759765625,0.002768317237496376,0.002499861642718315,-0.005896920338273048
1772819338801919000,5.3189189453125,0.0017047689761966467,0.0028047943487763405,-0.007984698750078678
1772819338811983000,5.328983154296875,-0.003795723430812359,0.001365089789032936,-0.006415031850337982
1772819338822048000,5.339048095703125,-0.0028611919842660427,0.0019471896812319756,-0.00775496568530798
1772819338832113200,5.349113037109375,-0.005151243880391121,0.0034689195454120636,0.0014300101902335882
1772819338842178000,5.359177978515625,-0.0030408063903450966,0.010347331874072552,0.010923506692051888
1772819338852243000,5.369242919921875,0.002622938482090831,0.010495669208467007,0.012253222987055779
1772819338862307000,5.37930712890625,0.009604262188076973,0.004231153056025505,0.009435607120394707
1772819338872372000,5.3893720703125,0.009905998595058918,-0.007710461970418692,-0.0007166292052716017
1772819338882436900,5.399436767578125,0.008239662274718285,-0.015415554866194725,-0.0009796179365366697
1772819338892502000,5.409501953125,0.004808179568499327,-0.0024888375774025917,0.009953989647328854
1772819338902567000,5.41956689453125,0.006839461624622345,0.018369339406490326,0.023526083678007126
1772819338912632000,5.429632080078125,0.005155811086297035,0.026669081300497055,0.024125028401613235
1772819338922696200,5.4396962890625,0.008955920115113258,0.018391575664281845,0.016370519995689392
1772819338932760800,5.4497607421875,0.007712224498391151,0.009034027345478535,0.010883874259889126
1772819338942826000,5.459825927734375,0.0022017869632691145,-0.0011944426223635674,0.0031676602084189653
1772819338952891100,5.46989111328125,0.0003048174548894167,-0.01315523125231266,0.000617150915786624
1772819338962956000,5.4799560546875,-0.000016402918845415115,-0.02103642374277115,0.0011367960833013058
1772819338973020200,5.490020263671875,-0.001164758112281561,-0.015188653953373432,0.010373970493674278
1772819338983084800,5.500084716796875,-0.0021582795307040215,0.00030957814306020737,0.01912299357354641
1772819338993150000,5.51014990234375,0.00031872675754129887,0.009883908554911613,0.012730343267321587
1772819339003215000,5.520215087890625,-0.00325107853859663,0.018178356811404228,0.011307940818369389
1772819339013280000,5.530280029296875,-0.009366229176521301,0.019366392865777016,0.006237815134227276
1772819339023344000,5.54034423828125,-0.004621541127562523,0.014353258535265923,0.0011783414520323277
1772819339033409000,5.550408935546875,0.000048844143748283386,0.009759040549397469,0.0028974118176847696
1772819339043474000,5.560473876953125,0.00042741349898278713,0.005844625644385815,0.007124289870262146
1772819339053539000,5.5705390625,0.0006463252939283848,-0.003956605680286884,0.010549115017056465
1772819339063604200,5.580604248046875,0.001600414514541626,-0.006662644911557436,0.01818053051829338
1772819339073668900,5.5906689453125,-0.0003831079229712486,0.0019500181078910828,0.018740061670541763
1772819339083733000,5.60073291015625,-0.00217227591201663,0.009311064146459103,0.016539068892598152
1772819339093798000,5.6107978515625,-0.003046325407922268,0.011865301989018917,0.010829518549144268
1772819339103863000,5.620863037109375,-0.0011449018493294716,0.008743043057620525,-0.002108671935275197
1772819339113928200,5.63092822265625,-0.0011728648096323013,0.006445267237722874,-0.011023337952792645
1772819339123992800,5.640992919921875,-0.007045711390674114,-0.0007592495530843735,-0.013945972546935081
1772819339134058000,5.65105810546875,-0.006213207729160786,-0.011010289192199707,-0.013376056216657162
1772819339144121900,5.661121826171875,-0.009636642411351204,-0.011087819002568722,-0.008413754403591156
1772819339154187000,5.67118701171875,-0.008319443091750145,-0.0034661181271076202,0.0030538165010511875
1772819339164252200,5.681252197265625,-0.008579869754612446,0.0037195561453700066,0.005836987867951393
1772819339174317000,5.691317138671875,-0.004096438176929951,0.014466476626694202,0.001634253654628992
1772819339184382000,5.7013818359375,-0.004331213887780905,0.010952767916023731,0.00035269896034151316
1772819339194446000,5.711446044921875,-0.009868724271655083,0.011542125605046749,-0.0033421707339584827
1772819339204511000,5.721510986328125,-0.012192190624773502,0.006934056989848614,-0.008067823015153408
1772819339214576000,5.731576171875,-0.013091272674500942,0.010950370691716671,-0.013458061031997204
1772819339224641000,5.74164111328125,-0.019751420244574547,0.009818093851208687,-0.0122190797701478
1772819339234706000,5.751705810546875,-0.018276028335094452,0.008770406246185303,-0.017345398664474487
1772819339244770000,5.76177001953125,-0.017597641795873642,0.00024372991174459457,-0.013752507977187634
1772819339254835000,5.7718349609375,-0.012756013311445713,-0.0061475904658436775,-0.004914541728794575
1772819339264900000,5.781900146484375,-0.006751077249646187,0.0017735837027430534,0.00723141897469759
1772819339274965000,5.791965087890625,-0.0019430066458880901,0.017989836633205414,0.016375383362174034
1772819339285030000,5.80202978515625,-0.01202188991010189,0.020015504211187363,0.012714825570583344
1772819339295095000,5.812094970703125,-0.009938765317201614,0.011689133010804653,-0.003113671438768506
1772819339305159200,5.8221591796875,-0.008474944159388542,0.007534332573413849,-0.012032748199999332
1772819339315223800,5.832223876953125,-0.01622101664543152,-0.0005693994462490082,-0.013360866345465183
1772819339325289000,5.8422890625,-0.014710778370499611,-0.009458331391215324,-0.013800748623907566
1772819339335354000,5.85235400390625,-0.01482316292822361,-0.01018164586275816,-0.008160972036421299
1772819339345419000,5.8624189453125,-0.008740702643990517,-0.006931757088750601,0.0000427357736043632
1772819339355484000,5.87248388671875,-0.004038092214614153,0.0012034010142087936,0.006063610315322876
1772819339365547800,5.8825478515625,0.0038862982764840126,0.007643289864063263,0.012523984536528587
1772819339375613000,5.892613037109375,0.001890791580080986,0.012211943045258522,0.014329607598483562
1772819339385678000,5.902677978515625,-0.003645339049398899,0.005484565161168575,0.016765987500548363
1772819339395743000,5.912742919921875,-0.006460567004978657,0.008598332293331623,0.012863656505942345
1772819339405807900,5.922807861328125,-0.010641572996973991,0.009579376317560673,0.009168827906250954
1772819339415872000,5.9328720703125,-0.009362457320094109,0.014638849534094334,0.01275424100458622
1772819339425937000,5.94293701171875,-0.010597364977002144,0.008017963729798794,0.012249039486050606
1772819339436002000,5.953001953125,-0.007933670654892921,-0.004633914679288864,0.0032723224721848965
1772819339446067200,5.963067138671875,-0.0017450042068958282,-0.006699463818222284,0.007762666791677475
1772819339456131800,5.9731318359375,-0.0011322107166051865,-0.001189117319881916,0.01104501262307167
1772819339466197000,5.983197021484375,-0.0038567939773201942,0.006336509250104427,0.014886859804391861
1772819339476260900,5.9932607421875,-0.006977752782404423,0.02154422551393509,0.018837127834558487
1772819339486326000,6.003325927734375,-0.011393825523555279,0.033731382340192795,0.01755722425878048
1772819339496391200,6.01339111328125,-0.016986995935440063,0.023637469857931137,0.00946201290935278
1772819339506455800,6.023455810546875,-0.01584475114941597,0.01153989415615797,0.0006200029165484011
1772819339516521000,6.03352099609375,-0.01464499719440937,-0.0002997200936079025,-0.009237954393029213
1772819339526585000,6.043585205078125,-0.015599203296005726,-0.012019860558211803,-0.016499025747179985
1772819339536650000,6.05364990234375,-0.017505493015050888,-0.019033029675483704,-0.01844845898449421
1772819339546715100,6.063715087890625,-0.013887106440961361,-0.022842179983854294,-0.017138037830591202
1772819339556780000,6.073780029296875,-0.010606624186038971,-0.0031435778364539146,-0.01538141630589962
1772819339566845000,6.083844970703125,-0.009699100628495216,0.009159727022051811,-0.016489578410983086
1772819339576910000,6.09391015625,-0.007485481444746256,0.014297498390078545,-0.016431521624326706
1772819339586974000,6.103973876953125,-0.0039671435952186584,0.025593597441911697,-0.012607090175151825
1772819339597039000,6.1140390625,-0.0023902864195406437,0.02993588149547577,-0.009288258850574493
1772819339607104000,6.12410400390625,-0.00036623748019337654,0.0265131164342165,-0.006632665637880564
1772819339617169000,6.1341689453125,0.0032516669016331434,0.023842765018343925,-0.005898965056985617
1772819339627234000,6.144234130859375,-0.00020773522555828094,0.008194698952138424,-0.005661861505359411
1772819339637299000,6.154298828125,-0.002358504105359316,-0.010481784120202065,-0.010267266072332859
1772819339647363000,6.164363037109375,-0.006427120883017778,-0.020583853125572205,-0.009175559505820274
1772819339657427500,6.174427490234375,-0.007236988749355078,-0.022387344390153885,-0.007833858020603657
1772819339667492600,6.18449267578125,-0.01349029690027237,-0.00905729178339243,-0.008029530756175518
1772819339677557800,6.194557861328125,-0.014988057315349579,0.006438843905925751,-0.009318767115473747
1772819339687622700,6.20462255859375,-0.016161665320396423,0.020857661962509155,-0.010003309696912766
1772819339697686800,6.214686767578125,-0.01132749393582344,0.028002656996250153,-0.01604415848851204
1772819339707751400,6.22475146484375,-0.009968729689717293,0.027114590629935265,-0.015435686334967613
1772819339717816600,6.234816650390625,-0.004196327645331621,0.014749800786376,-0.008304006420075893
1772819339727881700,6.2448818359375,-0.0023015886545181274,0.0032174494117498398,0.00012893247185274959
1772819339737946600,6.254946533203125,-0.0031146518886089325,-0.005878577008843422,0.008775950409471989
1772819339748011500,6.265011474609375,-0.0018939655274152756,-0.0008439375087618828,0.013781134970486164
1772819339758075600,6.27507568359375,-0.00202659098431468,0.002053314819931984,0.011339016258716583
1772819339768140500,6.285140625,-0.00168904522433877,0.013323714025318623,0.005701547954231501
1772819339778205700,6.295205810546875,-0.0017641466110944748,0.02411244437098503,-0.0010418423917144537
1772819339788270600,6.3052705078125,0.00113017694093287,0.010502892546355724,-0.005195841193199158
1772819339798335500,6.31533544921875,-0.0014850469306111336,0.0021719923242926598,-0.00890482496470213
1772819339808400600,6.325400634765625,-0.0013665370643138885,-0.003296276554465294,-0.005828085355460644
1772819339818464500,6.335464599609375,0.0013618716038763523,-0.006578089669346809,-0.006174296606332064
1772819339828529700,6.34552978515625,0.0014977266546338797,-0.01601187139749527,-0.0046678450889885426
1772819339838594600,6.355594482421875,0.0011219547595828772,-0.011249607428908348,-0.007381605915725231
1772819339848659500,6.365659423828125,-0.00020670006051659584,0.0038420939818024635,-0.007871920242905617
1772819339858724600,6.375724609375,-0.0034336522221565247,0.011962604708969593,-0.009633335284888744
1772819339868788700,6.385788818359375,-0.007172893732786179,0.018608957529067993,-0.01139535941183567
1772819339878853600,6.395853515625,-0.008978250436484814,0.016940485686063766,-0.015835115686058998
1772819339888918500,6.40591845703125,-0.00792967714369297,0.016419705003499985,-0.01739034429192543
1772819339898983700,6.415983642578125,-0.006769337225705385,0.006471200846135616,-0.020121149718761444
1772819339909048600,6.426048583984375,-0.006790282670408487,0.004421064630150795,-0.018765326589345932
1772819339919113700,6.43611376953125,-0.003438161686062813,-0.0034517720341682434,-0.011361473239958286
1772819339929177600,6.446177490234375,-0.0023998129181563854,-0.0064432998187839985,-0.013584666885435581
1772819339939242500,6.456242431640625,-0.0032866457477211952,-0.003059486858546734,-0.008172058500349522
1772819339949307600,6.4663076171875,-0.0010269032791256905,-0.0035791369155049324,-0.009718933142721653
1772819339959372500,6.47637255859375,0.00038004457019269466,0.0017730174586176872,-0.011705385521054268
1772819339969437700,6.486437744140625,0.0013862180057913065,0.007327771745622158,-0.011010931804776192
1772819339979502600,6.496502685546875,0.004174547735601664,0.008382382802665234,-0.010904405266046524
1772819339989566500,6.50656640625,0.004153997637331486,0.015573417767882347,-0.005449847783893347
1772819339999631600,6.516631591796875,0.0036770254373550415,0.019882414489984512,0.0030666750390082598
1772819340009696800,6.52669677734375,0.005065483972430229,0.01693635806441307,-0.0000984404468908906
1772819340019761700,6.53676171875,0.002447064034640789,0.0015305038541555405,0.0022941434290260077
1772819340029826600,6.54682666015625,0.0017217451240867376,-0.002947702072560787,0.0033228325191885233
1772819340039890400,6.556890380859375,0.0020341339986771345,-0.010676194913685322,0.007134349085390568
1772819340049955600,6.56695556640625,0.002445608377456665,-0.013621284626424313,0.0069550685584545135
1772819340060020700,6.577020751953125,-0.0008591082878410816,-0.009076866321265697,0.008060812950134277
1772819340070085600,6.587085693359375,-0.006083181127905846,0.004471066407859325,0.005242971703410149
1772819340080150500,6.597150634765625,-0.008412115275859833,0.00817099492996931,0.001837321324273944
1772819340090215700,6.607215576171875,-0.007370382081717253,-0.0021718889474868774,-0.006724483333528042
1772819340100279600,6.617279541015625,-0.005229200702160597,-0.005065147299319506,-0.007159643806517124
1772819340110344700,6.6273447265625,-0.005649384576827288,-0.006750896107405424,-0.0008662213804200292
1772819340120409600,6.63740966796875,-0.0006455709226429462,-0.01091821026057005,-0.0004992377944290638
1772819340130474500,6.647474609375,-0.0023829899728298187,-0.00557374395430088,0.005589412059634924
1772819340140539600,6.65753955078125,-0.004007252398878336,-0.005956972949206829,0.0031736588571220636
1772819340150604800,6.667604736328125,-0.0016978643834590912,-0.0065773907117545605,0.0037271410692483187
1772819340160668700,6.677668701171875,0.0012622391805052757,-0.005373109597712755,0.004928492940962315
1772819340170733600,6.687733642578125,0.0003345203585922718,0.0012024026364088058,0.0038421000353991985
1772819340180798500,6.697798583984375,0.0005939123220741749,0.0022594109177589417,0.007604880258440971
1772819340190863600,6.707863525390625,0.0049858554266393185,0.008977768011391163,0.01414254680275917
1772819340200928800,6.7179287109375,0.008573932573199272,0.013901953585445881,0.013547331094741821
1772819340210992600,6.72799267578125,0.011628578417003155,0.011876353062689304,0.011937715113162994
1772819340221057500,6.7380576171875,0.009894061833620071,0.00414626020938158,0.007138699758797884
1772819340231122700,6.748122802734375,0.01075362041592598,0.003313056193292141,0.007196834310889244
1772819340241187600,6.7581875,0.0026392354629933834,0.0029974719509482384,0.006550751626491547
1772819340251252700,6.768252685546875,0.001557377865538001,0.005752912722527981,0.006723533384501934
1772819340261317600,6.778317626953125,-0.0007473216392099857,0.007762000896036625,0.0002493890351615846
1772819340271381500,6.788381591796875,0.00024414341896772385,0.011462963186204433,-0.00503125786781311
1772819340281446700,6.79844677734375,0.000163183081895113,0.006128917448222637,-0.013102766126394272
1772819340291511600,6.808511474609375,-0.0013313828967511654,-0.004857155028730631,-0.008988981135189533
1772819340301576700,6.81857666015625,0.0002284306101500988,-0.00457991985604167,-0.006597995292395353
1772819340311641600,6.8286416015625,-0.001982341054826975,-0.006539973895996809,-0.0008341358043253422
1772819340321705500,6.83870556640625,-0.0017597009427845478,0.003074037842452526,0.0031158647034317255
1772819340331770600,6.8487705078125,-0.0012401440180838108,0.01039976254105568,0.00837407074868679
1772819340341835800,6.858835693359375,0.0008538996335119009,0.009939301759004593,0.003117256797850132
1772819340351900700,6.868900634765625,0.0009258817881345749,0.0019649649038910866,-0.0015770766185596585
1772819340361965600,6.878965576171875,-0.0015607117675244808,0.002086937427520752,0.000005639973096549511
1772819340372030700,6.88903076171875,-0.0027844496071338654,0.004244531504809856,0.0014358065091073513
1772819340382094600,6.899094482421875,-0.0021391655318439007,0.0038887327536940575,0.009062567725777626
1772819340392159700,6.90915966796875,-0.00009442120790481567,0.02251335047185421,0.019780557602643967
1772819340402224600,6.919224609375,-0.005380795802921057,0.035657912492752075,0.025908492505550385
1772819340412289500,6.92928955078125,-0.0018165628425776958,0.020607490092515945,0.008856712840497494
1772819340422354700,6.939354736328125,-0.0046198065392673016,0.00033337902277708054,-0.013784416951239109
1772819340432418600,6.94941845703125,-0.0037042112089693546,-0.020311713218688965,-0.02640167623758316
1772819340442483700,6.959483642578125,-0.0051005068235099316,-0.028807995840907097,-0.02730715088546276
1772819340452548900,6.969548828125,-0.00503742229193449,-0.025927718728780746,-0.016964664682745934
1772819340462613500,6.979613525390625,-0.0017814412713050842,-0.002884717658162117,-0.004445144906640053
1772819340472678700,6.9896787109375,0.0005730586126446724,0.015919430181384087,0.004965364001691341
1772819340482743800,6.999743896484375,0.003127562813460827,0.02437496744096279,-0.0021162477787584066
1772819340492807700,7.0098076171875,0.003066577250137925,0.02002645470201969,-0.013090032152831554
1772819340502872800,7.019872802734375,-0.01005561649799347,0.012598367407917976,-0.022884339094161987
1772819340512937500,7.0299375,-0.010215498507022858,0.005535963922739029,-0.02387983724474907
1772819340523002600,7.040002685546875,-0.012689309194684029,0.004909856244921684,-0.01707705855369568
1772819340533067800,7.05006787109375,-0.010618564672768116,-0.0016001416370272636,-0.009961002506315708
1772819340543131600,7.060131591796875,-0.0059646908193826675,-0.0029538264498114586,-0.004552388563752174
1772819340553196500,7.070196533203125,-0.006519828457385302,-0.005851510912179947,-0.003838303964585066
1772819340563261700,7.08026171875,-0.010953724384307861,-0.0019382620230317116,-0.008060479536652565
1772819340573326600,7.09032666015625,-0.013304858468472958,0.003952383063733578,-0.010553617030382156
1772819340583391700,7.100391845703125,-0.0119956498965621,0.014483853243291378,-0.007303761783987284
1772819340593456600,7.11045654296875,-0.007633634377270937,0.018788885325193405,-0.000124280690215528
1772819340603520500,7.1205205078125,-0.0024663032963871956,0.01904907636344433,0.0056640999391674995
1772819340613585700,7.130585693359375,0.0011592055670917034,0.013907577842473984,0.011198807507753372
1772819340623650600,7.140650634765625,0.005191763862967491,0.0008114837110042572,0.012762615457177162
1772819340633715700,7.1507158203125,0.006431510206311941,-0.006462906487286091,0.01097096037119627
1772819340643780600,7.160780517578125,0.008317827247083187,-0.005607765633612871,0.01241625752300024
1772819340653844500,7.170844482421875,0.009280811995267868,-0.0002394663169980049,0.005326705984771252
1772819340663913500,7.18091357421875,0.002592815086245537,0.0028157122433185577,-0.003530169138684869
1772819340673978600,7.190978515625,0.0008693353738635778,0.0003906385973095894,-0.017798447981476784
1772819340684043500,7.20104345703125,-0.002215670421719551,-0.004488005768507719,-0.028698498383164406
1772819340694108400,7.2111083984375,-0.003599894233047962,-0.01880129985511303,-0.03200368955731392
1772819340704172500,7.221172607421875,-0.0021074586547911167,-0.029117852449417114,-0.02792665921151638
1772819340714237400,7.231237548828125,0.0008095563389360905,-0.03302757069468498,-0.011758621782064438
1772819340724302600,7.241302490234375,0.00008783955127000809,-0.02429932728409767,-0.0018290258012712002
1772819340734367500,7.251367431640625,-0.00052274065092206,-0.00557670509442687,0.003508986672386527
1772819340744432400,7.261432373046875,-0.0012170267291367054,0.00894977431744337,0.007363912183791399
1772819340754497500,7.27149755859375,0.002969149500131607,0.018744278699159622,0.003139619482681155
1772819340764561400,7.2815615234375,0.0013992160093039274,0.019602615386247635,0.0005552881048060954
1772819340774626600,7.29162646484375,0.002600756473839283,0.022944852709770203,0.011540190316736698
1772819340784691500,7.30169140625,0.004668434616178274,0.013456805609166622,0.018098490312695503
1772819340794756400,7.31175634765625,0.002876897808164358,0.0030894530937075615,0.021100236102938652
1772819340804821500,7.321821533203125,0.005504638887941837,-0.0027940021827816963,0.023512793704867363
1772819340814885600,7.3318857421875,0.0030241278000175953,-0.005990362260490656,0.01844201609492302
1772819340824950500,7.341950439453125,-0.001709640957415104,-0.013138819485902786,0.00914731901139021
1772819340835015400,7.352015380859375,-0.0025598392821848392,-0.012224556878209114,-0.00225381413474679
1772819340845080600,7.36208056640625,-0.0036535998806357384,-0.0014262376353144646,-0.0049944729544222355
1772819340855145500,7.3721455078125,-0.0014836504124104977,0.002608221024274826,-0.011694320477545261
1772819340865210600,7.382210693359375,-0.0020152172073721886,-0.002188664861023426,-0.016263239085674286
1772819340875274500,7.3922744140625,-0.005404341965913773,-0.007776942569762468,-0.01912485435605049
1772819340885339400,7.40233935546875,-0.004191005602478981,-0.011933604255318642,-0.017538942396640778
1772819340895404500,7.412404541015625,0.0008806206751614809,-0.015307730063796043,-0.015836574137210846
1772819340905469400,7.422469482421875,0.0061752512119710445,-0.004321657586842775,-0.014999541454017162
1772819340915534600,7.43253466796875,0.012747537344694138,-0.003998416475951672,-0.007887527346611023
1772819340925598700,7.4425986328125,0.012829029932618141,-0.0068338834680616856,-0.009581830352544785
1772819340935663400,7.452663330078125,0.007609824649989605,-0.0021077394485473633,-0.007664684671908617
1772819340945728500,7.462728515625,0.007296903524547815,0.00832492858171463,-0.0017527334857732058
1772819340955793700,7.472793701171875,0.008138908073306084,0.012778998352587223,0.002831393852829933
1772819340965858600,7.482858642578125,0.011144816875457764,0.005330669693648815,0.006278056651353836
1772819340975922700,7.492922607421875,0.009209740906953812,0.0009778337553143501,0.0028342886362224817
1772819340985987300,7.5029873046875,0.01678749918937683,-0.007298472337424755,-0.0008754946757107973
1772819340996052500,7.513052490234375,0.013734770938754082,-0.012105344794690609,0.0056008510291576385
1772819341006117600,7.52311767578125,0.012792546302080154,-0.006928692106157541,0.005279673263430595
1772819341016182500,7.5331826171875,0.014667356386780739,0.0016308408230543137,0.004105681553483009
1772819341026246700,7.54324658203125,0.010636928491294384,-0.00019715353846549988,0.003659868612885475
1772819341036311300,7.553311279296875,0.007131506688892841,-0.000015927478671073914,0.0077204457484185696
1772819341046376400,7.56337646484375,0.009498524479568005,0.0010677129030227661,0.005858896300196648
1772819341056441600,7.573441650390625,0.0018071634694933891,-0.005779402796179056,0.004581871442496777
1772819341066506500,7.583506591796875,-0.0004394794814288616,-0.015073035843670368,0.0038985044229775667
1772819341076570600,7.593570556640625,0.0006504668854176998,-0.011204730719327927,0.006911012809723616
1772819341086635500,7.603635498046875,-0.0010225307196378708,-0.00439742486923933,0.008081206120550632
1772819341096700400,7.613700439453125,0.00042018922977149487,0.0007999362424015999,0.0105886310338974
1772819341106765600,7.623765625,-0.0005092541687190533,-0.0026744231581687927,0.007174725644290447
1772819341116830500,7.63383056640625,-0.00245889974758029,-0.0047674039378762245,0.005112622864544392
1772819341126894600,7.64389453125,-0.004778512753546238,-0.007660129573196173,0.008243168704211712
1772819341136959500,7.65395947265625,0.0001503857783973217,-0.00406133197247982,0.015573368407785892
1772819341147024400,7.6640244140625,0.0014252408873289824,0.00337128434330225,0.01618216559290886
1772819341157089500,7.674089599609375,0.005883294157683849,0.0023504281416535378,0.01865520514547825
1772819341167154400,7.684154541015625,0.009747540578246117,0.008129220455884933,0.015519065782427788
1772819341177219300,7.69421923828125,0.012962331995368004,0.005378740839660168,0.01886969432234764
1772819341187283500,7.704283447265625,0.012084286659955978,-0.0008125761523842812,0.008678574115037918
1772819341197348600,7.7143486328125,0.01005496084690094,-0.004255375359207392,0.008131114766001701
1772819341207413500,7.72441357421875,0.007994472980499268,-0.007862361147999763,0.00920250453054905
1772819341217478400,7.734478515625,0.005377212539315224,-0.008213333785533905,0.007200709544122219
1772819341227543600,7.74454345703125,0.007544226944446564,-0.0019418559968471527,0.0031215460039675236
1772819341237607400,7.754607421875,0.007668780162930489,-0.007188085000962019,-0.0022023518104106188
1772819341247672600,7.764672607421875,0.008067455142736435,-0.013630538247525692,-0.006711616180837154
1772819341257737500,7.774737548828125,0.006587206851691008,-0.02044007182121277,-0.007365091238170862
1772819341267802400,7.78480224609375,0.006238332949578762,-0.012985351495444775,0.0016867270460352302
1772819341277867500,7.794867431640625,0.007437208667397499,-0.0006906697526574135,0.005062843672931194
1772819341287931400,7.804931396484375,0.006989531219005585,0.003979450091719627,0.00891164317727089
1772819341297996500,7.81499658203125,0.006483543664216995,0.004532689228653908,0.009727055206894875
1772819341308061700,7.825061767578125,0.005837460979819298,0.0036394651979207993,0.012630699202418327
1772819341318126300,7.835126220703125,0.0021254366729408503,-0.0069784242659807205,0.010896128602325916
1772819341328191500,7.84519140625,0.005827763117849827,-0.021934203803539276,0.0068507869727909565
1772819341338255400,7.85525537109375,0.0010656751692295074,-0.033653877675533295,0.009765958413481712
1772819341348320500,7.865320556640625,0.004836977459490299,-0.0297094713896513,0.011370247229933739
1772819341358385700,7.8753857421875,0.005008772946894169,-0.016162971034646034,0.009373224340379238
1772819341368450300,7.8854501953125,0.004410626832395792,-0.005087683442980051,0.012530934065580368
1772819341378515500,7.895515380859375,0.009775850921869278,0.005132769234478474,0.010143972933292389
1772819341388579600,7.90557958984375,0.0140331806614995,0.015594997443258762,0.01186783704906702
1772819341398644500,7.91564453125,0.016986291855573654,0.016379525884985924,0.011008687317371368
1772819341408709600,7.925709716796875,0.014851503074169159,0.0054648276418447495,0.008171621710062027
1772819341418774500,7.9357744140625,0.012807486578822136,-0.008593766018748283,0.013568664900958538
1772819341428839400,7.94583935546875,0.005797780118882656,-0.021946055814623833,0.01192762516438961
1772819341438903600,7.955903564453125,0.0018698161002248526,-0.026270998641848564,0.0004504442331381142
1772819341448968400,7.965968505859375,0.005550570785999298,-0.027781276032328606,-0.003827923908829689
1772819341459033600,7.97603369140625,0.006236911751329899,-0.026624396443367004,-0.011843614280223846
1772819341469098500,7.986098388671875,0.008712053298950195,-0.02255748212337494,-0.0122888945043087
1772819341479163400,7.996163330078125,0.009417632594704628,-0.012780651450157166,-0.00796302780508995
1772819341489227500,8.0062275390625,0.012842724099755287,0.0012701870873570442,0.0017404654063284397
1772819341499292700,8.016292724609375,0.008372945711016655,0.012778235599398613,0.018366293981671333
1772819341509357600,8.026357666015626,0.007997173815965652,0.00410059280693531,0.0156386848539114
1772819341519421700,8.036421630859374,0.016844728961586952,-0.002563836984336376,0.014872141182422638
1772819341529486300,8.046486328125,0.018241025507450104,-0.006514903157949448,0.015941666439175606
1772819341539551500,8.056551513671875,0.014791710302233696,-0.006984982173889875,0.021746862679719925
1772819341549616600,8.06661669921875,0.017901748418807983,-0.011240447871387005,0.032756902277469635
1772819341559681500,8.076681640625,0.017961477860808372,0.0032916907221078873,0.03680594637989998
1772819341569745700,8.08674560546875,0.018686391413211823,0.013974961824715137,0.03651885688304901
1772819341579810600,8.096810546875,0.018282823264598846,0.006957797333598137,0.02610895223915577
1772819341589875500,8.10687548828125,0.016463084146380424,0.0004996312782168388,0.014600368216633797
1772819341599940600,8.116940673828125,0.013503927737474442,-0.011804304085671902,0.005967145785689354
1772819341610005500,8.127005615234374,0.01135608833283186,-0.02242179401218891,0.008160258643329144
1772819341620069400,8.1370693359375,0.009444547817111015,-0.018132811412215233,0.0062479558400809765
1772819341630134500,8.147134521484375,0.0061414288356900215,-0.01103974785655737,0.008130811154842377
1772819341640199400,8.157199462890626,0.007061172276735306,-0.0039133913815021515,-0.0010802310425788164
1772819341650264600,8.1672646484375,0.010407701134681702,-0.00003369804471731186,0.0007610786124132574
1772819341660329500,8.17732958984375,0.010369363240897655,-0.0035146158188581467,-0.0041519696824252605
1772819341670389500,8.187389404296875,0.012732386589050293,0.0006524324417114258,-0.0015082497848197818
1772819341680454400,8.197454345703125,0.01109406165778637,0.004595940001308918,0.002184786833822727
1772819341690519300,8.207519287109376,0.010140916332602501,0.0032465150579810143,0.0007844968931749463
1772819341700584400,8.21758447265625,0.007247097324579954,-0.005675571039319038,0.0001441441709175706
1772819341710649600,8.227649658203125,0.007690247148275375,-0.0061876969411969185,-0.0037912088446319103
1772819341720713500,8.23771337890625,0.00499675003811717,-0.006789637263864279,-0.0022818269208073616
1772819341730778400,8.2477783203125,0.007963244803249836,-0.005419174674898386,-0.003931122366338968
1772819341740843500,8.257843505859375,0.006661395076662302,-0.005243408028036356,0.00010768527863547206
1772819341750908400,8.267908447265626,0.004281328059732914,0.0044371820986270905,0.003591899061575532
1772819341760973600,8.2779736328125,0.0012679074425250292,0.00463632307946682,0.010309378616511822
1772819341771037400,8.288037353515625,0.0015206413809210062,0.006941821426153183,0.013930744491517544
1772819341781102300,8.298102294921875,0.0039973012171685696,0.00969802588224411,0.020171137526631355
1772819341791167500,8.30816748046875,0.01199157815426588,0.008267110213637352,0.020837726071476936
1772819341801232400,8.318232421875,0.01020254660397768,0.0062070563435554504,0.01845119334757328
1772819341811297500,8.328297607421876,0.009187881834805012,-0.00808586273342371,0.01002921350300312
1772819341821361400,8.338361328125,0.00716999638825655,-0.012321524322032928,0.006198312621563673
1772819341831426300,8.34842626953125,0.0009262154344469309,-0.004847096279263496,0.0016738680424168706
1772819341841491500,8.358491455078125,-0.0029988945461809635,-0.00380027387291193,-0.0008313229773193598
1772819341851556400,8.368556396484376,-0.006824791897088289,0.001003270037472248,-0.0006433037924580276
1772819341861620500,8.378620361328124,-0.005071770399808884,0.008899045176804066,-0.0016915274318307638
1772819341871685600,8.388685546875,-0.006562341004610062,0.014693551696836948,-0.006871109362691641
1772819341881750300,8.398750244140626,-0.00864940881729126,0.017803654074668884,-0.013473539613187313
1772819341891815400,8.4088154296875,-0.010353831574320793,0.014871779829263687,-0.02377757616341114
1772819341901880600,8.418880615234375,-0.00739699974656105,0.00804310292005539,-0.029033031314611435
1772819341911944400,8.4289443359375,-0.0013297866098582745,0.013324417173862457,-0.029559005051851273
1772819341922009300,8.43900927734375,0.00159167917445302,0.005986479111015797,-0.01879655010998249
1772819341932074200,8.44907421875,0.0006598392501473427,-0.012038062326610088,-0.001520091318525374
1772819341942139400,8.459139404296875,0.006157304160296917,-0.029487989842891693,0.014691703952848911
1772819341952204500,8.46920458984375,0.004945831838995218,-0.024274051189422607,0.018895236775279045
1772819341962268400,8.479268310546875,0.0033585880883038044,-0.014616098254919052,0.015035251155495644
1772819341972333300,8.489333251953125,0.004632910713553429,-0.0058156829327344894,0.00343132670968771
1772819341982398500,8.4993984375,0.0023127803578972816,0.0005388148128986359,-0.005696119274944067
1772819341992463400,8.50946337890625,-0.0013607838191092014,0.007110430859029293,-0.012113272212445736
1772819342002527500,8.519527587890625,0.0012100250460207462,0.008751439861953259,-0.005340831354260445
1772819342012592400,8.52959228515625,-0.0008320868946611881,0.015494030900299549,0.007993882521986961
1772819342022657300,8.5396572265625,-0.0035356474108994007,0.0154281510040164,0.016009654849767685
1772819342032722400,8.549722412109375,0.002996820490807295,-0.006924025248736143,0.014011752791702747
1772819342042787300,8.559787353515626,0.004863163456320763,-0.024997834116220474,0.012786166742444038
1772819342052851500,8.5698515625,0.0010250159539282322,-0.006871827412396669,0.009136570617556572
1772819342062916600,8.57991650390625,0.0034757708199322224,0.01885087601840496,-0.0028843050822615623
1772819342072981200,8.589981201171875,-0.00390944117680192,0.025296526029706,-0.010854347608983517
1772819342083046400,8.60004638671875,-0.007441450841724873,0.018249936401844025,-0.020141907036304474
1772819342093110300,8.6101103515625,-0.009479035623371601,0.02003185823559761,-0.02131316438317299
1772819342103175400,8.620175537109375,-0.006551781669259071,0.02333470806479454,-0.015413873828947544
1772819342113240600,8.630240478515624,-0.005484652705490589,0.020252365618944168,-0.010905941016972065
1772819342123305200,8.64030517578125,-0.0015319539234042168,0.01854771003127098,-0.008809912949800491
1772819342133370400,8.650370361328125,-0.001798003911972046,0.020269175991415977,-0.018233243376016617
1772819342143434500,8.6604345703125,0.0013583630789071321,0.013046319596469402,-0.02427217736840248
1772819342153499400,8.67049951171875,-0.004383146297186613,-0.0006311433389782906,-0.03345395624637604
1772819342163564500,8.680564453125,-0.012458963319659233,-0.02168676257133484,-0.04603160545229912
1772819342173629400,8.69062939453125,-0.017293132841587067,-0.034112270921468735,-0.0626278892159462
1772819342183694300,8.7006943359375,-0.018486181274056435,-0.02610001713037491,-0.06687583029270172
1772819342193758500,8.710758544921875,-0.021939236670732498,-0.015599440783262253,-0.05904267355799675
1772819342203823400,8.7208232421875,-0.016853922978043556,-0.00022304337471723557,-0.05406191572546959
1772819342213888500,8.730888427734374,-0.01091320812702179,0.010408028960227966,-0.032856497913599014
1772819342223953400,8.740953369140625,-0.0025334772653877735,0.028561731800436974,-0.0128109036013484
1772819342234017300,8.751017333984375,-0.0028269574977457523,0.03616345673799515,0.012655573897063732
1772819342244082400,8.76108251953125,-0.0013718404807150364,0.02790815755724907,0.024935822933912277
1772819342254147600,8.771147705078125,-0.0032003666274249554,0.01593458279967308,0.02783174440264702
1772819342264212500,8.78121240234375,-0.01025028619915247,0.011792303062975407,0.026670074090361595
1772819342274277400,8.79127734375,-0.016334012150764465,0.0049442509189248085,0.018377522006630898
1772819342284341200,8.80134130859375,-0.017216375097632408,-0.0014606183394789696,0.013785144314169884
1772819342294406400,8.811406494140625,-0.01939377561211586,-0.011011512950062752,0.004575666971504688
1772819342304471600,8.821471435546876,-0.016185175627470016,-0.012542097829282284,0.007124214433133602
1772819342314536400,8.831536376953125,-0.01567251607775688,-0.01604282297194004,0.0019986946135759354
1772819342324601300,8.841601318359375,-0.015530593693256378,-0.01901351287961006,0.011162197217345238
1772819342334665500,8.85166552734375,-0.009022893384099007,-0.0030191000550985336,0.020631864666938782
1772819342344730400,8.86173046875,-0.0009298897348344326,0.014554936438798904,0.028633570298552513
1772819342354795500,8.87179541015625,0.003448613453656435,0.018460994586348534,0.02921254187822342
1772819342364860400,8.8818603515625,0.014059800654649734,0.020333725959062576,0.028839677572250366
1772819342374924500,8.891924560546874,0.010442961007356644,0.013292594812810421,0.022013995796442032
1772819342384989400,8.901989501953125,0.011458300054073334,-0.0015415716916322708,0.01416003704071045
1772819342395054300,8.912054443359375,0.011075071059167385,-0.011878631077706814,0.01634116657078266
1772819342405119500,8.922119384765624,0.00583751080557704,-0.0059147849678993225,0.019444406032562256
1772819342415183400,8.932183349609375,0.006953908130526543,0.0020691053941845894,0.01754370704293251
1772819342425248500,8.94224853515625,0.007789785973727703,0.0012818118557333946,0.014588587917387486
1772819342435313400,8.9523134765625,0.009357056580483913,0.0051396675407886505,0.0080270916223526
1772819342445378300,8.96237841796875,0.008981116116046906,0.009010734967887402,0.01013714075088501
1772819342455443500,8.972443359375,0.004165854770690203,0.015905924141407013,0.010029815137386322
1772819342465507600,8.982507568359376,0.0021904902532696724,0.012765096500515938,0.010454297065734863
1772819342475572200,8.992572265625,-0.001681479625403881,0.012993596494197845,0.009453747421503067
1772819342485637400,9.002637451171875,-0.0024659279733896255,0.016466453671455383,0.012467309832572937
1772819342495702500,9.01270263671875,-0.008470291271805763,0.018541855737566948,0.009911740198731422
1772819342505766400,9.022766357421874,-0.00353927630931139,0.019220594316720963,0.006461786106228828
1772819342515831600,9.03283154296875,0.0020618841517716646,0.02733284793794155,0.013415833003818989
1772819342525896200,9.042896240234375,0.004942030180245638,0.029760725796222687,0.016889488324522972
1772819342535961300,9.05296142578125,0.006777746602892876,0.028607841581106186,0.022251762449741364
1772819342546026500,9.063026611328125,0.00504229124635458,0.022474778816103935,0.027665317058563232
1772819342556090400,9.07309033203125,-0.001384182833135128,0.005626555532217026,0.02543012611567974
1772819342566155500,9.083155517578126,-0.0012810267508029938,-0.013161677867174149,0.021725498139858246
1772819342576220400,9.093220458984375,-0.002864009700715542,-0.01494626235216856,0.025213705375790596
1772819342586285300,9.103285400390625,0.021614525467157364,-0.02418513596057892,0.03204527497291565
1772819342596349400,9.113349365234376,0.0026195282116532326,-0.07092973589897156,0.042375944554805756
1772819342606414300,9.123414306640624,-0.007484308443963528,-0.0799383744597435,0.02517392858862877
1772819342616479500,9.1334794921875,0.0008151661604642868,-0.019142137840390205,-0.0009863033192232251
1772819342626544400,9.14354443359375,-0.006866300478577614,0.04225300997495651,-0.014190254732966423
1772819342636609300,9.153609375,-0.010536402463912964,0.048452846705913544,-0.02350359410047531
1772819342646673400,9.16367333984375,-0.013563545420765877,0.02984684146940708,-0.021363286301493645
1772819342656738600,9.173738525390625,-0.011876700446009636,0.029768014326691628,0.004919717088341713
1772819342666807300,9.183807373046875,-0.008003725670278072,0.02178724855184555,0.029987812042236328
1772819342676872400,9.19387255859375,-0.0012398292310535908,0.004978441633284092,0.04551803320646286
1772819342686936600,9.2039365234375,0.0007276884280145168,-0.005898600909858942,0.04942740872502327
1772819342697001500,9.21400146484375,0.003073667176067829,0.0015334831550717354,0.03831084072589874
1772819342707066600,9.224066650390625,0.0015579028986394405,0.0101108867675066,0.021832024678587914
1772819342717131500,9.234131591796874,-0.00823960080742836,0.008815525099635124,0.007227248512208462
1772819342727195400,9.2441953125,-0.01492222212255001,0.013149256817996502,-0.004334575030952692
1772819342737260500,9.254260498046875,-0.02479402720928192,0.006741692312061787,-0.009264884516596794
1772819342747325400,9.264325439453126,-0.018664753064513206,0.012244947254657745,-0.010369346477091312
1772819342757390600,9.274390625,-0.014809560030698776,0.013125121593475342,-0.011790142394602299
1772819342767455500,9.28445556640625,-0.01358448714017868,0.00819367915391922,-0.012720216065645218
1772819342777519400,9.294519287109376,-0.008856577798724174,0.0030907969921827316,-0.018975181505084038
1772819342787584500,9.30458447265625,-0.014379588887095451,0.007464337162673473,-0.02156437747180462
1772819342797649700,9.314649658203125,-0.019633738324046135,0.003196355886757374,-0.030699819326400757
1772819342807714600,9.324714599609376,-0.02043631672859192,0.01107871439307928,-0.03162388876080513
1772819342817778700,9.33477880859375,-0.02699168771505356,0.010792159475386143,-0.037316661328077316
1772819342827843300,9.34484326171875,-0.0226821880787611,0.009351087734103203,-0.0430431105196476
1772819342837908500,9.354908447265625,-0.02447476238012314,0.01432374119758606,-0.0482887402176857
1772819342847973600,9.3649736328125,-0.025020506232976913,0.01229115016758442,-0.04918859899044037
1772819342858037500,9.37503759765625,-0.023169342428445816,0.007658049464225769,-0.05069807916879654
1772819342868102700,9.3851025390625,-0.023263823240995407,0.020735301077365875,-0.04395577684044838
1772819342878167300,9.395167236328126,-0.020473096519708633,0.026861906051635742,-0.03760067746043205
1772819342888232400,9.405232421875,-0.018588529899716377,0.0259776059538126,-0.034844353795051575
1772819342898297600,9.415297607421875,-0.01582922972738743,0.019022759050130844,-0.032856304198503494
1772819342908361500,9.425361572265626,-0.016985610127449036,0.012122642248868942,-0.0310310460627079
1772819342918426600,9.435426513671874,-0.016332870349287987,0.008408330380916595,-0.025886883959174156
1772819342928491500,9.445491455078125,-0.021722741425037384,0.003451957367360592,-0.025569168850779533
1772819342938556400,9.455556396484376,-0.01869099773466587,0.006207529455423355,-0.022207459434866905
1772819342948620500,9.46562060546875,-0.017276054248213768,0.019825298339128494,-0.020879363641142845
1772819342958685400,9.475685546875,-0.0141588244587183,0.026316221803426743,-0.02458169125020504
1772819342968750600,9.48575048828125,-0.015229200944304466,0.028173048049211502,-0.0313384011387825
1772819342978815500,9.4958154296875,-0.01513545773923397,0.018499650061130524,-0.028992952778935432
1772819342988879400,9.50587939453125,-0.01942833885550499,0.011598795652389526,-0.027195971459150314
1772819342998944500,9.515944580078125,-0.020949536934494972,0.017001017928123474,-0.02638583816587925
1772819343009009700,9.526009765625,-0.01664358749985695,0.015109113417565823,-0.030194668099284172
1772819343019074600,9.536074462890625,-0.014836899004876614,0.006348378024995327,-0.039838239550590515
1772819343029139500,9.546139404296875,-0.011890174821019173,-0.003642905503511429,-0.03732440993189812
1772819343039203300,9.556203369140626,-0.015199419111013412,-0.005663445685058832,-0.03182418271899223
1772819343049268500,9.5662685546875,-0.014305304735898972,0.006278635933995247,-0.023546498268842697
1772819343059333600,9.576333740234375,-0.011116702109575272,0.01809960976243019,-0.02127056010067463
1772819343069398500,9.5863984375,-0.006221970543265343,0.025033846497535706,-0.017919214442372322
1772819343079462700,9.596462646484374,-0.0005893846973776817,0.03906470909714699,-0.014982280321419239
1772819343089527600,9.606527587890625,-0.0007058246992528439,0.04896281287074089,-0.008467097766697407
1772819343099592400,9.616592529296875,-0.0010272683575749397,0.07512224465608597,-0.0018318319926038384
1772819343109657600,9.62665771484375,-0.017771577462553978,0.04747647047042847,-0.001705041853711009
1772819343119721500,9.636721435546875,-0.02067122608423233,0.00590931810438633,-0.009564296342432499
1772819343129786400,9.646786376953125,-0.021267138421535492,-0.007345997262746096,-0.018224896863102913
1772819343139851500,9.6568515625,-0.017027918249368668,-0.009472797624766827,-0.022284885868430138
1772819343149916400,9.66691650390625,-0.015492157079279423,-0.006270448211580515,-0.025026440620422363
1772819343159980500,9.67698046875,-0.018421102315187454,0.00445596594363451,-0.02300936169922352
1772819343170045700,9.687045654296876,-0.01856454275548458,0.023917581886053085,-0.02397901937365532
1772819343180110300,9.6971103515625,-0.01916668377816677,0.022589996457099915,-0.02483522519469261
1772819343190175500,9.707175537109375,-0.02570071443915367,0.01300088781863451,-0.03812618926167488
1772819343200239400,9.7172392578125,-0.02634439989924431,-0.013571866787970066,-0.04723207280039787
1772819343210304500,9.727304443359374,-0.02730645425617695,-0.01528904214501381,-0.042487554252147675
1772819343220369700,9.73736962890625,-0.021212607622146606,-0.00232663843780756,-0.03640143200755119
1772819343230434300,9.747434326171875,-0.008284750394523144,0.005494534969329834,-0.022073213011026382
1772819343240499500,9.75749951171875,-0.00268225884065032,0.0028619999065995216,-0.0032971289474517107
1772819343250563600,9.7675634765625,0.003319862298667431,-0.0007386570796370506,0.0038664359599351883
1772819343260628500,9.77762841796875,0.00235899374820292,0.006526179611682892,0.002496772212907672
1772819343270693600,9.787693603515624,-0.003655289299786091,0.0024661896750330925,-0.005222013220191002
1772819343280758500,9.797758544921875,-0.009233280085027218,-0.005122487433254719,-0.013279673643410206
1772819343290822400,9.807822509765625,-0.006167398765683174,-0.006681434810161591,-0.0114405183121562
1772819343300887600,9.817887451171876,0.0016788062639534473,-0.0037101460620760918,-0.004383940249681473
1772819343310952400,9.827952392578124,0.0070800441317260265,-0.0015910398215055466,0.012640533968806267
1772819343321017600,9.838017578125,0.013304650783538818,-0.006370615214109421,0.01844595931470394
1772819343331081500,9.84808154296875,0.021127887070178986,-0.011217929422855377,0.02782503142952919
1772819343341146400,9.858146484375,0.019456753507256508,-0.010051464661955833,0.029403487220406532
1772819343351211500,9.86821142578125,0.014828736893832684,-0.0061397794634103775,0.02530580200254917
1772819343361276400,9.8782763671875,0.01550224982202053,0.0039040660485625267,0.018301421776413918
1772819343371340500,9.888340576171874,0.009809143841266632,0.02236885204911232,0.011318542063236237
1772819343381405700,9.89840576171875,0.014580197632312775,0.023775003850460052,0.004322951193898916
1772819343391470300,9.90847021484375,0.012715330347418785,0.014349976554512978,0.0021775797940790653
1772819343401535500,9.918535400390626,0.01503521017730236,-0.0019677430391311646,-0.0007606857689097524
1772819343411599400,9.928599365234374,0.011738145723938942,-0.010613790713250637,0.006114749703556299
1772819343421664500,9.93866455078125,0.012738961726427078,-0.01932578906416893,0.013170795515179634
1772819343431729700,9.948729736328126,0.013244656845927238,-0.010645449161529541,0.014088229276239872
1772819343441794300,9.958794189453124,0.005918300244957209,0.00041918549686670303,0.007889721542596817
1772819343451858400,9.9688583984375,0.009249511174857616,0.006559631787240505,-0.0037829377688467503
1772819343461923600,9.978923583984376,0.0036028106696903706,0.007378022186458111,-0.01688702031970024
1772819343471988500,9.988988525390624,-0.0003446717746555805,0.000007792375981807709,-0.030696721747517586
1772819343482053600,9.9990537109375,-0.00026957085356116295,-0.001398356631398201,-0.026773087680339813
1772819343492118500,10.009118408203125,0.001260561402887106,0.002194019965827465,-0.012319697067141533
1772819343502182400,10.019182373046876,0.0020981256384402514,0.00291520357131958,-0.000057971570640802383
1772819343512247600,10.02924755859375,0.007561110891401768,0.004587795585393906,0.009275630116462708
1772819343522312400,10.0393125,0.009399757720530033,0.002000001259148121,0.007989057339727879
1772819343532377600,10.049377685546874,0.005085746292024851,-0.003493065945804119,0.0026278719305992126
1772819343542441700,10.059441650390625,-0.0006690784357488155,-0.006722681224346161,-0.008057262748479843
1772819343552506400,10.06950634765625,-0.006251971237361431,0.0010573482140898705,-0.012945129536092281
1772819343562571500,10.079571533203126,-0.0061891209334135056,0.006393791176378727,-0.016539065167307854
1772819343572636700,10.08963671875,-0.0030630952678620815,-0.0012925248593091965,-0.021421752870082855
1772819343582700500,10.099700439453125,-0.0020625456236302853,-0.005000976379960775,-0.02109604887664318
1772819343592765700,10.109765625,-0.003364010713994503,-0.010288381949067116,-0.015904894098639488
1772819343602830300,10.119830322265624,-0.002881712280213833,-0.009864673018455505,-0.008617686107754707
1772819343612895500,10.1298955078125,-0.007116679102182388,-0.003977697342634201,-0.0037720189429819584
1772819343622959600,10.139959716796875,-0.008494066074490547,-0.0016498276963829994,-0.0050085242837667465
1772819343633024500,10.1500244140625,-0.007088414393365383,0.0001452770084142685,-0.007096902467310429
1772819343643089400,10.16008935546875,-0.005711826495826244,0.0033993935212492943,-0.008473491296172142
1772819343653154600,10.170154541015625,-0.0048226905055344105,0.00013566110283136368,-0.012018108740448952
1772819343663215000,10.180215087890625,-0.0014937389642000198,-0.0033152634277939796,-0.0072073740884661674
1772819343673280300,10.1902802734375,-0.00005628541111946106,-0.0037785563617944717,-0.0016206689178943634
1772819343683345200,10.20034521484375,0.0028292499482631683,-0.0009529432281851768,0.0028060374315828085
1772819343693410000,10.21041015625,0.004710712004452944,0.005611315369606018,0.011360982432961464
1772819343703474000,10.220473876953125,0.002879256382584572,0.0037172753363847733,0.012063790112733841
1772819343713539000,10.2305390625,0.006212619598954916,0.003016800619661808,0.009856491349637508
1772819343723604200,10.240604248046875,0.006191047839820385,0.0021009398624300957,0.0012867050245404243
1772819343733669000,10.250669189453125,0.0019145745318382978,-0.00022120308130979538,-0.007381012197583914
1772819343743733200,10.260733154296876,-0.002300410531461239,0.013878105208277702,-0.011873764917254448
1772819343753798100,10.270798095703125,-0.0103254783898592,0.03941342234611511,-0.016684330999851227
1772819343763863000,10.280863037109375,-0.005191169213503599,0.04521085321903229,-0.01616634614765644
1772819343773928200,10.29092822265625,-0.0072654373943805695,0.02518335171043873,-0.006641671527177095
1772819343783992000,10.300991943359374,0.004859935492277145,-0.002110052853822708,0.00847656186670065
1772819343794057200,10.31105712890625,0.012067979201674461,-0.012377073056995869,0.020043058320879936
1772819343804122000,10.3211220703125,0.005397559143602848,-0.013942479155957699,0.02367108128964901
1772819343814187000,10.33118701171875,0.0033828343730419874,-0.01236867718398571,0.017090387642383575
1772819343824251100,10.341251220703125,0.0022738941479474306,-0.004085181280970573,0.005636399146169424
1772819343834316000,10.35131591796875,-0.007929380051791668,0.007127720862627029,-0.008212572894990444
1772819343844381200,10.361381103515624,-0.01001862995326519,0.014404809102416039,-0.02339259162545204
1772819343854446000,10.371446044921875,-0.009123734198510647,0.010877820663154125,-0.033526621758937836
1772819343864510000,10.381510009765625,-0.007411055266857147,0.001156216487288475,-0.038273438811302185
1772819343874575000,10.3915751953125,-0.004856018349528313,-0.011573960073292255,-0.02434111200273037
1772819343884640300,10.40164013671875,0.004504726268351078,-0.01944919303059578,-0.01195315271615982
1772819343894705200,10.411705078125,0.00795104168355465,-0.02164863422513008,0.0009836363606154919
1772819343904769300,10.421769287109376,0.007464747875928879,-0.005269127897918224,0.012515123933553696
1772819343914834000,10.431833984375,0.00783858634531498,0.0044202497228980064,0.0074560372158885
1772819343924899000,10.441899169921875,0.00819997675716877,0.01196871418505907,0.0010482057696208358
1772819343934964200,10.451964111328126,0.004988939967006445,0.012823952361941338,-0.005162212997674942
1772819343945029000,10.462029052734374,0.007490979507565498,0.009733354672789574,-0.017157355323433876
1772819343955093200,10.47209326171875,0.0056923795491456985,0.003845406696200371,-0.023044539615511894
1772819343965158100,10.482158203125,0.0015306579880416393,-0.011260841973125935,-0.025946320965886116
1772819343975223000,10.49222314453125,-0.003237623255699873,-0.01359326858073473,-0.01838969811797142
1772819343985288200,10.5022880859375,-0.005889598745852709,-0.011042227037250996,-0.00884918961673975
1772819343995352000,10.51235205078125,-0.0018296842463314533,-0.00915547925978899,0.0006909549701958895
1772819344005417200,10.522417236328126,0.005038874689489603,-0.004511725157499313,0.006874815095216036
1772819344015482000,10.532482177734375,0.01162087731063366,0.0075646452605724335,0.01139606349170208
1772819344025547000,10.542547119140625,0.012423819862306118,0.013761820271611214,0.008401604369282722
1772819344035611100,10.552611083984376,0.011570100672543049,0.0030908361077308655,-0.0054194009862840176
1772819344045676300,10.56267626953125,0.009152216836810112,-0.0030155256390571594,-0.009213605895638466
1772819344055741200,10.5727412109375,0.009368907660245895,-0.006651042494922876,-0.0074636442586779594
1772819344065806000,10.58280615234375,0.014985248446464539,-0.0073400018736720085,-0.006571751553565264
1772819344075870000,10.592869873046874,0.015600770711898804,0.004443421959877014,-0.000878566293977201
1772819344085935000,10.60293505859375,0.022531114518642426,0.005724135786294937,-0.00782409030944109
1772819344096000300,10.613000244140625,0.014779298566281796,0.012766395695507526,-0.037670861929655075
1772819344106065200,10.623065185546874,0.014310582540929317,0.014240455813705921,-0.06730944663286209
1772819344116129300,10.63312939453125,-0.0005394886247813702,0.02021106146275997,-0.09778949618339539
1772819344126194200,10.643194091796875,-0.00675317645072937,0.005815079435706139,-0.11491681635379791
1772819344136259000,10.653259033203126,-0.01130666583776474,0.0015066899359226227,-0.10990806668996811
1772819344146324200,10.66332421875,-0.015299810096621513,0.0056923795491456985,-0.09553764760494232
1772819344156388000,10.67338818359375,-0.011801624670624733,-0.0022605545818805695,-0.07361416518688202
1772819344166453200,10.683453369140626,-0.009149381890892982,0.018391726538538933,-0.05967544764280319
1772819344176518100,10.69351806640625,-0.004643924999982119,0.03454369679093361,-0.026784176006913185
1772819344186583000,10.7035830078125,-0.00534620089456439,0.03094283491373062,-0.003738245228305459
1772819344196647200,10.713647216796875,0.0013951710425317287,0.02562820166349411,0.021525736898183823
1772819344206712300,10.72371240234375,0.0019871918484568596,0.017230190336704254,0.04317377507686615
1772819344216777000,10.73377685546875,0.007714086212217808,0.006911640986800194,0.058178097009658813
1772819344226842000,10.743842041015625,0.011271269991993904,-0.005035300273448229,0.060170672833919525
1772819344236906000,10.753906005859376,0.01434844359755516,-0.0033279182389378548,0.059817101806402206
1772819344246971100,10.76397119140625,0.0031399973668158054,0.012844925746321678,0.0471993125975132
1772819344257036300,10.774036376953125,-0.0034519685432314873,0.023980438709259033,0.023406509310007095
1772819344267101000,10.784100830078126,-0.0063329762779176235,0.01614115759730339,0.001049538841471076
1772819344277166000,10.794166015625,-0.0054969266057014465,0.0029408643022179604,-0.011179964989423752
1772819344287230000,10.80422998046875,-0.004710761830210686,-0.014628009870648384,-0.015185092575848103
1772819344297295000,10.814295166015626,-0.0020265616476535797,-0.044002942740917206,0.00033314700704067945
1772819344307360300,10.8243603515625,0.0124450558796525,-0.0478256456553936,0.03715774044394493
1772819344317425000,10.8344248046875,0.01954062655568123,-0.07455369085073471,0.07589944452047348
1772819344327489000,10.844489013671875,0.025671489536762238,-0.11977043747901917,0.0899481475353241
1772819344337554200,10.85455419921875,0.03556286543607712,-0.12942387163639069,0.08218394964933395
