time,seconds_elapsed,z,y,x
1772797337110514700,0.0935146484375,0.2515051560848951,0.48901905008777974,1.0783942250244318
1772797337120540700,0.103540771484375,0.232348035672307,0.34208814800344406,0.9312465383842586
1772797337130566700,0.113566650390625,-0.12395137383937835,0.6498201451577246,0.8293447915285825
1772797337140592600,0.123592529296875,-0.11092764161527156,0.6370563059788197,0.6895194106005131
1772797337150619000,0.133618896484375,-0.15755203014612196,0.4892880032222718,0.8490995855733752
1772797337160644900,0.143644775390625,-0.2195610348135233,0.5525843808190897,1.045107164711505
1772797337170670800,0.1536708984375,-0.2329939323604107,0.6034478682244196,1.0611934993766248
1772797337180696800,0.16369677734375,-0.27564357204139234,0.4666316425170749,0.9566522708628326
1772797337190721800,0.1737216796875,-0.10101648845374583,0.27320048973821104,0.9097632400464266
1772797337200747800,0.183747802734375,0.15968553504347802,0.1919393067859113,0.9251215526979416
1772797337210773800,0.193773681640625,0.3412701826840639,0.20415274554044008,1.021968281186372
1772797337220799700,0.2037998046875,0.501544915792346,0.14118658627867697,1.1034136615991592
1772797337230825700,0.21382568359375,0.594789601200819,0.01468852363117039,1.1446205551259219
1772797337240851700,0.223851806640625,0.722919137507677,-0.09180369281992316,1.2790830938465894
1772797337250877700,0.233877685546875,0.8105155878961086,0.13123751225955785,1.2087714671928436
1772797337260903700,0.243903564453125,1.0777660101234912,0.028790333415567873,1.2253379135251043
1772797337270929700,0.2539296875,1.1717507002443075,-0.03649206689931452,1.2623029316984116
1772797337280956000,0.263955810546875,1.0151005873739718,-0.21715872291214763,1.3170406301885842
1772797337290980600,0.273980712890625,0.7426011585772037,-0.24620193511024116,1.3672867163479328
1772797337301006800,0.2840068359375,0.5626525877058506,-0.2366376226250082,1.3862044750466942
1772797337311032800,0.29403271484375,0.5017372234940528,-0.27380539682880045,1.4020260212957858
1772797337321058800,0.304058837890625,0.5649240397691726,-0.23366372138075528,1.482430660483986
1772797337331084800,0.314084716796875,0.4288485128939151,-0.026942805852741003,1.4227802016414701
1772797337341110800,0.32411083984375,0.4020972840905189,0.1770312221199274,1.1419305853895843
1772797337351136800,0.33413671875,0.8322539569735526,0.2882425760474056,1.4576321731835602
1772797337361161700,0.34416162109375,0.9367705625027417,-0.1347640058852732,1.398901751795411
1772797337371187700,0.354187744140625,0.9865157134026289,-0.3181139096327126,1.2686141606718302
1772797337381212700,0.364212646484375,0.7961766814202069,-0.2937398582894355,1.3448365457393228
1772797337391238700,0.37423876953125,0.6282751066952943,-0.2573217334091663,1.342110481776297
1772797337401264600,0.3842646484375,0.644338937267661,-0.5876080191336572,1.5214913357622921
1772797337411290600,0.39429052734375,0.8444599430739879,-0.6665732731685042,1.2287119200028478
1772797337421316600,0.404316650390625,1.07500823584795,-0.4521574922889471,1.129575546207279
1772797337431342600,0.414342529296875,0.9925707756578922,-0.3132023913893848,0.9037130731619893
1772797337441368600,0.42436865234375,0.8640116157621145,-0.3099555184226483,0.7797584844522177
1772797337451394800,0.434394775390625,0.6576853255748748,-0.3071162033434957,0.7195831249527633
1772797337461420800,0.4444208984375,0.44608547889888284,-0.4214472967267036,0.635961569544673
1772797337471446800,0.45444677734375,0.46470542369484896,-0.4199289280530065,0.4648549151681363
1772797337481472800,0.46447265625,0.5649000743716955,-0.28125461685620246,0.26281185525804757
1772797337491497700,0.474497802734375,0.48143970087468624,-0.3097031510967761,0.23650018691569566
1772797337501523700,0.484523681640625,0.2845493475526571,-0.47423656456284224,0.2424101416118443
1772797337511549700,0.4945498046875,0.29601474441885944,-0.5629991361211985,0.2320632273815572
1772797337521575700,0.50457568359375,0.21140403184294698,-0.4196069295570254,0.012633563862740992
1772797337531601700,0.5146015625,0.027725042271614073,-0.23209442623741924,-0.1635531702570617
1772797337541627600,0.524627685546875,-0.6712450643718242,-0.3408185664590448,0.050104120405390855
1772797337551653600,0.534653564453125,-1.4924819527685642,-0.47719176110662515,0.40788755792975423
1772797337561679600,0.5446796875,-1.983829299673438,-0.8102623437874019,0.6681942984990775
1772797337571705600,0.55470556640625,-0.8302788575083017,-0.6429794124174862,0.3717032418053597
1772797337581731800,0.56473193359375,-0.45365912902355193,-0.6929008697323501,1.353051708637923
1772797337591756500,0.574756591796875,-1.4196335741788149,-0.5571325821753591,1.949869162404537
1772797337601782800,0.58478271484375,-2.293327210521698,-0.27998079752810295,2.1931883816853164
1772797337611808800,0.594808837890625,-2.5056828440010546,0.18151194773055612,1.3080886774480343
1772797337621834800,0.604834716796875,-1.1099866102486848,1.0804995998058466,0.0009388882853090763
1772797337631860700,0.61486083984375,0.7361252405613661,1.6975792856827376,-0.9182545164726674
1772797337641886700,0.62488671875,1.20727443356812,0.7192670447409153,-0.5302142531767488
1772797337651912700,0.63491259765625,1.1038748493701218,-0.29934549627676604,-0.3214604435816407
1772797337661938700,0.644938720703125,0.6638491089016199,-0.7621462553940713,0.32378932492062446
1772797337671964700,0.654964599609375,-0.331275442892313,-0.5681251738980412,1.3134214167781173
1772797337681990700,0.66499072265625,-1.4461492406606673,0.24025851653590796,1.8062784375935792
1772797337692015600,0.675015625,-2.3371441404163837,1.0043221498586237,1.4009315040573478
1772797337702041600,0.68504150390625,-2.834842317652702,0.09153883133865892,0.8907715393286197
1772797337712067600,0.695067626953125,-2.234227955821156,-0.4704483512610197,1.4783673565678297
1772797337722093600,0.705093505859375,-1.7766630515307187,-0.6887304521799087,1.8011571490570901
1772797337732119800,0.715119873046875,-1.6438070712238548,-0.1954556443437934,1.6806272740989923
1772797337742145800,0.725145751953125,-1.4627730432033539,1.3471398542456328,1.4907453382343052
1772797337752171800,0.735171875,-0.9225894769370555,1.4048860869020223,1.573065309524536
1772797337762197800,0.74519775390625,-0.159568046143651,1.1268684061404317,1.7645742620691656
1772797337772223700,0.7552236328125,0.340275910949707,1.5490613336026668,1.822667700728029
1772797337782249700,0.765249755859375,1.112112516361475,1.5138647864066064,1.7308511484265325
1772797337792275700,0.775275634765625,1.1352221737921238,1.2339404683060944,1.7760221232786773
1772797337802300700,0.78530078125,0.7623644281893968,1.1629388866268098,1.93697636308372
1772797337812326700,0.79532666015625,0.07697510313093661,1.247871524633467,2.118165873926878
1772797337822352600,0.8053525390625,-0.6975374434918165,1.194282557787001,2.456459086626768
1772797337832378600,0.815378662109375,-1.0354396110475064,1.132102726597339,2.482914255093038
1772797337842404600,0.825404541015625,-0.7065010866701602,1.5135885998137295,2.2003239326536654
1772797337852430600,0.8354306640625,0.22478549146354196,1.3773252952814101,1.5081415864542125
1772797337862456800,0.845456787109375,1.2838053000628948,1.2314723246268928,0.6486085774108767
1772797337872482800,0.85548291015625,1.3245698566496371,1.8865103505633771,0.12022219724841415
1772797337882508800,0.8655087890625,1.3960726658493279,1.9233676705785094,0.11985584815405309
1772797337892534800,0.87553466796875,1.0534534066438674,1.9194306233905254,0.13239062781743705
1772797337902560800,0.885560791015625,0.6099889238983393,2.0585665607497097,0.6065959935244173
1772797337912586800,0.895586669921875,0.5379617985635996,1.9082343988545238,0.670580243787542
1772797337922611700,0.90561181640625,0.8254565519183874,2.1286614028476176,0.886134161851555
1772797337932637700,0.9156376953125,1.6145570113420487,1.561351198594272,1.046586954940483
1772797337942663700,0.92566357421875,1.3186802140891551,0.012078560328483581,1.4822975356236099
1772797337952689700,0.935689697265625,0.2944885577648878,-0.7117030392274261,1.288916651727259
1772797337962715600,0.945715576171875,0.8038233967810868,-0.985243501509726,1.1309061372239142
1772797337972741600,0.95574169921875,1.4227753793358802,-1.261539253849536,1.2707003192961215
1772797337982767600,0.965767578125,1.8138380591928958,-1.9315889709569514,0.9085311409682035
1772797337992793900,0.9757939453125,2.041233440893888,-2.8838965636789795,0.6322065278600901
1772797338002819800,0.98581982421875,1.4629209272414445,-3.663770929595828,0.782932803639397
1772797338012845800,0.995845703125,1.2240163095325232,-3.2106884314164517,1.018919561140239
1772797338022871800,1.005871826171875,0.5237713606476784,-2.9757693762123583,1.465174551387131
1772797338032897800,1.015897705078125,-0.2656692905157804,-2.6497484928473827,1.063747421643138
1772797338042922800,1.0259228515625,-0.3359247300028801,-1.643448759305477,0.6767644123151898
1772797338052948700,1.03594873046875,0.4469067321538925,-1.3256860011979936,1.2174703950203953
1772797338062974700,1.045974609375,0.9656640640318394,-1.591840152621269,1.791487403436005
1772797338073000700,1.056000732421875,0.9772533795386552,-1.2123183460194618,1.4350019698329268
1772797338083026700,1.066026611328125,0.8035697142809629,-0.832847758148238,1.1042647254705429
1772797338093052700,1.076052734375,0.3176613435596227,-0.7971453072566539,0.7258287413440644
1772797338103078700,1.08607861328125,-0.05415770664513111,-0.7585163744591176,0.6627991614572704
1772797338113104600,1.096104736328125,0.033386136773228645,-0.5529322809413075,0.9892083134874701
1772797338123131000,1.106130859375,0.16363865658342838,-0.4306514706626534,1.2107646137714385
1772797338133156900,1.116156982421875,0.19533786318302154,-0.26500030521303414,1.240024756655842
1772797338143182800,1.126182861328125,-0.11653262201547622,-0.12065817751288413,1.467248727312684
1772797338153208800,1.136208740234375,-0.21428455571532248,-0.2137526407957077,1.7140756624534725
1772797338163233800,1.14623388671875,-0.018998130458593367,-0.4151710660014301,1.9663865819633006
1772797338173259800,1.156259765625,0.14710603945553302,-0.4695226877834648,2.216111722763628
1772797338183285800,1.16628564453125,0.27194822465479374,-0.23507176154777407,1.646170000962913
1772797338193311700,1.176311767578125,-0.9545242458581924,0.15643573946729303,1.4417156421273947
1772797338203337700,1.186337646484375,-2.3590695564985276,-0.5309386219285428,1.1204857924312353
1772797338213363700,1.19636376953125,-2.9129309349834918,-1.4458335988402367,1.2628098583072422
1772797338223389700,1.2063896484375,-3.1017104625642298,-1.4441595281481743,1.7225085597559808
1772797338233415700,1.216415771484375,-2.929400423747301,-0.9958459979362785,1.7136834482654928
1772797338243441700,1.226441650390625,-2.590507491588592,-0.7618067212413996,1.4771888143077492
1772797338253468000,1.236468017578125,-2.2333213623702526,-0.5590519328653812,1.1032020646750926
1772797338263494000,1.246493896484375,-1.922216600847244,-0.48177346287369727,0.8850152408242226
1772797338273519900,1.256519775390625,-1.7984955286324023,-0.5979301642488688,0.8325821660146117
1772797338283545900,1.2665458984375,-1.7154694548994303,-0.4170954581927508,1.010413890862465
1772797338293570800,1.27657080078125,-1.4955290653795004,-0.04350282244421541,1.290576986154914
1772797338303596800,1.2865966796875,-1.8449580045998095,-0.037849618988111615,2.163280150155723
1772797338313622800,1.296622802734375,-2.1915900065779685,-0.1768685789041221,2.345778113248944
1772797338323648800,1.306648681640625,-1.413961958283186,-0.2205657548766583,2.4147768306732176
1772797338333674800,1.3166748046875,-0.5927244853645562,0.9334350614044815,1.5686507079526781
1772797338343700700,1.32670068359375,0.13548691333234308,1.294385876918584,0.837762491261959
1772797338353727500,1.3367275390625,0.034758594170212744,0.5485979780640453,1.0845163611665367
1772797338363753500,1.34675341796875,-0.8143570657551288,0.4125711126361042,1.679909773479402
1772797338373779500,1.356779541015625,-1.3802186786353587,0.9092587976556271,1.2979869701504707
1772797338383805400,1.366805419921875,-2.7471190260142087,1.263213178411126,2.3178435198798772
1772797338393831400,1.37683154296875,-2.8932758019208906,0.8960985065050423,3.5744054237082596
1772797338403857700,1.386857666015625,-2.2035984242796895,1.0569340153012423,3.0621281014993786
1772797338413883600,1.396883544921875,-1.1128741483837366,1.386494105643034,2.5459265915840863
1772797338423909600,1.40690966796875,-0.29443361270725726,1.0546034534618258,2.5950635474577544
1772797338433934600,1.4169345703125,0.45175358766317364,0.8092802008822559,2.4681366649389265
1772797338443960600,1.426960693359375,0.8576835817843675,0.7793062106400728,2.0486805420294405
1772797338453986600,1.436986572265625,0.8080500745654106,0.7703286850668489,1.758905568782985
1772797338464012500,1.447012451171875,0.6493313387274742,0.7461245103977621,1.6904855280295012
1772797338474038500,1.45703857421875,0.6137310330361128,0.718116340335831,1.5440379524827001
1772797338484064500,1.467064453125,0.7842915978372097,0.5964825227238237,1.4629060219332575
1772797338494090500,1.477090576171875,0.8256225561350583,0.4337242291714996,1.3294281103357672
1772797338504116500,1.487116455078125,0.6837737065553665,0.2552555946595967,1.2509092848941683
1772797338514142500,1.497142578125,0.3040998511970043,0.20744966819398103,1.151105971622467
1772797338524168400,1.50716845703125,-0.25390052678883074,0.1007529421467334,1.0041682744711637
1772797338534194700,1.517194580078125,-0.5256055903375149,0.07231938627958297,1.0602055112525821
1772797338544220700,1.527220703125,-0.6847229701042175,0.04535473392121494,0.992837609900534
1772797338554246700,1.53724658203125,-0.6149672968327998,-0.012913184521719813,0.9244646231591701
1772797338564272600,1.547272705078125,-0.4226473201662302,0.08711991891786455,0.8424073944583534
1772797338574298600,1.557298583984375,-0.4010995052248239,0.19900281543135642,0.8211717142060398
1772797338584323600,1.567323486328125,-0.29659166752398014,0.5678352510407567,0.829694335618615
1772797338594349600,1.577349609375,-0.3986854298204183,0.749946845164895,0.8493547293782233
1772797338604375600,1.58737548828125,-0.767858349430561,0.8898553743317723,0.824336315716803
1772797338614401500,1.597401611328125,-1.058791845062375,0.8600976571887731,0.6162561675995588
1772797338624427500,1.607427490234375,-0.9745224932700395,0.6544295386493205,0.5381237111270427
1772797338634453500,1.61745361328125,-0.7830196782052516,0.37639815815594047,0.5945262740895152
1772797338644479500,1.6274794921875,-0.7195984686523675,0.2683640460250899,0.5965297228664159
1772797338654505500,1.63750537109375,-0.8187965095072984,0.02366977553144097,0.5795183823108673
1772797338664531700,1.64753173828125,-1.0663064584761857,-0.09046195935476571,0.47640842870920896
1772797338674557700,1.6575576171875,-1.3384978442370892,-0.2679455648846924,0.2535088971227407
1772797338684583700,1.667583740234375,-1.2387380778461694,-0.4275122593214735,0.10146423222124576
1772797338694609700,1.677609619140625,-0.7142652909308671,-0.4909774176139384,0.21857056247144938
1772797338704635600,1.6876357421875,0.026115853509306907,-0.47959896837882693,0.3894587517917156
1772797338714661600,1.69766162109375,0.6674900957524776,-0.16902897131964564,0.3849295839294791
1772797338724686600,1.7076865234375,1.201994447338581,0.16741875964403152,0.45676206347495313
1772797338734712600,1.717712646484375,1.685575836417079,0.46529403723776336,0.6165200792327523
1772797338744738600,1.727738525390625,2.082184459963441,0.8087884718425572,0.8108671778127551
1772797338754764500,1.7377646484375,2.303348838320374,1.1836229243457317,1.0058617805160581
1772797338764790500,1.74779052734375,2.4016636665999886,1.46627272188738,1.1889091941855847
1772797338774816500,1.75781640625,2.7448937511801716,1.4847715245217084,1.277102003031969
1772797338784842500,1.767842529296875,2.2988374983757733,1.481318461458385,1.464345553217083
1772797338794868700,1.77786865234375,2.3143472021967173,1.588247534956783,1.2639205960281192
1772797338804894700,1.787894775390625,2.314485149362683,1.5947399657160042,1.0539563877299427
1772797338814920700,1.797920654296875,1.9960949070066212,1.5317404887065291,0.8731595294661819
1772797338824946700,1.80794677734375,1.9767419717609882,1.4191126190446317,0.6764587073668837
1772797338834972700,1.81797265625,1.8648481154620646,1.2636150372102857,0.35932810968309636
1772797338844998700,1.82799853515625,1.63257022241652,1.0363068954013288,0.08256342465728521
1772797338855024600,1.838024658203125,1.2599223201721905,0.7421911164715885,-0.19921821174770593
1772797338865050600,1.848050537109375,1.0082657729178666,0.359079834010452,-0.5034279530599713
1772797338875075600,1.85807568359375,0.6545452739834785,0.04393626369172707,-1.0386229172587393
1772797338885101600,1.8681015625,0.24447101966440676,-0.3996449955675751,-1.3459049056231975
1772797338895127600,1.87812744140625,-0.21760171743929385,-1.036864675414562,-1.5610373103395103
1772797338905153500,1.888153564453125,-1.1231646562516688,-1.4440486151196061,-1.8050623398020862
1772797338915179500,1.898179443359375,-1.991692288133502,-1.615072851909697,-1.8828999049812554
1772797338925205800,1.908205810546875,-2.4723405463695522,-1.9184685003601014,-1.460963655693829
1772797338935231700,1.918231689453125,-2.6117384956657883,-2.289328788535297,-0.8353954698696732
1772797338945257700,1.9282578125,-2.806156321394443,-2.4441736055493353,-0.3660534724153578
1772797338955283700,1.93828369140625,-3.0185522868841885,-2.4260844066292044,-0.014793956767022609
1772797338965309700,1.948309814453125,-3.1459365577816962,-2.271687041121721,0.38175738363415
1772797338975335700,1.958335693359375,-3.025513358068466,-2.1160311999857426,0.7513985052779316
1772797338985361700,1.968361572265625,-2.8159488166123627,-2.0418372520059345,0.954552887430787
1772797338995387600,1.9783876953125,-2.877845593076944,-1.9547703784495591,0.8298527410507202
1772797339005413600,1.98841357421875,-3.1805186263412235,-1.8101487031556664,0.4705933126896619
1772797339015439600,1.998439697265625,-3.6256378905564546,-2.0400888009034097,-0.3528103983521461
1772797339025465600,2.008465576171875,-3.2118846554636953,-2.662348446701467,-1.2887497707277535
1772797339035490600,2.018490478515625,-1.4160089539408682,-2.828330159279704,-1.5466075107097625
1772797339045516500,2.0285166015625,0.326806773045659,-2.1188918501138687,-1.5927854706473648
1772797339055542800,2.038542724609375,1.3687088581055402,-1.6227978932037948,-0.5571016755804419
1772797339065568800,2.04856884765625,1.181410508993268,-0.8292205806270241,0.6583981500193476
1772797339075594800,2.0585947265625,0.1579337229400873,0.11181026966869831,1.4295267532922327
1772797339085620700,2.068620849609375,-0.9131593852907419,0.6353145768780261,1.9438563318558035
1772797339095646700,2.078646728515625,-1.8918711469441651,0.8233933357782661,2.4794167683660984
1772797339105672700,2.088672607421875,-2.6124194636672735,1.1504189392063766,2.451534635836631
1772797339115698700,2.09869873046875,-2.4315993706583976,1.2583952567353844,2.31124572905004
1772797339125724700,2.108724609375,-1.5358645828992128,1.2236329362381249,2.2707452302269635
1772797339135750700,2.118750732421875,-0.29944764147698877,1.165986437629163,2.189796401159465
1772797339145776400,2.1287763671875,0.8530489077210426,1.1520751089155674,1.9773478286996482
1772797339155802600,2.138802734375,1.7351017916083336,1.1956373333968222,1.7160104299083352
1772797339165828600,2.14882861328125,2.5850463035732507,1.341259710165858,1.43823656783998
1772797339175854600,2.1588544921875,3.1296471017599106,1.3915795922137797,1.2833775761701165
1772797339185879800,2.1688798828125,3.431730352437496,1.3660538135521114,1.239676089348644
1772797339195905800,2.17890576171875,3.590591711616516,1.3432289644122124,1.1363812806993723
1772797339205931800,2.188931884765625,3.566297812837362,1.389770643095672,1.063591792690009
1772797339215957800,2.198957763671875,3.5807360880345103,1.3216209437161683,1.0103582151524721
1772797339225983700,2.208983642578125,3.3877994407743213,1.327113988174498,0.839252729819715
1772797339236009500,2.219009521484375,3.0052766257256267,1.3692029252327977,0.7474525441311299
1772797339246035500,2.229035400390625,2.61212720272243,1.3762220102146268,0.6840839415483176
1772797339256061400,2.2390615234375,2.1800492063879964,1.2655769849330185,0.4701191923718899
1772797339266087400,2.24908740234375,1.369291041907668,1.0150885316099971,0.16072284220196306
1772797339276113400,2.259113525390625,0.22698095568120477,0.7796348580725491,-0.12138970665782689
1772797339286139600,2.2691396484375,-0.87718673915565,0.7000417544629425,-0.26501024208515883
1772797339296165600,2.27916552734375,-1.6445663651585578,0.7040159918561577,-0.16583178271353244
1772797339306191600,2.289191650390625,-2.1957868737459183,0.7787707885891199,0.05993088321909308
1772797339316217600,2.299217529296875,-2.7902643402576444,0.8512583710424602,0.1843526510491967
1772797339326243600,2.30924365234375,-3.410912020814419,0.7851612202785909,0.15290055107846856
1772797339336269600,2.31926953125,-3.4450720645695925,0.472649185773544,0.14387071079611777
1772797339346295600,2.329295654296875,-2.8206775986999273,0.11936342499461024,0.3135167911008
1772797339356320300,2.3393203125,-1.9465356340676545,-0.2832797477419488,0.5356466534890234
1772797339366346200,2.34934619140625,-1.0264765523910522,-0.6168884741537273,0.685773940461874
1772797339376372200,2.359372314453125,-0.5720546223014593,-0.8383341536700725,0.7784823270365595
1772797339386398000,2.36939794921875,-0.296177826026082,-1.0818426119126379,0.924499256081134
1772797339396424200,2.379424072265625,0.1125420910745859,-1.0871234749250114,0.9520102172106504
1772797339406450200,2.3894501953125,0.36146249136328695,-1.095423101236671,0.9814607681006192
1772797339416476200,2.39947607421875,0.7365987032920122,-1.2944044354885815,1.2107865333423018
1772797339426502100,2.409502197265625,1.1355600274443625,-0.9578368044722825,1.049599361564219
1772797339436528000,2.419528076171875,0.7604238155156373,-0.7328415427155792,0.9895862068891524
1772797339446554000,2.42955419921875,0.3866536312431097,-0.8352947859741747,1.1883009991593658
1772797339456580000,2.439580078125,0.005292845711112022,-1.0033633878290653,1.260066989339888
1772797339466606000,2.449606201171875,0.02335983279943466,-0.793375360263884,1.2570038023769854
1772797339476632000,2.459632080078125,-0.13216858256459235,-0.6260016088053584,1.0683731817476452
1772797339486658000,2.469657958984375,-0.4424871621459722,-0.5707428821157664,1.1577714208610355
1772797339496684000,2.47968408203125,-0.4615221174836158,-0.530072945009917,1.1806921315908432
1772797339506710300,2.489710205078125,-0.4694008880347013,-0.4419976250633597,1.0033063969448208
1772797339516735000,2.49973486328125,-0.4617430667579174,-0.4460344062987715,0.9181012256070971
1772797339526761200,2.50976123046875,-0.2913894227057695,-0.40707076165415346,0.9657749770604074
1772797339536787200,2.519787109375,-0.15420330424010753,-0.18845950184613466,0.8230911379612982
1772797339546813200,2.529813232421875,-0.1295651220679283,-0.002938539953215513,0.7614062506817281
1772797339556839200,2.539839111328125,-0.2544038001358509,0.03503719191588461,1.0004377096407115
1772797339566865200,2.549865234375,-0.38988720633685586,0.018097382226586342,1.2246832490086554
1772797339576891100,2.55989111328125,-0.38408816466927526,0.12325425842069089,1.2826589065067469
1772797339586917000,2.569917236328125,-0.41324996174573897,0.25464608445912595,1.1170936657749115
1772797339596943000,2.579943115234375,-0.3871709331154823,0.686298987249285,0.8489655839301645
1772797339606969000,2.589968994140625,0.14819558825790882,0.7857108900506049,0.5230518142014742
1772797339616995000,2.5999951171875,0.8132903133064507,0.14988439986137672,0.6452056370995939
1772797339627021000,2.61002099609375,1.322380237650871,0.007309665426239371,0.5514760907836258
1772797339637047300,2.62004736328125,1.5976643287301062,0.22924455323163417,0.12590280016809702
1772797339647073300,2.6300732421875,1.4271668922930956,0.16611553155835718,-0.10462971051484346
1772797339657099300,2.640099365234375,0.9667465985715389,0.19726674888636916,-0.4052747450828552
1772797339667125200,2.650125244140625,0.5874632038354873,-0.036170762523077424,-0.20642025208100676
1772797339677151200,2.660151123046875,0.8528332191437482,0.08003083743974566,-0.30634003133922816
1772797339687176200,2.67017626953125,0.40275019504129883,-0.05343118246886879,-0.422809817251563
1772797339697202200,2.6802021484375,0.013425883284211158,-0.15557481178902088,-0.34314883603751656
1772797339707228200,2.690228271484375,-0.34234219582974906,-0.1671370931584388,-0.3072856416262686
1772797339717254100,2.700254150390625,-0.4264449588835239,-0.33271702000275255,-0.16301614077091217
1772797339727280000,2.710280029296875,-0.3505494676828384,-0.4424261526737362,-0.20010157045349478
1772797339737306000,2.72030615234375,-0.5793032782554626,-0.2739495180072263,-0.47779622980579733
1772797339747332000,2.73033203125,-0.8284183243334293,-0.22706381165906786,-0.6206359901189804
1772797339757358000,2.740358154296875,-1.0315531250029801,-0.4336251527111977,-0.6437094071924686
1772797339767384300,2.75038427734375,-1.0744576162278652,-0.6848243846520781,-0.6721881904408336
1772797339777410300,2.760410400390625,-1.0572691655397415,-0.8880326889492571,-0.6358708225212991
1772797339787436300,2.770436279296875,-1.122750230231881,-1.068985906818509,-0.5633277104884385
1772797339797462300,2.780462158203125,-1.140169567066431,-1.1678656024392693,-0.6403735407680272
1772797339807488300,2.79048828125,-0.8241156587034464,-1.2300453605636954,-0.8368971066042781
1772797339817514200,2.80051416015625,-0.6030991643846034,-1.4218790150180458,-0.9076669253543018
1772797339827540200,2.810540283203125,-0.9673568394243717,-1.611091088797152,-0.8527139766782522
1772797339837566200,2.820566162109375,-1.241659518250823,-1.7600664292559027,-0.7515294381812214
1772797339847592200,2.83059228515625,-1.7258283518284558,-1.8435270950138567,-0.514336885087192
1772797339857617200,2.8406171875,-2.3066946416169403,-1.7854297108322381,-0.14931173280626533
1772797339867643100,2.85064306640625,-2.7989100035279986,-1.6361719001702963,0.2811826475985348
1772797339877669000,2.860669189453125,-3.1604718636125324,-1.3068414538659154,0.7433262579813599
1772797339887695000,2.870695068359375,-3.1633032876461744,-0.9664268650978803,1.2386185431197285
1772797339897721300,2.880721435546875,-2.7444635430693625,-0.5958804651774465,1.8998340886473655
1772797339907747300,2.890747314453125,-2.1700322547644375,-0.2893255489785224,2.5923966663360596
1772797339917773300,2.900773193359375,-1.1204156498044728,-0.08084558788873254,3.1207009942382573
1772797339927799300,2.91079931640625,0.03442658573687076,-0.023963205520063636,3.5054847399562594
1772797339937825300,2.9208251953125,1.0163374356925488,-0.05614164700396359,3.5890050269469618
1772797339947851300,2.930851318359375,1.882162238356471,-0.07467026025466621,3.288896583473682
1772797339957877200,2.940877197265625,2.518129068598151,-0.1388772864229977,2.9289111789256332
1772797339967903200,2.9509033203125,2.849921813362837,-0.2350849863555282,2.688471606734395
1772797339977929200,2.96092919921875,2.8349481161147354,-0.32304457096792755,2.431676527547836
1772797339987955200,2.970955078125,2.5283991181999443,-0.3549548630349338,2.1773487152576445
1772797339997981200,2.980981201171875,2.1576187633931636,-0.3136064421456307,1.927832394902408
1772797340008007200,2.991007080078125,1.7230577180713413,-0.12439487982317804,1.6340575383648275
1772797340018033200,3.001033203125,1.3403893570721148,0.13833594608791172,1.1494999977305531
1772797340028058400,3.011058349609375,1.0763847848981618,0.4021092667892575,0.7300520581275224
1772797340038084400,3.02108447265625,0.6483212849020957,0.6817747878231107,0.44347149700820443
1772797340048110300,3.0311103515625,-0.11856734271347522,1.0114600389145314,0.19876023884713648
1772797340058136300,3.04113623046875,-0.7459159822136163,1.341420161424577,0.026826924388110636
1772797340068162300,3.051162353515625,-1.3040806108504532,1.847091655627638,-0.1990121677815914
1772797340078188300,3.061188232421875,-2.553726451680064,2.5896529205858707,-0.47710780915021894
1772797340088214300,3.07121435546875,-1.789654050529003,2.692224821788072,-0.26658757440447806
1772797340098240300,3.081240234375,-1.5904928296655416,1.7911232462987303,0.6309867037415504
1772797340108266200,3.091266357421875,-1.666341559115052,0.554962325464189,1.6057324843734502
1772797340118292000,3.1012919921875,-1.126040503948927,0.19443335209134965,1.8735192054346204
1772797340128318200,3.111318115234375,-0.35067046371400357,0.32303938333615656,1.6517346493527292
1772797340138344200,3.12134423828125,0.2976473140567541,0.5217305024698377,1.3263389121487736
1772797340148370200,3.1313701171875,0.6732470518440008,0.6031661286735907,1.162493919338286
1772797340158396200,3.141396240234375,0.9462608599036931,0.4312677028648555,1.0722586448788642
1772797340168422100,3.151422119140625,1.1526678141117095,0.09190832223817706,1.074125900055468
1772797340178448100,3.1614482421875,1.2599836949706076,-0.2820866107009351,1.068096556763351
1772797340188474000,3.17147412109375,1.59730309420228,-0.6910204628132284,1.2489607811748982
1772797340198499300,3.181499267578125,2.145257294470072,-1.1779847723282872,1.4933987753525375
1772797340208525000,3.191525146484375,2.6141473103731867,-1.368836283877492,1.4559887898907065
1772797340218551000,3.201551025390625,2.8104461275428534,-1.2625561758071184,1.1562950646981596
1772797340228577000,3.211576904296875,3.181282011929154,-1.29954077546373,0.5256510369144379
1772797340238603000,3.22160302734375,3.0066391462504862,-1.3567257209755479,-0.22218816844671962
1772797340248629000,3.23162890625,1.7422978405922651,-1.0785768150497228,-0.8976613719075918
1772797340258655200,3.2416552734375,0.46256373549103735,-0.8015719645924866,-0.8324591241568327
1772797340268681200,3.25168115234375,-0.4483347191303968,-0.7180663637142628,-0.35749563355892894
1772797340278707200,3.261707275390625,-1.0438631559997797,-0.7350804076835513,-0.53055225295946
1772797340288733200,3.271733154296875,-1.4033341812849045,-1.0029039536237716,-0.7296510761111974
1772797340298759200,3.28175927734375,-0.9539800559788941,-1.3743964022226631,-0.6327616044595837
1772797340308785200,3.29178515625,-0.39636195530891416,-1.4875482957586645,-0.49995837725326414
1772797340318811100,3.30181103515625,-0.004748655831813812,-1.3855302290469407,-0.31244623925983905
1772797340328837000,3.311837158203125,0.5600467891216278,-1.220940116957575,0.19235066406577825
1772797340338863000,3.321863037109375,0.8227613214850426,-1.1389800650209188,0.7874120679453015
1772797340348889000,3.33188916015625,0.8079495368003845,-1.1741347458366305,1.1925457971222697
1772797340358915300,3.341915283203125,0.6974491806864738,-1.2088972855295985,1.145534455100447
1772797340368940300,3.351940185546875,-0.3911901056289673,-1.0104176171895116,0.5633423235356807
1772797340378966300,3.36196630859375,-2.558588504758477,-0.7001911728709935,-0.0982213778425008
1772797340388992300,3.3719921875,-3.249752321565151,-0.7073780156351626,-0.19280571435689925
1772797340399018200,3.382018310546875,-3.523160681900382,-0.7355253749720752,-0.32669315660335124
1772797340409044200,3.392044189453125,-3.319331469225883,-0.6204562496379017,-0.30176344413869083
1772797340419070200,3.4020703125,-2.3991636664777993,-0.49673247400932014,-0.09286803411580621
1772797340429096200,3.41209619140625,-2.0287053832322357,-0.44027518518492575,-0.03105374830290675
1772797340439122200,3.4221220703125,-2.0955513065367937,-0.29152620082795616,-0.1483196530289948
1772797340449148200,3.432148193359375,-1.7851619998067616,-0.225562174924463,-0.17733400445878506
1772797340459174100,3.442174072265625,-1.3543781349360942,-0.2957004908379167,-0.19578224594965576
1772797340469200100,3.4522001953125,-1.1854682599514723,-0.3748335026551038,-0.21933833197355268
1772797340479226400,3.462226318359375,-1.1761276001542806,-0.43709494771361346,-0.09428703406825661
1772797340489252400,3.47225244140625,-1.0674369238108397,-0.4273696725130081,0.10863631580770015
1772797340499278300,3.4822783203125,-0.8732096522182226,-0.42780762553885576,0.14541121823638678
1772797340509304300,3.49230419921875,-0.7223340310961007,-0.38630649830587205,-0.04989537302553653
1772797340519330300,3.502330322265625,-0.4968289931863546,-0.19825828067436813,-0.5151001245446503
1772797340529356300,3.512356201171875,-0.26278409046828743,-0.11038965314789674,-0.7492553557693958
1772797340539382300,3.52238232421875,-0.5164654215484857,-0.08873612194284797,-0.8436033262446522
1772797340549408300,3.532408203125,-0.7722031006366014,-0.18343312505148351,-0.7124420210264623
1772797340559433200,3.54243310546875,-0.7685340567350387,-0.3048911477051675,-0.47620691478773947
1772797340569459200,3.552459228515625,-0.8429173898071051,-0.30508455138541757,-0.22340748110860584
1772797340579485200,3.562485107421875,-1.0478431655466556,-0.2859756905613467,0.12607976417019962
1772797340589511200,3.57251123046875,-1.1168448055803775,-0.26315911605944853,0.5570433695219457
1772797340599537200,3.582537109375,-1.2979577440559864,-0.19153912848718463,0.9800022398553788
1772797340609563400,3.5925634765625,-1.1171136856496333,0.020108758581615982,1.2632979340851307
1772797340619589400,3.60258935546875,-0.4742120877087116,0.26075660322867333,1.6120483895219861
1772797340629615400,3.612615478515625,0.11437573624253272,0.3107613549128175,1.9548802685648201
1772797340639641300,3.622641357421875,0.7380629306256771,0.25881774412058295,2.1257012378677724
1772797340649667300,3.632667236328125,1.2378040118664502,0.3032578474149108,2.055359581401944
1772797340659693300,3.642693359375,1.444691443067789,0.38007534883134064,1.8638178956314921
1772797340669719300,3.65271923828125,1.497484291100502,0.5026487123157829,1.652128324845433
1772797340679745300,3.662745361328125,1.601245694348216,0.793374337350577,1.4540480310864745
1772797340689771300,3.672771240234375,1.7335037087619303,1.050785356478393,1.2680655868783592
1772797340699797200,3.68279736328125,1.8602263008803128,1.1925390020553022,1.0245805825766174
1772797340709823200,3.6928232421875,1.9505875398069619,1.2881129341289401,0.7049221469156444
1772797340719849500,3.702849365234375,2.01224816942811,1.292044428358972,0.37392084478959436
1772797340729875200,3.712875244140625,1.9629197826355695,1.2327819459207354,0.15315890975371002
1772797340739900400,3.722900390625,1.8770996942698954,1.1648976194791496,-0.0871978064596653
1772797340749926400,3.732926513671875,1.4715443786799907,1.1087434783197938,-0.0776183694705367
1772797340759952400,3.742952392578125,0.9135077603369951,1.1121344359323382,0.05793985553234815
1772797340769978400,3.752978271484375,0.37041912027895446,1.1520952018555253,0.1969011669769883
1772797340780004400,3.76300439453125,-0.009747487032413482,1.2262420227579771,0.40652898292765016
1772797340790030300,3.7730302734375,-0.2259732399433851,1.3321356157287954,0.6868054754666983
1772797340800056300,3.783056396484375,-0.36130876210629936,1.4454882925339043,0.9444754377916454
1772797340810082300,3.793082275390625,-0.2973638209402561,1.5151051418565213,1.1676247063554823
1772797340820108300,3.8031083984375,-0.08359598257541656,1.4768705421388149,1.3158588730581104
1772797340830134300,3.81313427734375,0.2632750888556242,1.3868356125570833,1.3248236852802335
1772797340840160300,3.82316015625,0.7247042673587799,1.22438543510586,1.161884409137815
1772797340850186200,3.833186279296875,1.1604045458436012,1.0307595634724944,0.9970523049861192
1772797340860212200,3.843212158203125,1.5266349822610616,0.9192409702267498,0.9764750886425375
1772797340870238200,3.85323828125,1.6850947749018668,0.8504316378947346,1.049964687745273
1772797340880264200,3.86326416015625,1.7290011366456746,0.9359260014373808,1.1252075602561236
1772797340890290200,3.873290283203125,1.7716063526630401,1.047500489588827,1.2289914675965905
1772797340900316200,3.883316162109375,1.3540905501663685,1.095270248762518,1.3811350628279149
1772797340910342100,3.893342041015625,0.8757184201687573,1.14846612463817,1.3820128685757518
1772797340920368000,3.9033681640625,0.8322223927915096,1.1949793809447438,1.1506035750582813
1772797340930393300,3.913393310546875,0.9939952555030583,1.153834519803524,0.7843250617153942
1772797340940419000,3.923419189453125,1.1504957307696342,0.9084607060804962,0.643593087336421
1772797340950445000,3.933445068359375,1.3285340841054916,0.7601414914429188,0.5027500537984073
1772797340960471000,3.943470947265625,1.6167337708592413,0.704026805511117,0.33757498142793774
1772797340970497000,3.9534970703125,1.434118611127138,0.5829481375638396,0.2139789968974888
1772797340980523300,3.963523193359375,0.9036755176305771,0.3483051228221506,0.08577902570292353
1772797340990549200,3.97354931640625,0.425243766400218,0.025939282232848925,0.05284837761223316
1772797341000575200,3.9835751953125,-0.33820144276320935,0.3032060441624373,-0.11473346363902091
1772797341010601200,3.993601318359375,-0.9053343907535075,0.26795316366925837,-0.10956263687238096
1772797341020627200,4.003627197265625,-1.012383145108819,0.005227306194230914,-0.0036669980749487875
1772797341030653200,4.013653076171875,-1.1605699655383825,-0.3017691614934243,0.03306713395193219
1772797341040679200,4.02367919921875,-1.2148153504669665,-0.5581443165011704,-0.054411243014782666
1772797341050705200,4.033705078125,-1.2687474316626786,-0.6054820409331471,-0.3447548099294305
1772797341060731100,4.043731201171875,-1.2264637026846408,-0.8538030870892107,-0.5212155386850238
1772797341070757000,4.053757080078125,-1.3119938681930303,-1.4650510711379348,-0.41046953724697227
1772797341080783000,4.063783203125,-1.720139784798026,-1.861875383261591,-0.1968782244928181
1772797341090809300,4.073809326171875,-1.888637571850419,-1.9902333214968442,-0.02779211615845561
1772797341100835300,4.08383544921875,-1.8780641553878783,-2.2031398668572306,0.14995996758192776
1772797341110860300,4.0938603515625,-1.834015170302987,-2.1314501567833126,0.15845774681419134
1772797341120886300,4.10388623046875,-1.489078281804919,-2.2165005759507417,0.21770430103093386
1772797341130912300,4.113912353515625,-1.079081184375286,-2.4570325026005504,0.3811246386885643
1772797341140938200,4.123938232421875,-0.878699481806159,-2.5795392305895684,0.5290700515776873
1772797341150964200,4.133964111328125,-0.7529249841928481,-2.619098503039777,0.6746826376050711
1772797341160990200,4.143990234375,-0.8370271627247333,-2.5863188077270984,0.8608588508196174
1772797341171016200,4.15401611328125,-1.015133905121684,-2.463749535895884,1.0563403602570294
1772797341181042200,4.164042236328125,-1.2261334478169679,-2.2048425791218875,1.1601957253985107
1772797341191068200,4.174068115234375,-1.3018290325313806,-1.970218415211141,1.2149189569719134
1772797341201094100,4.18409423828125,-1.3630518552571533,-1.8289343599073589,1.293858053652197
1772797341211120000,4.1941201171875,-1.429008720767498,-1.6149690992742776,1.3145887069918214
1772797341221146400,4.204146484375,-1.5258423705786466,-1.3646024457000194,1.315216483501345
1772797341231172400,4.21417236328125,-1.6669675820589065,-1.2408990552723407,1.3176402035169303
1772797341241198300,4.2241982421875,-1.4954378799647092,-0.9361480466902256,1.2818446675144135
1772797341251224300,4.234224365234375,-1.0816431438177823,-0.7746566312685609,1.1404400545708835
1772797341261250300,4.244250244140625,-0.46597208262979983,-0.7011184437837451,1.0568538627371191
1772797341271276300,4.2542763671875,0.29195991607010363,-0.3930711701352149,0.891022518415004
1772797341281302300,4.26430224609375,0.830382902404666,-0.13244739950597287,0.7460116976730525
1772797341291328300,4.274328369140625,0.8808440926194191,0.046671442542970176,0.7031525068946183
1772797341301353200,4.284353271484375,0.4511147052377462,0.23751330948099492,0.7154046702243387
1772797341311379200,4.294379150390625,-0.46802024733126163,0.3752738668337464,0.6371230145394802
1772797341321405200,4.3044052734375,-1.8143571146309374,0.3953909913849085,0.6764043468311428
1772797341331431200,4.31443115234375,-3.0286136621713635,0.3980832992088049,0.8385331833735108
1772797341341457200,4.32445703125,-3.6308261068493124,0.4905374918267131,1.0730664541304111
1772797341351483400,4.3344833984375,-3.7900457779467103,0.6053372256349772,1.263151803612709
1772797341361510000,4.344510009765625,-3.377007413125038,0.6449849800862372,1.1791428563222288
1772797341371536000,4.354535888671875,-2.2408166865617036,0.6882343392260373,0.9563286649316549
1772797341381561900,4.364561767578125,-0.8746277023226022,0.6657508508697152,0.7031558678954839
1772797341391587800,4.374587890625,0.4359434395909309,0.5580873256169259,0.6142715696536004
1772797341401613800,4.38461376953125,1.5236170957446098,0.452545614823699,0.5743818962052464
1772797341411639800,4.394639892578125,2.1464245846837757,0.45278220005854963,0.522630666179955
1772797341421665800,4.404665771484375,2.3953625206291673,0.471237601942569,0.5710448607370257
1772797341431691500,4.41469140625,2.15355925886929,0.4037134871155023,0.6471189233750104
1772797341441717500,4.424717529296875,1.2577660189211368,0.339927243642509,0.6848766993612051
1772797341451743500,4.434743408203125,0.4185369622379541,0.3321701267097145,0.7709200750887394
1772797341461769500,4.44476953125,-0.2186889281541109,0.27997677894011136,0.8652078398093581
1772797341471795700,4.454795654296875,-0.5834457848876714,0.2290029630281031,0.8755430636018514
1772797341481821700,4.46482177734375,-0.7059072124302387,0.14060834799930452,0.8285660622410476
1772797341491847000,4.474846923828125,-0.5959311724513768,0.06570698240250349,0.7362519356809556
1772797341501873000,4.484872802734375,-0.5257400303721428,0.020813070926070213,0.6935859293870628
1772797341511899000,4.49489892578125,-0.32709728042483327,0.014050444923341274,0.6696933048851788
1772797341521924600,4.504924560546875,-0.05290098458230495,-0.02166172364465892,0.7366364049538969
1772797341531950600,4.51495068359375,0.3173614838302135,-0.05291530536860227,0.8171922891810536
1772797341541976600,4.5249765625,0.7706459343224763,-0.1628058590210974,0.7769161006331443
1772797341552002600,4.53500244140625,1.075349596631527,-0.27744901402816174,0.7817235009148716
1772797341562028500,4.545028564453125,1.283416593006253,-0.3102256406009197,0.8550093941390514
1772797341572054500,4.555054443359375,1.3381664203256367,-0.4273886694744229,0.8489207218751311
1772797341582080500,4.56508056640625,0.7547282342225313,-0.4375643187910318,0.7318069389708339
1772797341592106500,4.5751064453125,0.18315818056762218,-0.31229024498052893,0.5704350582756101
1772797341602132700,4.5851328125,-0.07889175040721892,-0.2781192414399236,0.4223842853158712
1772797341612158700,4.59515869140625,0.03447510105371475,-0.1889715430215001,0.2971425794050097
1772797341622184700,4.605184814453125,0.3214765179336071,-0.04555818407144397,0.2755510714523494
1772797341632210700,4.615210693359375,0.48164252997040746,-0.015076171241886913,0.48842649102210994
1772797341642236700,4.625236572265625,0.5364046322494745,0.0023286621432751418,0.60637862444669
1772797341652262700,4.6352626953125,0.6789560771405696,0.1932379682943225,0.5018481365226208
1772797341662288600,4.64528857421875,0.7933452573865651,0.3606228987339884,0.5160707231424748
1772797341672314600,4.655314697265625,0.9190455207198858,0.41651462609749285,0.6592402999319136
1772797341682340600,4.665340576171875,1.2867115428984164,0.39569026659242806,0.7862735654346644
1772797341692365600,4.675365478515625,1.5745307059019804,0.359963229248859,0.7722374412976205
1772797341702391600,4.6853916015625,1.5599311026632785,0.31973011265769596,0.6859227012827992
1772797341712417500,4.69541748046875,1.2310504459530114,0.3063790847079828,0.5089041925139725
1772797341722443500,4.705443603515625,0.8431114510744809,0.09702614017594605,0.4892876378960907
1772797341732469800,4.7154697265625,0.35500293996036053,0.033666086225770414,0.5434538201086223
1772797341742495700,4.725495849609375,0.13034136713743208,0.053245706366747615,0.6194957340426742
1772797341752521700,4.735521728515625,0.22324936793744563,0.17915732916211707,0.4457067087143659
1772797341762547700,4.745547607421875,0.35656069079637526,0.28755400926135477,0.22646555350497363
1772797341772573700,4.75557373046875,0.515465304595232,0.22807441347371785,0.15899974473640321
1772797341782599700,4.765599609375,0.6386182215332985,-0.0711364418390207,0.26008783712163563
1772797341792625700,4.775625732421875,0.7932762838035822,-0.3277555982030928,0.3466100824072957
1772797341802651600,4.785651611328125,0.9022416854351758,-0.3590886018387973,0.33165728181675075
1772797341812677600,4.795677734375,0.6238134511113167,-0.30492921469323336,0.22830372871756552
1772797341822703600,4.80570361328125,0.3131418203085661,-0.34025643906425684,0.07512772169858217
1772797341832729600,4.8157294921875,0.28363983149230476,-0.49681712008547035,-0.056063540266454215
1772797341842755800,4.825755859375,0.2003758573502302,-0.7638434147007763,-0.07351458741351961
1772797341852781800,4.83578173828125,-0.04503098185956478,-1.0458226925697176,-0.06208367733880877
1772797341862807800,4.845807861328125,-0.11007833130955695,-1.2502853077769278,-0.04192322510257363
1772797341872833800,4.855833740234375,-0.45113808611333367,-1.0686327094666659,-0.23637977540642022
1772797341882858800,4.865858642578125,-1.1417279024243354,-0.6860327375285327,-0.4649235964901745
1772797341892884700,4.875884765625,-0.9669751466304063,-0.8665930105574429,-0.09722323365062474
1772797341902910700,4.88591064453125,-0.9390461062192916,-0.8289660213440656,0.01598345881253481
1772797341912936700,4.895936767578125,-1.380022279280424,-0.47399179602153596,-0.07360460378453135
1772797341922962700,4.905962646484375,-1.48006846139729,-0.3597799816364422,0.07473331555351614
1772797341932988700,4.91598876953125,-1.5598866789996624,-0.22352964618355034,0.1194346270672977
1772797341943014700,4.9260146484375,-1.6800000821113585,-0.15445077619515357,0.009704816934466362
1772797341953040600,4.93604052734375,-1.6082465130209922,-0.17831516098324207,-0.17810791144073007
1772797341963066600,4.946066650390625,-1.464779122328758,-0.16521726754438132,-0.4089702385999262
1772797341973092900,4.9560927734375,-1.3774983137607573,-0.017553703803941608,-0.6391713253714144
1772797341983118800,4.966118896484375,-1.4171902726799248,0.1716434281343594,-0.6238561212092638
1772797341993144800,4.976144775390625,-1.761192510676384,0.3190860791331157,-0.46537309382334346
1772797342003170800,4.9861708984375,-2.317378532716632,0.523142926551029,-0.2970518323816359
1772797342013196800,4.99619677734375,-2.976128272652626,0.7373259946532547,-0.14341492985263465
1772797342023222800,5.006222900390625,-3.280111219471693,0.9869450447306036,0.01426496445685625
1772797342033248800,5.016248779296875,-3.058644643297791,1.1455461455382405,0.22045564556568858
1772797342043274800,5.026274658203125,-2.263199198761582,1.2369228451177476,0.41681364557668565
1772797342053300700,5.03630078125,-1.0288041185557841,1.2950852573595941,0.5598289085872471
1772797342063326700,5.04632666015625,0.2636579506933689,1.2682856593698262,0.8530524148523807
1772797342073352400,5.0563525390625,1.2861831351101398,1.1600706377141177,1.0670504087112844
1772797342083377700,5.066377685546875,2.0119670143991706,0.9481108716845512,1.2123081899516284
1772797342093403600,5.076403564453125,2.5023376252263785,0.8754010247826576,1.2789525993347166
1772797342103430000,5.086429931640625,2.5810528500229117,0.8790898693632334,1.3161153320372103
1772797342113455900,5.096455810546875,2.4767735603809355,0.7405426186121999,1.3408224877923727
1772797342123481900,5.10648193359375,2.2952058638751507,0.7646242628801614,1.1543791480742394
1772797342133507800,5.1165078125,2.3947733225643635,0.66037997148633,1.1310444497160612
1772797342143533800,5.126533935546875,2.618701320415735,0.5649980548534542,1.1297855356961488
1772797342153559800,5.136559814453125,2.733793095973134,0.8406752369035035,1.062788513483107
1772797342163585500,5.14658544921875,2.11148537324965,0.9249923733603209,0.95612320548743
1772797342173611500,5.156611572265625,1.4990350276738404,0.780606625714153,0.8367648585267364
1772797342183637500,5.166637451171875,1.3267284959882497,0.7613304820317774,0.7668586708687245
1772797342193663500,5.17666357421875,1.2261077288538216,0.6378678415574133,0.6804293645635247
1772797342203689500,5.186689453125,0.9956523750603199,0.5157314081855118,0.6209086695805192
1772797342213715700,5.1967158203125,0.7512649420261382,0.38629221405219283,0.6124984225012362
1772797342223741700,5.20674169921875,0.5618780962020159,0.2665637186048552,0.8175653602771461
1772797342233767700,5.216767578125,0.03718786714375019,0.2551230543211102,1.0852829616248607
1772797342243793700,5.226793701171875,-0.48325873299539085,0.3227169099161401,1.2069698976635932
1772797342253819600,5.236819580078125,-0.896805047339201,0.5218600471336394,1.212414865196496
1772797342263845600,5.246845703125,-1.3649229098260403,0.6156489954866469,1.1920306872069835
1772797342273871600,5.25687158203125,-1.235071956554055,0.6959129840951412,1.3576741077415644
1772797342283897600,5.266897705078125,-0.6516530596733093,0.7175862520471215,1.6343601745732128
1772797342293922600,5.276922607421875,0.06737433109283447,0.5217824518527835,1.8611523296840489
1772797342303948500,5.286948486328125,0.7093050381749868,0.3010907325088978,1.8399118271261452
1772797342313974500,5.296974609375,1.1892413487493991,-0.013728081101179122,1.8579048721954226
1772797342324000500,5.30700048828125,1.0674088667601347,-0.05355995994769037,1.8494015400052068
1772797342334026500,5.317026611328125,0.6268874517291784,0.07021452295482158,1.7782783777728677
1772797342344052700,5.327052734375,0.06800678377747535,0.03803089383915066,1.5996717230297623
1772797342354078700,5.33707861328125,-0.517518729993701,0.0547713084988296,1.2247032688833772
1772797342364103700,5.347103759765625,-0.8012076613247394,-0.0006824293062090873,0.9759625360105186
1772797342374129700,5.357129638671875,-0.8055167566955089,-0.12881963746286929,0.801438328275457
1772797342384155600,5.36715576171875,-0.43904725082516666,-0.27566958326548335,0.7056859708949923
1772797342394181600,5.377181640625,0.11223170995116233,-0.4150716972801834,0.6756382578294724
1772797342404207600,5.38720751953125,0.2313730531603098,-0.5156152344599366,0.6722193162314594
1772797342414233900,5.39723388671875,0.19289689977169036,-0.5746002881962806,0.6091304073728621
1772797342424259800,5.407259765625,0.08849661409854888,-0.5464965488053858,0.5789866135217249
1772797342434285800,5.417285888671875,-0.1110346091210842,-0.5396173837509006,0.5855450952544808
1772797342444311800,5.427311767578125,-0.3456301314592361,-0.5692807736739516,0.6970452029954641
1772797342454337800,5.437337890625,-0.3309773367285728,-0.5225114967796951,0.8491077688798307
1772797342464363800,5.44736376953125,-0.12420388729572296,-0.5428896103546023,0.9651524612478911
1772797342474389800,5.4573896484375,-0.02723229031860828,-0.5497085696544498,0.9201146843213588
1772797342484414700,5.467414794921875,-0.05442950932383537,-0.5996727701324969,0.8478224783096462
1772797342494440700,5.477440673828125,0.03151800481379032,-0.6571865092072635,0.9240274738509208
1772797342504466700,5.487466796875,0.09279752616286277,-0.7611969918452203,1.0567150387883186
1772797342514492700,5.49749267578125,0.06307809520363808,-0.7957807409051805,1.1320690435234457
1772797342524518700,5.5075185546875,0.09264204334020613,-0.8185130163908004,1.2418738916538654
1772797342534544600,5.517544677734375,0.07087503269016743,-0.7842092533160001,1.4195914886027574
1772797342544571000,5.52757080078125,-0.026615035203099248,-0.7535257265649735,1.5390531498074531
1772797342554596900,5.537596923828125,-0.2212596554249525,-0.7356422793500125,1.5593100481554865
1772797342564622800,5.547622802734375,-0.44160979478955265,-0.5703189576152712,1.3962781252935528
1772797342574648800,5.55764892578125,-0.6292851605206727,-0.5520279525127262,1.1180108536850661
1772797342584674800,5.5676748046875,-0.8620137199431658,-0.5681803381513804,0.7722536617800593
1772797342594700800,5.57770068359375,-1.0268635058820248,-0.6219352361492813,0.6066331837296486
1772797342604726800,5.587726806640625,-1.2365385219752787,-0.7183075520589948,0.6853406636111438
1772797342614752800,5.597752685546875,-1.5792232476323842,-0.6381063264884054,0.6474992279294878
1772797342624778800,5.60777880859375,-1.8280279125869272,-0.5893411265365779,0.5734386240057647
1772797342634804700,5.6178046875,-1.8813491684079169,-0.5579021783083677,0.49864539495855564
1772797342644830700,5.627830810546875,-1.7642618351191282,-0.523208758328855,0.20678806248009204
1772797342654857000,5.63785693359375,-1.5825333950936793,-0.5538724844008683,-0.1887900489747524
1772797342664883000,5.647883056640625,-1.1453384941369293,-0.5867259756021201,-0.36382922049462796
1772797342674909000,5.657908935546875,-0.40287177559435366,-0.5520704034149646,-0.3280998815961182
1772797342684934000,5.667933837890625,0.19067162493765352,-0.499198644927144,-0.011443623425811528
1772797342694959900,5.6779599609375,0.04959025259912014,-0.309175985417515,0.49771001380458474
1772797342704985900,5.68798583984375,-0.7824152825713158,0.11948738016784191,0.9173787565514445
1772797342715011800,5.69801171875,-1.8877222105711697,0.43407077758684753,1.2799524240270257
1772797342725037800,5.708037841796875,-2.8736417116463184,0.6103931207850575,1.495549377515167
1772797342735063800,5.718063720703125,-3.5041350789129733,0.7275719317495822,1.5739700032792985
1772797342745089800,5.72808984375,-3.4811014093279837,0.7211600188806653,1.494879807690531
1772797342755115800,5.73811572265625,-2.840730791169405,0.606820815256238,1.334515058211237
1772797342765141800,5.748141845703125,-1.9777245530575513,0.41810719251856204,1.0911220430418849
1772797342775167700,5.758167724609375,-1.138994678068161,0.23730068964362144,0.8835407843574881
1772797342785194000,5.768194091796875,-0.292421688362956,0.1409409409545362,0.7572112832099199
1772797342795220000,5.778219970703125,0.4340227006614208,0.16318682116270064,0.6239145733982324
1772797342805246000,5.788245849609375,0.8242676343947648,0.19668357870355246,0.5819397642388939
1772797342815272000,5.79827197265625,1.0362649559557437,0.24929127942770718,0.5405478695340454
1772797342825298000,5.8082978515625,1.1908037757605314,0.323829364670068,0.39545185472667216
1772797342835324000,5.818323974609375,1.3086743683815,0.38594146438576277,0.3299063464961946
1772797342845350000,5.828349853515625,1.4650895034521818,0.4030826418660581,0.3454983217731118
1772797342855376000,5.8383759765625,1.59568046143651,0.38512854056768114,0.30661417210549113
1772797342865401900,5.84840185546875,1.6723393382251261,0.3389169706214219,0.23604192175418137
1772797342875427800,5.858427734375,1.5058926384836435,0.2886647469822317,0.20514745566621423
1772797342885453800,5.868453857421875,1.104675059837103,0.379860244775936,0.1731366988994181
1772797342895478800,5.878478759765625,0.5967109246522188,0.4938016812544316,0.1166762682698667
1772797342905504800,5.8885048828125,0.09134265117943287,0.6384673418205231,-0.008583703950047492
1772797342915531000,5.898531005859375,-0.3897697174370289,0.7291432727195322,-0.15206351573243737
1772797342925557000,5.908556884765625,-0.6228688637375831,0.7781783025886863,-0.2880624702401459
1772797342935583000,5.9185830078125,-0.5619511614382267,0.7923650141775608,-0.35518019622340796
1772797342945609000,5.92860888671875,-0.39154491041600703,0.69915576540865,-0.40457434172853823
1772797342955635000,5.938635009765625,-0.0024894787281751632,0.6007750322859734,-0.4560739350803196
1772797342965661000,5.948660888671875,0.47764673833251,0.455459602574259,-0.45219110229760406
1772797342975687000,5.95868701171875,0.7905880676329136,0.27736002057045694,-0.3204610572807491
1772797342985712600,5.968712646484375,0.9757891522049903,0.1052429470423609,-0.19979674228802322
1772797342995738600,5.978738525390625,0.9164595958799123,0.04259535221047699,-0.09427169036865234
1772797343005764600,5.9887646484375,0.6759861214190721,0.07972294053435325,-0.03860387142151594
1772797343015790600,5.99879052734375,0.4875432784467935,0.1254983110204339,-0.06711480337381362
1772797343025816800,6.00881689453125,0.45069209591150283,0.17856939147263765,-0.10568009635061025
1772797343035842800,6.0188427734375,0.5928665241837501,0.18710713738910853,-0.10620601992085575
1772797343045868800,6.028868896484375,0.7623392937481402,0.1405190622806549,-0.105278675942868
1772797343055894800,6.038894775390625,0.8273118243962526,0.11115637233722954,-0.14072393720299003
1772797343065920800,6.048920654296875,0.7610095064491033,0.1229384704697877,-0.18651114425733684
1772797343075946800,6.05894677734375,0.7275199093014001,0.13761614391338078,-0.25475539005249737
1772797343085972700,6.06897265625,0.7212170097649097,0.151171316133067,-0.26969007046446203
1772797343095997700,6.078997802734375,0.8596756323844194,0.18796664029527455,-0.18343422103002666
1772797343106023700,6.089023681640625,1.121456098768115,0.21181392781808972,-0.07509834947362541
1772797343116049700,6.099049560546875,1.3322405374079942,0.21271803705096243,0.08098843042552471
1772797343126075600,6.10907568359375,1.526889833804965,0.20991751961223779,0.21523235795944928
1772797343136101600,6.1191015625,1.6000082615077496,0.22764979485347867,0.26714666959196326
1772797343146127600,6.129127685546875,1.5189397515833376,0.24507388092838225,0.27119097654670477
1772797343156153900,6.13915380859375,1.4114865080803631,0.2183242960928008,0.3172112617045641
1772797343166179800,6.149179931640625,1.349950966143608,0.1363497041741386,0.34273236419111486
1772797343176205800,6.159205810546875,1.3077239357888697,0.04783760024551302,0.3018590865328908
1772797343186231800,6.169231689453125,1.2671060941964387,-0.15483765662088989,0.16266849637702108
1772797343196257800,6.1792578125,1.3427981717795132,-0.39336299268864094,0.07545505395680666
1772797343206283800,6.18928369140625,1.5115011260151863,-0.6299193667709827,0.036052433373034
1772797343216309800,6.199309814453125,1.6287901193559169,-0.8900653638206422,-0.02170505132973194
1772797343226335700,6.209335693359375,1.6280658967345951,-1.0836935004763304,-0.12087722709104418
1772797343236361700,6.21936181640625,1.379666305449605,-1.2416177249357103,-0.2550670863501727
1772797343246387700,6.2293876953125,0.8723305312961339,-1.3936476306594907,-0.3411135308176279
1772797343256414000,6.2394140625,0.4066699988335371,-1.5516547110967338,-0.14452859018296002
1772797343266440000,6.24943994140625,0.007848959934711457,-1.6305251264549792,0.05194295320510864
1772797343276466000,6.2594658203125,-0.5067705414861441,-1.7079839214496313,0.048887072765827176
1772797343286492000,6.269491943359375,-1.1297539715141058,-1.7599160609997808,-0.03109641840085387
1772797343296516900,6.279516845703125,-1.651205364781618,-1.696936896125972,-0.09230711229741573
1772797343306542800,6.28954296875,-2.068770851638913,-1.5685346803575753,-0.11514496704936027
1772797343316568800,6.29956884765625,-2.349765721580386,-1.4343132569164037,-0.10151011718958616
1772797343326594800,6.3095947265625,-2.4941408747673033,-1.3318527071341872,-0.08483443832919
1772797343336620800,6.319620849609375,-2.54735574760437,-1.3267263040311634,-0.13538798300251365
1772797343346646800,6.329646728515625,-2.2745997136980294,-1.3096683478549123,-0.1985024646937847
1772797343356672800,6.3396728515625,-2.1745774969786402,-1.2163324039664118,-0.3505889229103923
1772797343366699500,6.349699462890625,-2.275430319303274,-1.0577243619613348,-0.593504529826343
1772797343376725800,6.359725830078125,-2.271935462924838,-0.8751726228542626,-0.8393870237238704
1772797343386751700,6.369751708984375,-2.1171780319333076,-0.5801440033959224,-1.091820400569588
1772797343396777700,6.37977783203125,-1.538523572975397,-0.30257322615161536,-1.1588066091276705
1772797343406803700,6.3898037109375,-1.123901153832674,-0.12218465642780064,-0.8372576104797422
1772797343416829700,6.39982958984375,-1.310674017766118,-0.02364646772108972,-0.28217180476635695
1772797343426855700,6.409855712890625,-1.6744371872872112,0.28304160987082866,0.12344181688204407
1772797343436881700,6.419881591796875,-1.946279028958082,0.6931717956282198,0.3727686060145497
1772797343446907600,6.42990771484375,-2.327738014167547,0.9483879350602626,0.6043671384938061
1772797343456933400,6.439933349609375,-2.6638930457949637,1.1793266884565352,0.6975177158780396
1772797343466959400,6.44995947265625,-2.533426006451249,1.3035241460114717,0.6105636550463736
1772797343476985300,6.4599853515625,-1.894596187993884,1.3401817056708036,0.5486851448908447
1772797343487011600,6.470011474609375,-0.9871516732186079,1.2965087142914533,0.681117785219103
1772797343497037600,6.48003759765625,0.17622399739027023,1.3146096036493777,0.8497624333962798
1772797343507062800,6.490062744140625,1.3562456823736428,1.4343217324838042,0.9625738429315388
1772797343517088800,6.5000888671875,2.142567324733734,1.5314000047057865,1.1698282077491282
1772797343527114800,6.51011474609375,2.5415339095830918,1.6178651129767299,1.40112775728181
1772797343537140500,6.520140380859375,2.9000813902825113,1.4325006545364856,1.7687192529194056
1772797343547166500,6.53016650390625,2.7580367258697747,1.6929146548725664,1.5713155432477592
1772797343557192400,6.5401923828125,2.588160051679611,1.8451422751255333,1.2672386345349251
1772797343567218400,6.550218505859375,2.2529361634224654,1.7354269319094717,1.0677928976416586
1772797343577244400,6.560244384765625,1.892563220861554,1.781634702463448,0.8200099769502878
1772797343587270400,6.5702705078125,1.7814508703291416,1.7278122191220522,0.5936022911123932
1772797343597296400,6.58029638671875,1.5988064845025538,1.646923157417774,0.23689693114832042
1772797343607322400,6.590322265625,1.4813783749520777,1.5353328141100704,-0.11050766263753176
1772797343617348600,6.6003486328125,1.3892758453160523,1.4226941307932137,-0.3816061385951936
1772797343627374600,6.61037451171875,1.233625264877081,1.223627091019228,-0.5464816434971987
1772797343637400600,6.620400634765625,0.8361322597116232,1.144194950124994,-0.609715075393021
1772797343647426600,6.630426513671875,0.3626192601829767,1.1161115228697658,-0.5922407935008406
1772797343657452500,6.64045263671875,-0.029423662883043288,1.1502813573665915,-0.4706159629128873
1772797343667478500,6.650478515625,-0.5377659837305545,1.1665740282587707,-0.38536446821540593
1772797343677504500,6.66050439453125,-0.8051900089591741,1.1077702493734658,-0.3202323630914092
1772797343687530500,6.670530517578125,-0.6487538311004638,1.0848368983577936,-0.1843864071883261
1772797343697556500,6.680556396484375,-0.35096623179018493,0.973908891416341,0.0931960239611566
1772797343707581400,6.69058154296875,-0.042724458482861515,0.845233192468807,0.2974680119670927
1772797343717607400,6.700607421875,0.5519505764275789,0.8477918639756739,0.47181905509233474
1772797343727633400,6.71063330078125,1.1826707381874322,0.7544941332057118,0.6241974819928408
1772797343737659400,6.720659423828125,1.5739882695883511,0.6425806954234838,0.7762889086455106
1772797343747685600,6.730685546875,1.6944629072278736,0.5712060426481068,0.8679479322977364
1772797343757711600,6.740711669921875,1.5370897407799957,0.4558437065210193,0.8722922451123595
1772797343767737600,6.750737548828125,1.1551759975403546,0.3014993498424068,0.7535467693530022
1772797343777763600,6.760763671875,0.7917541888028383,0.09613247927185148,0.6254835762806237
1772797343787789600,6.77078955078125,0.5102408479452133,0.010175649316608906,0.47260246055498717
1772797343797815600,6.780815673828125,0.24974632971882818,-0.10171557663381099,0.38393560445606706
1772797343807841500,6.790841552734375,0.0472258615553379,-0.19854202951919286,0.40358825330063697
1772797343817867500,6.800867431640625,0.08540215521454811,-0.3165619309503585,0.39061289026290175
1772797343827893500,6.8108935546875,0.13618600151240826,-0.5671534793216735,0.2539455349743366
1772797343837919500,6.82091943359375,-0.0303729264318943,-0.7286984515614807,0.1354039112240076
1772797343847945500,6.830945556640625,-0.28178572805821894,-0.7313750503595918,0.22966230371966956
1772797343857971700,6.8409716796875,-0.4708218607485294,-0.6987269455373287,0.40991365692988035
1772797343867997700,6.850997802734375,-0.5087123232036829,-0.7400779237098991,0.5532871587935835
1772797343878023700,6.861023681640625,-0.40008419070243834,-0.7258269877783954,0.614688333760947
1772797343888049700,6.871049560546875,-0.23267244532108305,-0.7492715762518346,0.6354395914971828
1772797343898075600,6.88107568359375,0.0004909983873367309,-0.7723061226196587,0.5957809503257274
1772797343908100600,6.8911005859375,0.1735802048832178,-0.8064761763121933,0.482182335935533
1772797343918126600,6.901126708984375,0.36419805380702014,-0.8707570714343339,0.4705338375873863
1772797343928152600,6.911152587890625,0.5603606773763895,-0.8477972708031535,0.5847286643050611
1772797343938178600,6.921178466796875,0.7195335867226124,-0.8212220561537891,0.8689975874811411
1772797343948204500,6.93120458984375,0.8452887951135635,-0.8505876321740448,1.0859379184022546
1772797343958230500,6.94123046875,0.6451327179938554,-0.9860550370883197,1.3952506819419561
1772797343968256500,6.951256591796875,0.17350421703755856,-0.7923317694950849,1.3853124946430324
1772797343978282500,6.961282470703125,-0.2723895386815071,-0.9142788177747279,1.1689965792305768
1772797343988308700,6.971308837890625,-0.8634908067584037,-0.9121393215280026,0.9428719481177628
1772797343998334700,6.981334716796875,-1.3608031995475292,-1.0320851860530673,1.0039176607109606
1772797344008360700,6.991360595703125,-1.8147165955930946,-0.8769881478436291,1.027082993851602
1772797344018386700,7.00138671875,-2.0569272691100835,-0.7600834045801311,1.0582096612602472
1772797344028412700,7.01141259765625,-1.9649749615997074,-0.7527289501640945,1.1581437613047658
1772797344038438700,7.021438720703125,-1.6005366692960261,-0.7236277241684496,1.1380901304438709
1772797344048464600,7.031464599609375,-1.1407862376600504,-0.8193268169917166,1.016290381680429
1772797344058490600,7.04149072265625,-0.9845487972438335,-0.8768765772279351,0.8804895800933241
1772797344068516600,7.0515166015625,-1.0460030906379223,-0.838379015725106,0.7778415449149906
1772797344078542600,7.06154248046875,-1.0496604441016912,-0.7293263011362403,0.7320591601662337
1772797344088568600,7.071568603515625,-1.1113748497366904,-0.6262368788659572,0.6351756798639893
1772797344098594600,7.081594482421875,-1.1893541614741086,-0.6818328016206622,0.5459760320626199
1772797344108619500,7.09161962890625,-1.24075117123425,-0.7986772660642862,0.3453090828113258
1772797344118645800,7.101645751953125,-1.2962749055355787,-1.0484523834861814,0.014656155731528996
1772797344128671700,7.111671630859375,-1.4921078587591647,-1.2957131799995898,-0.36838571475520726
1772797344138697700,7.12169775390625,-1.5903437765836714,-1.2931091349810362,-0.7619502944305538
1772797344148723700,7.1317236328125,-1.3340958098858595,-0.9576748919088393,-0.9805201262496411
1772797344158749700,7.141749755859375,-0.6803676975041627,-0.5615351279832422,-0.9624527007699012
1772797344168775700,7.151775634765625,-0.5895084459275007,-0.19017397761382163,-0.5752597019530833
1772797344178801700,7.1618017578125,-1.2045517306059599,0.10045205950401723,0.19652794975042343
1772797344188827400,7.171827392578125,-2.107508870834112,0.41859110357798635,1.0134067890681326
1772797344198853400,7.181853271484375,-3.114022831648588,0.6947433557938784,1.6766778058208525
1772797344208879400,7.19187939453125,-4.035436250543595,1.016657753688097,2.289386656202376
1772797344218905300,7.2019052734375,-4.498091171449422,1.4974521423965692,2.4848078137546774
1772797344228931600,7.211931640625,-4.084464193084836,1.5792461901165544,2.4988255254521965
1772797344238957600,7.22195751953125,-2.834527844876051,1.4469362993851302,2.4169211492255327
1772797344248983600,7.231983642578125,-1.236371933236718,1.2445733598709106,2.3183470854878423
1772797344259009500,7.242009521484375,0.3366390157520771,1.0424943518646062,2.2191947834707797
1772797344269035500,7.252035400390625,1.4469202250331639,0.962286258161813,2.0415461601048706
1772797344279061500,7.2620615234375,2.0888561928123233,0.9181912419781089,1.85326552195698
1772797344289087500,7.27208740234375,2.295259055367112,0.9517069964803755,1.6570618357248603
1772797344299113500,7.282113525390625,2.208903544950485,0.989890669728443,1.4529242877535522
1772797344309138400,7.292138427734375,1.8535750262975692,1.03355138614811,1.2440890834853053
1772797344319164400,7.302164306640625,1.737592439380288,1.0385878459453581,0.9590323709324001
1772797344329190400,7.3121904296875,1.9450830971717834,0.9867398775473236,0.5885447154618799
1772797344339216400,7.32221630859375,2.081249809461832,0.8680958163358271,0.20041063640266657
1772797344349242400,7.332242431640625,1.8734300658464431,0.745311075123027,0.03630699265599251
1772797344359268600,7.3422685546875,1.3002806340456008,0.803262694158405,0.019288199446350334
1772797344369294300,7.35229443359375,0.4487240107089281,0.9539916733514517,0.12185294025540351
1772797344379320300,7.3623203125,-0.3569944060385227,1.2171333450857549,0.46059316607043144
1772797344389346300,7.37234619140625,-0.6124240420907735,1.347190853780508,0.7500780703291297
1772797344399372300,7.382372314453125,-0.4355138160020113,1.1782181426927447,0.717258919788897
1772797344409398500,7.3923984375,-0.11061083075106143,0.9227072580978274,0.3925713308542967
1772797344419424500,7.402424560546875,0.309637611579895,0.6008074001856147,0.0340805487781763
1772797344429450500,7.412450439453125,0.6128086574941873,0.2864129677337594,-0.25580285327881574
1772797344439476500,7.4224765625,0.1251297699689865,0.1331160194825381,-0.431588459251821
1772797344449502500,7.43250244140625,-0.3679255498975515,0.06408792983330786,-0.5006050045937299
1772797344459528400,7.442528564453125,0.07283493458628654,-0.15704050042741,-0.3469797925025224
1772797344469554400,7.452554443359375,0.6902958018004894,-0.31008499002121387,-0.313085998468101
1772797344479580400,7.462580322265625,1.1749877824693917,-0.2595312992174178,-0.2542883570626378
1772797344489606400,7.4726064453125,1.499151347529888,-0.19048465099819004,0.035788229478895664
1772797344499632400,7.48263232421875,1.5338544121205806,-0.08092405995242297,0.23654548736214637
1772797344509657300,7.4926572265625,1.472101428040862,0.01909746264722198,0.3185036396026611
1772797344519683300,7.502683349609375,1.3418728736281393,0.1249326399616897,0.35735534830540416
1772797344529709300,7.512709228515625,1.5566741466939449,0.01184687046445906,0.491871078518033
1772797344539735600,7.522735595703125,1.4112316565364598,0.12739355018250642,0.5186430578485131
1772797344549761500,7.532761474609375,1.343005677050352,0.3385584395073354,0.48725452463328833
1772797344559787500,7.54278759765625,1.2425281177788972,0.3624346973963082,0.6331856750905513
1772797344569813500,7.5528134765625,1.0282271954506634,0.4261846274469048,0.7283224578559399
1772797344579839500,7.562839599609375,0.8632990835785865,0.44959034521467983,0.7010296695217489
1772797344589865500,7.572865478515625,0.7903045745164156,0.40723687546867876,0.5941235385075211
1772797344599891500,7.582891357421875,0.7885434100627898,0.2690236424449831,0.40588118654340505
1772797344609917400,7.59291748046875,0.7635784801542759,0.07469970554485916,0.2555918408766389
1772797344619943400,7.602943359375,0.6188339091330767,-0.06591258797720075,0.16907880181074142
1772797344629969400,7.612969482421875,0.39404549506008624,-0.2106052644143812,0.08154255717694758
1772797344639995400,7.622995361328125,0.01629413219690323,-0.4140819555904716,-0.06824585323035717
1772797344650021600,7.633021728515625,-0.46765258306264873,-0.6366480174388736,-0.3491857781141996
1772797344660047600,7.643047607421875,-0.7555243530362844,-0.8222414623294025,-0.6280214241951704
1772797344670073600,7.653073486328125,-0.7239549102962016,-0.9578273059915751,-0.7303110013246535
1772797344680099600,7.663099609375,-0.5100993936479091,-1.09237145858109,-0.7143547227799892
1772797344690125600,7.67312548828125,-0.2784060224920511,-1.1146714070640504,-0.5599892137154936
1772797344700151600,7.683151611328125,-0.17961071721911429,-1.0595627563696355,-0.23746333285942672
1772797344710176500,7.693176513671875,-0.14228431838750838,-0.9854038066379726,0.15281564927399158
1772797344720202500,7.703202392578125,-0.18602759852409362,-0.9373585915237664,0.4419669376641512
1772797344730228500,7.713228515625,-0.32513387139737604,-0.8350541821513324,0.6099041682243347
1772797344740254500,7.72325439453125,-0.3891179755300283,-0.612239844630286,0.6699491793423891
1772797344750280400,7.733280517578125,-0.3924380598634481,-0.4424019680805504,0.6955266881912946
1772797344760306400,7.743306396484375,-0.46866322140991684,-0.3358233885202557,0.6656243018805981
1772797344770332400,7.75333251953125,-0.6986252387285232,-0.39258119466118513,0.5797305637568235
1772797344780358700,7.763358642578125,-0.9087094201445579,-0.38557175429053603,0.3394439901702106
1772797344790384600,7.773384521484375,-1.1214917546033858,-0.3371362977497279,0.06971314930394291
1772797344800410600,7.78341064453125,-1.4777256976634263,-0.3213431738775223,-0.10005524220615625
1772797344810436600,7.7934365234375,-1.664987806418538,-0.3045118660639971,-0.299256064427644
1772797344820462600,7.803462646484375,-1.5932365754157303,-0.655019905757904,-0.5181948756895959
1772797344830488300,7.81348828125,-1.3786124124825,-1.078330512138456,-0.9247685745418072
1772797344840514300,7.823514404296875,-0.987076854416728,-1.3729858047723769,-1.2907444516763091
1772797344850540300,7.833540283203125,-0.31631343608200546,-1.5554516191616654,-1.390204212207347
1772797344860566300,7.843566162109375,0.37216216455399986,-1.3442042391851543,-1.2648657679237425
1772797344870592300,7.85359228515625,0.772278503960371,-0.9506174476779997,-0.6693098585255444
1772797344880618200,7.8636181640625,0.4009253177016973,-0.5263455219846218,0.13966887519210577
1772797344890644500,7.87364453125,-0.6752958010673522,0.0604488061459735,0.9638418170407413
1772797344900669400,7.88366943359375,-1.8912953928828238,0.7237532502442597,1.8129678522296249
1772797344910695700,7.89369580078125,-3.0394536206156015,1.3487307766988872,2.430236850133538
1772797344920721400,7.903721435546875,-3.57745399762392,1.7729197733491657,2.5767151130795476
1772797344930747400,7.913747314453125,-3.332110871300101,2.0354925591543314,2.446210956595838
1772797344940773400,7.9237734375,-2.779881477931142,2.0902843259193,2.4545111674293874
1772797344950799400,7.93379931640625,-1.9183306993246076,2.0225439379930497,2.5366911457270382
1772797344960825300,7.943825439453125,-0.7683394109457731,2.0281429270438847,2.458750996956229
1772797344970851300,7.953851318359375,0.365084188991785,1.9647522587597368,2.4378657375767827
1772797344980877300,7.963877197265625,1.1831786877095698,1.8188444891780613,2.512480541317165
1772797344990903300,7.9739033203125,1.769870322650671,1.810525281383097,2.4006135730251668
1772797345000929300,7.98392919921875,2.05376325212121,1.7739648984879255,2.281594833282381
1772797345010955300,7.993955322265625,2.055346137398481,1.7632209477640688,2.05719498013556
1772797345020981500,8.0039814453125,2.3674989466696976,1.4507916596390307,2.1336776235744357
1772797345031007500,8.014007568359375,2.3164953201413154,1.3892629858344792,1.8254443258345125
1772797345041033500,8.024033447265625,2.1986960391908883,1.3253256434530019,1.5572456629715858
1772797345051059500,8.0340595703125,1.8438339690059422,1.192222848778218,1.423173877134174
1772797345061085400,8.04408544921875,1.3462404211878776,1.2322174439057707,1.3701179942511021
1772797345071111400,8.054111328125,0.9502356087535619,1.2225065625566989,1.3278135147459804
1772797345081137400,8.064137451171876,0.826005417972803,1.1965086363386361,1.1730894015021622
1772797345091163400,8.074163330078125,0.9384960711210966,1.0467137231253087,0.9782518890567123
1772797345101188400,8.084188232421875,0.9853548529297113,0.8142460796613246,0.7565101492032408
1772797345111214300,8.09421435546875,0.7508452553093433,0.5206248793154955,0.5343913927309215
1772797345121240300,8.104240234375,0.39739305192232127,0.26184575017225,0.32160175174847244
1772797345131266300,8.114266357421876,-0.20432138010561465,0.14016067729704082,0.15139964499622582
1772797345141292300,8.124292236328126,-0.9161164815306663,0.07966890879217535,0.19102058450579643
1772797345151318500,8.134318603515625,-1.4926923806488512,0.08479430724820122,0.44786447127014395
1772797345161344500,8.144344482421875,-1.9329525143951176,0.1884395915692672,0.8761823844186961
1772797345171370500,8.15437060546875,-2.1526222702801228,0.3629147725308314,1.3276606622718274
1772797345181396500,8.164396484375,-2.1553876433402297,0.5701973770622164,1.833220512793958
1772797345191422500,8.17442236328125,-1.485238557511568,0.6356080068666488,2.1182852625228463
1772797345201448400,8.184448486328124,-1.0280728816717863,0.5554436792403459,2.2586147935807706
1772797345211474400,8.194474365234376,-0.5496925683677196,0.5184272962059825,2.5373881880804894
1772797345221500400,8.20450048828125,0.22070377510786054,0.46243967071995135,2.405797989925742
1772797345231526400,8.2145263671875,0.8448562489151954,0.31721319793332364,2.1011741148546337
1772797345241552400,8.224552490234375,1.0272504593729972,0.13087046904545277,2.082934839939326
1772797345251578400,8.234578369140625,0.9122066146105527,0.18603070379663258,2.0821403285607696
1772797345261604600,8.2446044921875,0.8131459363996982,0.3236032277639955,2.0442790922001004
1772797345271630600,8.254630615234374,0.8181389223814011,0.33761242736149577,2.0989004708342254
1772797345281656600,8.264656494140626,0.689992434939742,0.3226175411948934,2.0407129241511224
1772797345291681500,8.274681640625,0.4935001410245895,0.2724205183416605,1.7992681204400955
1772797345301707500,8.28470751953125,0.26013679082989694,0.14951741144619882,1.4764989323474467
1772797345311733500,8.2947333984375,0.16014029307365416,-0.003252389392070472,1.1351605067327617
1772797345321759500,8.304759521484375,0.28695465512871743,-0.19975896756090222,0.7428790987357496
1772797345331785500,8.314785400390624,0.4740156883537769,-0.35309206483773886,0.4361490451656282
1772797345341811500,8.3248115234375,0.6372738211870194,-0.4475171191371977,0.1783158551029861
1772797345351837400,8.33483740234375,0.7224182022482156,-0.5239662986978888,0.013591595239937304
1772797345361863000,8.34486279296875,0.8069488353252411,-0.6135690474074333,-0.0029370763652026653
1772797345371889000,8.354888916015625,0.9777093066126108,-0.7009768433559685,0.08626710148081183
1772797345381915000,8.364914794921875,0.9829407775253057,-0.8537246880907565,0.272397137466073
1772797345391940900,8.37494091796875,0.8314724512070417,-1.0636433036815374,0.47578883550614115
1772797345401967000,8.384967041015624,0.5484674104869366,-1.1937537116073071,0.5280030068680643
1772797345411993000,8.3949931640625,-0.028356910434365272,-1.2152959735907614,0.4586358945228159
1772797345422019000,8.40501904296875,-0.6818290022283792,-1.1880367952652275,0.351281289088726
1772797345432045000,8.415045166015625,-1.2321090150952339,-1.156736744051054,0.3941151992954314
1772797345442071000,8.425071044921875,-1.57706753090322,-1.134153740843013,0.6463472083501517
1772797345452097000,8.435096923828125,-1.7656126652061939,-1.0305145026702434,1.133506017524004
1772797345462123000,8.445123046875,-1.8524802167981862,-0.8459365914978086,1.7697621861010788
1772797345472149000,8.45514892578125,-1.7151666725605725,-0.6529268790014088,2.3302673865146932
1772797345482175000,8.465175048828126,-1.601347985678911,-0.3859380303196609,2.761124170491099
1772797345492200000,8.475199951171875,-1.437999836474657,-0.07812310412228107,2.7165289497002956
1772797345502226000,8.485225830078125,-1.2560071925550698,-0.12535510315746068,2.512108493134379
1772797345512252000,8.495251953125,-1.2144348267167806,-0.19061843344569204,2.222720619509369
1772797345522278000,8.50527783203125,-1.6099205837130546,-0.27629399877414107,1.8690607647210358
1772797345532304100,8.51530419921875,-1.9811445906341074,-0.5229719538982958,1.3907102620333431
1772797345542330000,8.525330078125,-1.96666715247035,-0.8844742658153176,0.9058579762361944
1772797345552356000,8.535356201171876,-1.865388213688135,-1.2712585377007721,0.4193237287014723
1772797345562382000,8.545382080078125,-1.7825906880140303,-1.681765338218212,-0.03948810691013932
1772797345572408000,8.555407958984375,-1.811342150723934,-2.0415248250558973,-0.368092430897057
1772797345582434000,8.56543408203125,-1.8577596185058354,-2.374788519155979,-0.5837051664762198
1772797345592460000,8.5754599609375,-1.920939420518279,-2.580200617107749,-0.5209842141471803
1772797345602486000,8.585486083984375,-1.9880407798886297,-2.826464949929714,0.49382104354202744
1772797345612512000,8.595511962890624,-1.7524989166110754,-1.0596085682727396,0.8289299271173775
1772797345622537700,8.605537841796876,-0.6319190161556005,0.1662292210659012,0.7494776202179491
1772797345632563700,8.615563720703125,-0.20957389380633829,-0.5957473403170704,2.186242508070171
1772797345642590000,8.62558984375,-0.8412386429399251,-0.0470722601625137,2.985283639010787
1772797345652616000,8.635615966796875,-1.5068495008170604,0.48296037110332396,3.8610537893667813
1772797345662642000,8.645641845703125,-2.0408324588775635,1.3179562837287784,3.960539122730493
1772797345672668000,8.65566796875,-2.463492054003477,1.615616311136633,3.6395787376254796
1772797345682694000,8.66569384765625,-2.2296014650642872,1.6247500501848757,3.4177544340550896
1772797345692719900,8.675719970703126,-1.6394453688830137,1.624634753242135,3.0660169256314633
1772797345702745000,8.6857451171875,-0.8210013260751963,1.6575269690185783,2.442157881812751
1772797345712770800,8.695770751953125,0.11902619239687919,1.5175015354737638,1.8893645709507165
1772797345722796800,8.705796875,0.8673422214895486,1.5329318904481828,1.4352894084721803
1772797345732822800,8.71582275390625,1.2889227892071007,1.5060375999122857,1.1797621572643517
1772797345742848800,8.725848876953124,1.613923974135518,1.6177525925129652,1.0048211854219435
1772797345752874800,8.735874755859374,1.860205258092284,1.6298671009376644,0.8289408869028091
1772797345762900700,8.745900634765626,1.9884025989383458,1.6781718437708912,0.630693712144345
1772797345772927000,8.755927001953125,1.8738544287383556,1.7190017206788062,0.489128647942096
1772797345782953000,8.765952880859375,1.4817144750386475,1.7326083673574029,0.39551980539634823
1772797345792979000,8.77597900390625,0.9720493811547756,1.7353398381479084,0.3371586557120085
1772797345803005000,8.7860048828125,0.47822190787196156,1.538818902660161,0.2914174797564745
1772797345813031000,8.796031005859374,0.1794049655139446,1.1996391894493252,0.1838489393107593
1772797345823057000,8.806056884765624,0.02920212908685207,0.8075192556243389,0.06655337009876966
1772797345833083000,8.816082763671876,-0.017709844213724135,0.38264552811291064,-0.049801849523186684
1772797345843108900,8.82610888671875,-0.2695475932538509,0.08677232932290062,-0.18525822158679364
1772797345853134800,8.836134765625,-0.7988572988063096,-0.15308363429410382,-0.29400720398873087
1772797345863160800,8.846160888671875,-1.5745570093870163,-0.09743591742007993,-0.4374281251907348
1772797345873186800,8.856186767578125,-1.8668144470989703,-0.09401413541100918,-0.5292554911471903
1772797345883213000,8.866213134765625,-1.4581798701941966,-0.1752557734126225,-0.4509181597523391
1772797345893239000,8.876239013671874,-0.6302028598874807,-0.311717376996018,-0.24759455851241946
1772797345903264000,8.886263916015626,0.3487327736496925,-0.3663849693920463,-0.06750643303990364
1772797345913290000,8.8962900390625,1.0686965684831142,-0.30028312418675046,0.1654346000894904
1772797345923316000,8.90631591796875,1.4583260006666183,-0.1967099917864427,0.48257381947115063
1772797345933342000,8.916342041015625,1.5807880127310752,-0.08246507884934544,0.6865529620103538
1772797345943368000,8.926367919921875,1.5683435416996478,0.14314667997104116,0.7947729521021246
1772797345953394000,8.936393798828124,1.4371803367853164,0.2577722719219513,0.9097004770085215
1772797345963420000,8.946419921875,1.313434130129218,0.38374399087410416,0.7679578642822802
1772797345973446000,8.95644580078125,1.30602648422122,0.2516474871650338,0.881429783552885
1772797345983471900,8.966471923828125,1.3111480650186538,0.4471587341535836,0.879333395795524
1772797345993497900,8.976497802734375,1.0587725558400154,0.4172898117210716,0.7027730060577392
1772797346003523800,8.98652392578125,0.9525491463929414,0.2171547956557013,0.7619087933763862
1772797346013550000,8.996550048828125,0.9377864615470171,0.16324945633644236,0.6998188324272632
1772797346023576000,9.006576171875,1.0258511139690876,0.053321036625280975,0.706881902681291
1772797346033602000,9.01660205078125,1.0838935530930758,0.031820129565522076,0.9588470774933695
1772797346043628000,9.0266279296875,1.1140338398128746,0.05582100934800691,1.1129913450226188
1772797346053654000,9.036654052734375,1.0610720649540424,0.06276751315081491,1.078553361108899
1772797346063680000,9.046679931640625,0.8775567415118217,0.0468336108347401,0.9305945042163133
1772797346073706000,9.0567060546875,0.4921791215538978,-0.0894269537512213,0.7601040820419788
1772797346083732000,9.06673193359375,-0.029297406154870986,-0.13140540703921577,0.6563184211358427
1772797346093758000,9.076758056640625,-0.6037777942985296,-0.09850295299654827,0.532916205611825
1772797346103784000,9.086783935546874,-0.9433324052363633,-0.10615514825014397,0.48210780939459796
1772797346113810000,9.096809814453126,-1.1577420486360788,-0.06803944393806159,0.37908027337938544
1772797346123835000,9.1068349609375,-1.059822941675782,-0.20363606472257523,0.22655001691803334
1772797346133860900,9.11686083984375,-0.9890613062322139,-0.40639045123979445,0.006147416713833808
1772797346143887000,9.12688720703125,-0.911178440606594,-0.4981718591626733,-0.18530863659977911
1772797346153913000,9.1369130859375,-0.5329530304908752,-0.5238781820230186,-0.2250084865644574
1772797346163939000,9.14693896484375,-0.021209376767277716,-0.5441579132573678,-0.09217281839326023
1772797346173965000,9.156965087890624,0.5731465091913939,-0.5336054299850016,0.06393705012053251
1772797346183991000,9.166990966796876,1.068284480550885,-0.6011357553571463,0.17177593194022775
1772797346194017000,9.17701708984375,1.2146516843378543,-0.6707596189424395,0.17523206374347208
1772797346204043000,9.18704296875,1.074756306913495,-0.7183302022822201,0.12794161251932382
1772797346214069000,9.197069091796875,0.7994973502755165,-0.7426940975576639,0.11537161541208624
1772797346224095000,9.207094970703125,0.6399170291721821,-0.7407854874573647,0.18508534923791883
1772797346234121000,9.217120849609374,0.49033963116705415,-0.7490599062625318,0.38746100210323925
1772797346244147000,9.22714697265625,0.2975081978470087,-0.744709090641886,0.6230962427526712
1772797346254173000,9.2371728515625,-0.0024117373168468475,-0.7236353229530155,0.7072584809087217
1772797346264199000,9.247198974609375,-0.3698877898812294,-0.686279624961689,0.6682146106347441
1772797346274225000,9.257224853515625,-0.6609902123391628,-0.664041854994744,0.5449744538046419
1772797346284251000,9.2672509765625,-1.0145926378518342,-0.7160315699510276,0.34738077451884747
1772797346294276900,9.27727685546875,-1.3582827411592007,-0.7647535883482545,0.19561331912353633
1772797346304302800,9.287302734375,-1.5124474669545889,-0.7582941100105642,0.10687646652832626
1772797346314328800,9.297328857421874,-1.4309791440576314,-0.7998709328282624,0.15415581183657048
1772797346324354800,9.307354736328126,-1.1241542518109082,-0.7795433803968131,0.3144108173310757
1772797346334380000,9.317380126953125,-0.5681932706981897,-0.6337981809657066,0.3654614978715777
1772797346344406000,9.327406005859375,-0.25024375784695146,-0.3778751353733241,0.2597141815036535
1772797346354431700,9.337431640625,-0.6664572455734014,-0.010789470366016029,0.26090952876806256
1772797346364457700,9.347457763671875,-1.691780536276102,0.13954367790985853,0.42255686540380116
1772797346374483700,9.357483642578124,-2.65589912443161,0.4226745369667187,0.5016362473376095
1772797346384510000,9.367510009765626,-3.3766794963449236,0.6809276694744825,0.4981611185729503
1772797346394536000,9.377535888671876,-3.557549273714423,0.9117525872327387,0.33077918380796906
1772797346404562000,9.38756201171875,-3.1203502811044452,1.038998472572863,0.3230643716469407
1772797346414588000,9.397587890625,-2.5273358728826043,1.0860835374180227,0.48043271578922864
1772797346424614000,9.40761376953125,-2.0046032076328992,1.153039131642133,0.5769342110365628
1772797346434640000,9.417639892578125,-1.182844341188669,1.1599842015396804,0.575246111819148
1772797346444665900,9.427665771484374,-0.16954291219115256,1.1957862403482198,0.5424181934505701
1772797346454691800,9.43769189453125,0.4643079488098621,1.0110643175952136,0.7437219793006777
1772797346464717800,9.4477177734375,0.9281786752462386,0.7952350166559219,0.9895713015809655
1772797346474743800,9.457743896484375,1.2795926508039235,0.806452868501842,0.9663073303714395
1772797346484770000,9.46777001953125,1.55381115847826,0.8524409318905323,0.9998872361510992
1772797346494796000,9.477796142578125,2.039614899781346,0.8575992645017803,1.1768841176100076
1772797346504822000,9.487822021484375,2.5819547672986984,0.9291888752020895,1.3499310923993586
1772797346514848000,9.497847900390624,2.847779540637135,0.8759571973606943,1.5315528571799397
1772797346524874000,9.5078740234375,2.590413383564353,0.9060912735354155,1.627806222885102
1772797346534899000,9.51789892578125,2.067506530791521,0.9855511792194097,1.5556893734402955
1772797346544925000,9.527925048828125,1.6504940016418694,1.0456661868337542,1.4855607752032578
1772797346554951000,9.537950927734375,1.3467343421846627,0.8566715551976114,1.4457253161601722
1772797346564977000,9.547976806640625,1.2897680078595877,0.6338567062199115,1.2755495128929615
1772797346575003000,9.5580029296875,1.2952479005753994,0.2818757078966126,1.0325225545570254
1772797346585028900,9.56802880859375,1.1840753442883492,0.08975618570558726,0.8311815054364502
1772797346595054800,9.578054931640626,0.7290799982249736,-0.09417579224612563,0.6994988066926598
1772797346605080800,9.588080810546876,0.03488368185460567,-0.20196685286872088,0.6409573320053518
1772797346615107000,9.598107177734375,-0.6949187854260206,-0.13186930735707283,0.599921995653212
1772797346625133000,9.608133056640625,-1.1927069790333509,-0.0290929696239531,0.5836617657259107
1772797346635159000,9.618158935546875,-1.345894384229183,0.026068653366714715,0.6808152951411902
1772797346645185000,9.62818505859375,-1.133858484223485,-0.09651756959930062,0.8791849272355436
1772797346655211000,9.6382109375,-0.8253799795508384,-0.18605412120483814,0.9914059696622193
1772797346665237000,9.648237060546874,-0.3360533248186111,-0.2986236117430031,1.0136386981278658
1772797346675263000,9.658262939453126,0.041913726621866224,-0.40963279416188597,0.9917800636716186
1772797346685289000,9.6682890625,0.2872293804168701,-0.4866231679271906,0.9655386840865016
1772797346695315000,9.67831494140625,0.8329740879416465,-0.5591694948304444,0.9810554021701217
1772797346705341000,9.6883408203125,1.3134820609241724,-0.5854053945228457,1.0345305333785713
1772797346715367000,9.698366943359375,1.464468156683445,-0.5685904533222317,1.1962439209878444
1772797346725393200,9.70839306640625,1.4347002104073763,-0.5405515227958559,1.2908008580386638
1772797346735419100,9.718419189453124,1.3737544510573148,-0.520720375579223,1.265167527349293
1772797346745445000,9.728445068359376,1.0871961017698049,-0.5852134521473199,1.2836273131474851
1772797346755470000,9.738469970703125,0.6157312669426203,-0.6091573684450239,1.3221668871611356
1772797346765496000,9.74849609375,0.20535072315335273,-0.6002179098598659,1.469632115317881
1772797346775522000,9.75852197265625,-0.011599836900830269,-0.4386586168337613,1.5858162161566316
1772797346785548000,9.768548095703125,-0.0801303522914648,-0.38058483272343874,1.7458493955940007
1772797346795574000,9.778573974609374,-0.07326338913142681,-0.3185056123640388,1.737094426730275
1772797346805600000,9.78860009765625,-0.0613122545748949,-0.41698732164315877,1.6059079870708286
1772797346815626000,9.7986259765625,-0.1252086804240942,-0.5810135893046856,1.4580793324291705
1772797346825652000,9.80865185546875,-0.17493395757973193,-0.6129907360628247,1.298077132651955
1772797346835678000,9.818677978515625,-0.19231062431633472,-0.650329409854114,1.2624324032969771
1772797346845704000,9.828703857421875,-0.20397008244991302,-0.6505833115499466,1.2570911883994935
1772797346855730200,9.838730224609375,-0.32697686891555783,-0.6134844378639012,1.0051780360355973
1772797346865756200,9.848756103515624,-0.34520986022055145,-0.8054483676344156,0.7709085307814181
1772797346875782000,9.858781982421876,-0.38142274485230443,-0.9227391145408153,0.507691017331928
1772797346885807900,9.868807861328126,-0.47031508027017116,-1.0776358078725636,0.2803818526096642
1772797346895833900,9.878833740234375,-0.5916027878582477,-1.1371306377619503,0.10680296290069818
1772797346905859800,9.88885986328125,-0.8901070110052823,-1.1063964768022299,0.14748013346493244
1772797346915885800,9.8988857421875,-1.047955978271365,-0.9580296236306428,0.278173090519011
1772797346925911800,9.908911865234375,-1.0726181258410215,-0.8300104158304631,0.4308282885342836
1772797346935937800,9.918937744140624,-0.9784861362040043,-0.8131734089285135,0.6340371773533523
1772797346945963800,9.9289638671875,-0.8539525785624981,-0.804375185444951,0.6616198885448277
1772797346955989800,9.93898974609375,-0.8845236579149961,-0.7837605597004293,0.6588312807396054
1772797346966016000,9.94901611328125,-0.9285042539387941,-0.8022387579381466,0.7734455019131302
1772797346976041000,9.959041015625,-1.1187146911054848,-0.7532689753249288,0.7912498925425112
1772797346986067000,9.96906689453125,-1.3789321459561585,-0.7127392504073679,0.7698520074658095
1772797346996093000,9.979093017578125,-1.6103478692144155,-0.6675142072804272,0.8088853563457727
1772797347006119000,9.989118896484374,-1.748151827317476,-0.6036049219496548,0.8355778406992554
1772797347016145000,9.999144775390626,-1.797794686886668,-0.6117698159657419,0.7725887389533221
1772797347026171000,10.0091708984375,-1.712580747720599,-0.6606589345581829,0.65062123240754
1772797347036196900,10.01919677734375,-1.5803864461928605,-0.7694383120983839,0.4708006718300283
1772797347046222800,10.029222900390625,-1.5216776521146296,-0.8757102368623018,0.22237579997330903
1772797347056248800,10.039248779296875,-1.3769143763929605,-0.8460846216663718,-0.12335939929559826
1772797347066274800,10.04927490234375,-0.9454746779620646,-0.813279280455783,-0.4398252494603395
1772797347076300800,10.05930078125,-0.44510231308043,-0.690969390213117,-0.6139930449731648
1772797347086326800,10.069326904296876,-0.3693699034869671,-0.44028110346905885,-0.33702509246021506
1772797347096353000,10.07935302734375,-0.8762257851690053,-0.14482486971579492,0.2899002070613205
1772797347106379000,10.08937890625,-1.6986059983819721,0.2453367696482688,0.9429868066690862
1772797347116405000,10.099405029296875,-2.377361584514379,0.8515363842662423,1.134913107842952
1772797347126431000,10.109430908203125,-2.803674441450834,0.9729346395567059,1.4671427827201782
1772797347136457000,10.11945703125,-2.7000124069243667,1.1386140081875025,1.674749029715359
1772797347146483000,10.12948291015625,-1.9680682514399288,1.2265160173937677,1.557991805163771
1772797347156509000,10.139509033203124,-0.9496008179813623,1.0059808768510818,1.4469120417267083
1772797347166535000,10.149534912109376,-0.09632803837656974,0.8646980636563152,1.0869820206277072
1772797347176561000,10.159560791015625,0.35041795025765893,0.6898855404991656,0.4778874152205884
1772797347186585900,10.1695859375,0.8563748372733593,0.5687716551080346,-0.07912745885923504
1772797347196611800,10.17961181640625,1.3164040858507156,0.4792880757987499,-0.5460933748319745
1772797347206637800,10.189637939453124,1.5240432122021912,0.4671379846040159,-0.8171788451775908
1772797347216663800,10.199663818359374,1.582056425231695,0.5473368720870465,-1.0764455751746893
1772797347226690000,10.20968994140625,1.4006681769460438,0.4854490826465189,-1.1020948340855539
1772797347236716000,10.219716064453126,1.0925362937539815,0.5418337811587378,-0.9788720667816698
1772797347246742000,10.229741943359375,0.7687029835611582,0.5693243570873513,-0.8985676730975508
1772797347256768000,10.23976806640625,0.45168578312397,0.5268720300767571,-0.8224939027205109
1772797347266794000,10.2497939453125,0.24382336941063404,0.42192759105693545,-0.8118079657942057
1772797347276820000,10.259820068359375,0.10047872831523418,0.29362660717330874,-0.7738213494881987
1772797347286846000,10.269845947265624,-0.09652619129717349,0.24244970643725244,-0.6120126848109066
1772797347296872000,10.279871826171876,-0.38342531684637066,0.22463585385978221,-0.44643794559836386
1772797347306898000,10.28989794921875,-0.5504647217839956,0.2664151404470205,-0.31989187909066674
1772797347316924000,10.299923828125,-0.5778057331740856,0.2833389488495886,-0.08966244300752878
1772797347326950000,10.309949951171875,-0.5018687409192324,0.2535028692407533,0.05563084793761372
1772797347336976100,10.31997607421875,-0.3468763321280479,0.1775787730000913,0.15597601300105451
1772797347347002000,10.330002197265625,-0.14543255328536034,0.1312170539934188,0.23027254457250237
1772797347357028000,10.340028076171874,0.12906769393980502,0.04511672391425818,0.3159003252364695
1772797347367054300,10.350054443359374,0.5959183129698038,-0.00856565683670342,0.45366877363473174
1772797347377080300,10.360080322265626,1.1264619442313908,-0.07382630197750405,0.5375958878606557
1772797347387106300,10.370106201171875,1.4860259084969758,-0.1009788050581701,0.5770632442437112
1772797347397132000,10.380132080078125,1.6025310579836367,-0.09508733586678281,0.5128400706581772
1772797347407157200,10.3901572265625,1.7291531123369932,-0.13645721966922283,0.42445378506630654
1772797347417183200,10.400183349609375,1.6972230195909737,-0.14213555756658314,0.3491501222789287
1772797347427209200,10.410209228515624,1.6057506045520304,-0.17662863266840576,0.33070684922412036
1772797347437235200,10.420235107421876,1.5131132373869418,-0.17287264113575218,0.3093661011621356
1772797347447261200,10.43026123046875,1.4626795197010038,-0.1001440164681524,0.23323943155407903
1772797347457287200,10.440287109375,1.4350404021471739,-0.07918985657095909,0.2349281152933836
1772797347467313200,10.450313232421875,1.4087111981481313,-0.07750278026685119,0.24005787939727305
1772797347477339100,10.460339111328125,1.4457862525671719,-0.045123555513843894,0.1480915433615446
1772797347487365000,10.470365234375,1.54806706186831,-0.07981222625300288,0.013737871842831373
1772797347497391000,10.48039111328125,1.574059581258893,-0.12172383398301899,-0.08122092400714755
1772797347507417000,10.4904169921875,1.6122686081439255,-0.1548517582114786,-0.07539630950689315
1772797347517443000,10.500443115234376,1.558366922086477,-0.20747472957000135,-0.05118775092363357
1772797347527469000,10.510468994140625,1.3726380142480135,-0.2655859230812639,-0.03704699736833572
1772797347537495000,10.5204951171875,1.1359510725885629,-0.3682273823883384,-0.04905293085202574
1772797347547521000,10.53052099609375,0.876196559074521,-0.5329566837526858,-0.1426410228706896
1772797347557547000,10.540547119140625,0.4508920023977756,-0.7157993686303495,-0.3341743792042136
1772797347567573000,10.550572998046874,0.038030163186788556,-0.9323142406810074,-0.4740574816688895
1772797347577599000,10.560598876953126,-0.13078852638304234,-1.0862776717506348,-0.526512622179836
1772797347587625000,10.570625,-0.1552063438028097,-1.1762214159175752,-0.460666815828532
1772797347597651000,10.58065087890625,-0.1510240896821022,-1.2243963948912917,-0.2643926947087049
1772797347607677200,10.59067724609375,-0.12981179030537604,-1.1856406208436936,-0.047724166466295716
1772797347617703200,10.600703125,-0.11568448075354099,-1.2506444964781402,0.13535086586251854
1772797347627728100,10.61072802734375,-0.004195698124170303,-1.2624934858344494,0.16606120755523443
1772797347637754000,10.620754150390624,-0.025796120035648344,-1.266976914858818,0.11888020805492996
1772797347647780000,10.630780029296876,-0.29046003290116784,-1.3362633631832896,0.1873060940273106
1772797347657806000,10.64080615234375,-0.5960229423880576,-1.330910019456595,0.30563802054971456
1772797347667832000,10.65083203125,-0.864016291937232,-1.2725298728108405,0.2754765449114144
1772797347677858000,10.660858154296875,-1.196515139144659,-1.1766807039923965,0.15480068561136723
1772797347687884000,10.670884033203125,-1.436492939043045,-1.1243856494139879,0.05331526447162032
1772797347697910000,10.680909912109374,-1.4364830021709203,-1.0874867552794516,-0.11500555857867002
1772797347707936000,10.69093603515625,-1.3403361655801533,-1.1223935257486999,-0.33728184370025993
1772797347717962000,10.7009619140625,-1.2527274402320385,-1.186387566753477,-0.5956868423014879
1772797347727988000,10.710988037109376,-0.9849509483039378,-1.253765989499539,-0.7691580338522791
1772797347738014200,10.72101416015625,-0.7747562922507524,-1.2950976784497499,-0.9131915339946747
1772797347748040200,10.731040283203125,-0.7599222957342863,-1.3719240207597612,-1.1507977824561297
1772797347758066200,10.741066162109375,-0.6956044296026229,-1.4124217431038617,-1.5830280467428266
1772797347768092200,10.751092041015625,-0.3405079661399126,-1.2930410381808877,-1.8900667278707026
1772797347778118100,10.7611181640625,-0.059687283721566196,-1.1369758855916559,-1.7754086675554512
1772797347788144000,10.77114404296875,-0.1520779826492071,-0.9495627509932965,-1.4184579545281826
1772797347798170000,10.781170166015626,-0.7945826902270317,-0.7770297901406884,-1.116273435433209
1772797347808196000,10.791196044921875,-1.5862094532579183,-0.4930803081773221,-0.6989898342572152
1772797347818222000,10.80122216796875,-2.0953823797106743,-0.14222206680625676,-0.26495193602666256
1772797347828248000,10.811248046875,-2.0255945577353236,0.2226247332330793,0.006591068828105926
1772797347838274000,10.821274169921875,-1.72481362182796,0.371901248595491,0.16620704576671122
1772797347848299000,10.831299072265624,-1.3912252258181572,0.46072285686470565,0.24670024002119897
1772797347858325000,10.841324951171876,-1.0092524458676575,0.6033962476350366,0.35053894628882404
1772797347868351200,10.851351318359375,-0.6907599121809005,0.7079731319840997,0.49904550019204613
1772797347878377200,10.861377197265625,-0.2831120082259178,0.7769175619378685,0.645227848931402
1772797347888403200,10.8714033203125,0.13896540309786795,0.9060390318915248,0.8583420456930995
1772797347898429200,10.88142919921875,0.5550795221030712,1.0129395368825644,1.1621065274558962
1772797347908455200,10.891455078125,1.0047054500877857,1.198548544668406,1.3177826807275415
1772797347918481200,10.901481201171874,1.293417178016901,1.391884712640196,1.6518524305135012
1772797347928507100,10.911507080078126,1.5733517252504825,1.454123434410244,1.9266263801135122
1772797347938533000,10.921533203125,1.569371131181717,1.4874036265909671,1.9335003575362264
1772797347948559000,10.93155908203125,1.3232494217008353,1.3917916275292634,1.64367643058151
1772797347958585000,10.941585205078125,1.2636959934920071,1.126006236353144,1.215302038005367
1772797347968611000,10.951611083984375,1.549282867398858,0.8420444063648581,0.9232716139823198
1772797347978637300,10.96163720703125,1.9579571917921303,0.6204388601116836,0.8080654182650149
1772797347988663300,10.971663330078124,2.5136837796270846,0.5623741726232693,0.683027710493654
1772797347998689300,10.981689208984376,2.2443717486947774,0.3261059678325429,0.6608282267104834
1772797348008715300,10.99171533203125,1.8434850094377992,0.09137151194773614,0.654760670299828
1772797348018741200,11.0017412109375,1.362052907347679,0.022430954451486466,0.37873204446360464
1772797348028767200,11.011767333984375,0.8030237708359956,-0.07511003991141915,0.2251503061879426
1772797348038793000,11.02179296875,0.31132687984108925,-0.26093163100201633,0.11372677081450819
1772797348048819000,11.03181884765625,-0.06897066037356853,-0.4143000187879428,0.015686448627337812
1772797348058844200,11.04184423828125,-0.11280863305628298,-0.48694461843390013,0.06874050487950444
1772797348068870100,11.0518701171875,-0.48154199220538135,-0.5666302591651677,0.08611541805043817
1772797348078896000,11.061896240234375,-1.2297370252668858,-0.49374187735859304,0.26006686739884316
1772797348088922000,11.071922119140625,-1.2728116123616695,-0.32623507410492747,0.5665078748945146
