time,seconds_elapsed,z,y,x
1772797811679876900,0.084876953125,-1.0074462890625,-0.0304107666015625,0.0467529296875
1772797811689903600,0.094903564453125,-0.9699554443359375,-0.0381622314453125,0.05438232421875
1772797811699929900,0.104929931640625,-0.9561309814453125,-0.0382232666015625,0.0553741455078125
1772797811709955800,0.114955810546875,-0.9884490966796875,-0.031402587890625,0.0490264892578125
1772797811719981800,0.12498193359375,-1.0114898681640625,-0.0235137939453125,0.0404205322265625
1772797811730008800,0.1350087890625,-1.005096435546875,-0.0191802978515625,0.0356292724609375
1772797811740034800,0.145034912109375,-0.998870849609375,-0.019683837890625,0.0357818603515625
1772797811750060800,0.155060791015625,-1.0045318603515625,-0.024444580078125,0.038970947265625
1772797811760086800,0.165086669921875,-1.0001373291015625,-0.02880859375,0.043975830078125
1772797811770114000,0.175114013671875,-0.9804229736328125,-0.032928466796875,0.0481414794921875
1772797811780140000,0.18514013671875,-0.9732208251953125,-0.0336456298828125,0.0511016845703125
1772797811790166000,0.195166015625,-0.988739013671875,-0.0299835205078125,0.047637939453125
1772797811800192000,0.20519189453125,-1.0014801025390625,-0.0262908935546875,0.0425872802734375
1772797811810218800,0.21521875,-1.0009307861328125,-0.0234222412109375,0.0386505126953125
1772797811820244700,0.22524462890625,-0.9991912841796875,-0.02337646484375,0.0388031005859375
1772797811830271700,0.235271728515625,-0.9997406005859375,-0.026214599609375,0.0411834716796875
1772797811840297700,0.245297607421875,-0.9954833984375,-0.029876708984375,0.044525146484375
1772797811850324700,0.25532470703125,-0.9844512939453125,-0.03179931640625,0.046661376953125
1772797811860350700,0.265350830078125,-0.982086181640625,-0.030609130859375,0.04766845703125
1772797811870376700,0.275376708984375,-0.98980712890625,-0.0286102294921875,0.045867919921875
1772797811880402700,0.285402587890625,-0.99664306640625,-0.026031494140625,0.04248046875
1772797811890429400,0.295429443359375,-0.997406005859375,-0.023681640625,0.0401763916015625
1772797811900455700,0.30545556640625,-0.9989166259765625,-0.024627685546875,0.04034423828125
1772797811910481700,0.315481689453125,-0.997894287109375,-0.0247955322265625,0.0421600341796875
1772797811920507600,0.325507568359375,-0.992218017578125,-0.02764892578125,0.0436859130859375
1772797811930534700,0.33553466796875,-0.987762451171875,-0.0300750732421875,0.0453643798828125
1772797811940560600,0.345560546875,-0.987152099609375,-0.0294647216796875,0.046783447265625
1772797811950586600,0.355586669921875,-0.990325927734375,-0.027740478515625,0.0461273193359375
1772797811960612600,0.365612548828125,-0.99505615234375,-0.026702880859375,0.042266845703125
1772797811970639600,0.3756396484375,-0.9962921142578125,-0.0255584716796875,0.0405731201171875
1772797811980665600,0.38566552734375,-0.9974212646484375,-0.0262451171875,0.0408172607421875
1772797811990691600,0.395691650390625,-0.995330810546875,-0.0263519287109375,0.04241943359375
1772797812000717600,0.405717529296875,-0.9930572509765625,-0.0276641845703125,0.044952392578125
1772797812010744600,0.41574462890625,-0.9911041259765625,-0.02911376953125,0.0450286865234375
1772797812020770600,0.4257705078125,-0.9892730712890625,-0.0291290283203125,0.04541015625
1772797812030796500,0.435796630859375,-0.9921417236328125,-0.028900146484375,0.043731689453125
1772797812040822500,0.445822509765625,-0.9927215576171875,-0.0261993408203125,0.043212890625
1772797812050849800,0.455849853515625,-0.995361328125,-0.02655029296875,0.0415496826171875
1772797812060875800,0.465875732421875,-0.996063232421875,-0.0260009765625,0.04193115234375
1772797812070901800,0.47590185546875,-0.99530029296875,-0.0267181396484375,0.0420379638671875
1772797812080928500,0.485928466796875,-0.9933013916015625,-0.0275115966796875,0.043060302734375
1772797812090954500,0.49595458984375,-0.9907989501953125,-0.028350830078125,0.0442962646484375
1772797812100980500,0.50598046875,-0.9913330078125,-0.02978515625,0.04498291015625
1772797812111006500,0.51600634765625,-0.9918670654296875,-0.0279083251953125,0.0439910888671875
1772797812121033700,0.52603369140625,-0.993408203125,-0.0272369384765625,0.0430145263671875
1772797812131059700,0.536059814453125,-0.9933013916015625,-0.026947021484375,0.042083740234375
1772797812141085700,0.546085693359375,-0.994171142578125,-0.026641845703125,0.0429840087890625
1772797812151111700,0.556111572265625,-0.9929656982421875,-0.027069091796875,0.0430145263671875
1772797812161138400,0.566138427734375,-0.9922332763671875,-0.0276031494140625,0.043426513671875
1772797812171164400,0.576164306640625,-0.9914398193359375,-0.0283050537109375,0.044281005859375
1772797812181190400,0.5861904296875,-0.991485595703125,-0.0271453857421875,0.0432586669921875
1772797812191216600,0.596216552734375,-0.9936981201171875,-0.0264434814453125,0.0430755615234375
1772797812201243600,0.60624365234375,-0.99383544921875,-0.0264892578125,0.043060302734375
1772797812211269600,0.61626953125,-0.99365234375,-0.024993896484375,0.0421600341796875
1772797812221295600,0.626295654296875,-0.9932403564453125,-0.027618408203125,0.042877197265625
1772797812231321600,0.636321533203125,-0.9936370849609375,-0.02691650390625,0.0411376953125
1772797812241348600,0.6463486328125,-0.9939422607421875,-0.029083251953125,0.043914794921875
1772797812251374800,0.656374755859375,-0.9916229248046875,-0.028076171875,0.0448760986328125
1772797812261400600,0.666400634765625,-0.991851806640625,-0.0275421142578125,0.0446929931640625
1772797812271427600,0.676427490234375,-0.992431640625,-0.0271759033203125,0.04486083984375
1772797812281453600,0.68645361328125,-0.9939422607421875,-0.027679443359375,0.0423736572265625
1772797812291479600,0.6964794921875,-0.9927520751953125,-0.0273895263671875,0.0412139892578125
1772797812301505500,0.706505615234375,-0.99359130859375,-0.0264434814453125,0.04296875
1772797812311532500,0.716532470703125,-0.9946441650390625,-0.0278778076171875,0.043914794921875
1772797812321558800,0.726558837890625,-0.9932708740234375,-0.0275726318359375,0.0423431396484375
1772797812331584800,0.736584716796875,-0.9905548095703125,-0.0279541015625,0.0446014404296875
1772797812341610800,0.74661083984375,-0.9908447265625,-0.02813720703125,0.04266357421875
1772797812351637500,0.756637451171875,-0.9920501708984375,-0.027069091796875,0.043914794921875
1772797812361663500,0.76666357421875,-0.9949798583984375,-0.029083251953125,0.0450439453125
1772797812371689500,0.776689453125,-0.99212646484375,-0.0279693603515625,0.0423736572265625
1772797812381715500,0.786715576171875,-0.9935455322265625,-0.0262451171875,0.0458526611328125
1772797812391742700,0.79674267578125,-0.9951171875,-0.0272216796875,0.042999267578125
1772797812401768700,0.806768798828125,-0.9927825927734375,-0.02691650390625,0.0426177978515625
1772797812411794700,0.816794677734375,-0.992156982421875,-0.028411865234375,0.0438232421875
1772797812421820700,0.826820556640625,-0.99188232421875,-0.0272979736328125,0.04327392578125
1772797812431847700,0.83684765625,-0.993133544921875,-0.02923583984375,0.0449066162109375
1772797812441873700,0.846873779296875,-0.991363525390625,-0.028106689453125,0.0428924560546875
1772797812451899600,0.856899658203125,-0.99212646484375,-0.0270843505859375,0.04254150390625
1772797812461926700,0.8669267578125,-0.9933624267578125,-0.0265350341796875,0.0423583984375
1772797812471952600,0.87695263671875,-0.99554443359375,-0.0260162353515625,0.043212890625
1772797812481978600,0.886978515625,-0.99334716796875,-0.0275726318359375,0.042327880859375
1772797812492004600,0.897004638671875,-0.992950439453125,-0.027587890625,0.041290283203125
1772797812502031600,0.907031494140625,-0.9929351806640625,-0.026336669921875,0.04296875
1772797812512057600,0.9170576171875,-0.9938812255859375,-0.0269317626953125,0.0435791015625
1772797812522083600,0.92708349609375,-0.9923858642578125,-0.0271148681640625,0.0430145263671875
1772797812532109600,0.937109619140625,-0.9915924072265625,-0.0281829833984375,0.0425872802734375
1772797812542136600,0.947136474609375,-0.9926605224609375,-0.0272064208984375,0.0432586669921875
1772797812552162600,0.95716259765625,-0.995452880859375,-0.02593994140625,0.0438995361328125
1772797812562188500,0.9671884765625,-0.994415283203125,-0.026885986328125,0.04351806640625
1772797812572215600,0.977215576171875,-0.9930572509765625,-0.0265655517578125,0.04217529296875
1772797812582241500,0.987241455078125,-0.9939117431640625,-0.02752685546875,0.0436859130859375
1772797812592267500,0.997267578125,-0.9939727783203125,-0.026641845703125,0.0443572998046875
1772797812602293500,1.00729345703125,-0.99359130859375,-0.0262451171875,0.043212890625
1772797812612320800,1.01732080078125,-0.99371337890625,-0.0265045166015625,0.043731689453125
1772797812622346800,1.0273466796875,-0.9943389892578125,-0.026885986328125,0.0444793701171875
1772797812632372700,1.037372802734375,-0.9941253662109375,-0.026214599609375,0.0439300537109375
1772797812642399500,1.0473994140625,-0.992950439453125,-0.02752685546875,0.04443359375
1772797812652425500,1.057425537109375,-0.9917144775390625,-0.028106689453125,0.044342041015625
1772797812662451500,1.067451416015625,-0.9923248291015625,-0.0288848876953125,0.04388427734375
1772797812672477700,1.077477783203125,-0.993560791015625,-0.0284423828125,0.0447235107421875
1772797812682504700,1.087504638671875,-0.9935302734375,-0.0277099609375,0.044891357421875
1772797812692530700,1.09753076171875,-0.992828369140625,-0.029510498046875,0.044586181640625
1772797812702556700,1.107556640625,-0.9920654296875,-0.0286712646484375,0.0452423095703125
1772797812712582700,1.117582763671875,-0.9935455322265625,-0.0275115966796875,0.0445709228515625
1772797812722609400,1.127609375,-0.993499755859375,-0.027587890625,0.0438232421875
1772797812732635400,1.137635498046875,-0.9924774169921875,-0.0284271240234375,0.0438690185546875
1772797812742661600,1.14766162109375,-0.9921417236328125,-0.0264892578125,0.044647216796875
1772797812752688600,1.157688720703125,-0.9934234619140625,-0.02655029296875,0.0438079833984375
1772797812762714600,1.167714599609375,-0.993255615234375,-0.0265350341796875,0.04315185546875
1772797812772740600,1.17774072265625,-0.991729736328125,-0.0280609130859375,0.0422821044921875
1772797812782766600,1.1877666015625,-0.9929962158203125,-0.0280914306640625,0.0435028076171875
1772797812792793600,1.197793701171875,-0.993743896484375,-0.0280914306640625,0.0442962646484375
1772797812802819600,1.207819580078125,-0.9931182861328125,-0.027313232421875,0.0438232421875
1772797812812845800,1.217845703125,-0.991607666015625,-0.027984619140625,0.0439453125
1772797812822872600,1.22787255859375,-0.9930267333984375,-0.0274200439453125,0.0444183349609375
1772797812832898300,1.237898193359375,-0.993560791015625,-0.0266876220703125,0.0439300537109375
1772797812842924300,1.24792431640625,-0.994110107421875,-0.0261688232421875,0.0437164306640625
1772797812852950300,1.2579501953125,-0.9933013916015625,-0.0280609130859375,0.04351806640625
1772797812862977500,1.2679775390625,-0.99420166015625,-0.026275634765625,0.0425567626953125
1772797812873003500,1.27800341796875,-0.993865966796875,-0.0281982421875,0.043670654296875
1772797812883029500,1.288029541015625,-0.993804931640625,-0.028228759765625,0.0441436767578125
1772797812893055500,1.298055419921875,-0.9926605224609375,-0.0267333984375,0.0434417724609375
1772797812903082500,1.30808251953125,-0.9935455322265625,-0.0268707275390625,0.0439910888671875
1772797812913108200,1.318108154296875,-0.99359130859375,-0.0277862548828125,0.0439910888671875
1772797812923134200,1.32813427734375,-0.9944305419921875,-0.027099609375,0.0429229736328125
1772797812933161500,1.338161376953125,-0.993896484375,-0.026580810546875,0.0428924560546875
1772797812943187500,1.3481875,-0.993896484375,-0.02740478515625,0.0428314208984375
1772797812953213400,1.35821337890625,-0.9942779541015625,-0.02740478515625,0.0432586669921875
1772797812963239400,1.368239501953125,-0.9936981201171875,-0.026763916015625,0.0434417724609375
1772797812973266400,1.378266357421875,-0.9943389892578125,-0.0269317626953125,0.043060302734375
1772797812983292400,1.38829248046875,-0.9934234619140625,-0.0272064208984375,0.04388427734375
1772797812993318400,1.398318359375,-0.9931488037109375,-0.02667236328125,0.044403076171875
1772797813003345400,1.408345458984375,-0.99322509765625,-0.0269317626953125,0.045654296875
1772797813013371400,1.418371337890625,-0.9942779541015625,-0.027099609375,0.0444183349609375
1772797813023397400,1.4283974609375,-0.9941864013671875,-0.027008056640625,0.0435943603515625
1772797813033423400,1.43842333984375,-0.994171142578125,-0.0270538330078125,0.043487548828125
1772797813043450400,1.448450439453125,-0.99407958984375,-0.026885986328125,0.043609619140625
1772797813053476400,1.458476318359375,-0.995330810546875,-0.0265960693359375,0.04376220703125
1772797813063502300,1.46850244140625,-0.9938812255859375,-0.0269927978515625,0.0430145263671875
1772797813073529600,1.478529541015625,-0.993011474609375,-0.0274810791015625,0.0434112548828125
1772797813083555600,1.4885556640625,-0.994842529296875,-0.02642822265625,0.04425048828125
1772797813093581300,1.498581298828125,-0.9931182861328125,-0.027069091796875,0.0447845458984375
1772797813103607300,1.508607177734375,-0.992523193359375,-0.027191162109375,0.043792724609375
1772797813113634300,1.51863427734375,-0.9925994873046875,-0.027130126953125,0.0435638427734375
1772797813123660300,1.528660400390625,-0.9928131103515625,-0.027008056640625,0.0439605712890625
1772797813133686300,1.538686279296875,-0.9941558837890625,-0.02703857421875,0.0447235107421875
1772797813143712300,1.548712158203125,-0.9937286376953125,-0.02777099609375,0.043426513671875
1772797813153739500,1.558739501953125,-0.993865966796875,-0.0272369384765625,0.044097900390625
1772797813163765500,1.568765625,-0.994781494140625,-0.02734375,0.043792724609375
1772797813173791500,1.57879150390625,-0.9949188232421875,-0.0272216796875,0.044189453125
1772797813183818200,1.588818359375,-0.9940948486328125,-0.0265655517578125,0.0434722900390625
1772797813193844200,1.59884423828125,-0.9944000244140625,-0.0272979736328125,0.04400634765625
1772797813203870200,1.6088701171875,-0.9933319091796875,-0.0272674560546875,0.0435943603515625
1772797813213896400,1.618896484375,-0.993438720703125,-0.0269012451171875,0.044708251953125
1772797813223923500,1.62892333984375,-0.99407958984375,-0.0264129638671875,0.04400634765625
1772797813233949400,1.638949462890625,-0.9938507080078125,-0.026397705078125,0.04364013671875
1772797813243975400,1.648975341796875,-0.9934234619140625,-0.0273895263671875,0.0429534912109375
1772797813254002400,1.65900244140625,-0.99322509765625,-0.027008056640625,0.042449951171875
1772797813264028400,1.6690283203125,-0.995208740234375,-0.026611328125,0.0442352294921875
1772797813274054400,1.679054443359375,-0.994720458984375,-0.027435302734375,0.04437255859375
1772797813284080400,1.689080322265625,-0.9941558837890625,-0.0265655517578125,0.0442047119140625
1772797813294107400,1.699107421875,-0.9939727783203125,-0.02642822265625,0.0441741943359375
1772797813304133400,1.70913330078125,-0.9940032958984375,-0.025665283203125,0.042999267578125
1772797813314159400,1.719159423828125,-0.9944610595703125,-0.0260162353515625,0.0438079833984375
1772797813324186400,1.729186279296875,-0.994384765625,-0.0259246826171875,0.043975830078125
1772797813334212400,1.73921240234375,-0.994140625,-0.02801513671875,0.0436859130859375
1772797813344238300,1.74923828125,-0.99322509765625,-0.0275726318359375,0.043304443359375
1772797813354264600,1.7592646484375,-0.99334716796875,-0.0279541015625,0.0438385009765625
1772797813364291300,1.769291259765625,-0.9940185546875,-0.0267486572265625,0.0428924560546875
1772797813374317300,1.7793173828125,-0.993682861328125,-0.026123046875,0.043212890625
1772797813384343300,1.78934326171875,-0.9935302734375,-0.0279998779296875,0.0430908203125
1772797813394370300,1.799370361328125,-0.99395751953125,-0.0281982421875,0.0439605712890625
1772797813404396300,1.809396240234375,-0.994476318359375,-0.0278778076171875,0.0434112548828125
1772797813414422500,1.819422607421875,-0.9940643310546875,-0.026275634765625,0.0431060791015625
1772797813424448500,1.829448486328125,-0.9936981201171875,-0.02734375,0.0434722900390625
1772797813434475500,1.8394755859375,-0.9939422607421875,-0.0271759033203125,0.04327392578125
1772797813444501500,1.84950146484375,-0.9936676025390625,-0.027130126953125,0.0435791015625
1772797813454527500,1.859527587890625,-0.9934234619140625,-0.02777099609375,0.04388427734375
1772797813464553500,1.869553466796875,-0.99346923828125,-0.02685546875,0.0441741943359375
1772797813474580200,1.879580322265625,-0.994537353515625,-0.0272064208984375,0.0434722900390625
1772797813484606500,1.8896064453125,-0.9946441650390625,-0.027374267578125,0.04327392578125
1772797813494632400,1.899632568359375,-0.9940948486328125,-0.0268707275390625,0.044281005859375
1772797813504659500,1.909659423828125,-0.993194580078125,-0.02655029296875,0.0442962646484375
1772797813514685400,1.919685546875,-0.9940643310546875,-0.0271453857421875,0.043701171875
1772797813524711400,1.92971142578125,-0.994720458984375,-0.0261688232421875,0.04425048828125
1772797813534737400,1.9397373046875,-0.9939117431640625,-0.026397705078125,0.0434417724609375
1772797813544764200,1.94976416015625,-0.9932708740234375,-0.0276031494140625,0.043182373046875
1772797813554790400,1.959790283203125,-0.993316650390625,-0.0281524658203125,0.0434722900390625
1772797813564816400,1.96981640625,-0.99481201171875,-0.02545166015625,0.043548583984375
1772797813574843400,1.979843505859375,-0.995452880859375,-0.0267791748046875,0.045562744140625
1772797813584869400,1.989869384765625,-0.9924163818359375,-0.02825927734375,0.0428009033203125
1772797813594895400,1.999895263671875,-0.991058349609375,-0.027008056640625,0.0446624755859375
1772797813604921300,2.00992138671875,-0.9947509765625,-0.028167724609375,0.044342041015625
1772797813614948600,2.019948486328125,-0.9944915771484375,-0.02783203125,0.0439453125
1772797813624974600,2.029974609375,-0.993316650390625,-0.0254364013671875,0.040618896484375
1772797813635000600,2.04000048828125,-0.9939117431640625,-0.0272674560546875,0.04705810546875
1772797813645027300,2.05002734375,-0.99700927734375,-0.0293121337890625,0.043792724609375
1772797813655053300,2.06005322265625,-0.9911041259765625,-0.0261077880859375,0.0426025390625
1772797813665079300,2.070079345703125,-0.994384765625,-0.0265350341796875,0.0454864501953125
1772797813675105300,2.080105224609375,-0.99810791015625,-0.02471923828125,0.0477142333984375
1772797813685132500,2.090132568359375,-0.9957733154296875,-0.02752685546875,0.0379180908203125
1772797813695158500,2.100158447265625,-0.987945556640625,-0.0301666259765625,0.0448150634765625
1772797813705184500,2.1101845703125,-0.9922332763671875,-0.0248260498046875,0.039459228515625
1772797813715211300,2.120211181640625,-1.000579833984375,-0.026214599609375,0.0402984619140625
1772797813725237200,2.1302373046875,-0.993988037109375,-0.0256805419921875,0.0436859130859375
1772797813735263200,2.14026318359375,-0.990966796875,-0.025054931640625,0.043792724609375
1772797813745289200,2.150289306640625,-0.9967803955078125,-0.02850341796875,0.0451812744140625
1772797813755316500,2.16031640625,-0.99554443359375,-0.0298614501953125,0.0466156005859375
1772797813765342500,2.170342529296875,-0.9893646240234375,-0.0296478271484375,0.0458526611328125
1772797813775368400,2.180368408203125,-0.98944091796875,-0.02899169921875,0.0460052490234375
1772797813785395500,2.1903955078125,-0.9952392578125,-0.028533935546875,0.0455474853515625
1772797813795421400,2.20042138671875,-0.995208740234375,-0.026580810546875,0.043792724609375
1772797813805447400,2.210447509765625,-0.99151611328125,-0.02581787109375,0.0438690185546875
1772797813815473400,2.220473388671875,-0.9941864013671875,-0.0269012451171875,0.043365478515625
1772797813825500400,2.23050048828125,-0.9967803955078125,-0.0253143310546875,0.0429534912109375
1772797813835526400,2.2405263671875,-0.9949188232421875,-0.027435302734375,0.04052734375
1772797813845552400,2.250552490234375,-0.9940185546875,-0.0279541015625,0.0424652099609375
1772797813855578400,2.260578369140625,-0.99420166015625,-0.027862548828125,0.0436248779296875
1772797813865605600,2.270605712890625,-0.995697021484375,-0.0271453857421875,0.04547119140625
1772797813875631600,2.280631591796875,-0.992919921875,-0.027191162109375,0.044647216796875
1772797813885657600,2.29065771484375,-0.9942169189453125,-0.0238494873046875,0.0412445068359375
1772797813895684600,2.3006845703125,-0.9968719482421875,-0.0273590087890625,0.0451812744140625
1772797813905710300,2.31071044921875,-0.993408203125,-0.027801513671875,0.045745849609375
1772797813915736300,2.320736328125,-0.99224853515625,-0.0270233154296875,0.044677734375
1772797813925762300,2.33076220703125,-0.9940032958984375,-0.0275115966796875,0.0442657470703125
1772797813935789600,2.34078955078125,-0.9955291748046875,-0.0287017822265625,0.0441741943359375
1772797813945815600,2.350815673828125,-0.9932708740234375,-0.027374267578125,0.0438079833984375
1772797813955841500,2.360841552734375,-0.99237060546875,-0.0269927978515625,0.0430908203125
1772797813965868500,2.37086865234375,-0.99542236328125,-0.0272674560546875,0.0430450439453125
1772797813975894500,2.38089453125,-0.9968414306640625,-0.02655029296875,0.0423126220703125
1772797813985920500,2.39092041015625,-0.99346923828125,-0.027069091796875,0.0428924560546875
1772797813995946500,2.400946533203125,-0.992706298828125,-0.02783203125,0.043670654296875
1772797814005973500,2.410973388671875,-0.994537353515625,-0.0258026123046875,0.043182373046875
1772797814015999500,2.42099951171875,-0.9950103759765625,-0.0276947021484375,0.0444793701171875
1772797814026025500,2.431025390625,-0.99359130859375,-0.02728271484375,0.0435943603515625
1772797814036052500,2.441052490234375,-0.9931488037109375,-0.0281829833984375,0.044097900390625
1772797814046078500,2.451078369140625,-0.9929351806640625,-0.02752685546875,0.0431671142578125
1772797814056104400,2.4611044921875,-0.9940338134765625,-0.026519775390625,0.0433502197265625
1772797814066130400,2.47113037109375,-0.9946441650390625,-0.0281982421875,0.044586181640625
1772797814076157700,2.48115771484375,-0.99444580078125,-0.0286102294921875,0.044158935546875
1772797814086183400,2.491183349609375,-0.993560791015625,-0.0270233154296875,0.0442962646484375
1772797814096209400,2.50120947265625,-0.99346923828125,-0.026702880859375,0.04296875
1772797814106235400,2.5112353515625,-0.994110107421875,-0.0268402099609375,0.0446014404296875
1772797814116262400,2.521262451171875,-0.995513916015625,-0.0279998779296875,0.0437164306640625
1772797814126288400,2.531288330078125,-0.9933013916015625,-0.0272216796875,0.042999267578125
1772797814136314400,2.541314453125,-0.99267578125,-0.0276336669921875,0.0438690185546875
1772797814146341600,2.551341552734375,-0.994354248046875,-0.0265350341796875,0.042510986328125
1772797814156367600,2.56136767578125,-0.9945831298828125,-0.0269927978515625,0.0431976318359375
1772797814166393600,2.5713935546875,-0.9926300048828125,-0.0270233154296875,0.043365478515625
1772797814176419600,2.581419677734375,-0.9938201904296875,-0.02667236328125,0.043212890625
1772797814186446300,2.5914462890625,-0.9947662353515625,-0.02606201171875,0.0450286865234375
1772797814196472300,2.601472412109375,-0.9945068359375,-0.0265655517578125,0.043609619140625
1772797814206498300,2.611498291015625,-0.992919921875,-0.02777099609375,0.043609619140625
1772797814216525600,2.621525634765625,-0.9922637939453125,-0.0274810791015625,0.0433349609375
1772797814226551600,2.631551513671875,-0.994354248046875,-0.025115966796875,0.0440216064453125
1772797814236577500,2.64157763671875,-0.9948577880859375,-0.027252197265625,0.0443572998046875
1772797814246603500,2.651603515625,-0.99273681640625,-0.026519775390625,0.042938232421875
1772797814256630500,2.661630615234375,-0.9931640625,-0.0271453857421875,0.0444793701171875
1772797814266656500,2.671656494140625,-0.995025634765625,-0.02703857421875,0.0439453125
1772797814276682500,2.6816826171875,-0.99530029296875,-0.027587890625,0.0422210693359375
1772797814286708500,2.69170849609375,-0.9935302734375,-0.026580810546875,0.043487548828125
1772797814296735500,2.701735595703125,-0.9928131103515625,-0.025848388671875,0.0427703857421875
1772797814306761500,2.711761474609375,-0.9948272705078125,-0.02716064453125,0.0446929931640625
1772797814316787500,2.721787353515625,-0.9958953857421875,-0.0257110595703125,0.0440521240234375
1772797814326814500,2.731814453125,-0.994293212890625,-0.026763916015625,0.043243408203125
1772797814336840400,2.74184033203125,-0.994781494140625,-0.0271453857421875,0.0435943603515625
1772797814346866400,2.751866455078125,-0.9941864013671875,-0.02685546875,0.04449462890625
1772797814356892700,2.761892578125,-0.992401123046875,-0.027374267578125,0.043670654296875
1772797814366919400,2.77191943359375,-0.9940338134765625,-0.026947021484375,0.04351806640625
1772797814376945400,2.7819453125,-0.9947967529296875,-0.02764892578125,0.04425048828125
1772797814386971400,2.791971435546875,-0.99371337890625,-0.0267181396484375,0.0438232421875
1772797814396998400,2.801998291015625,-0.99420166015625,-0.02655029296875,0.04412841796875
1772797814407024400,2.8120244140625,-0.9939422607421875,-0.0269012451171875,0.0429840087890625
1772797814417050400,2.82205029296875,-0.994171142578125,-0.027069091796875,0.04315185546875
1772797814427076600,2.83207666015625,-0.9935760498046875,-0.0275421142578125,0.04437255859375
1772797814437103600,2.842103515625,-0.9934539794921875,-0.02728271484375,0.043182373046875
1772797814447129600,2.852129638671875,-0.9947967529296875,-0.02667236328125,0.0434112548828125
1772797814457155600,2.862155517578125,-0.9951019287109375,-0.0273895263671875,0.043487548828125
1772797814467181600,2.872181640625,-0.994293212890625,-0.02703857421875,0.0433349609375
1772797814477208300,2.882208251953125,-0.9946441650390625,-0.0279541015625,0.0436248779296875
1772797814487234600,2.892234619140625,-0.993621826171875,-0.02734375,0.0440826416015625
1772797814497260500,2.902260498046875,-0.99468994140625,-0.027740478515625,0.043304443359375
1772797814507287600,2.91228759765625,-0.993194580078125,-0.0260162353515625,0.0447998046875
1772797814517313500,2.9223134765625,-0.9946136474609375,-0.0264434814453125,0.0441741943359375
1772797814527339500,2.932339599609375,-0.994293212890625,-0.0263519287109375,0.0445404052734375
1772797814537365500,2.942365478515625,-0.994110107421875,-0.02679443359375,0.0439605712890625
1772797814547392300,2.952392333984375,-0.994293212890625,-0.026947021484375,0.0442657470703125
1772797814557418500,2.96241845703125,-0.9945526123046875,-0.02630615234375,0.043304443359375
1772797814567444500,2.972444580078125,-0.9938201904296875,-0.0283050537109375,0.0433197021484375
1772797814577470500,2.982470458984375,-0.99365234375,-0.0266876220703125,0.04351806640625
1772797814587497500,2.99249755859375,-0.9938812255859375,-0.0257720947265625,0.0438232421875
1772797814597523500,3.0025234375,-0.994384765625,-0.0270538330078125,0.0429534912109375
1772797814607549400,3.012549560546875,-0.99468994140625,-0.0269622802734375,0.0432586669921875
1772797814617576400,3.022576416015625,-0.9943084716796875,-0.0279083251953125,0.044281005859375
1772797814627602700,3.032602783203125,-0.9930572509765625,-0.0267181396484375,0.0436553955078125
1772797814637628700,3.042628662109375,-0.995758056640625,-0.0269622802734375,0.0433197021484375
1772797814647654700,3.052654541015625,-0.994873046875,-0.0265655517578125,0.0447998046875
1772797814657681400,3.062681396484375,-0.9934844970703125,-0.0277252197265625,0.0452880859375
1772797814667707400,3.072707275390625,-0.99395751953125,-0.027679443359375,0.04400634765625
1772797814677733400,3.0827333984375,-0.99383544921875,-0.0277557373046875,0.043914794921875
1772797814687759400,3.09275927734375,-0.9957427978515625,-0.0266876220703125,0.04327392578125
1772797814697786600,3.10278662109375,-0.9936676025390625,-0.0272064208984375,0.0435791015625
1772797814707812600,3.1128125,-0.9944610595703125,-0.02777099609375,0.043121337890625
1772797814717838600,3.122838623046875,-0.9945526123046875,-0.0265655517578125,0.04388427734375
1772797814727865300,3.132865234375,-0.995025634765625,-0.02740478515625,0.044219970703125
1772797814737891300,3.142891357421875,-0.993194580078125,-0.027984619140625,0.043487548828125
1772797814747917300,3.152917236328125,-0.9949493408203125,-0.0272979736328125,0.0431365966796875
1772797814757943300,3.162943359375,-0.994964599609375,-0.0273895263671875,0.0433349609375
1772797814767970600,3.172970458984375,-0.993865966796875,-0.0269622802734375,0.043121337890625
1772797814777996500,3.18299658203125,-0.994049072265625,-0.026702880859375,0.0432586669921875
1772797814788022500,3.1930224609375,-0.9954833984375,-0.026519775390625,0.04412841796875
1772797814798048500,3.203048583984375,-0.9951171875,-0.0269622802734375,0.044036865234375
1772797814808075500,3.213075439453125,-0.9939117431640625,-0.026702880859375,0.0439300537109375
1772797814818101500,3.2231015625,-0.9935455322265625,-0.0267486572265625,0.043609619140625
1772797814828127500,3.23312744140625,-0.9941558837890625,-0.0272979736328125,0.0440521240234375
1772797814838154000,3.243154052734375,-0.995697021484375,-0.0264892578125,0.043792724609375
1772797814848180000,3.253179931640625,-0.9945068359375,-0.02642822265625,0.043182373046875
1772797814858206000,3.2632060546875,-0.99493408203125,-0.027435302734375,0.0440826416015625
1772797814868232200,3.273232177734375,-0.9942169189453125,-0.026885986328125,0.0435333251953125
1772797814878259200,3.28325927734375,-0.99383544921875,-0.0273284912109375,0.043701171875
1772797814888285200,3.29328515625,-0.9940185546875,-0.0272369384765625,0.0440216064453125
1772797814898311200,3.303311279296875,-0.9943389892578125,-0.02850341796875,0.0438690185546875
1772797814908337200,3.313337158203125,-0.9936676025390625,-0.0280303955078125,0.04339599609375
1772797814918364200,3.3233642578125,-0.994354248046875,-0.026397705078125,0.043792724609375
1772797814928390100,3.33339013671875,-0.994293212890625,-0.02685546875,0.04296875
1772797814938416000,3.343416015625,-0.9933929443359375,-0.026397705078125,0.0426025390625
1772797814948443100,3.353443115234375,-0.994354248046875,-0.0268402099609375,0.0426483154296875
1772797814958469000,3.36346923828125,-0.99420166015625,-0.0270843505859375,0.042816162109375
1772797814968495000,3.3734951171875,-0.9940948486328125,-0.0277557373046875,0.0438079833984375
1772797814978521000,3.38352099609375,-0.9941253662109375,-0.0277252197265625,0.0440826416015625
1772797814988548000,3.393548095703125,-0.994384765625,-0.0273590087890625,0.04425048828125
1772797814998574300,3.40357421875,-0.99285888671875,-0.027313232421875,0.044708251953125
1772797815008600300,3.413600341796875,-0.99444580078125,-0.026763916015625,0.043212890625
1772797815018626300,3.423626220703125,-0.99310302734375,-0.027618408203125,0.043670654296875
1772797815028653000,3.433653076171875,-0.9931640625,-0.0285186767578125,0.0432891845703125
1772797815038679000,3.443678955078125,-0.994537353515625,-0.02838134765625,0.0434722900390625
1772797815048705000,3.453705078125,-0.9945526123046875,-0.0279083251953125,0.04437255859375
1772797815058732000,3.46373193359375,-0.9931488037109375,-0.0259246826171875,0.0439453125
1772797815068758300,3.47375830078125,-0.993255615234375,-0.0265350341796875,0.0440521240234375
1772797815078784300,3.4837841796875,-0.9950408935546875,-0.027099609375,0.0443267822265625
1772797815088810200,3.493810302734375,-0.9942779541015625,-0.0279083251953125,0.0443267822265625
1772797815098837200,3.503837158203125,-0.993743896484375,-0.026947021484375,0.0430908203125
1772797815108863200,3.51386328125,-0.9933624267578125,-0.02703857421875,0.0446319580078125
1772797815118889200,3.52388916015625,-0.9962310791015625,-0.02655029296875,0.044036865234375
1772797815128915000,3.5339150390625,-0.994049072265625,-0.0265655517578125,0.0439605712890625
1772797815138942200,3.543942138671875,-0.993560791015625,-0.02655029296875,0.0436248779296875
1772797815148968200,3.55396826171875,-0.9946136474609375,-0.027496337890625,0.0427703857421875
1772797815158994200,3.563994140625,-0.99407958984375,-0.0275726318359375,0.043701171875
1772797815169021200,3.574021240234375,-0.9938812255859375,-0.0260772705078125,0.04388427734375
1772797815179047200,3.584047119140625,-0.9958953857421875,-0.02691650390625,0.0434417724609375
1772797815189073200,3.5940732421875,-0.99609375,-0.025848388671875,0.043670654296875
1772797815199099100,3.60409912109375,-0.9937286376953125,-0.026702880859375,0.0420074462890625
1772797815209126100,3.614126220703125,-0.9940643310546875,-0.02752685546875,0.042572021484375
1772797815219152100,3.624152099609375,-0.99298095703125,-0.0266571044921875,0.0430145263671875
1772797815229178000,3.63417822265625,-0.9940338134765625,-0.027679443359375,0.043609619140625
1772797815239204000,3.6442041015625,-0.993682861328125,-0.0272216796875,0.043609619140625
1772797815249231000,3.654231201171875,-0.995147705078125,-0.0267181396484375,0.0428314208984375
1772797815259257000,3.664257080078125,-0.99542236328125,-0.0278472900390625,0.04351806640625
1772797815269283000,3.674282958984375,-0.99481201171875,-0.0279388427734375,0.0428466796875
1772797815279309000,3.68430908203125,-0.992950439453125,-0.0287628173828125,0.0434722900390625
1772797815289336300,3.69433642578125,-0.9934539794921875,-0.0283966064453125,0.044036865234375
1772797815299362300,3.7043623046875,-0.9932708740234375,-0.0281219482421875,0.04437255859375
1772797815309388300,3.71438818359375,-0.9929962158203125,-0.02899169921875,0.0437164306640625
1772797815319415000,3.7244150390625,-0.9940338134765625,-0.0278472900390625,0.0445709228515625
1772797815329441000,3.73444091796875,-0.993743896484375,-0.027130126953125,0.04388427734375
1772797815339467000,3.744467041015625,-0.9937591552734375,-0.0263519287109375,0.044769287109375
1772797815349493000,3.754492919921875,-0.994659423828125,-0.027557373046875,0.0443572998046875
1772797815359520300,3.764520263671875,-0.9957122802734375,-0.02734375,0.0436553955078125
1772797815369546200,3.774546142578125,-0.9952545166015625,-0.0276031494140625,0.0444183349609375
1772797815379572200,3.784572265625,-0.992767333984375,-0.0275726318359375,0.04327392578125
1772797815389598200,3.79459814453125,-0.9929962158203125,-0.026947021484375,0.0441131591796875
1772797815399625000,3.804625,-0.995208740234375,-0.0267181396484375,0.0450286865234375
1772797815409651000,3.81465087890625,-0.99365234375,-0.026641845703125,0.04443359375
1772797815419677200,3.82467724609375,-0.993316650390625,-0.0279541015625,0.044677734375
1772797815429703200,3.834703125,-0.9933624267578125,-0.0272064208984375,0.0446929931640625
1772797815439730200,3.844730224609375,-0.9945068359375,-0.0258636474609375,0.043670654296875
1772797815449756200,3.854756103515625,-0.994720458984375,-0.02789306640625,0.0438690185546875
1772797815459782100,3.8647822265625,-0.9944000244140625,-0.02764892578125,0.043792724609375
1772797815469809200,3.87480908203125,-0.9940032958984375,-0.027130126953125,0.043060302734375
1772797815479835100,3.884835205078125,-0.9954681396484375,-0.02655029296875,0.043182373046875
1772797815489861400,3.894861328125,-0.9935760498046875,-0.0268707275390625,0.04345703125
1772797815499887000,3.90488720703125,-0.9939422607421875,-0.026885986328125,0.0431671142578125
1772797815509914000,3.9149140625,-0.9954681396484375,-0.02655029296875,0.0444793701171875
1772797815519940000,3.924940185546875,-0.9949493408203125,-0.0274658203125,0.043914794921875
1772797815529966000,3.934966064453125,-0.9947357177734375,-0.02691650390625,0.0426177978515625
1772797815539992000,3.944991943359375,-0.99395751953125,-0.0273590087890625,0.0439300537109375
1772797815550019300,3.955019287109375,-0.9954071044921875,-0.026519775390625,0.0434112548828125
1772797815560045300,3.96504541015625,-0.9951934814453125,-0.0273895263671875,0.0430908203125
1772797815570071300,3.9750712890625,-0.9938507080078125,-0.0284271240234375,0.0437774658203125
1772797815580097300,3.98509716796875,-0.993927001953125,-0.02740478515625,0.044647216796875
1772797815590124000,3.9951240234375,-0.9946746826171875,-0.027374267578125,0.0435028076171875
1772797815600150000,4.00514990234375,-0.993408203125,-0.0261077880859375,0.043853759765625
1772797815610176000,4.015176025390625,-0.993804931640625,-0.0271759033203125,0.043304443359375
1772797815620202000,4.025201904296875,-0.994873046875,-0.0272216796875,0.043701171875
1772797815630229200,4.035229248046875,-0.994354248046875,-0.026947021484375,0.0438079833984375
1772797815640255200,4.045255126953125,-0.993316650390625,-0.0272674560546875,0.0433197021484375
1772797815650281200,4.05528125,-0.993621826171875,-0.027618408203125,0.0434417724609375
1772797815660308200,4.06530810546875,-0.993927001953125,-0.0268707275390625,0.042816162109375
1772797815670334200,4.075334228515625,-0.9933319091796875,-0.0259246826171875,0.043487548828125
1772797815680360200,4.085360107421875,-0.9946136474609375,-0.0266265869140625,0.0438385009765625
1772797815690386200,4.09538623046875,-0.99505615234375,-0.028167724609375,0.0433807373046875
1772797815700413200,4.1054130859375,-0.9945220947265625,-0.026947021484375,0.0436553955078125
1772797815710439200,4.115439208984375,-0.9953460693359375,-0.0268096923828125,0.0434112548828125
1772797815720465200,4.125465087890625,-0.9951019287109375,-0.0272064208984375,0.0436859130859375
1772797815730491100,4.1354912109375,-0.9934844970703125,-0.0280609130859375,0.04364013671875
1772797815740518100,4.14551806640625,-0.9933929443359375,-0.027496337890625,0.0435028076171875
1772797815750544100,4.155544189453125,-0.9949798583984375,-0.026947021484375,0.044677734375
1772797815760570000,4.165570068359375,-0.99371337890625,-0.0257110595703125,0.043975830078125
1772797815770596000,4.17559619140625,-0.9924163818359375,-0.025970458984375,0.0430908203125
1772797815780623000,4.185623046875,-0.99285888671875,-0.0276947021484375,0.0427398681640625
1772797815790649000,4.195649169921875,-0.99627685546875,-0.02777099609375,0.0428466796875
1772797815800675000,4.205675048828125,-0.9969482421875,-0.0277099609375,0.0434417724609375
1772797815810702000,4.2157021484375,-0.993560791015625,-0.027313232421875,0.0433502197265625
1772797815820728000,4.22572802734375,-0.9933013916015625,-0.0271759033203125,0.043060302734375
1772797815830754000,4.235754150390625,-0.9931793212890625,-0.026092529296875,0.0423431396484375
1772797815840780300,4.2457802734375,-0.9943389892578125,-0.026153564453125,0.04339599609375
1772797815850807300,4.255807373046875,-0.9933013916015625,-0.0269622802734375,0.042327880859375
1772797815860833300,4.265833251953125,-0.99505615234375,-0.0267181396484375,0.042266845703125
1772797815870859300,4.275859375,-0.995849609375,-0.0277099609375,0.043914794921875
1772797815880885200,4.28588525390625,-0.9954833984375,-0.0282745361328125,0.0437774658203125
1772797815890912300,4.295912353515625,-0.9943084716796875,-0.02679443359375,0.0436248779296875
1772797815900938200,4.305938232421875,-0.9943084716796875,-0.0271759033203125,0.0442352294921875
1772797815910964200,4.315964111328125,-0.99432373046875,-0.0263671875,0.043701171875
1772797815920990200,4.325990234375,-0.9944000244140625,-0.0267333984375,0.0425567626953125
1772797815931017200,4.336017333984375,-0.9943695068359375,-0.026947021484375,0.0430145263671875
1772797815941043200,4.346043212890625,-0.993927001953125,-0.0269317626953125,0.04278564453125
1772797815951069200,4.356069091796875,-0.9951019287109375,-0.02655029296875,0.042388916015625
1772797815961095400,4.366095458984375,-0.9946746826171875,-0.0261993408203125,0.043426513671875
1772797815971122200,4.3761220703125,-0.99346923828125,-0.0274200439453125,0.0438385009765625
1772797815981148200,4.386148193359375,-0.994842529296875,-0.0268096923828125,0.0435943603515625
1772797815991174100,4.396174072265625,-0.9942169189453125,-0.0262451171875,0.043853759765625
1772797816001200000,4.4062001953125,-0.9935760498046875,-0.028167724609375,0.0435638427734375
1772797816011227100,4.41622705078125,-0.99261474609375,-0.02691650390625,0.042633056640625
1772797816021253400,4.42625341796875,-0.994354248046875,-0.0267181396484375,0.043731689453125
1772797816031279400,4.436279296875,-0.9952392578125,-0.0267791748046875,0.0437164306640625
1772797816041305300,4.446305419921875,-0.994140625,-0.027618408203125,0.0431671142578125
1772797816051332400,4.456332275390625,-0.993988037109375,-0.02777099609375,0.0435943603515625
1772797816061358300,4.4663583984375,-0.994232177734375,-0.027862548828125,0.044097900390625
1772797816071384000,4.476384033203125,-0.99444580078125,-0.0269012451171875,0.044036865234375
1772797816081411000,4.4864111328125,-0.99346923828125,-0.027862548828125,0.04327392578125
1772797816091437300,4.496437255859375,-0.9941864013671875,-0.0276947021484375,0.04302978515625
1772797816101463300,4.50646337890625,-0.9949188232421875,-0.0271759033203125,0.0435028076171875
1772797816111489300,4.5164892578125,-0.9953155517578125,-0.0271759033203125,0.0442657470703125
1772797816121516300,4.526516357421875,-0.99420166015625,-0.02734375,0.0427703857421875
1772797816131542300,4.536542236328125,-0.99395751953125,-0.0271148681640625,0.04266357421875
1772797816141568300,4.546568359375,-0.992950439453125,-0.026824951171875,0.043212890625
1772797816151594200,4.55659423828125,-0.993438720703125,-0.0269775390625,0.042999267578125
1772797816161621200,4.566621337890625,-0.9949798583984375,-0.0273895263671875,0.0439910888671875
1772797816171647200,4.576647216796875,-0.994476318359375,-0.027862548828125,0.0438385009765625
1772797816181673200,4.586673095703125,-0.994171142578125,-0.027862548828125,0.0429840087890625
1772797816191699200,4.59669921875,-0.9944610595703125,-0.0273284912109375,0.043121337890625
1772797816201726200,4.606726318359375,-0.99432373046875,-0.026702880859375,0.0440216064453125
1772797816211752200,4.616752197265625,-0.9943389892578125,-0.0270538330078125,0.0435943603515625
1772797816221778200,4.626778076171875,-0.9940948486328125,-0.0272064208984375,0.0433807373046875
1772797816231804200,4.63680419921875,-0.9932708740234375,-0.026885986328125,0.043182373046875
1772797816241831400,4.64683154296875,-0.994842529296875,-0.0282135009765625,0.043426513671875
1772797816251857400,4.656857421875,-0.9953765869140625,-0.026641845703125,0.0428009033203125
1772797816261883100,4.666883056640625,-0.9939727783203125,-0.0275115966796875,0.043243408203125
1772797816271909000,4.6769091796875,-0.9942169189453125,-0.0274505615234375,0.0440521240234375
1772797816281936100,4.68693603515625,-0.9940185546875,-0.0262603759765625,0.0435791015625
1772797816291962000,4.696962158203125,-0.9948883056640625,-0.0268096923828125,0.04364013671875
1772797816301988000,4.706988037109375,-0.993194580078125,-0.0275421142578125,0.04345703125
1772797816312014300,4.717014404296875,-0.9943084716796875,-0.0275115966796875,0.0435333251953125
1772797816322041300,4.727041259765625,-0.9926910400390625,-0.0277252197265625,0.0423126220703125
1772797816332067300,4.7370673828125,-0.9930877685546875,-0.0278778076171875,0.0434417724609375
1772797816342093300,4.74709326171875,-0.9931793212890625,-0.0267791748046875,0.04498291015625
1772797816352119300,4.757119384765625,-0.993316650390625,-0.0263671875,0.0441436767578125
1772797816362146000,4.76714599609375,-0.9928741455078125,-0.0264434814453125,0.04241943359375
1772797816372172000,4.777172119140625,-0.993988037109375,-0.027496337890625,0.0433197021484375
1772797816382198300,4.7871982421875,-0.993255615234375,-0.0267486572265625,0.0431060791015625
1772797816392225300,4.797225341796875,-0.99407958984375,-0.027252197265625,0.0438385009765625
1772797816402251300,4.807251220703125,-0.994171142578125,-0.0279998779296875,0.0436553955078125
1772797816412277200,4.81727734375,-0.99334716796875,-0.0286712646484375,0.04412841796875
1772797816422303200,4.82730322265625,-0.993927001953125,-0.02777099609375,0.04425048828125
1772797816432330200,4.837330322265625,-0.9932708740234375,-0.0268707275390625,0.042877197265625
1772797816442356200,4.847356201171875,-0.993438720703125,-0.02716064453125,0.04278564453125
1772797816452382200,4.85738232421875,-0.993988037109375,-0.0259246826171875,0.042449951171875
1772797816462408200,4.867408203125,-0.99505615234375,-0.026458740234375,0.043365478515625
1772797816472435200,4.877435302734375,-0.9952850341796875,-0.0277862548828125,0.04302978515625
1772797816482461200,4.887461181640625,-0.99285888671875,-0.0282745361328125,0.0429229736328125
1772797816492487200,4.897487060546875,-0.9925079345703125,-0.0283966064453125,0.0434722900390625
1772797816502513200,4.90751318359375,-0.9935455322265625,-0.0263519287109375,0.0430908203125
1772797816512540400,4.91754052734375,-0.9942169189453125,-0.0270233154296875,0.0429840087890625
1772797816522566400,4.92756640625,-0.9937744140625,-0.0273284912109375,0.043701171875
1772797816532592400,4.93759228515625,-0.9937286376953125,-0.02716064453125,0.04327392578125
1772797816542618400,4.947618408203125,-0.994354248046875,-0.0268402099609375,0.0436248779296875
1772797816552645000,4.95764501953125,-0.99322509765625,-0.028289794921875,0.04302978515625
1772797816562671000,4.967671142578125,-0.9936981201171875,-0.0277099609375,0.04425048828125
1772797816572697000,4.977697021484375,-0.994384765625,-0.02777099609375,0.0432586669921875
1772797816582723000,4.98772314453125,-0.9927520751953125,-0.026123046875,0.0438690185546875
1772797816592750300,4.997750244140625,-0.99261474609375,-0.0274658203125,0.043243408203125
1772797816602776300,5.0077763671875,-0.9940948486328125,-0.0268707275390625,0.0427703857421875
1772797816612802300,5.01780224609375,-0.993011474609375,-0.0271759033203125,0.0431976318359375
1772797816622828300,5.027828369140625,-0.993896484375,-0.0278472900390625,0.0428924560546875
1772797816632855300,5.037855224609375,-0.993011474609375,-0.0284881591796875,0.0433197021484375
1772797816642881300,5.04788134765625,-0.9925384521484375,-0.0275726318359375,0.0432891845703125
1772797816652907000,5.057906982421875,-0.993255615234375,-0.02728271484375,0.0434112548828125
1772797816662934300,5.067934326171875,-0.9933013916015625,-0.02740478515625,0.0442047119140625
1772797816672960300,5.077960205078125,-0.991790771484375,-0.026824951171875,0.0439605712890625
1772797816682986200,5.087986328125,-0.9933319091796875,-0.0280914306640625,0.0438995361328125
1772797816693012200,5.09801220703125,-0.9944915771484375,-0.0270538330078125,0.0424346923828125
1772797816703039200,5.108039306640625,-0.994049072265625,-0.0278472900390625,0.0426025390625
1772797816713065200,5.118065185546875,-0.9925384521484375,-0.0272674560546875,0.042694091796875
1772797816723091200,5.12809130859375,-0.993896484375,-0.02728271484375,0.0435333251953125
1772797816733117400,5.138117431640625,-0.9942474365234375,-0.0277099609375,0.0430450439453125
1772797816743144200,5.148144287109375,-0.9929351806640625,-0.0277252197265625,0.0433349609375
1772797816753170200,5.158170166015625,-0.9936981201171875,-0.02667236328125,0.0426177978515625
1772797816763196200,5.168196044921875,-0.9944305419921875,-0.02630615234375,0.04388427734375
1772797816773222100,5.17822216796875,-0.994964599609375,-0.0271148681640625,0.0433502197265625
1772797816783249200,5.188249267578125,-0.993255615234375,-0.0260467529296875,0.042724609375
1772797816793275100,5.198275146484375,-0.9932861328125,-0.0266571044921875,0.0432281494140625
1772797816803301400,5.20830126953125,-0.993316650390625,-0.0269775390625,0.041778564453125
1772797816813328400,5.218328369140625,-0.9945220947265625,-0.027191162109375,0.0428314208984375
1772797816823354400,5.228354248046875,-0.9937591552734375,-0.0270233154296875,0.0431060791015625
1772797816833380000,5.238380126953125,-0.9933929443359375,-0.02740478515625,0.0429229736328125
1772797816843407000,5.248406982421875,-0.9937744140625,-0.0267181396484375,0.043365478515625
1772797816853434000,5.25843408203125,-0.99432373046875,-0.0257415771484375,0.0437164306640625
1772797816863460000,5.268460205078125,-0.9934539794921875,-0.0272064208984375,0.0441741943359375
1772797816873486000,5.278486083984375,-0.9942474365234375,-0.027618408203125,0.043731689453125
1772797816883512000,5.288511962890625,-0.99310302734375,-0.0263671875,0.0430908203125
1772797816893539000,5.2985390625,-0.9927520751953125,-0.02740478515625,0.0439605712890625
1772797816903565000,5.30856494140625,-0.9935302734375,-0.0277099609375,0.0435333251953125
1772797816913591000,5.318591064453125,-0.9935302734375,-0.0267791748046875,0.0434722900390625
1772797816923618000,5.3286181640625,-0.9922027587890625,-0.0284271240234375,0.043670654296875
1772797816933644000,5.33864404296875,-0.99334716796875,-0.0279693603515625,0.0440826416015625
1772797816943670000,5.348669921875,-0.992950439453125,-0.0269012451171875,0.0443878173828125
1772797816953696000,5.358696044921875,-0.992523193359375,-0.0277099609375,0.044036865234375
1772797816963723300,5.36872314453125,-0.9933319091796875,-0.0266571044921875,0.0443572998046875
1772797816973749200,5.378749267578125,-0.9936981201171875,-0.026580810546875,0.04388427734375
1772797816983775200,5.388775146484375,-0.9934234619140625,-0.027435302734375,0.0442962646484375
1772797816993801200,5.39880126953125,-0.9936676025390625,-0.0276641845703125,0.044097900390625
1772797817003828000,5.408827880859375,-0.9927825927734375,-0.02667236328125,0.0438232421875
1772797817013854000,5.41885400390625,-0.9934539794921875,-0.027618408203125,0.0447235107421875
1772797817023880000,5.4288798828125,-0.9933319091796875,-0.027252197265625,0.043365478515625
1772797817033907200,5.4389072265625,-0.993499755859375,-0.027587890625,0.04364013671875
1772797817043933200,5.44893310546875,-0.9936676025390625,-0.0268402099609375,0.044769287109375
1772797817053959200,5.458959228515625,-0.993865966796875,-0.0272979736328125,0.043853759765625
1772797817063985200,5.468985107421875,-0.991546630859375,-0.0266571044921875,0.0435333251953125
1772797817074012200,5.47901220703125,-0.9918670654296875,-0.0279388427734375,0.04364013671875
1772797817084038100,5.4890380859375,-0.9934844970703125,-0.0275421142578125,0.043792724609375
1772797817094063900,5.49906396484375,-0.99334716796875,-0.0264129638671875,0.0433807373046875
1772797817104090000,5.509090087890625,-0.9942169189453125,-0.0268096923828125,0.042938232421875
1772797817114117000,5.5191171875,-0.9929656982421875,-0.0270843505859375,0.043670654296875
1772797817124143000,5.52914306640625,-0.9931640625,-0.026092529296875,0.0429229736328125
1772797817134169000,5.539169189453125,-0.9941253662109375,-0.0260772705078125,0.0438385009765625
1772797817144196000,5.549196044921875,-0.9931640625,-0.0269622802734375,0.0435638427734375
1772797817154222000,5.55922216796875,-0.9944610595703125,-0.02685546875,0.0434417724609375
1772797817164248000,5.569248046875,-0.9929351806640625,-0.02728271484375,0.044647216796875
1772797817174274300,5.5792744140625,-0.993072509765625,-0.02667236328125,0.04364013671875
1772797817184301000,5.589301025390625,-0.9922943115234375,-0.02740478515625,0.043975830078125
1772797817194327000,5.5993271484375,-0.9937896728515625,-0.02813720703125,0.04400634765625
1772797817204353000,5.60935302734375,-0.99322509765625,-0.0274200439453125,0.0433197021484375
1772797817214379000,5.61937890625,-0.9922027587890625,-0.026397705078125,0.042877197265625
1772797817224406000,5.629406005859375,-0.994293212890625,-0.0271759033203125,0.0430145263671875
1772797817234432300,5.639432373046875,-0.9937591552734375,-0.0269622802734375,0.0438995361328125
1772797817244458200,5.649458251953125,-0.9945220947265625,-0.0277557373046875,0.043670654296875
1772797817254485200,5.6594853515625,-0.992156982421875,-0.02703857421875,0.0429229736328125
1772797817264511200,5.66951123046875,-0.9928131103515625,-0.026702880859375,0.0431365966796875
1772797817274537000,5.679536865234375,-0.9927520751953125,-0.0265350341796875,0.043365478515625
1772797817284563000,5.68956298828125,-0.993927001953125,-0.0260162353515625,0.042388916015625
1772797817294590000,5.69958984375,-0.992889404296875,-0.026519775390625,0.0434722900390625
1772797817304616200,5.7096162109375,-0.99322509765625,-0.0279388427734375,0.0431365966796875
1772797817314642200,5.71964208984375,-0.9937896728515625,-0.0279083251953125,0.043365478515625
1772797817324669200,5.729669189453125,-0.9933319091796875,-0.0268402099609375,0.043304443359375
1772797817334695200,5.739695068359375,-0.9932708740234375,-0.0267791748046875,0.0433807373046875
1772797817344721200,5.74972119140625,-0.9920196533203125,-0.027191162109375,0.0445709228515625
1772797817354747100,5.7597470703125,-0.9933013916015625,-0.0268707275390625,0.043426513671875
1772797817364774000,5.76977392578125,-0.99395751953125,-0.026123046875,0.0435638427734375
1772797817374800100,5.779800048828125,-0.9920806884765625,-0.0270843505859375,0.0435791015625
1772797817384826000,5.789826171875,-0.9931182861328125,-0.026947021484375,0.043670654296875
1772797817394853000,5.79985302734375,-0.993499755859375,-0.0267486572265625,0.044158935546875
1772797817404879000,5.809879150390625,-0.993682861328125,-0.0261383056640625,0.0438995361328125
1772797817414905000,5.819905029296875,-0.99371337890625,-0.0273284912109375,0.044281005859375
1772797817424931000,5.82993115234375,-0.99346923828125,-0.0284423828125,0.04400634765625
1772797817434958300,5.839958251953125,-0.9932098388671875,-0.026275634765625,0.043304443359375
1772797817444984300,5.849984375,-0.992919921875,-0.02667236328125,0.043792724609375
1772797817455010000,5.860010009765625,-0.9920654296875,-0.0274200439453125,0.0435791015625
1772797817465037000,5.870037109375,-0.9926300048828125,-0.027374267578125,0.0430755615234375
1772797817475063000,5.88006298828125,-0.9939117431640625,-0.026153564453125,0.0429534912109375
1772797817485089000,5.890089111328125,-0.9935455322265625,-0.0259857177734375,0.0432586669921875
1772797817495115000,5.900114990234375,-0.992889404296875,-0.026611328125,0.0432891845703125
1772797817505142300,5.910142333984375,-0.9930572509765625,-0.027191162109375,0.04364013671875
1772797817515168300,5.920168212890625,-0.9935760498046875,-0.02655029296875,0.043121337890625
1772797817525194200,5.9301943359375,-0.993896484375,-0.027496337890625,0.04376220703125
1772797817535220200,5.94022021484375,-0.993133544921875,-0.0272064208984375,0.0435943603515625
1772797817545247000,5.9502470703125,-0.9933319091796875,-0.0269317626953125,0.0437164306640625
1772797817555273000,5.96027294921875,-0.994232177734375,-0.027557373046875,0.0435333251953125
1772797817565299000,5.970298828125,-0.99383544921875,-0.0274505615234375,0.0445404052734375
1772797817575326200,5.980326171875,-0.993408203125,-0.0272674560546875,0.0437164306640625
1772797817585352200,5.990352294921875,-0.99432373046875,-0.027313232421875,0.043243408203125
1772797817595378200,6.000378173828125,-0.994598388671875,-0.0277862548828125,0.0429534912109375
1772797817605404200,6.010404052734375,-0.9930419921875,-0.026641845703125,0.044036865234375
1772797817615431200,6.02043115234375,-0.9951019287109375,-0.0271453857421875,0.04425048828125
1772797817625457200,6.03045703125,-0.993804931640625,-0.0278778076171875,0.0443267822265625
1772797817635483100,6.040483154296875,-0.99261474609375,-0.0265655517578125,0.0435638427734375
1772797817645510100,6.05051025390625,-0.9925079345703125,-0.0272369384765625,0.043609619140625
1772797817655536000,6.0605361328125,-0.99517822265625,-0.0265045166015625,0.0432891845703125
1772797817665562000,6.07056201171875,-0.994171142578125,-0.02679443359375,0.0436859130859375
1772797817675588000,6.080588134765625,-0.9944915771484375,-0.026824951171875,0.0439453125
1772797817685615000,6.090614990234375,-0.9936065673828125,-0.0265045166015625,0.042816162109375
1772797817695641000,6.10064111328125,-0.9938507080078125,-0.026458740234375,0.043426513671875
1772797817705667000,6.1106669921875,-0.9933319091796875,-0.0274200439453125,0.0438385009765625
1772797817715694000,6.120694091796875,-0.9930419921875,-0.0264739990234375,0.043731689453125
1772797817725720000,6.130719970703125,-0.993194580078125,-0.0272064208984375,0.044189453125
1772797817735746000,6.14074609375,-0.994110107421875,-0.027374267578125,0.0440521240234375
1772797817745772000,6.15077197265625,-0.993865966796875,-0.0275726318359375,0.043243408203125
1772797817755799000,6.160799072265625,-0.992919921875,-0.0273895263671875,0.04327392578125
1772797817765825000,6.170824951171875,-0.993255615234375,-0.0276031494140625,0.0434722900390625
1772797817775851000,6.18085107421875,-0.9934234619140625,-0.027618408203125,0.04315185546875
1772797817785878300,6.190878173828125,-0.9927825927734375,-0.0264892578125,0.0431365966796875
1772797817795904300,6.200904296875,-0.993927001953125,-0.0268402099609375,0.0442962646484375
1772797817805930200,6.21093017578125,-0.9954071044921875,-0.02783203125,0.0437469482421875
1772797817815956200,6.220956298828125,-0.994415283203125,-0.026214599609375,0.0428619384765625
1772797817825983000,6.23098291015625,-0.993255615234375,-0.02618408203125,0.0422210693359375
1772797817836008400,6.241008544921875,-0.994140625,-0.0278167724609375,0.04412841796875
1772797817846034400,6.251034423828125,-0.9933624267578125,-0.0278472900390625,0.0428619384765625
1772797817856061400,6.2610615234375,-0.993804931640625,-0.0284576416015625,0.0432891845703125
1772797817866087400,6.27108740234375,-0.993255615234375,-0.027496337890625,0.0429840087890625
1772797817876113400,6.281113525390625,-0.994476318359375,-0.0264739990234375,0.04443359375
1772797817886139600,6.2911396484375,-0.99407958984375,-0.026123046875,0.0437164306640625
1772797817896166700,6.301166748046875,-0.9929962158203125,-0.02667236328125,0.043792724609375
1772797817906192600,6.311192626953125,-0.9931488037109375,-0.027496337890625,0.0436248779296875
1772797817916218600,6.321218505859375,-0.9948272705078125,-0.0278472900390625,0.04351806640625
1772797817926245400,6.331245361328125,-0.995147705078125,-0.026702880859375,0.0434417724609375
1772797817936271400,6.341271240234375,-0.9940032958984375,-0.027130126953125,0.0441131591796875
1772797817946297300,6.35129736328125,-0.993377685546875,-0.0261077880859375,0.0429840087890625
1772797817956323600,6.361323486328125,-0.9934844970703125,-0.0250701904296875,0.0432586669921875
1772797817966350600,6.3713505859375,-0.9953765869140625,-0.0256500244140625,0.0435638427734375
1772797817976376600,6.38137646484375,-0.9939422607421875,-0.0271148681640625,0.0438690185546875
1772797817986402600,6.391402587890625,-0.9935760498046875,-0.028533935546875,0.0438690185546875
1772797817996429600,6.4014296875,-0.994537353515625,-0.0291748046875,0.043914794921875
1772797818006455300,6.411455322265625,-0.993988037109375,-0.0277252197265625,0.0436553955078125
1772797818016481500,6.4214814453125,-0.9937286376953125,-0.0275421142578125,0.0440673828125
1772797818026508500,6.431508544921875,-0.9931793212890625,-0.0277862548828125,0.0438079833984375
1772797818036534500,6.441534423828125,-0.9933929443359375,-0.02789306640625,0.043060302734375
1772797818046560500,6.451560546875,-0.9942169189453125,-0.025390625,0.043609619140625
1772797818056586500,6.46158642578125,-0.994598388671875,-0.0270233154296875,0.042816162109375
1772797818066613500,6.471613525390625,-0.9943084716796875,-0.02667236328125,0.043121337890625
1772797818076639500,6.481639404296875,-0.99371337890625,-0.02777099609375,0.0436248779296875
1772797818086665700,6.491665771484375,-0.9939117431640625,-0.0272064208984375,0.0433807373046875
1772797818096692500,6.5016923828125,-0.992767333984375,-0.0271759033203125,0.04449462890625
1772797818106718500,6.511718505859375,-0.9927978515625,-0.026031494140625,0.043914794921875
1772797818116744400,6.521744384765625,-0.995513916015625,-0.0254669189453125,0.0428619384765625
1772797818126770400,6.5317705078125,-0.9954071044921875,-0.0270538330078125,0.04327392578125
1772797818136797400,6.54179736328125,-0.9928131103515625,-0.0266876220703125,0.0436248779296875
1772797818146823400,6.551823486328125,-0.9938201904296875,-0.0266876220703125,0.044769287109375
1772797818156849700,6.561849609375,-0.996337890625,-0.027374267578125,0.0442047119140625
1772797818166876700,6.571876708984375,-0.9938812255859375,-0.0258331298828125,0.04327392578125
1772797818176902700,6.581902587890625,-0.9918365478515625,-0.026641845703125,0.0420684814453125
1772797818186928400,6.591928466796875,-0.9943389892578125,-0.0270233154296875,0.0431976318359375
1772797818196954400,6.601954345703125,-0.9957122802734375,-0.0269775390625,0.0442047119140625
1772797818206981400,6.6119814453125,-0.9925537109375,-0.0268402099609375,0.044219970703125
1772797818217007600,6.622007568359375,-0.9928436279296875,-0.0274658203125,0.0440216064453125
1772797818227033600,6.63203369140625,-0.99444580078125,-0.027252197265625,0.04327392578125
1772797818237060600,6.642060546875,-0.994964599609375,-0.0274505615234375,0.043609619140625
1772797818247086600,6.652086669921875,-0.9934844970703125,-0.0271148681640625,0.0435943603515625
1772797818257112600,6.662112548828125,-0.993316650390625,-0.027099609375,0.043060302734375
1772797818267138600,6.672138671875,-0.9942626953125,-0.0277252197265625,0.04296875
1772797818277165300,6.682165283203125,-0.9945068359375,-0.0271759033203125,0.04461669921875
1772797818287191600,6.692191650390625,-0.994232177734375,-0.0267486572265625,0.04388427734375
1772797818297217500,6.702217529296875,-0.9934844970703125,-0.026397705078125,0.0428466796875
1772797818307244500,6.71224462890625,-0.9937896728515625,-0.0267791748046875,0.0432586669921875
1772797818317270500,6.7222705078125,-0.9939117431640625,-0.027801513671875,0.044342041015625
1772797818327296500,6.732296630859375,-0.994171142578125,-0.02655029296875,0.0439453125
1772797818337322500,6.742322509765625,-0.9947052001953125,-0.0283050537109375,0.0434722900390625
1772797818347349500,6.752349609375,-0.9949493408203125,-0.0269927978515625,0.0429534912109375
1772797818357375700,6.762375732421875,-0.9942474365234375,-0.0264892578125,0.0430145263671875
1772797818367401500,6.7724013671875,-0.99334716796875,-0.0278167724609375,0.0427398681640625
1772797818377428500,6.782428466796875,-0.9936370849609375,-0.026580810546875,0.0438385009765625
1772797818387454500,6.792454345703125,-0.995208740234375,-0.02630615234375,0.043212890625
1772797818397480400,6.80248046875,-0.994140625,-0.0267486572265625,0.0438385009765625
1772797818407506400,6.81250634765625,-0.9932403564453125,-0.026763916015625,0.043701171875
1772797818417533700,6.82253369140625,-0.993499755859375,-0.026336669921875,0.0430908203125
1772797818427559700,6.8325595703125,-0.995269775390625,-0.0259552001953125,0.04266357421875
1772797818437585700,6.842585693359375,-0.995147705078125,-0.0260009765625,0.0434417724609375
1772797818447612400,6.8526123046875,-0.993896484375,-0.02691650390625,0.0428619384765625
1772797818457638400,6.862638427734375,-0.994415283203125,-0.02752685546875,0.0436553955078125
1772797818467664400,6.872664306640625,-0.99365234375,-0.02716064453125,0.04443359375
1772797818477690400,6.8826904296875,-0.994476318359375,-0.0271148681640625,0.0445709228515625
1772797818487717600,6.892717529296875,-0.9934234619140625,-0.026947021484375,0.043701171875
1772797818497743600,6.90274365234375,-0.9938201904296875,-0.026611328125,0.04364013671875
1772797818507769600,6.91276953125,-0.994384765625,-0.0262451171875,0.042633056640625
1772797818517796600,6.922796630859375,-0.9941558837890625,-0.0262451171875,0.044464111328125
1772797818527822600,6.932822509765625,-0.9925994873046875,-0.0273284912109375,0.0435333251953125
1772797818537848600,6.9428486328125,-0.993438720703125,-0.0283660888671875,0.043548583984375
1772797818547874600,6.95287451171875,-0.994354248046875,-0.027587890625,0.04412841796875
1772797818557901600,6.962901611328125,-0.9947357177734375,-0.0274658203125,0.0438995361328125
1772797818567927600,6.972927490234375,-0.9928741455078125,-0.0263824462890625,0.04388427734375
1772797818577953500,6.98295361328125,-0.993804931640625,-0.027557373046875,0.0440826416015625
1772797818587980500,6.99298046875,-0.99359130859375,-0.02740478515625,0.043853759765625
1772797818598006500,7.003006591796875,-0.99444580078125,-0.027862548828125,0.043212890625
1772797818608032500,7.013032470703125,-0.9936676025390625,-0.0282745361328125,0.042938232421875
1772797818618059500,7.0230595703125,-0.99395751953125,-0.0277099609375,0.0433502197265625
1772797818628085500,7.03308544921875,-0.99664306640625,-0.0274200439453125,0.0426177978515625
1772797818638111500,7.043111572265625,-0.9961395263671875,-0.0262603759765625,0.0433807373046875
1772797818648137500,7.053137451171875,-0.9946136474609375,-0.0264129638671875,0.043548583984375
1772797818658164500,7.06316455078125,-0.994140625,-0.026641845703125,0.0433349609375
1772797818668190500,7.0731904296875,-0.9940185546875,-0.0287322998046875,0.044036865234375
1772797818678216400,7.083216552734375,-0.99383544921875,-0.02783203125,0.0425872802734375
1772797818688243700,7.09324365234375,-0.993560791015625,-0.0276641845703125,0.0431365966796875
1772797818698269700,7.103269775390625,-0.9953765869140625,-0.0270233154296875,0.0437774658203125
1772797818708295700,7.113295654296875,-0.995025634765625,-0.027496337890625,0.043212890625
1772797818718321700,7.12332177734375,-0.9924774169921875,-0.027069091796875,0.0433502197265625
1772797818728348400,7.133348388671875,-0.99267578125,-0.0277557373046875,0.0429840087890625
1772797818738374400,7.14337451171875,-0.9945526123046875,-0.027069091796875,0.0433502197265625
1772797818748400400,7.153400390625,-0.994964599609375,-0.0274200439453125,0.04339599609375
1772797818758427600,7.163427734375,-0.9933319091796875,-0.02667236328125,0.0439453125
1772797818768453600,7.17345361328125,-0.9936065673828125,-0.027099609375,0.0433807373046875
1772797818778479600,7.183479736328125,-0.992767333984375,-0.0268096923828125,0.043548583984375
1772797818788506600,7.193506591796875,-0.9947357177734375,-0.0265350341796875,0.0436553955078125
1772797818798532600,7.20353271484375,-0.9945068359375,-0.02655029296875,0.0428924560546875
1772797818808558600,7.21355859375,-0.9938201904296875,-0.0272064208984375,0.0425872802734375
1772797818818584300,7.223584228515625,-0.9936065673828125,-0.0278778076171875,0.0431060791015625
1772797818828611600,7.233611572265625,-0.9944000244140625,-0.026611328125,0.04351806640625
1772797818838637000,7.243636962890625,-0.9942169189453125,-0.0281219482421875,0.0433197021484375
1772797818848663000,7.2536630859375,-0.992279052734375,-0.0272979736328125,0.04400634765625
1772797818858690000,7.26368994140625,-0.9925994873046875,-0.0261077880859375,0.0434417724609375
1772797818868716000,7.273716064453125,-0.99395751953125,-0.026153564453125,0.04327392578125
1772797818878742300,7.2837421875,-0.9943695068359375,-0.0274200439453125,0.043975830078125
1772797818888768300,7.293768310546875,-0.9956512451171875,-0.027374267578125,0.043426513671875
1772797818898795000,7.303794921875,-0.9959564208984375,-0.0275115966796875,0.04400634765625
1772797818908821000,7.313821044921875,-0.9944305419921875,-0.0277252197265625,0.0437164306640625
1772797818918847000,7.323846923828125,-0.9942779541015625,-0.0287933349609375,0.0440216064453125
1772797818928874000,7.3338740234375,-0.9943389892578125,-0.02764892578125,0.044281005859375
1772797818938900000,7.34389990234375,-0.992950439453125,-0.02764892578125,0.04315185546875
1772797818948926200,7.35392626953125,-0.9930877685546875,-0.02764892578125,0.04412841796875
1772797818958952200,7.3639521484375,-0.99359130859375,-0.0265960693359375,0.0439300537109375
1772797818968979200,7.373979248046875,-0.994110107421875,-0.0267791748046875,0.0435791015625
1772797818979005200,7.384005126953125,-0.99432373046875,-0.0264892578125,0.04315185546875
1772797818989031200,7.39403125,-0.994537353515625,-0.02789306640625,0.043365478515625
1772797818999058000,7.404057861328125,-0.9943084716796875,-0.027252197265625,0.0430450439453125
1772797819009084000,7.414083984375,-0.9948577880859375,-0.02752685546875,0.04364013671875
1772797819019110100,7.424110107421875,-0.9941558837890625,-0.0265655517578125,0.043212890625
1772797819029136100,7.43413623046875,-0.9930877685546875,-0.0277252197265625,0.0434417724609375
1772797819039163100,7.4441630859375,-0.993743896484375,-0.0276641845703125,0.0432281494140625
1772797819049189000,7.454189208984375,-0.9941864013671875,-0.027069091796875,0.0433197021484375
1772797819059215000,7.464215087890625,-0.994171142578125,-0.0275421142578125,0.043426513671875
1772797819069242000,7.4742421875,-0.9930877685546875,-0.0268707275390625,0.0426788330078125
1772797819079268000,7.48426806640625,-0.9942474365234375,-0.02728271484375,0.0430755615234375
1772797819089294000,7.494294189453125,-0.9931182861328125,-0.02838134765625,0.04412841796875
1772797819099320000,7.504320068359375,-0.9931640625,-0.027008056640625,0.0441741943359375
1772797819109347000,7.51434716796875,-0.9961090087890625,-0.027496337890625,0.0439605712890625
1772797819119373000,7.524373046875,-0.9944915771484375,-0.0272674560546875,0.044342041015625
1772797819129399000,7.53439892578125,-0.993408203125,-0.02838134765625,0.0430755615234375
1772797819139426000,7.544426025390625,-0.9916229248046875,-0.0272369384765625,0.0438079833984375
1772797819149452300,7.554452392578125,-0.9949798583984375,-0.0268402099609375,0.043701171875
1772797819159478300,7.564478271484375,-0.9961700439453125,-0.0268096923828125,0.045074462890625
1772797819169505000,7.574505126953125,-0.99285888671875,-0.0267333984375,0.043426513671875
1772797819179531000,7.584531005859375,-0.99237060546875,-0.027252197265625,0.0427703857421875
1772797819189557000,7.594556884765625,-0.9953155517578125,-0.0266571044921875,0.0433197021484375
1772797819199583000,7.6045830078125,-0.99371337890625,-0.027313232421875,0.044708251953125
1772797819209610000,7.61460986328125,-0.992919921875,-0.0281982421875,0.0435791015625
1772797819219636200,7.62463623046875,-0.9942169189453125,-0.0264129638671875,0.04278564453125
1772797819229662200,7.634662109375,-0.99566650390625,-0.02685546875,0.04351806640625
1772797819239689200,7.644689208984375,-0.994903564453125,-0.027313232421875,0.0441436767578125
1772797819249715200,7.654715087890625,-0.99310302734375,-0.02734375,0.0440216064453125
1772797819259741200,7.6647412109375,-0.9933013916015625,-0.0277862548828125,0.04388427734375
1772797819269767200,7.67476708984375,-0.9940948486328125,-0.0275115966796875,0.0442657470703125
1772797819279794200,7.684794189453125,-0.994903564453125,-0.0264739990234375,0.043914794921875
1772797819289820200,7.694820068359375,-0.9942474365234375,-0.0260772705078125,0.04296875
1772797819299846100,7.70484619140625,-0.994140625,-0.0272064208984375,0.0439910888671875
1772797819309873200,7.714873046875,-0.99517822265625,-0.0263519287109375,0.0436248779296875
1772797819319899100,7.724899169921875,-0.99407958984375,-0.0270538330078125,0.0438690185546875
1772797819329925000,7.734925048828125,-0.9934234619140625,-0.0279998779296875,0.0433349609375
1772797819339951000,7.744951171875,-0.99346923828125,-0.0269927978515625,0.0431365966796875
1772797819349978000,7.75497802734375,-0.9935302734375,-0.0276947021484375,0.0428009033203125
1772797819360004000,7.765004150390625,-0.994049072265625,-0.0269012451171875,0.044464111328125
1772797819370030000,7.775030029296875,-0.993255615234375,-0.026947021484375,0.042938232421875
1772797819380057000,7.78505712890625,-0.992340087890625,-0.02716064453125,0.04376220703125
1772797819390083000,7.7950830078125,-0.99481201171875,-0.0263214111328125,0.04388427734375
1772797819400109000,7.805109130859375,-0.995086669921875,-0.0275115966796875,0.0430755615234375
1772797819410135000,7.815135009765625,-0.9926300048828125,-0.0269012451171875,0.043853759765625
1772797819420162300,7.825162353515625,-0.9936676025390625,-0.02734375,0.043731689453125
1772797819430188300,7.835188232421875,-0.99517822265625,-0.02667236328125,0.044219970703125
1772797819440214300,7.84521435546875,-0.9941558837890625,-0.02593994140625,0.0430755615234375
1772797819450241000,7.855240966796875,-0.99395751953125,-0.02716064453125,0.0438232421875
1772797819460267000,7.86526708984375,-0.9942169189453125,-0.0257720947265625,0.0435791015625
1772797819470293000,7.87529296875,-0.99554443359375,-0.025787353515625,0.043304443359375
1772797819480319000,7.885319091796875,-0.994964599609375,-0.02764892578125,0.0434417724609375
1772797819490346200,7.89534619140625,-0.99334716796875,-0.02716064453125,0.043243408203125
1772797819500372200,7.905372314453125,-0.9945831298828125,-0.0263671875,0.0437469482421875
1772797819510398200,7.915398193359375,-0.9940643310546875,-0.0270233154296875,0.043609619140625
1772797819520425000,7.925425048828125,-0.9937896728515625,-0.027435302734375,0.0429534912109375
1772797819530451000,7.935450927734375,-0.994110107421875,-0.026458740234375,0.0433349609375
1772797819540477000,7.945476806640625,-0.994110107421875,-0.026458740234375,0.0430145263671875
1772797819550504200,7.955504150390625,-0.994537353515625,-0.0263824462890625,0.04241943359375
1772797819560530200,7.9655302734375,-0.99456787109375,-0.0263214111328125,0.0436553955078125
1772797819570556200,7.97555615234375,-0.994659423828125,-0.027191162109375,0.04376220703125
1772797819580582100,7.98558203125,-0.995147705078125,-0.02777099609375,0.0431060791015625
1772797819590609200,7.995609130859375,-0.994384765625,-0.0275726318359375,0.0440673828125
1772797819600635100,8.00563525390625,-0.9939727783203125,-0.0281829833984375,0.0441131591796875
1772797819610661000,8.0156611328125,-0.99273681640625,-0.027374267578125,0.0439605712890625
1772797819620688100,8.025688232421874,-0.9934844970703125,-0.028167724609375,0.04437255859375
1772797819630714000,8.035714111328126,-0.995391845703125,-0.0275115966796875,0.044342041015625
1772797819640740000,8.045739990234376,-0.9947357177734375,-0.0276336669921875,0.04364013671875
1772797819650766000,8.05576611328125,-0.99261474609375,-0.02801513671875,0.0432586669921875
1772797819660793000,8.06579296875,-0.9939117431640625,-0.0273895263671875,0.0440673828125
1772797819670819000,8.075819091796875,-0.9947509765625,-0.02667236328125,0.0432891845703125
1772797819680845000,8.085844970703125,-0.9936676025390625,-0.0279541015625,0.0435638427734375
1772797819690872300,8.095872314453125,-0.9931640625,-0.027984619140625,0.043304443359375
1772797819700898000,8.10589794921875,-0.993316650390625,-0.02801513671875,0.0446014404296875
1772797819710924000,8.115924072265624,-0.994659423828125,-0.0277557373046875,0.0438385009765625
1772797819720950000,8.125949951171876,-0.9932708740234375,-0.0261993408203125,0.043670654296875
1772797819730977000,8.13597705078125,-0.9941864013671875,-0.0261993408203125,0.04364013671875
1772797819741003000,8.1460029296875,-0.99505615234375,-0.02642822265625,0.04461669921875
1772797819751029000,8.156029052734375,-0.9951934814453125,-0.0263671875,0.0435638427734375
1772797819761055000,8.166054931640625,-0.9940643310546875,-0.0262908935546875,0.0435943603515625
1772797819771082200,8.176082275390625,-0.9940948486328125,-0.0276336669921875,0.0445556640625
1772797819781108200,8.186108154296875,-0.9941864013671875,-0.027008056640625,0.043212890625
1772797819791134200,8.19613427734375,-0.9938201904296875,-0.0270843505859375,0.04241943359375
1772797819801161000,8.206160888671874,-0.993804931640625,-0.025787353515625,0.04229736328125
1772797819811187000,8.21618701171875,-0.99560546875,-0.026123046875,0.042999267578125
1772797819821213000,8.226212890625,-0.9959869384765625,-0.0264892578125,0.043243408203125
1772797819831239000,8.236239013671875,-0.9951019287109375,-0.026458740234375,0.0431671142578125
1772797819841267200,8.24626708984375,-0.995147705078125,-0.0278167724609375,0.041534423828125
1772797819851293200,8.256293212890625,-0.9951324462890625,-0.0276336669921875,0.0414581298828125
1772797819861319200,8.266319091796875,-0.99395751953125,-0.027252197265625,0.0417938232421875
1772797819871346200,8.27634619140625,-0.9936676025390625,-0.0267181396484375,0.043182373046875
1772797819881372200,8.2863720703125,-0.99420166015625,-0.02728271484375,0.0435638427734375
1772797819891398100,8.296398193359375,-0.9939727783203125,-0.027496337890625,0.0431365966796875
1772797819901425200,8.306425048828125,-0.9953765869140625,-0.0259552001953125,0.0433197021484375
1772797819911451100,8.316451171875,-0.9950408935546875,-0.026458740234375,0.043487548828125
1772797819921477000,8.32647705078125,-0.995208740234375,-0.0271148681640625,0.0422821044921875
1772797819931503000,8.336503173828126,-0.992828369140625,-0.0286102294921875,0.0417022705078125
1772797819941530000,8.346530029296876,-0.9927825927734375,-0.0278472900390625,0.0432281494140625
1772797819951556000,8.35655615234375,-0.9947967529296875,-0.02679443359375,0.04388427734375
1772797819961582000,8.36658203125,-0.994964599609375,-0.0260162353515625,0.0426483154296875
1772797819971609000,8.376609130859375,-0.9927520751953125,-0.025970458984375,0.0429534912109375
1772797819981635000,8.386635009765625,-0.99224853515625,-0.026519775390625,0.043731689453125
1772797819991661000,8.3966611328125,-0.995391845703125,-0.026824951171875,0.0438079833984375
1772797820001687000,8.40668701171875,-0.995758056640625,-0.027099609375,0.0430145263671875
1772797820011714300,8.41671435546875,-0.994384765625,-0.0279083251953125,0.0431976318359375
1772797820021740300,8.426740234375,-0.992919921875,-0.0279998779296875,0.0428009033203125
1772797820031766300,8.436766357421876,-0.9944915771484375,-0.027374267578125,0.0443878173828125
1772797820041792300,8.446792236328125,-0.9951324462890625,-0.0253753662109375,0.0440521240234375
1772797820051819000,8.456819091796875,-0.994415283203125,-0.0271759033203125,0.0435943603515625
1772797820061845000,8.466844970703125,-0.9945068359375,-0.0272369384765625,0.0432586669921875
1772797820071871000,8.47687109375,-0.9950103759765625,-0.0271453857421875,0.0436553955078125
1772797820081898200,8.486898193359375,-0.99468994140625,-0.0277099609375,0.0431365966796875
1772797820091924200,8.49692431640625,-0.993011474609375,-0.026519775390625,0.0434112548828125
1772797820101950200,8.5069501953125,-0.9947052001953125,-0.0269012451171875,0.0440216064453125
1772797820111976200,8.51697607421875,-0.9953460693359375,-0.0266571044921875,0.0434722900390625
1772797820122003200,8.527003173828126,-0.994232177734375,-0.0269622802734375,0.043548583984375
1772797820132029200,8.537029296875,-0.9949188232421875,-0.0263214111328125,0.0439910888671875
1772797820142055000,8.547054931640625,-0.993804931640625,-0.027496337890625,0.0429534912109375
1772797820152082200,8.557082275390625,-0.9938812255859375,-0.027740478515625,0.04315185546875
1772797820162108200,8.567108154296875,-0.9940948486328125,-0.0272674560546875,0.043426513671875
1772797820172134100,8.577134033203125,-0.9937744140625,-0.0275726318359375,0.04376220703125
1772797820182160100,8.58716015625,-0.9953460693359375,-0.026947021484375,0.0438385009765625
1772797820192187100,8.597187255859374,-0.9947967529296875,-0.0283050537109375,0.0440673828125
1772797820202213000,8.607213134765624,-0.9940032958984375,-0.02691650390625,0.0437164306640625
1772797820212239000,8.617239013671876,-0.993682861328125,-0.0255584716796875,0.042755126953125
1772797820222266000,8.62726611328125,-0.9949798583984375,-0.0254669189453125,0.043914794921875
1772797820232292000,8.6372919921875,-0.994903564453125,-0.027130126953125,0.0423431396484375
1772797820242318000,8.647318115234375,-0.9937286376953125,-0.0279541015625,0.04376220703125
1772797820252344000,8.657343994140625,-0.9938507080078125,-0.028350830078125,0.043731689453125
1772797820262371000,8.66737109375,-0.9931488037109375,-0.0273895263671875,0.0431671142578125
1772797820272397000,8.67739697265625,-0.995086669921875,-0.0267486572265625,0.0430450439453125
1772797820282423300,8.68742333984375,-0.992706298828125,-0.0269927978515625,0.0435943603515625
1772797820292450300,8.6974501953125,-0.9931488037109375,-0.026458740234375,0.044036865234375
1772797820302476300,8.707476318359374,-0.9952545166015625,-0.0264434814453125,0.0435638427734375
1772797820312502300,8.717502197265626,-0.9943695068359375,-0.0274505615234375,0.0425872802734375
1772797820322528000,8.727528076171875,-0.9940338134765625,-0.02630615234375,0.042572021484375
1772797820332555000,8.737554931640625,-0.9954376220703125,-0.028411865234375,0.0420074462890625
1772797820342581000,8.7475810546875,-0.9949493408203125,-0.0270233154296875,0.0430145263671875
1772797820352607200,8.757607177734375,-0.995697021484375,-0.0263214111328125,0.0434417724609375
1772797820362634200,8.76763427734375,-0.9945068359375,-0.027130126953125,0.0433349609375
1772797820372660200,8.77766015625,-0.99395751953125,-0.0264129638671875,0.0438995361328125
1772797820382686200,8.787686279296874,-0.994964599609375,-0.0257568359375,0.043914794921875
1772797820392712200,8.797712158203124,-0.9942779541015625,-0.0263519287109375,0.0428009033203125
1772797820402739000,8.807739013671876,-0.994781494140625,-0.0274200439453125,0.0430755615234375
1772797820412765000,8.817764892578126,-0.9944610595703125,-0.026947021484375,0.04248046875
1772797820422791200,8.827791259765625,-0.9940185546875,-0.0272216796875,0.043304443359375
1772797820432817200,8.837817138671875,-0.9942169189453125,-0.0268096923828125,0.0435638427734375
1772797820442844200,8.84784423828125,-0.9961395263671875,-0.0265960693359375,0.0422515869140625
1772797820452870100,8.8578701171875,-0.9944610595703125,-0.0271453857421875,0.042877197265625
1772797820462896000,8.867896240234375,-0.99407958984375,-0.0265655517578125,0.04315185546875
1772797820472923100,8.877923095703125,-0.9943389892578125,-0.0265655517578125,0.04339599609375
1772797820482949400,8.887949462890624,-0.9944915771484375,-0.027008056640625,0.0423583984375
1772797820492975400,8.897975341796876,-0.9937591552734375,-0.0263214111328125,0.0429534912109375
1772797820503001000,8.9080009765625,-0.9936065673828125,-0.0265045166015625,0.04296875
1772797820513028000,8.918028076171876,-0.9853057861328125,-0.0162200927734375,0.0340118408203125
1772797820523054000,8.92805419921875,-1.042266845703125,-0.0173797607421875,0.0296630859375
1772797820533080000,8.938080078125,-1.0449676513671875,-0.038116455078125,0.0445709228515625
1772797820543107000,8.948107177734375,-0.941558837890625,-0.048309326171875,0.0673065185546875
1772797820553133300,8.95813330078125,-0.90277099609375,-0.049835205078125,0.0793609619140625
1772797820563159300,8.9681591796875,-0.970306396484375,-0.045166015625,0.0696563720703125
1772797820573185300,8.978185302734374,-1.025970458984375,-0.0308074951171875,0.03948974609375
1772797820583212000,8.9882119140625,-1.031494140625,-0.0174102783203125,0.0233612060546875
1772797820593238000,8.998238037109376,-1.0197906494140625,-0.014190673828125,0.0339508056640625
1772797820603264000,9.008263916015625,-1.0035552978515625,-0.0228271484375,0.047698974609375
1772797820613290000,9.0182900390625,-0.9796905517578125,-0.031402587890625,0.046844482421875
1772797820623317200,9.028317138671875,-0.9710235595703125,-0.034027099609375,0.0440826416015625
1772797820633343200,9.03834326171875,-0.9889373779296875,-0.0312957763671875,0.048553466796875
1772797820643369200,9.048369140625,-1.0041046142578125,-0.0262908935546875,0.04876708984375
1772797820653396200,9.058396240234375,-1.0006103515625,-0.0237884521484375,0.0381927490234375
1772797820663422200,9.068422119140624,-0.9970245361328125,-0.0244903564453125,0.033660888671875
1772797820673448200,9.0784482421875,-1.0010833740234375,-0.025909423828125,0.04071044921875
1772797820683474200,9.08847412109375,-0.999053955078125,-0.02667236328125,0.0475616455078125
1772797820693501200,9.098501220703126,-0.98870849609375,-0.030426025390625,0.04669189453125
1772797820703527200,9.108527099609375,-0.98272705078125,-0.0316619873046875,0.0446624755859375
1772797820713553200,9.11855322265625,-0.98858642578125,-0.030426025390625,0.0460662841796875
1772797820723580200,9.128580078125,-0.9990386962890625,-0.027069091796875,0.0446929931640625
1772797820733606100,9.138606201171875,-1.0001983642578125,-0.0258331298828125,0.041107177734375
1772797820743632100,9.148632080078125,-0.997314453125,-0.0258331298828125,0.038299560546875
1772797820753658000,9.158658203125,-0.9971771240234375,-0.0255279541015625,0.0411224365234375
1772797820763685000,9.16868505859375,-0.9959869384765625,-0.0284271240234375,0.0460968017578125
1772797820773711000,9.178711181640624,-0.9908447265625,-0.0286712646484375,0.0462188720703125
1772797820783737000,9.188737060546876,-0.9886016845703125,-0.02960205078125,0.0447998046875
1772797820793763000,9.19876318359375,-0.991790771484375,-0.028228759765625,0.0457916259765625
1772797820803790000,9.2087900390625,-0.9968719482421875,-0.0269927978515625,0.044403076171875
1772797820813816000,9.218816162109375,-0.9983367919921875,-0.0263824462890625,0.0420684814453125
1772797820823842000,9.228842041015625,-0.997650146484375,-0.0268402099609375,0.0410919189453125
1772797820833869300,9.238869384765625,-0.9970855712890625,-0.0258636474609375,0.043609619140625
1772797820843894500,9.24889453125,-0.99432373046875,-0.0271453857421875,0.0446929931640625
1772797820853920500,9.25892041015625,-0.9914093017578125,-0.0280914306640625,0.04473876953125
1772797820863946500,9.268946533203126,-0.9903717041015625,-0.028045654296875,0.044708251953125
1772797820873973200,9.27897314453125,-0.992889404296875,-0.0279998779296875,0.044891357421875
1772797820883999500,9.28899951171875,-0.9962158203125,-0.0268707275390625,0.042816162109375
1772797820894025500,9.299025390625,-0.997406005859375,-0.026824951171875,0.0411376953125
1772797820904052500,9.309052490234375,-0.996917724609375,-0.02606201171875,0.041778564453125
1772797820914078500,9.319078369140625,-0.9955902099609375,-0.02655029296875,0.0418548583984375
1772797820924104400,9.3291044921875,-0.994171142578125,-0.0267486572265625,0.043304443359375
1772797820934130400,9.33913037109375,-0.9882965087890625,-0.013580322265625,0.035186767578125
1772797820944157400,9.349157470703124,-1.0520172119140625,-0.01287841796875,0.0247039794921875
1772797820954183700,9.35918359375,-1.0496826171875,-0.0369110107421875,0.03314208984375
1772797820964209700,9.369209716796876,-0.981048583984375,-0.0465545654296875,0.066864013671875
1772797820974235600,9.379235595703125,-0.935272216796875,-0.0550994873046875,0.089324951171875
1772797820984262400,9.389262451171875,-0.899688720703125,-0.0621795654296875,0.074462890625
1772797820994288400,9.399288330078125,-0.937164306640625,-0.0535736083984375,0.0596466064453125
1772797821004314400,9.409314453125,-1.0361785888671875,-0.0352630615234375,0.0583648681640625
1772797821014341600,9.419341552734375,-1.0808258056640625,-0.024810791015625,0.0523834228515625
1772797821024367600,9.42936767578125,-1.009490966796875,-0.0265655517578125,0.0340576171875
1772797821034393600,9.4393935546875,-0.972198486328125,-0.0364532470703125,0.04266357421875
1772797821044419600,9.449419677734374,-0.9913787841796875,-0.0416717529296875,0.0670623779296875
1772797821054446300,9.4594462890625,-0.9784393310546875,-0.045745849609375,0.0691986083984375
1772797821064472300,9.469472412109376,-0.9564208984375,-0.045166015625,0.0564117431640625
1772797821074498300,9.479498291015625,-0.982330322265625,-0.0378875732421875,0.0504302978515625
1772797821084524300,9.489524169921875,-1.014892578125,-0.0277862548828125,0.0467529296875
1772797821094551600,9.499551513671875,-1.012786865234375,-0.0186004638671875,0.03619384765625
1772797821104577500,9.50957763671875,-1.0063018798828125,-0.0125732421875,0.0265655517578125
1772797821114603500,9.519603515625,-1.01373291015625,-0.0143585205078125,0.027008056640625
1772797821124630500,9.529630615234375,-1.014434814453125,-0.0205078125,0.0375518798828125
1772797821134656500,9.539656494140624,-0.9964447021484375,-0.03167724609375,0.0495758056640625
1772797821144682500,9.5496826171875,-0.96612548828125,-0.0386810302734375,0.0560760498046875
1772797821154708500,9.55970849609375,-0.9611968994140625,-0.0399169921875,0.05596923828125
1772797821164735500,9.569735595703126,-0.9859619140625,-0.0334625244140625,0.050262451171875
1772797821174761500,9.579761474609375,-1.00775146484375,-0.0253753662109375,0.0410308837890625
1772797821184787500,9.589787353515625,-1.011016845703125,-0.019866943359375,0.0338287353515625
1772797821194813400,9.5998134765625,-1.0065460205078125,-0.0178070068359375,0.0332794189453125
1772797821204840400,9.60984033203125,-1.004119873046875,-0.022796630859375,0.039337158203125
1772797821214866400,9.619866455078125,-0.99725341796875,-0.029083251953125,0.046051025390625
1772797821224892400,9.629892333984374,-0.9817657470703125,-0.034332275390625,0.050048828125
1772797821234919400,9.63991943359375,-0.9722137451171875,-0.0360107421875,0.0514068603515625
1772797821244945400,9.6499453125,-0.9855804443359375,-0.032470703125,0.04925537109375
1772797821254971400,9.659971435546876,-1.002166748046875,-0.027587890625,0.043426513671875
1772797821264997400,9.669997314453125,-1.0058135986328125,-0.0229644775390625,0.0372161865234375
1772797821275024400,9.6800244140625,-1.0024566650390625,-0.022491455078125,0.036712646484375
1772797821285050400,9.69005029296875,-1.0004425048828125,-0.0238494873046875,0.0401763916015625
1772797821295076400,9.700076416015625,-0.9959716796875,-0.0284423828125,0.0445556640625
1772797821305102600,9.7101025390625,-0.9865570068359375,-0.0317840576171875,0.047637939453125
1772797821315129600,9.720129638671875,-0.9813232421875,-0.0325164794921875,0.048095703125
1772797821325155600,9.730155517578124,-0.9880218505859375,-0.0305023193359375,0.0468902587890625
1772797821335181600,9.740181640625,-0.99835205078125,-0.02679443359375,0.043853759765625
1772797821345208300,9.750208251953126,-1.0009765625,-0.0247802734375,0.0402374267578125
1772797821355234300,9.760234375,-1.001068115234375,-0.02410888671875,0.0394134521484375
1772797821365260300,9.77026025390625,-0.9991455078125,-0.024871826171875,0.041717529296875
1772797821375286500,9.78028662109375,-0.994873046875,-0.028228759765625,0.044952392578125
1772797821385313500,9.7903134765625,-0.988922119140625,-0.0304412841796875,0.0459442138671875
1772797821395339500,9.800339599609375,-0.9864501953125,-0.0316314697265625,0.0457763671875
1772797821405365500,9.810365478515624,-0.9911041259765625,-0.0285186767578125,0.0452117919921875
1772797821415391500,9.8203916015625,-0.9971466064453125,-0.026702880859375,0.04296875
1772797821425418500,9.83041845703125,-0.9985504150390625,-0.0249786376953125,0.0402984619140625
1772797821435444500,9.840444580078126,-0.99774169921875,-0.0253448486328125,0.040679931640625
1772797821445470500,9.850470458984375,-0.9968719482421875,-0.0250244140625,0.0417938232421875
1772797821455497500,9.86049755859375,-0.994720458984375,-0.0268707275390625,0.044158935546875
1772797821465523500,9.8705234375,-0.9919891357421875,-0.0290374755859375,0.0449371337890625
1772797821475549400,9.880549560546875,-0.990631103515625,-0.028533935546875,0.0449371337890625
1772797821485575400,9.890575439453125,-0.9927978515625,-0.028533935546875,0.04486083984375
1772797821495602400,9.9006025390625,-0.9948883056640625,-0.0280303955078125,0.0437469482421875
1772797821505628700,9.910628662109374,-0.99664306640625,-0.0256195068359375,0.042877197265625
1772797821515654700,9.920654541015624,-0.997589111328125,-0.02655029296875,0.0415802001953125
1772797821525680600,9.9306806640625,-0.9954071044921875,-0.0259857177734375,0.0428619384765625
1772797821535707400,9.940707275390626,-0.9932403564453125,-0.0275726318359375,0.0445709228515625
1772797821545733400,9.9507333984375,-0.9918060302734375,-0.0287933349609375,0.0442962646484375
1772797821555759400,9.96075927734375,-0.9922332763671875,-0.0285491943359375,0.045013427734375
1772797821565785300,9.970785400390625,-0.9875946044921875,-0.022705078125,0.04180908203125
1772797821575812600,9.9808125,-1.0144500732421875,0.001129150390625,0.0267181396484375
1772797821585838600,9.990838623046875,-1.0896453857421875,-0.0229644775390625,0.0137481689453125
1772797821595864600,10.000864501953124,-1.039642333984375,-0.0478668212890625,0.046722412109375
1772797821605891600,10.0108916015625,-0.9626312255859375,-0.05596923828125,0.100311279296875
1772797821615917600,10.02091748046875,-0.8490447998046875,-0.0713958740234375,0.0955963134765625
1772797821625943300,10.030943359375,-0.83404541015625,-0.0712738037109375,0.073089599609375
1772797821635969300,10.04096923828125,-0.982147216796875,-0.046905517578125,0.063140869140625
1772797821645996500,10.05099658203125,-1.147735595703125,-0.0197601318359375,0.0540618896484375
1772797821656022500,10.0610224609375,-1.0833587646484375,-0.0073394775390625,0.0203857421875
1772797821666048500,10.071048583984375,-0.951904296875,-0.014678955078125,0.0120849609375
1772797821676074500,10.081074462890625,-0.9776611328125,-0.02496337890625,0.0449676513671875
