time,seconds_elapsed,z,y,x
1772868514859983400,0.0919833984375,0.3039203882217407,-0.12812753021717072,-0.8504014015197754
1772868514870049500,0.102049560546875,0.3000895082950592,-0.22438102960586548,-0.8691335916519165
1772868514880115500,0.112115478515625,0.29472988843917847,-0.35031795501708984,-0.7938239574432373
1772868514890182400,0.122182373046875,0.27968528866767883,-0.4923720061779022,-0.6509883999824524
1772868514900248600,0.13224853515625,0.2694776654243469,-0.5873525738716125,-0.4864242374897003
1772868514910314500,0.142314453125,0.25527939200401306,-0.5818946957588196,-0.33293449878692627
1772868514920381400,0.15238134765625,0.24266666173934937,-0.5140128135681152,-0.23270244896411896
1772868514930447600,0.162447509765625,0.22533823549747467,-0.37295952439308167,-0.17763280868530273
1772868514940513500,0.172513427734375,0.17761918902397156,-0.12638729810714722,-0.15876032412052155
1772868514950580500,0.18258056640625,0.12917421758174896,0.11783050745725632,-0.17781689763069153
1772868514960646400,0.192646484375,0.09732493758201599,0.3167888820171356,-0.21265263855457306
1772868514970712300,0.20271240234375,0.05845873802900314,0.47279274463653564,-0.23085394501686096
1772868514980778500,0.212778564453125,0.011398019269108772,0.6066074967384338,-0.25039276480674744
1772868514990845400,0.222845458984375,-0.015649214386940002,0.7181282639503479,-0.2969766855239868
1772868515000911400,0.232911376953125,-0.028467275202274323,0.7897201776504517,-0.3670945167541504
1772868515010977500,0.2429775390625,-0.025088874623179436,0.7915321588516235,-0.45604032278060913
1772868515021044500,0.25304443359375,-0.026572255417704582,0.7246758937835693,-0.5368208885192871
1772868515031110400,0.2631103515625,-0.04001477733254433,0.6297876238822937,-0.5796886682510376
1772868515041176600,0.273176513671875,-0.014683056622743607,0.5748772025108337,-0.5610494613647461
1772868515051243500,0.283243408203125,0.038331810384988785,0.5691820979118347,-0.4813705086708069
1772868515061309700,0.293309814453125,0.0766187459230423,0.5871390104293823,-0.370930016040802
1772868515071375600,0.303375732421875,0.08869973570108414,0.559161365032196,-0.28350841999053955
1772868515081442600,0.313442626953125,0.08827229589223862,0.4749372601509094,-0.2428286373615265
1772868515091508500,0.323508544921875,0.07214441150426865,0.3510425388813019,-0.2414853274822235
1772868515101574400,0.333574462890625,0.05255206301808357,0.18822990357875824,-0.24628274142742157
1772868515111641300,0.343641357421875,0.036285560578107834,0.06332530826330185,-0.22524118423461914
1772868515121707500,0.35370751953125,0.04342842474579811,-0.022878017276525497,-0.19179241359233856
1772868515131773400,0.3637734375,0.07896963506937027,-0.08790028840303421,-0.12595875561237335
1772868515141840400,0.37384033203125,0.13422542810440063,-0.10806094855070114,-0.03315451741218567
1772868515151906600,0.383906494140625,0.19796748459339142,-0.05930402874946594,0.0837162658572197
1772868515161972500,0.393972412109375,0.23405678570270538,0.0365106463432312,0.18644212186336517
1772868515172039400,0.404039306640625,0.25966888666152954,0.07560565322637558,0.24553431570529938
1772868515182105600,0.414105712890625,0.2721590995788574,0.045076772570610046,0.24860839545726776
1772868515192171500,0.424171630859375,0.2490210235118866,-0.06645162403583527,0.20553070306777954
1772868515202238500,0.434238525390625,0.1864529848098755,-0.26419931650161743,0.14539305865764618
1772868515212304600,0.4443046875,0.11446534097194672,-0.45230239629745483,0.12425954639911652
1772868515222370300,0.454370361328125,0.046057261526584625,-0.5563946962356567,0.16727173328399658
1772868515232437500,0.4644375,0.04123389348387718,-0.5493648052215576,0.24503132700920105
1772868515242503400,0.47450341796875,0.04348799213767052,-0.4952980577945709,0.2716655731201172
1772868515252569300,0.4845693359375,-0.004171316511929035,-0.4339880645275116,0.23592643439769745
1772868515262636500,0.494636474609375,-0.041693925857543945,-0.33662450313568115,0.17514431476593018
1772868515272702500,0.504702392578125,-0.08781242370605469,-0.2262047678232193,0.13354691863059998
1772868515282768400,0.514768310546875,-0.14071771502494812,-0.13036185503005981,0.12358934432268143
1772868515292834600,0.52483447265625,-0.2176017165184021,-0.08419502526521683,0.1367640346288681
1772868515302901500,0.534901611328125,-0.3272363543510437,-0.12763278186321259,0.16164301335811615
1772868515312967400,0.544967529296875,-0.42961788177490234,-0.23267753422260284,0.1936490535736084
1772868515323033600,0.55503369140625,-0.47482025623321533,-0.32327961921691895,0.25190144777297974
1772868515333100500,0.5651005859375,-0.4309711754322052,-0.3349806070327759,0.3577960431575775
1772868515343166500,0.57516650390625,-0.35589081048965454,-0.2603819966316223,0.4960114359855652
1772868515353232400,0.585232421875,-0.2662257254123688,-0.1371864676475525,0.6271985769271851
1772868515363299600,0.595299560546875,-0.16517579555511475,-0.013123106211423874,0.7015660405158997
1772868515373365500,0.605365478515625,-0.0605727843940258,0.11146019399166107,0.7163402438163757
1772868515383431400,0.615431396484375,0.026542678475379944,0.22135767340660095,0.6855252981185913
1772868515393498400,0.625498291015625,0.08098866790533066,0.2860826849937439,0.6310700178146362
1772868515403564500,0.635564453125,0.09620863199234009,0.27114421129226685,0.5683661699295044
1772868515413630500,0.64563037109375,0.06919669359922409,0.19932569563388824,0.5255920886993408
1772868515423697400,0.655697509765625,0.01308469008654356,0.11634372919797897,0.5080879330635071
1772868515433763600,0.665763671875,-0.04659109562635422,0.08044546097517014,0.4922163188457489
1772868515443829500,0.67582958984375,-0.11547616124153137,0.09159345179796219,0.44227778911590576
1772868515453896400,0.685896484375,-0.19194510579109192,0.11961164325475693,0.3494313955307007
1772868515463962600,0.695962646484375,-0.27299416065216064,0.15496324002742767,0.2134312242269516
1772868515474028500,0.706028564453125,-0.35000911355018616,0.18722938001155853,0.05363784357905388
1772868515484095500,0.716095458984375,-0.4162978529930115,0.207289919257164,-0.09359634667634964
1772868515494161700,0.72616162109375,-0.4545922577381134,0.19397306442260742,-0.2114255577325821
1772868515504227300,0.736227294921875,-0.4690290093421936,0.16439200937747955,-0.27143216133117676
1772868515514294300,0.746294189453125,-0.45944762229919434,0.13571548461914062,-0.29041460156440735
1772868515524360400,0.7563603515625,-0.41377201676368713,0.12838566303253174,-0.28241342306137085
1772868515534426400,0.76642626953125,-0.3494042754173279,0.137689471244812,-0.2771779000759125
1772868515544493300,0.776493408203125,-0.28179726004600525,0.1405467689037323,-0.2917405962944031
1772868515554559500,0.7865595703125,-0.2267407774925232,0.11146064847707748,-0.3263232111930847
1772868515564625400,0.79662548828125,-0.20072250068187714,0.06188298016786575,-0.34552645683288574
1772868515574692600,0.806692626953125,-0.23929408192634583,0.06614680588245392,-0.32958102226257324
1772868515584758500,0.816758544921875,-0.22540676593780518,0.10364783555269241,-0.28488385677337646
1772868515594824400,0.826824462890625,-0.24804352223873138,0.12485380470752716,-0.2514213025569916
1772868515604891600,0.8368916015625,-0.31330054998397827,0.1496502310037613,-0.22546719014644623
1772868515614957600,0.84695751953125,-0.37866780161857605,0.199873685836792,-0.2283247858285904
1772868515625023500,0.8570234375,-0.467217355966568,0.24245202541351318,-0.2620164453983307
1772868515635090700,0.867090576171875,-0.5370529890060425,0.2387232631444931,-0.32832562923431396
1772868515645156400,0.87715625,-0.5843568444252014,0.17083850502967834,-0.40861567854881287
1772868515655217400,0.887217529296875,-0.6090236306190491,0.07520298659801483,-0.48444414138793945
1772868515665284400,0.897284423828125,-0.6148322820663452,-0.06679622828960419,-0.5273519158363342
1772868515675350500,0.9073505859375,-0.5985109806060791,-0.21458831429481506,-0.530549168586731
1772868515685416400,0.91741650390625,-0.5717928409576416,-0.2974781394004822,-0.46340417861938477
1772868515695483400,0.9274833984375,-0.5302900075912476,-0.2752203643321991,-0.3426193594932556
1772868515705549600,0.937549560546875,-0.4839387536048889,-0.2165011167526245,-0.2042263150215149
1772868515715615500,0.947615478515625,-0.4336940050125122,-0.16904406249523163,-0.04826052859425545
1772868515725682400,0.957682373046875,-0.3870769739151001,-0.10999272018671036,0.09847379475831985
1772868515735748600,0.96774853515625,-0.3477652966976166,-0.024485643953084946,0.19861045479774475
1772868515745814500,0.977814453125,-0.2927747368812561,0.06624745577573776,0.22555099427700043
1772868515755881500,0.987881591796875,-0.23333227634429932,0.1777358502149582,0.17806647717952728
1772868515765947400,0.997947509765625,-0.17754943668842316,0.28369900584220886,0.07670337706804276
1772868515776013300,1.008013427734375,-0.12564128637313843,0.35750752687454224,-0.02554016001522541
1772868515786080300,1.018080322265625,-0.0956256091594696,0.37618160247802734,-0.10673888027667999
1772868515796146400,1.028146484375,-0.07229235023260117,0.34996920824050903,-0.14845329523086548
1772868515806212400,1.03821240234375,-0.026432448998093605,0.3173865079879761,-0.13755804300308228
1772868515816279300,1.048279296875,0.039566636085510254,0.30989572405815125,-0.08663814514875412
1772868515826345500,1.058345458984375,0.13371656835079193,0.281930148601532,-0.02635856159031391
1772868515836411400,1.068411376953125,0.2429182231426239,0.24427007138729095,0.01975208893418312
1772868515846478300,1.078478271484375,0.3507658541202545,0.2339247614145279,0.08551645278930664
1772868515856544500,1.08854443359375,0.439898282289505,0.24223673343658447,0.15514658391475677
1772868515866610400,1.0986103515625,0.5018450021743774,0.2271621823310852,0.19577309489250183
1772868515876677600,1.108677734375,0.5144668817520142,0.17308317124843597,0.21265114843845367
1772868515886743600,1.11874365234375,0.4673544764518738,0.07695183902978897,0.2193402200937271
1772868515896809200,1.128809326171875,0.3876418173313141,-0.09361422061920166,0.23518556356430054
1772868515906876700,1.138876708984375,0.2866888642311096,-0.34247836470603943,0.2646433413028717
1772868515916942300,1.1489423828125,0.17983238399028778,-0.6355341076850891,0.3219015598297119
1772868515927008500,1.159008544921875,0.09186685085296631,-0.8734005093574524,0.410773903131485
1772868515937075500,1.169075439453125,0.062205806374549866,-0.9346789717674255,0.5461952686309814
1772868515947141400,1.179141357421875,0.10572318732738495,-0.7824148535728455,0.6882256269454956
1772868515957207600,1.18920751953125,0.22108575701713562,-0.45039844512939453,0.7801253795623779
1772868515967274500,1.1992744140625,0.39124467968940735,-0.022816486656665802,0.7823358178138733
1772868515977340400,1.20934033203125,0.5777959823608398,0.38559556007385254,0.6694162487983704
1772868515987406600,1.219406494140625,0.7447847127914429,0.680916965007782,0.44928282499313354
1772868515997473500,1.2294736328125,0.8894743323326111,0.8871782422065735,0.15502895414829254
1772868516007539500,1.23953955078125,0.9936259984970093,0.9195231199264526,-0.1780102550983429
1772868516017605600,1.249605712890625,1.037650227546692,0.7729019522666931,-0.4807226061820984
1772868516027672600,1.259672607421875,1.0133323669433594,0.5260388851165771,-0.6889383792877197
1772868516037738500,1.269738525390625,0.930655837059021,0.18824133276939392,-0.7961170673370361
1772868516047804400,1.279804443359375,0.8410572409629822,-0.21560761332511902,-0.7988641262054443
1772868516057871400,1.289871337890625,0.7833305597305298,-0.603042483329773,-0.6822428107261658
1772868516067937300,1.299937255859375,0.7564448714256287,-0.887565016746521,-0.45212626457214355
1772868516078003500,1.31000341796875,0.7588743567466736,-0.9693207144737244,-0.1511283963918686
1772868516088070400,1.3200703125,0.7796712517738342,-0.8424232006072998,0.14727987349033356
1772868516098136300,1.33013623046875,0.8403966426849365,-0.5897717475891113,0.38738006353378296
1772868516108202500,1.340202392578125,0.9272878766059875,-0.315921813249588,0.494191437959671
1772868516118269400,1.35026953125,0.9759798049926758,-0.11373469233512878,0.46191585063934326
1772868516128335400,1.36033544921875,0.9257946610450745,0.0034771542996168137,0.3190162181854248
1772868516138401500,1.370401611328125,0.794899046421051,0.08795589953660965,0.1331179141998291
1772868516148468500,1.380468505859375,0.6187106966972351,0.177976593375206,-0.04001658409833908
1772868516158534400,1.390534423828125,0.43894338607788086,0.3083111047744751,-0.1603362262248993
1772868516168600600,1.4006005859375,0.28566354513168335,0.5143702626228333,-0.25054308772087097
1772868516178667500,1.41066748046875,0.17316438257694244,0.7609632015228271,-0.3451239764690399
1772868516188733400,1.4207333984375,0.11730910837650299,0.9698991179466248,-0.4779384732246399
1772868516198799400,1.43079931640625,0.12227483093738556,1.084433913230896,-0.6392859220504761
1772868516208866300,1.4408662109375,0.15547193586826324,1.0785547494888306,-0.7851222157478333
1772868516218932500,1.450932373046875,0.18702943623065948,0.9701233506202698,-0.8595312237739563
1772868516228998400,1.460998291015625,0.22076795995235443,0.7971310615539551,-0.8354024291038513
1772868516239065300,1.4710654296875,0.22709153592586517,0.5999941825866699,-0.7266108393669128
1772868516249131500,1.481131591796875,0.225087508559227,0.4157353341579437,-0.5449725985527039
1772868516259198500,1.491198486328125,0.2077983319759369,0.2778675854206085,-0.3315354585647583
1772868516269264400,1.501264404296875,0.17169678211212158,0.17801207304000854,-0.12944814562797546
1772868516279330600,1.51133056640625,0.11131279170513153,0.11022038757801056,0.022838003933429718
1772868516289397500,1.5213974609375,0.045405954122543335,0.0754629373550415,0.09988564997911453
1772868516299463400,1.53146337890625,-0.010297616943717003,0.05601143464446068,0.10919693112373352
1772868516309529600,1.541529541015625,-0.04318605735898018,0.030788637697696686,0.05509002134203911
1772868516319596500,1.551596435546875,-0.06796365976333618,0.01646091416478157,-0.02442784793674946
1772868516329662500,1.561662353515625,-0.08533678948879242,-0.004720805212855339,-0.10790729522705078
1772868516339728400,1.571728271484375,-0.10258413106203079,-0.04359465464949608,-0.18715572357177734
1772868516349795300,1.58179541015625,-0.1049487516283989,-0.09613057225942612,-0.23929668962955475
1772868516359861200,1.591861328125,-0.09843279421329498,-0.13309337198734283,-0.2638971209526062
1772868516369927400,1.601927490234375,-0.10561160743236542,-0.14577215909957886,-0.25939929485321045
1772868516379994400,1.611994384765625,-0.1184176653623581,-0.16043274104595184,-0.2292376011610031
1772868516390060500,1.622060546875,-0.11825627833604813,-0.16194967925548553,-0.18311777710914612
1772868516400126500,1.63212646484375,-0.10239523649215698,-0.12289328873157501,-0.12545733153820038
1772868516410193400,1.642193359375,-0.07767657190561295,-0.03955019265413284,-0.0806368738412857
1772868516420259600,1.652259521484375,-0.0770060271024704,0.009469857439398766,-0.0690474733710289
1772868516430325500,1.662325439453125,-0.10911495983600616,0.00030778348445892334,-0.06622611731290817
1772868516440392400,1.672392333984375,-0.16806668043136597,-0.04956752061843872,-0.060087740421295166
1772868516450458600,1.682458740234375,-0.2618653178215027,-0.14773935079574585,-0.028358573094010353
1772868516460524500,1.692524658203125,-0.3649924695491791,-0.333685040473938,0.05338969826698303
1772868516470591500,1.702591552734375,-0.4358386993408203,-0.521824836730957,0.2204441875219345
1772868516480657400,1.712657470703125,-0.6216117739677429,-0.6527460813522339,0.4253077208995819
1772868516490724600,1.722724609375,-0.7827575206756592,-0.6592553853988647,0.6841861605644226
1772868516500790300,1.732790283203125,-0.8725998401641846,-0.5660147070884705,0.9576429128646851
1772868516510856400,1.7428564453125,-0.9161769151687622,-0.44663724303245544,1.1920841932296753
1772868516520923400,1.75292333984375,-0.9443841576576233,-0.3101416528224945,1.3641695976257324
1772868516530989300,1.7629892578125,-0.9453247785568237,-0.15209424495697021,1.4574116468429565
1772868516541055500,1.773055419921875,-0.9009997844696045,0.06298366189002991,1.4505215883255005
1772868516551122400,1.783122314453125,-0.9263589382171631,0.301360547542572,1.3060195446014404
1772868516561188400,1.793188232421875,-1.0003544092178345,0.4635257422924042,1.0353639125823975
1772868516571254500,1.803254638671875,-1.0737558603286743,0.5371323227882385,0.7010671496391296
1772868516581321500,1.813321533203125,-1.1215035915374756,0.5906627178192139,0.36060890555381775
1772868516591387400,1.823387451171875,-1.1476044654846191,0.6307936310768127,0.07383306324481964
1772868516601453600,1.83345361328125,-1.1604163646697998,0.7045223712921143,-0.15594646334648132
1772868516611520500,1.8435205078125,-1.154744267463684,0.7135089039802551,-0.29083797335624695
1772868516621586700,1.853586669921875,-1.154542326927185,0.6488357186317444,-0.30650076270103455
1772868516631652400,1.86365234375,-1.1578097343444824,0.5318840742111206,-0.20498159527778625
1772868516641719300,1.87371923828125,-1.128763198852539,0.4464000463485718,-0.02644434943795204
1772868516651785500,1.883785400390625,-1.093047857284546,0.3444371819496155,0.1470813751220703
1772868516661854500,1.8938544921875,-1.0485401153564453,0.23992422223091125,0.2560226321220398
1772868516671921400,1.90392138671875,-0.9739199280738831,0.17624589800834656,0.26201552152633667
1772868516681987600,1.913987548828125,-0.8473567962646484,0.13647682964801788,0.16606557369232178
1772868516692054500,1.924054443359375,-0.7244428992271423,0.10503236949443817,-0.05911855027079582
1772868516702120400,1.934120361328125,-0.6770898699760437,0.06968916952610016,-0.3556896448135376
1772868516712186600,1.9441865234375,-0.6800084710121155,-0.021426618099212646,-0.6206880211830139
1772868516722253600,1.954253662109375,-0.6570020318031311,-0.14745835959911346,-0.8367302417755127
1772868516732319500,1.964319580078125,-0.6059092879295349,-0.13540196418762207,-0.9893346428871155
1772868516742385700,1.9743857421875,-0.537594199180603,-0.03746422380208969,-1.093475341796875
1772868516752452600,1.98445263671875,-0.41156378388404846,0.01153448037803173,-1.1795787811279297
1772868516762518500,1.9945185546875,-0.2923332452774048,-0.03199423477053642,-1.2422220706939697
1772868516772584700,2.004584716796875,-0.25586259365081787,-0.08266539871692657,-1.2373216152191162
1772868516782651600,2.014651611328125,-0.3167763352394104,-0.11694154143333435,-1.1520850658416748
1772868516792717600,2.024717529296875,-0.3971952795982361,-0.16483716666698456,-0.9818150997161865
1772868516802784800,2.03478466796875,-0.44065362215042114,-0.24606071412563324,-0.7677760720252991
1772868516812850400,2.044850341796875,-0.435655415058136,-0.3087536692619324,-0.540341854095459
1772868516822916600,2.05491650390625,-0.42967522144317627,-0.3518887758255005,-0.3384990692138672
1772868516832983600,2.064983642578125,-0.48027342557907104,-0.3838440477848053,-0.17840927839279175
1772868516843049500,2.075049560546875,-0.5597698092460632,-0.4167732894420624,-0.05958753079175949
1772868516853115600,2.08511572265625,-0.5638497471809387,-0.3824792206287384,0.0015458627603948116
1772868516863182600,2.0951826171875,-0.48387211561203003,-0.2907789945602417,0.013925628736615181
1772868516873248500,2.10524853515625,-0.34529560804367065,-0.20072206854820251,-0.033289019018411636
1772868516883314700,2.115314697265625,-0.21702511608600616,-0.0846196860074997,-0.1103278324007988
1772868516893381600,2.125381591796875,-0.11098337918519974,0.02481546252965927,-0.17280957102775574
1772868516903447600,2.135447509765625,-0.019324002787470818,0.17687608301639557,-0.25029224157333374
1772868516913513700,2.145513671875,0.02849438600242138,0.24756011366844177,-0.2812110185623169
1772868516923580700,2.15558056640625,0.04002726450562477,0.24147404730319977,-0.3106861412525177
1772868516933646600,2.165646484375,0.030713122338056564,0.2194955199956894,-0.32251057028770447
1772868516943713800,2.1757138671875,0.055001143366098404,0.22218026220798492,-0.31764617562294006
1772868516953779500,2.185779541015625,0.10714956372976303,0.27083274722099304,-0.2766241729259491
1772868516963845400,2.195845458984375,0.18685957789421082,0.3333565592765808,-0.17270763218402863
1772868516973912600,2.20591259765625,0.27785977721214294,0.4010447859764099,0.025634225457906723
1772868516983978500,2.215978515625,0.3555242121219635,0.41828030347824097,0.2714614272117615
1772868516994044400,2.22604443359375,0.4413222074508667,0.3902776837348938,0.5142713785171509
1772868517004111600,2.236111572265625,0.5014185309410095,0.2825053334236145,0.7099993228912354
1772868517014177500,2.246177490234375,0.5067775845527649,0.1084565594792366,0.8346924781799316
1772868517024243700,2.25624365234375,0.4597499370574951,-0.11533930897712708,0.8931180238723755
1772868517034310700,2.266310546875,0.3654758930206299,-0.36689430475234985,0.904514729976654
1772868517044376600,2.27637646484375,0.2384091168642044,-0.586158812046051,0.8936780095100403
1772868517054443500,2.286443603515625,0.15860269963741302,-0.7380855083465576,0.9023053050041199
1772868517064509700,2.296509765625,0.15321695804595947,-0.7597103714942932,0.9434301853179932
1772868517074575600,2.30657568359375,0.21046052873134613,-0.6639159321784973,1.0264798402786255
1772868517084642600,2.316642578125,0.30689099431037903,-0.43960097432136536,1.1169441938400269
1772868517094708700,2.326708740234375,0.4176073968410492,-0.16584400832653046,1.1672755479812622
1772868517104774400,2.3367744140625,0.5361922979354858,0.0876978188753128,1.1596494913101196
1772868517114841300,2.34684130859375,0.588039755821228,0.27084019780158997,1.08954656124115
1772868517124907500,2.356907470703125,0.5526983141899109,0.43206992745399475,0.915329098701477
1772868517134973400,2.366973388671875,0.4941266179084778,0.37817153334617615,0.6037043929100037
1772868517145040600,2.37704052734375,0.5299078226089478,0.2356216460466385,0.27064183354377747
1772868517155106600,2.3871064453125,0.6055335998535156,0.08048292249441147,-0.01245165430009365
1772868517165173500,2.397173583984375,0.5863757133483887,-0.1810828298330307,-0.27697259187698364
1772868517175239700,2.40723974609375,0.514785647392273,-0.5166658759117126,-0.4928436577320099
1772868517185305600,2.4173056640625,0.4520370066165924,-0.8002391457557678,-0.6452499628067017
1772868517195372500,2.42737255859375,0.40855878591537476,-1.0101945400238037,-0.6624220013618469
1772868517205438700,2.437438720703125,0.29701441526412964,-1.0283911228179932,-0.5781641006469727
1772868517215504600,2.447504638671875,0.1590682417154312,-0.9825935363769531,-0.42490720748901367
1772868517225571600,2.457571533203125,0.0676562562584877,-0.8269780874252319,-0.21775907278060913
1772868517235637800,2.4676376953125,0.06612546741962433,-0.5928928852081299,0.0250285342335701
1772868517245703400,2.477703369140625,0.14619696140289307,-0.2619078457355499,0.2821687161922455
1772868517255770600,2.4877705078125,0.264072984457016,0.12196870893239975,0.5143012404441833
1772868517265836500,2.49783642578125,0.4336531460285187,0.34375712275505066,0.6677387356758118
1772868517275903500,2.507903564453125,0.5874014496803284,0.5526831746101379,0.7224193215370178
1772868517285969400,2.517969482421875,0.6890548467636108,0.6522206664085388,0.6715551018714905
1772868517296035600,2.52803564453125,0.7627700567245483,0.611709713935852,0.5526670813560486
1772868517306102500,2.5381025390625,0.7633373141288757,0.5678867101669312,0.389859676361084
1772868517316168400,2.54816845703125,0.7324185371398926,0.5313177704811096,0.19617997109889984
1772868517326234600,2.558234619140625,0.701593279838562,0.4753934442996979,-0.013311664573848248
1772868517336301600,2.568301513671875,0.668128490447998,0.3891648054122925,-0.2295941561460495
1772868517346367500,2.578367431640625,0.6265449523925781,0.28497907519340515,-0.4375459551811218
1772868517356434700,2.5884345703125,0.5916804075241089,0.18349824845790863,-0.6339804530143738
1772868517366500600,2.59850048828125,0.5601854920387268,0.10075143724679947,-0.7800405025482178
1772868517376566500,2.60856640625,0.5612717866897583,-0.017104893922805786,-0.8311527371406555
1772868517386633700,2.6186337890625,0.5375584363937378,-0.0929960310459137,-0.832312822341919
1772868517396699600,2.62869970703125,0.4796658456325531,-0.16758769750595093,-0.788974404335022
1772868517406765600,2.638765625,0.37746912240982056,-0.20511731505393982,-0.719871461391449
1772868517416832800,2.648832763671875,0.2550337612628937,-0.2162032574415207,-0.660848081111908
1772868517426898400,2.6588984375,0.1611628383398056,-0.2245471477508545,-0.6255754232406616
1772868517436965400,2.66896533203125,0.12428418546915054,-0.2228429913520813,-0.5796790719032288
1772868517447031600,2.679031494140625,0.10794688761234283,-0.22433209419250488,-0.506661057472229
1772868517457097500,2.689097412109375,0.08939477801322937,-0.16092196106910706,-0.3901323080062866
1772868517467164400,2.699164306640625,0.04631103575229645,-0.025014137849211693,-0.25689536333084106
1772868517477230600,2.709230712890625,0.002052493393421173,0.07913490384817123,-0.16164076328277588
1772868517487296500,2.719296630859375,-0.004334225319325924,0.1373244822025299,-0.12065144628286362
1772868517497363500,2.729363525390625,0.03316468000411987,0.19882115721702576,-0.11887271702289581
1772868517507429600,2.7394296875,0.0836590975522995,0.23567521572113037,-0.15000002086162567
1772868517517495600,2.74949560546875,0.1321621984243393,0.20519746840000153,-0.18391671776771545
1772868517527562500,2.7595625,0.18966935575008392,0.19669248163700104,-0.1798732429742813
1772868517537628700,2.769628662109375,0.2385663241147995,0.2835908830165863,-0.11337491124868393
1772868517547695600,2.779695556640625,0.2807827293872833,0.46123945713043213,-0.00731623824685812
1772868517557761800,2.78976171875,0.3239416480064392,0.7090319991111755,0.09418854862451553
1772868517567827500,2.799827392578125,0.315525084733963,0.7981625199317932,0.1475091576576233
1772868517577894700,2.809894775390625,0.30976253747940063,0.823442280292511,0.15129297971725464
1772868517587960600,2.819960693359375,0.3217354714870453,0.857580304145813,0.11551309376955032
1772868517598027500,2.830027587890625,0.32186010479927063,0.8371493220329285,0.03460706025362015
1772868517608093400,2.840093505859375,0.2809028625488281,0.7773678302764893,-0.07340629398822784
1772868517618159600,2.85015966796875,0.20857860147953033,0.6789488792419434,-0.175140380859375
1772868517628226600,2.8602265625,0.1169484406709671,0.5079500675201416,-0.2660773694515228
1772868517638292500,2.87029248046875,0.007372681982815266,0.2712900936603546,-0.33501142263412476
1772868517648358700,2.880358642578125,-0.08707522600889206,0.01731983758509159,-0.3396138846874237
1772868517658423300,2.89042333984375,-0.10761512070894241,-0.18115997314453125,-0.271904855966568
1772868517668489200,2.9004892578125,-0.13325224816799164,-0.4146522879600525,-0.15720684826374054
1772868517678556200,2.91055615234375,-0.13171693682670593,-0.5701148509979248,0.008636708371341228
1772868517688622300,2.920622314453125,-0.11839216947555542,-0.6488032937049866,0.19244307279586792
1772868517698688300,2.930688232421875,-0.12129129469394684,-0.6529194712638855,0.380280077457428
1772868517708755200,2.940755126953125,-0.12558141350746155,-0.5652579069137573,0.5507385730743408
1772868517718821400,2.9508212890625,-0.1410413384437561,-0.41418102383613586,0.7064527869224548
1772868517728887300,2.96088720703125,-0.1716070920228958,-0.22491322457790375,0.8108052611351013
1772868517738954200,2.970954345703125,-0.21263840794563293,-0.04474452883005142,0.880162239074707
1772868517749020200,2.981020263671875,-0.26212212443351746,0.08269177377223969,0.9129455089569092
1772868517759087000,2.991087158203125,-0.32181769609451294,0.1508745551109314,0.9187358021736145
1772868517769153000,3.001153076171875,-0.3569887578487396,0.18188779056072235,0.9095916152000427
1772868517779219200,3.01121923828125,-0.3814016878604889,0.19016090035438538,0.8799713850021362
1772868517789286100,3.0212861328125,-0.41946831345558167,0.17958153784275055,0.8332950472831726
1772868517799352000,3.03135205078125,-0.4792235195636749,0.17529864609241486,0.7741457223892212
1772868517809418200,3.041418212890625,-0.5227296352386475,0.20577166974544525,0.6993027329444885
1772868517819485200,3.051485107421875,-0.5993757247924805,0.18505707383155823,0.5993524193763733
1772868517829551000,3.061551025390625,-0.6721385717391968,0.19286708533763885,0.5041667819023132
1772868517839618300,3.071618408203125,-0.7015827894210815,0.2346068173646927,0.43492400646209717
1772868517849684200,3.081684326171875,-0.6943693161010742,0.2448640912771225,0.37993738055229187
1772868517859750100,3.091750244140625,-0.6486484408378601,0.27767688035964966,0.30626794695854187
1772868517869817300,3.1018173828125,-0.6424764394760132,0.28348058462142944,0.18648910522460938
1772868517879883300,3.11188330078125,-0.6890519261360168,0.21491006016731262,0.028918124735355377
1772868517889949200,3.12194921875,-0.7648411989212036,0.1549367904663086,-0.12278104573488235
1772868517900016400,3.132016357421875,-0.8443184494972229,0.14334192872047424,-0.24101155996322632
1772868517910082000,3.14208203125,-0.8644134402275085,0.10942243784666061,-0.30633410811424255
1772868517920149000,3.15214892578125,-0.8531011343002319,0.03800790756940842,-0.32567930221557617
1772868517930215200,3.162215087890625,-0.855719268321991,-0.03308304771780968,-0.32111892104148865
1772868517940281000,3.172281005859375,-0.8691879510879517,-0.04827025532722473,-0.32635921239852905
1772868517950348000,3.18234814453125,-0.8580092191696167,-0.031254302710294724,-0.35729795694351196
1772868517960414200,3.192414306640625,-0.869033932685852,-0.07672058790922165,-0.3909451365470886
1772868517970481200,3.202481201171875,-0.8885625600814819,-0.19334252178668976,-0.3954143524169922
1772868517980547000,3.212547119140625,-0.8970662951469421,-0.35941246151924133,-0.36257731914520264
1772868517990613200,3.22261328125,-0.8913885354995728,-0.5262371301651001,-0.2962091565132141
1772868518000680200,3.23268017578125,-0.8850206136703491,-0.6623609066009521,-0.22252242267131805
1772868518010746400,3.242746337890625,-0.8645785450935364,-0.7565972208976746,-0.153822660446167
1772868518020812300,3.252812255859375,-0.8328714370727539,-0.7920747995376587,-0.09319420158863068
1772868518030879200,3.262879150390625,-0.7903545498847961,-0.798581063747406,-0.033827077597379684
1772868518040945400,3.2729453125,-0.7043368816375732,-0.7838044762611389,0.03339803218841553
1772868518051012400,3.283012451171875,-0.5647606253623962,-0.7246827483177185,0.10589360445737839
1772868518061078300,3.293078369140625,-0.41675251722335815,-0.6680335402488708,0.17182707786560059
1772868518071144200,3.303144287109375,-0.23122552037239075,-0.5657824277877808,0.2481171190738678
1772868518081211100,3.313211181640625,-0.09329189360141754,-0.47489699721336365,0.31406790018081665
1772868518091277000,3.323277099609375,-0.04960944876074791,-0.48464488983154297,0.33439671993255615
1772868518101344000,3.333343994140625,-0.05052158236503601,-0.5662129521369934,0.3202822506427765
1772868518111410200,3.34341015625,-0.027969589456915855,-0.65127032995224,0.31018537282943726
1772868518121476000,3.35347607421875,0.07804206758737564,-0.6442345380783081,0.32992151379585266
1772868518131543000,3.36354296875,0.2504749000072479,-0.5638653039932251,0.35173726081848145
1772868518141609200,3.373609130859375,0.42836686968803406,-0.3988305330276489,0.3892044723033905
1772868518151675100,3.383675048828125,0.5700728297233582,-0.17177605628967285,0.42220330238342285
1772868518161742300,3.393742431640625,0.7005525231361389,0.10374978929758072,0.4524669349193573
1772868518171808300,3.403808349609375,0.8284727931022644,0.3849690854549408,0.4659808278083801
1772868518181875200,3.413875244140625,0.9293967485427856,0.5952392220497131,0.4305962324142456
1772868518191941400,3.42394140625,0.9554556012153625,0.6944029331207275,0.3487173020839691
1772868518202007300,3.43400732421875,0.9258481860160828,0.6844568252563477,0.24598585069179535
1772868518212074200,3.44407421875,0.8446618914604187,0.5630326271057129,0.153115376830101
1772868518222140400,3.454140380859375,0.7280042767524719,0.3530263900756836,0.08694940060377121
1772868518232207400,3.464207275390625,0.5985227823257446,0.12297637015581131,0.07679549604654312
1772868518242273000,3.47427294921875,0.499665230512619,-0.02504824846982956,0.13979123532772064
1772868518252339200,3.484339111328125,0.44609248638153076,-0.029740167781710625,0.24077259004116058
1772868518262406100,3.49440625,0.4417336881160736,0.1228613629937172,0.33823469281196594
1772868518272472000,3.50447216796875,0.4704786241054535,0.3447684943675995,0.3821490705013275
1772868518282539000,3.5145390625,0.5377175807952881,0.5593673586845398,0.35621094703674316
1772868518292605200,3.524605224609375,0.6107674837112427,0.6949038505554199,0.25146982073783875
1772868518302672100,3.534672119140625,0.6628972291946411,0.723066508769989,0.08524011075496674
1772868518312738300,3.54473828125,0.6943361759185791,0.6336153149604797,-0.09542015194892883
1772868518322805200,3.55480517578125,0.7054471373558044,0.45098426938056946,-0.24344876408576965
1772868518332871200,3.56487109375,0.6827530860900879,0.18580201268196106,-0.33773741126060486
1772868518342937300,3.574937255859375,0.6292973160743713,-0.11968893557786942,-0.3991669714450836
1772868518353004300,3.58500439453125,0.5792683362960815,-0.4125700294971466,-0.4191599488258362
1772868518363070200,3.5950703125,0.546874463558197,-0.623279333114624,-0.4025082588195801
1772868518373137200,3.60513720703125,0.5928049087524414,-0.7508607506752014,-0.3461950421333313
1772868518383203300,3.615203369140625,0.7743057608604431,-0.7316766381263733,-0.26432016491889954
1772868518393269200,3.625269287109375,0.8650563359260559,-0.667555570602417,-0.20214545726776123
1772868518403336200,3.635336181640625,0.8910988569259644,-0.5361730456352234,-0.15515930950641632
1772868518413402400,3.64540234375,0.9110326766967773,-0.29682278633117676,-0.1157039925456047
1772868518423469300,3.65546923828125,0.9104281663894653,0.005392461083829403,-0.0982925072312355
1772868518433535000,3.665534912109375,0.8649070262908936,0.33684882521629333,-0.1004386842250824
1772868518443601200,3.67560107421875,0.7721270322799683,0.6529729962348938,-0.09761599451303482
1772868518453668000,3.685668212890625,0.6808847188949585,0.9505478739738464,-0.06429291516542435
1772868518463734300,3.695734375,0.6416425108909607,1.133918285369873,-0.027277640998363495
1772868518473801200,3.70580126953125,0.6105384230613708,1.1499654054641724,-0.025175482034683228
1772868518483867100,3.7158671875,0.5692772269248962,1.0130517482757568,-0.056988008320331573
1772868518493933300,3.725933349609375,0.5339589715003967,0.7934290766716003,-0.10898583382368088
1772868518504000300,3.736000244140625,0.5165631771087646,0.5519381761550903,-0.15426889061927795
1772868518514066200,3.746066162109375,0.4856588542461395,0.3386106789112091,-0.1922084242105484
1772868518524133000,3.756133056640625,0.4193677306175232,0.15788055956363678,-0.2314935028553009
1772868518534199300,3.76619921875,0.3317471146583557,0.01534158643335104,-0.264165997505188
1772868518544265200,3.77626513671875,0.22459857165813446,-0.09665365517139435,-0.2840803265571594
1772868518554332200,3.786332275390625,0.09657454490661621,-0.22247734665870667,-0.28563323616981506
1772868518564398300,3.7963984375,-0.039038680493831635,-0.35343828797340393,-0.28304916620254517
1772868518574464300,3.80646435546875,-0.16395945847034454,-0.465107798576355,-0.27925610542297363
1772868518584531200,3.81653125,-0.2443738728761673,-0.4986308813095093,-0.2823041081428528
1772868518594597000,3.82659716796875,-0.27639877796173096,-0.40165576338768005,-0.2700076401233673
1772868518604664000,3.8366640625,-0.28522369265556335,-0.19885097444057465,-0.2236425280570984
1772868518614730200,3.846730224609375,-0.3013937771320343,0.03280531242489815,-0.12911081314086914
1772868518624796200,3.856796142578125,-0.32254886627197266,0.2207384705543518,-0.019958755001425743
1772868518634863000,3.866863037109375,-0.32745859026908875,0.32449594140052795,0.0766662061214447
1772868518644929300,3.87692919921875,-0.30634477734565735,0.355575829744339,0.13095474243164062
1772868518654995000,3.886994873046875,-0.27680540084838867,0.33236971497535706,0.14958339929580688
1772868518665061000,3.89706103515625,-0.25885409116744995,0.2789333760738373,0.16918720304965973
1772868518675127000,3.907126953125,-0.26065555214881897,0.20798209309577942,0.1852143555879593
1772868518685194000,3.917194091796875,-0.27933603525161743,0.10621897131204605,0.19767636060714722
1772868518695260200,3.92726025390625,-0.29531005024909973,0.020305369049310684,0.21710830926895142
1772868518705327000,3.9373271484375,-0.3086074888706207,-0.04439613223075867,0.2558647692203522
1772868518715393000,3.94739306640625,-0.3151158094406128,-0.08949066698551178,0.2985574007034302
1772868518725459000,3.957458984375,-0.31760984659194946,-0.1265277862548828,0.32822370529174805
1772868518735526000,3.96752587890625,-0.3145536482334137,-0.15359382331371307,0.3096899092197418
1772868518745591800,3.977591796875,-0.3004189431667328,-0.1638621687889099,0.24714185297489166
1772868518755658800,3.98765869140625,-0.19723422825336456,-0.18049868941307068,0.14327125251293182
1772868518765724000,3.997723876953125,-0.16192284226417542,-0.09596329182386398,-0.019488103687763214
1772868518775790800,4.007790771484375,-0.2466791719198227,0.04678137227892876,-0.12409102916717529
1772868518785857000,4.01785693359375,-0.321765661239624,0.06467542052268982,-0.19463975727558136
1772868518795924000,4.027924072265625,-0.3463258147239685,0.0476568266749382,-0.21440233290195465
1772868518805990000,4.037989990234375,-0.3573552966117859,0.032692257314920425,-0.17916391789913177
1772868518816056000,4.04805615234375,-0.36449840664863586,0.0412287563085556,-0.10271137207746506
1772868518826123000,4.058123046875,-0.33844390511512756,0.07205165177583694,-0.0023123309947550297
1772868518836189000,4.06818896484375,-0.26111775636672974,0.09000366926193237,0.09203340858221054
1772868518846256000,4.078256103515625,-0.18468396365642548,0.10298950970172882,0.17276287078857422
1772868518856322000,4.088322021484375,-0.14708301424980164,0.11739476770162582,0.24921837449073792
1772868518866388000,4.098387939453125,-0.10056664794683456,0.13212230801582336,0.3152882158756256
1772868518876455200,4.108455078125,-0.0472695454955101,0.09876683354377747,0.36386752128601074
1772868518886520800,4.118520751953125,-0.021473899483680725,0.05451521277427673,0.39088982343673706
1772868518896587800,4.128587890625,-0.025013070553541183,0.005817280150949955,0.3673964738845825
1772868518906654000,4.138654052734375,-0.08044783771038055,-0.012510593980550766,0.287982314825058
1772868518916719900,4.148719970703125,-0.19623005390167236,0.023206613957881927,0.17256321012973785
1772868518926786800,4.158786865234375,-0.335376501083374,0.059225600212812424,0.042473386973142624
1772868518936853000,4.16885302734375,-0.4726656973361969,0.087816022336483,-0.07476242631673813
1772868518946920000,4.178919921875,-0.6092075705528259,0.10898922383785248,-0.16101661324501038
1772868518956985900,4.18898583984375,-0.7224243879318237,0.11938592791557312,-0.2110142856836319
1772868518967052000,4.199052001953125,-0.8149109482765198,0.12663398683071136,-0.22440679371356964
1772868518977119000,4.209118896484375,-0.8964442014694214,0.13416333496570587,-0.21612326800823212
1772868518987185000,4.219184814453125,-0.9272559285163879,0.1528259664773941,-0.20183861255645752
1772868518997252000,4.229252197265625,-0.9869152903556824,0.07198390364646912,-0.1969895362854004
1772868519007318000,4.239318115234375,-1.021248698234558,0.08211696892976761,-0.1705925464630127
1772868519017384000,4.249384033203125,-1.0318503379821777,0.07008937746286392,-0.17369180917739868
1772868519027451100,4.259451171875,-1.0378583669662476,0.08296816051006317,-0.2885288894176483
1772868519037517000,4.26951708984375,-1.039330244064331,0.10701271891593933,-0.3537268042564392
1772868519047584000,4.279583984375,-1.0487350225448608,0.09167823940515518,-0.4276883900165558
1772868519057650000,4.28964990234375,-1.074485182762146,0.032166555523872375,-0.4875282943248749
1772868519067715800,4.2997158203125,-1.1182442903518677,-0.06690783053636551,-0.5330829620361328
1772868519077782800,4.30978271484375,-1.1625117063522339,-0.15529263019561768,-0.5464406609535217
1772868519087849000,4.319848876953125,-1.2146109342575073,-0.1881352663040161,-0.5403319001197815
1772868519097916000,4.329916015625,-1.2752271890640259,-0.16671442985534668,-0.551932156085968
1772868519107981800,4.33998193359375,-1.2985745668411255,-0.13318762183189392,-0.5956873893737793
1772868519118049000,4.350049072265625,-1.289136528968811,-0.10242681205272675,-0.6379514336585999
1772868519128115000,4.360114990234375,-1.2685949802398682,-0.11884360015392303,-0.6649042367935181
1772868519138180900,4.370180908203125,-1.2429922819137573,-0.2345615029335022,-0.625012218952179
1772868519148248000,4.380248046875,-1.202155590057373,-0.38498029112815857,-0.5270664691925049
1772868519158314000,4.39031396484375,-1.1305817365646362,-0.5256306529045105,-0.38174954056739807
1772868519168381000,4.400380859375,-1.043266773223877,-0.6367632746696472,-0.22254391014575958
1772868519178447000,4.410447021484375,-0.9627447724342346,-0.6766759753227234,-0.0635126382112503
1772868519188513000,4.420512939453125,-0.8712553381919861,-0.6359306573867798,0.06967657804489136
1772868519198580000,4.430580078125,-0.6814786195755005,-0.6244214177131653,0.1537320613861084
1772868519208646100,4.440646240234375,-0.5918693542480469,-0.46632105112075806,0.17600594460964203
1772868519218713000,4.450713134765625,-0.44025522470474243,-0.4897707998752594,0.21443229913711548
1772868519228778800,4.46077880859375,-0.3397403359413147,-0.3621281683444977,0.28871238231658936
1772868519238845000,4.470844970703125,-0.25061535835266113,-0.22105096280574799,0.3850595951080322
1772868519248912000,4.480911865234375,-0.17041507363319397,-0.15703175961971283,0.46773290634155273
1772868519258977800,4.490977783203125,-0.10699738562107086,-0.14374816417694092,0.49879544973373413
1772868519269045000,4.501044921875,-0.056463900953531265,-0.16768330335617065,0.48403435945510864
1772868519279111000,4.51111083984375,-0.009250838309526443,-0.19618885219097137,0.4484083652496338
1772868519289176800,4.5211767578125,0.040148135274648666,-0.1816551834344864,0.4102303683757782
1772868519299244000,4.531244140625,0.10269129276275635,-0.12601059675216675,0.36664578318595886
1772868519309310000,4.54131005859375,0.17584753036499023,-0.07957464456558228,0.313617467880249
1772868519319377000,4.551376953125,0.2526410222053528,-0.08101199567317963,0.2504172623157501
1772868519329443000,4.561443115234375,0.31483355164527893,-0.12012290954589844,0.17183589935302734
1772868519339510000,4.571510009765625,0.33281829953193665,-0.2974027693271637,0.09670226275920868
1772868519349576000,4.581575927734375,0.2939867377281189,-0.5991002917289734,0.05031905323266983
1772868519359642000,4.59164208984375,0.22358490526676178,-0.945382297039032,0.041034337133169174
1772868519369709000,4.601708984375,0.1819130927324295,-1.251682162284851,0.07896201312541962
1772868519379775000,4.61177490234375,0.2076438069343567,-1.3947092294692993,0.16791865229606628
1772868519389842000,4.621842041015625,0.2627454102039337,-1.2994945049285889,0.3118521273136139
1772868519399908000,4.631908203125,0.39969080686569214,-0.9982908368110657,0.4956560432910919
1772868519409973800,4.641973876953125,0.5129299759864807,-0.5352462530136108,0.6665692329406738
1772868519420041000,4.652041015625,0.5825387835502625,-0.008442187681794167,0.7910698056221008
1772868519430107000,4.66210693359375,0.6438167691230774,0.4446413815021515,0.8506466150283813
1772868519440173800,4.672173828125,0.7161856293678284,0.6768622398376465,0.7943320870399475
1772868519450240000,4.682239990234375,0.7676475048065186,0.6543015837669373,0.6358652114868164
1772868519460306000,4.692305908203125,0.7915152311325073,0.5026782751083374,0.42834171652793884
1772868519470372900,4.702372802734375,0.7825396060943604,0.2848290503025055,0.23657386004924774
1772868519480439000,4.71243896484375,0.7455182075500488,0.03171689435839653,0.10329358279705048
1772868519490506000,4.722506103515625,0.7155304551124573,-0.2017832100391388,0.06829272210597992
1772868519500572000,4.732572021484375,0.7088302373886108,-0.3701074421405792,0.1448935717344284
1772868519510638800,4.742638916015625,0.7132840752601624,-0.4528252184391022,0.28989627957344055
1772868519520705000,4.752705078125,0.738716721534729,-0.4843314290046692,0.467194527387619
1772868519530771000,4.76277099609375,0.769051194190979,-0.4855322241783142,0.6365222334861755
1772868519540838000,4.772837890625,0.7720590829849243,-0.4733782112598419,0.7719306945800781
1772868519550904000,4.782904052734375,0.7998353242874146,-0.37941205501556396,0.8674524426460266
1772868519560971000,4.792970947265625,0.7931480407714844,-0.2940387725830078,0.8745005130767822
1772868519571037000,4.803036865234375,0.7528589367866516,-0.21545499563217163,0.8430752158164978
1772868519581102800,4.813102783203125,0.7572482824325562,-0.03441193327307701,0.7913745641708374
1772868519591169800,4.823169677734375,0.7830327749252319,0.2280665636062622,0.7347903847694397
1772868519601236000,4.833236083984375,0.7764254212379456,0.46927908062934875,0.6330782175064087
1772868519611303000,4.843302978515625,0.7156190872192383,0.650128185749054,0.5013324618339539
1772868519621368800,4.853368896484375,0.6143122911453247,0.7988606095314026,0.3696361780166626
1772868519631435800,4.863435791015625,0.5207682251930237,0.8772973418235779,0.27304360270500183
1772868519641502000,4.873501953125,0.43390971422195435,0.8351244926452637,0.21534428000450134
1772868519651567900,4.88356787109375,0.344758003950119,0.7203449010848999,0.18515974283218384
1772868519661637600,4.8936376953125,0.2866310477256775,0.6309512257575989,0.17384657263755798
1772868519671703300,4.903703369140625,0.24625034630298615,0.5706676244735718,0.16862118244171143
1772868519681770500,4.9137705078125,0.2099628895521164,0.48541295528411865,0.15612950921058655
1772868519691836400,4.92383642578125,0.16592726111412048,0.34799784421920776,0.1276208907365799
1772868519701902300,4.93390234375,0.11518451571464539,0.15671184659004211,0.1024695336818695
1772868519711969300,4.94396923828125,0.06728889793157578,-0.03555480018258095,0.11886049062013626
1772868519722035500,4.954035400390625,0.014990529045462608,-0.1705649346113205,0.20492753386497498
1772868519732102400,4.964102294921875,-0.015607861801981926,-0.18276727199554443,0.3477725684642792
1772868519742168300,4.974168212890625,-0.03633267432451248,-0.07281883805990219,0.48062142729759216
1772868519752235500,4.984235595703125,-0.10598871856927872,0.05971230939030647,0.5683481097221375
1772868519762301400,4.994301513671875,-0.150969460606575,0.22594943642616272,0.6274160742759705
1772868519772367400,5.004367431640625,-0.14779578149318695,0.3971582055091858,0.6745510697364807
1772868519782434600,5.0144345703125,-0.13746795058250427,0.511564314365387,0.6993507146835327
1772868519792500500,5.02450048828125,-0.12474442273378372,0.5522382259368896,0.7018319964408875
1772868519802567400,5.0345673828125,-0.10902230441570282,0.542736291885376,0.7123461961746216
1772868519812633600,5.044633544921875,-0.09078817069530487,0.4841478765010834,0.7164019346237183
1772868519822699500,5.054699462890625,-0.06810753792524338,0.41029348969459534,0.7130119800567627
1772868519832766500,5.064766357421875,-0.031319696456193924,0.34289902448654175,0.7425339221954346
1772868519842832600,5.07483251953125,0.011633911170065403,0.30128657817840576,0.815024197101593
1772868519852899600,5.084899658203125,0.0762440636754036,0.28653666377067566,0.9256612658500671
1772868519862965200,5.09496533203125,0.1637682020664215,0.28308185935020447,1.0342175960540771
1772868519873032400,5.105032470703125,0.22909528017044067,0.29685255885124207,1.097821593284607
1772868519883098400,5.115098388671875,0.28166329860687256,0.311289519071579,1.0784709453582764
1772868519893164300,5.125164306640625,0.30390894412994385,0.2816280424594879,0.9492184519767761
1772868519903231500,5.1352314453125,0.27601391077041626,0.166830375790596,0.7092046737670898
1772868519913297400,5.14529736328125,0.2101036012172699,-0.04176384583115578,0.3711627125740051
1772868519923364400,5.1553642578125,0.10836649686098099,-0.29631733894348145,0.018645595759153366
1772868519933430500,5.165430419921875,-0.010643781162798405,-0.5039402842521667,-0.27252820134162903
1772868519943497500,5.17549755859375,-0.10102954506874084,-0.646210253238678,-0.44824641942977905
1772868519953563400,5.1855634765625,-0.14705508947372437,-0.7468096017837524,-0.49219682812690735
1772868519963629600,5.195629638671875,-0.12974147498607635,-0.8101568818092346,-0.38666781783103943
1772868519973696500,5.205696533203125,-0.03942782059311867,-0.8183482885360718,-0.19012917578220367
1772868519983762400,5.215762451171875,0.04048708826303482,-0.7278751730918884,0.016622260212898254
1772868519993829400,5.225829345703125,0.10494543612003326,-0.6188850402832031,0.1944148987531662
1772868520003895600,5.2358955078125,0.12494875490665436,-0.5173823237419128,0.3121430575847626
1772868520013962500,5.24596240234375,0.08672334253787994,-0.4176833927631378,0.3794217109680176
1772868520024028400,5.2560283203125,0.08806344121694565,-0.18075062334537506,0.45142847299575806
1772868520034094300,5.26609423828125,0.1574997752904892,0.06543146073818207,0.5118675231933594
1772868520044161500,5.27616162109375,0.19244132936000824,0.14357784390449524,0.5029724836349487
1772868520054227500,5.2862275390625,0.1837644726037979,0.08128038048744202,0.42312878370285034
1772868520064294400,5.29629443359375,0.15335078537464142,-0.039062682539224625,0.31585824489593506
1772868520074360300,5.3063603515625,0.080045685172081,-0.15572777390480042,0.22381220757961273
1772868520084427300,5.31642724609375,-0.025894194841384888,-0.2132001370191574,0.14312101900577545
1772868520094493400,5.326493408203125,-0.12388014048337936,-0.21702523529529572,0.07558698207139969
1772868520104559400,5.336559326171875,-0.18427647650241852,-0.19901618361473083,0.02469949796795845
1772868520114626300,5.346626220703125,-0.224736288189888,-0.14580994844436646,-0.0073085022158920765
1772868520124692500,5.3566923828125,-0.254977822303772,-0.09436273574829102,-0.0335981622338295
1772868520134759400,5.366759521484375,-0.2787907123565674,-0.08123015612363815,-0.06905575841665268
1772868520144825300,5.376825439453125,-0.2989366948604584,-0.11380130052566528,-0.13090720772743225
1772868520154892500,5.386892578125,-0.3276120126247406,-0.16786134243011475,-0.20799054205417633
1772868520164958500,5.39695849609375,-0.35772067308425903,-0.20180797576904297,-0.2734913229942322
1772868520175024400,5.4070244140625,-0.3794696629047394,-0.2067960798740387,-0.30992016196250916
1772868520185091600,5.417091552734375,-0.41248568892478943,-0.16319039463996887,-0.3202792704105377
1772868520195157500,5.427157470703125,-0.4226144850254059,-0.0979866236448288,-0.32690203189849854
1772868520205224400,5.437224365234375,-0.4233236014842987,-0.04568633437156677,-0.35456448793411255
1772868520215290600,5.44729052734375,-0.399277925491333,-0.028142228722572327,-0.38894614577293396
1772868520225357600,5.457357666015625,-0.377677857875824,-0.04635355621576309,-0.41574719548225403
1772868520235423500,5.467423583984375,-0.36053401231765747,-0.09248057007789612,-0.424567312002182
1772868520245489400,5.477489501953125,-0.34416720271110535,-0.1431301236152649,-0.4188065826892853
1772868520255556400,5.487556396484375,-0.3263397514820099,-0.21300055086612701,-0.4263515770435333
1772868520265622300,5.497622314453125,-0.30138978362083435,-0.29154160618782043,-0.45269569754600525
1772868520275689500,5.507689453125,-0.26413801312446594,-0.33238837122917175,-0.4921432435512543
1772868520285755400,5.51775537109375,-0.23413752019405365,-0.3507179319858551,-0.5162676572799683
1772868520295822300,5.527822265625,-0.21398484706878662,-0.3820982277393341,-0.481540322303772
1772868520305888500,5.537888427734375,-0.22092470526695251,-0.41823887825012207,-0.35832539200782776
1772868520315954400,5.547954345703125,-0.1779671162366867,-0.3925425708293915,-0.16757673025131226
1772868520326021400,5.558021484375,-0.15518318116664886,-0.35424238443374634,-0.012173301540315151
1772868520336087600,5.568087646484375,-0.1302514672279358,-0.3173155188560486,0.06471695005893707
1772868520346154500,5.578154541015625,-0.07284116744995117,-0.25495919585227966,0.07158790528774261
1772868520356220400,5.588220458984375,-0.031157108023762703,-0.19888846576213837,0.009785260073840618
1772868520366287400,5.598287353515625,0.0032439581118524075,-0.12147204577922821,-0.08734256029129028
1772868520376353500,5.608353515625,0.038749754428863525,-0.02567335218191147,-0.17644207179546356
1772868520386419500,5.61841943359375,0.057161618024110794,0.07116228342056274,-0.24596109986305237
1772868520396486400,5.628486328125,0.0712023377418518,0.16220615804195404,-0.2940681576728821
1772868520406552600,5.638552490234375,0.09573841094970703,0.2542382478713989,-0.31487786769866943
1772868520416619500,5.64861962890625,0.11688338220119476,0.35520029067993164,-0.29775774478912354
1772868520426685400,5.658685546875,0.14017976820468903,0.4987861216068268,-0.249500572681427
1772868520436752600,5.668752685546875,0.17832688987255096,0.6686158776283264,-0.20110347867012024
1772868520446818300,5.678818359375,0.22480250895023346,0.7886714339256287,-0.19545038044452667
1772868520456885200,5.68888525390625,0.27188214659690857,0.8469400405883789,-0.26452693343162537
1772868520466951400,5.698951416015625,0.3270644247531891,0.8391296863555908,-0.41065531969070435
1772868520477017300,5.709017333984375,0.3511865437030792,0.7516160607337952,-0.6132931113243103
1772868520487084300,5.719084228515625,0.3352532386779785,0.5327006578445435,-0.8372088670730591
1772868520497150500,5.729150390625,0.2964235544204712,0.17354942858219147,-1.0291547775268555
1772868520507217400,5.739217529296875,0.21946130692958832,-0.24012994766235352,-1.1215711832046509
1772868520517283300,5.749283447265625,0.13840720057487488,-0.6134505271911621,-1.0970029830932617
1772868520527350500,5.7593505859375,0.0959467664361,-0.8989810347557068,-0.9580926895141602
1772868520537416400,5.76941650390625,0.12335255742073059,-1.0048741102218628,-0.7046447396278381
1772868520547482400,5.779482421875,0.22292497754096985,-0.875984251499176,-0.3948758840560913
1772868520557549600,5.789549560546875,0.31988614797592163,-0.4931228756904602,-0.09551472961902618
1772868520567615500,5.799615478515625,0.37366631627082825,0.05743438005447388,0.13875508308410645
1772868520577682400,5.809682373046875,0.4399060606956482,0.6055033206939697,0.27786850929260254
1772868520587748600,5.81974853515625,0.5282776951789856,0.9073598384857178,0.26114559173583984
1772868520597815600,5.829815673828125,0.6096394062042236,0.8775907754898071,0.0558246485888958
1772868520607881500,5.839881591796875,0.7020372748374939,0.6955479979515076,-0.23215827345848083
1772868520617948400,5.849948486328125,0.7614228129386902,0.49244871735572815,-0.4830205738544464
1772868520628014600,5.8600146484375,0.7720549702644348,0.27662181854248047,-0.6415470242500305
1772868520638080300,5.870080322265625,0.7712461352348328,0.0459795743227005,-0.7166569232940674
1772868520648147500,5.8801474609375,0.8094593286514282,-0.1809658408164978,-0.713798999786377
1772868520658213400,5.89021337890625,0.8582085371017456,-0.3645993173122406,-0.6465824246406555
1772868520668277500,5.900277587890625,0.9025521278381348,-0.48630109429359436,-0.5205578804016113
1772868520678343400,5.910343505859375,0.9315752387046814,-0.5364148616790771,-0.3471834659576416
1772868520688410600,5.92041064453125,0.9542987942695618,-0.4759128987789154,-0.1363462507724762
1772868520698476500,5.9304765625,0.9648095369338989,-0.29866912961006165,0.07796523720026016
1772868520708542500,5.94054248046875,0.9638647437095642,-0.05703920125961304,0.2475000023841858
1772868520718609700,5.950609619140625,0.9690632224082947,0.20140673220157623,0.3312305808067322
1772868520728675600,5.960675537109375,0.9786015152931213,0.41403454542160034,0.3152150809764862
1772868520738742500,5.970742431640625,0.9848788976669312,0.5534792542457581,0.2022475004196167
1772868520748808400,5.980808349609375,0.9994666576385498,0.6309493184089661,0.042540863156318665
1772868520758875600,5.990875732421875,1.0278316736221313,0.6431722044944763,-0.11566395312547684
1772868520768941300,6.00094140625,1.0236930847167969,0.6449133157730103,-0.26608747243881226
1772868520779008500,6.011008544921875,0.978121817111969,0.6577540040016174,-0.3954249620437622
1772868520789074400,6.021074462890625,0.9241551756858826,0.6428354978561401,-0.5070269107818604
1772868520799140400,6.031140380859375,0.8665198087692261,0.5899480581283569,-0.5880528092384338
1772868520809207600,6.04120751953125,0.7764385342597961,0.5143532752990723,-0.6534251570701599
1772868520819273500,6.0512734375,0.6702671051025391,0.4181865453720093,-0.6832847595214844
1772868520829340400,6.06134033203125,0.5674422979354858,0.302401602268219,-0.703251302242279
1772868520839406600,6.071406494140625,0.46544086933135986,0.1426745504140854,-0.7173961997032166
1772868520849473500,6.0814736328125,0.3482833206653595,0.0023736460134387016,-0.7182193994522095
1772868520859539500,6.09153955078125,0.22924110293388367,-0.051905304193496704,-0.6791476607322693
1772868520869606400,6.1016064453125,0.13649213314056396,-0.05981038510799408,-0.5952896475791931
1772868520879672600,6.111672607421875,0.09059788286685944,-0.08436259627342224,-0.49043115973472595
1772868520889738500,6.121738525390625,0.006173157133162022,-0.13356398046016693,-0.3719678223133087
1772868520899805400,6.131805419921875,-0.09408500045537949,-0.1549566239118576,-0.2439667284488678
1772868520909871600,6.14187158203125,-0.18456432223320007,-0.1546977311372757,-0.14287060499191284
1772868520919938600,6.1519384765625,-0.2534736096858978,-0.18531928956508636,-0.08288317173719406
1772868520930004500,6.16200439453125,-0.2990197539329529,-0.23390845954418182,-0.047210924327373505
1772868520940071700,6.17207177734375,-0.3297662138938904,-0.24400955438613892,-0.022605448961257935
1772868520950137300,6.182137451171875,-0.3575557470321655,-0.21595646440982819,-0.007953071035444736
1772868520960204500,6.19220458984375,-0.3702595829963684,-0.18017981946468353,-0.0015521636232733727
1772868520970270500,6.2022705078125,-0.33855876326560974,-0.09616844356060028,0.04354407265782356
1772868520980337400,6.21233740234375,-0.26773199439048767,0.1859106421470642,0.14194442331790924
1772868520990403300,6.2224033203125,-0.1859654188156128,0.6344581842422485,0.27428480982780457
1772868521000469500,6.232469482421875,-0.10681974142789841,1.0351344347000122,0.38503608107566833
1772868521010536400,6.242536376953125,-0.03559356555342674,1.2845762968063354,0.4112362563610077
1772868521020602400,6.252602294921875,0.028589151799678802,1.3876211643218994,0.3554909825325012
1772868521030669600,6.262669677734375,0.057479120790958405,1.3899682760238647,0.2500676214694977
1772868521040735500,6.272735595703125,0.02923283725976944,1.2968229055404663,0.11798468977212906
1772868521050802400,6.282802490234375,-0.08624574542045593,1.0820046663284302,-0.035703402012586594
1772868521060868600,6.29286865234375,-0.2823886275291443,0.7522625923156738,-0.1948925256729126
1772868521070935600,6.302935546875,-0.5223768353462219,0.2911151647567749,-0.3267860412597656
1772868521081001500,6.31300146484375,-0.8051300048828125,-0.2497723400592804,-0.3995683789253235
1772868521091067600,6.323067626953125,-1.0234888792037964,-0.7109494209289551,-0.3619767129421234
1772868521101134600,6.333134521484375,-1.1511893272399902,-1.0226471424102783,-0.2216382473707199
1772868521111200500,6.343200439453125,-1.1157453060150146,-1.1528148651123047,0.00413055345416069
1772868521121267500,6.353267333984375,-1.0021322965621948,-1.1223666667938232,0.25952690839767456
1772868521131333600,6.363333740234375,-0.8938772678375244,-0.9123055338859558,0.4970130920410156
1772868521141400600,6.373400634765625,-0.6668281555175781,-0.4660990536212921,0.7238797545433044
1772868521151466500,6.383466552734375,-0.47804147005081177,-0.05749104544520378,0.8876010775566101
1772868521161533700,6.39353369140625,-0.3821743130683899,0.2967509329319,1.001718521118164
1772868521171599400,6.403599365234375,-0.3024861216545105,0.6381913423538208,1.0874429941177368
1772868521181666600,6.41366650390625,-0.2185768187046051,0.9112960696220398,1.1353559494018555
1772868521191732500,6.423732421875,-0.1692626178264618,0.9667560458183289,1.096637487411499
1772868521201798400,6.43379833984375,-0.1314806193113327,0.7354623675346375,0.9235860705375671
1772868521211865300,6.443865234375,-0.12678006291389465,0.4147832691669464,0.7029064893722534
1772868521221931500,6.453931640625,-0.1984207034111023,0.1379937380552292,0.49280568957328796
1772868521231998500,6.46399853515625,-0.3357517719268799,-0.09437119215726852,0.32921063899993896
1772868521242064400,6.474064453125,-0.49046653509140015,-0.31227877736091614,0.21266059577465057
1772868521252131600,6.484131591796875,-0.6332518458366394,-0.4768669307231903,0.13329079747200012
1772868521262197500,6.494197509765625,-0.731008768081665,-0.5521742105484009,0.08680478483438492
1772868521272264400,6.504264404296875,-0.8081710338592529,-0.5572811365127563,0.05795643478631973
1772868521282330600,6.51433056640625,-0.8714962005615234,-0.5173694491386414,0.01985245943069458
1772868521292396500,6.524396484375,-0.9054400324821472,-0.42648494243621826,-0.02849649265408516
1772868521302463500,6.53446337890625,-0.910377562046051,-0.3257277011871338,-0.08888420462608337
1772868521312529700,6.54452978515625,-0.9016212224960327,-0.26182299852371216,-0.14986373484134674
1772868521322596600,6.5545966796875,-0.8863658308982849,-0.2572338283061981,-0.19484691321849823
1772868521332662500,6.56466259765625,-0.8745734691619873,-0.28224313259124756,-0.23856957256793976
1772868521342729500,6.5747294921875,-0.859739363193512,-0.34071895480155945,-0.28051915764808655
1772868521352795600,6.584795654296875,-0.8274328112602234,-0.40853363275527954,-0.3086686432361603
1772868521362862600,6.594862548828125,-0.7713242769241333,-0.4248337745666504,-0.3223184049129486
1772868521372928300,6.60492822265625,-0.6985782384872437,-0.38938403129577637,-0.3131934106349945
1772868521382995700,6.61499560546875,-0.6253378391265869,-0.3543943464756012,-0.2850339412689209
1772868521393061400,6.625061279296875,-0.5537634491920471,-0.3711877465248108,-0.2515701353549957
1772868521403128300,6.63512841796875,-0.49268651008605957,-0.42738497257232666,-0.2250780612230301
1772868521413194500,6.645194580078125,-0.4322323501110077,-0.5245243310928345,-0.21443893015384674
1772868521423260400,6.655260498046875,-0.38427919149398804,-0.6443583369255066,-0.19614461064338684
1772868521433327400,6.665327392578125,-0.37969881296157837,-0.7357543110847473,-0.1551073044538498
1772868521443393500,6.6753935546875,-0.4117206633090973,-0.7266718745231628,-0.09252888709306717
1772868521453460500,6.68546044921875,-0.392580509185791,-0.6825133562088013,-0.017535528168082237
1772868521463526400,6.6955263671875,-0.34329843521118164,-0.5684576630592346,0.04387883096933365
1772868521473593600,6.705593505859375,-0.3385617733001709,-0.4134920835494995,0.08305159956216812
1772868521483659500,6.715659423828125,-0.3352445363998413,-0.27314722537994385,0.11758187413215637
1772868521493726500,6.7257265625,-0.30780142545700073,-0.17015552520751953,0.14649148285388947
1772868521503792600,6.735792724609375,-0.26732775568962097,-0.10249738395214081,0.16348297894001007
1772868521513859600,6.745859619140625,-0.21225327253341675,-0.03488777577877045,0.17468823492527008
1772868521523925500,6.755925537109375,-0.13941501080989838,0.022574184462428093,0.17176303267478943
1772868521533992400,6.765992431640625,-0.032164376229047775,0.06715448945760727,0.1801757514476776
1772868521544058600,6.77605859375,0.11570391058921814,0.15400655567646027,0.23465017974376678
1772868521554124500,6.78612451171875,0.27657604217529297,0.2823454737663269,0.35263514518737793
1772868521564191500,6.79619140625,0.43341198563575745,0.4346702992916107,0.5186038613319397
1772868521574257700,6.806257568359375,0.5732247233390808,0.6127236485481262,0.7174386382102966
1772868521584324600,6.81632470703125,0.6772030591964722,0.7609450817108154,0.8831722140312195
1772868521594390300,6.826390380859375,0.7503101229667664,0.8534745573997498,0.9630801677703857
1772868521604457500,6.83645751953125,0.7902042865753174,0.82365882396698,0.9228675365447998
1772868521614523400,6.8465234375,0.8041639924049377,0.641179084777832,0.7712095975875854
1772868521624590300,6.85659033203125,0.7703927159309387,0.32233455777168274,0.5549763441085815
1772868521634656500,6.866656494140625,0.6751371026039124,-0.08963228017091751,0.3335675001144409
1772868521644723500,6.876723388671875,0.5425055623054504,-0.5510590076446533,0.16262371838092804
1772868521654789400,6.886789306640625,0.41843074560165405,-0.9257049560546875,0.06943978369235992
1772868521664857300,6.896857421875,0.34251734614372253,-1.0893924236297607,0.06316111236810684
1772868521674923500,6.906923583984375,0.3083520233631134,-1.0434482097625732,0.11324930936098099
1772868521684990500,6.916990478515625,0.3326112926006317,-0.7726556062698364,0.2056945562362671
1772868521695056400,6.927056396484375,0.43413597345352173,-0.3812616467475891,0.28957894444465637
1772868521705122300,6.937122314453125,0.54903244972229,-0.02467184141278267,0.3115848898887634
1772868521715189200,6.947189208984375,0.6260299682617188,0.1712615042924881,0.26122772693634033
1772868521725255200,6.957255126953125,0.7335109114646912,0.2101130336523056,0.183062344789505
1772868521735322000,6.967322021484375,0.8257529735565186,0.15722551941871643,0.09589442610740662
1772868521745388300,6.97738818359375,0.8766670227050781,0.04614986851811409,-0.01429812517017126
1772868521755455200,6.987455322265625,0.8948516845703125,-0.06157293543219566,-0.11866580694913864
1772868521765521400,6.997521484375,0.897275984287262,-0.12200645357370377,-0.1974911093711853
1772868521775588400,7.00758837890625,0.8936032652854919,-0.14263932406902313,-0.2272515445947647
1772868521785654300,7.017654296875,0.8789156675338745,-0.12853895127773285,-0.20394781231880188
1772868521795721200,7.02772119140625,0.8606177568435669,-0.060206931084394455,-0.13294728100299835
1772868521805787400,7.037787353515625,0.8432489037513733,0.055256813764572144,-0.038377631455659866
1772868521815854300,7.047854248046875,0.8347522616386414,0.17602159082889557,0.06874555349349976
1772868521825920300,7.057920166015625,0.8322773575782776,0.32913950085639954,0.15174590051174164
1772868521835987500,7.067987548828125,0.8351938724517822,0.46501731872558594,0.20074672996997833
1772868521846053400,7.078053466796875,0.84432452917099,0.5788962244987488,0.20457182824611664
1772868521856119300,7.088119384765625,0.8586593866348267,0.6714336276054382,0.177534818649292
1772868521866186500,7.0981865234375,0.8604349493980408,0.7286401987075806,0.13117477297782898
1772868521876252400,7.10825244140625,0.8492915034294128,0.751288115978241,0.07519420236349106
1772868521886319400,7.1183193359375,0.8214907646179199,0.7528111934661865,0.002853161422535777
1772868521896385500,7.128385498046875,0.8040522336959839,0.7454453706741333,-0.0793016254901886
1772868521906452500,7.138452392578125,0.7970867156982422,0.7019117474555969,-0.16467830538749695
1772868521916518100,7.14851806640625,0.7716244459152222,0.6449260115623474,-0.2370917946100235
1772868521926585300,7.15858544921875,0.6953011751174927,0.5905200242996216,-0.2965575158596039
1772868521936651300,7.1686513671875,0.5868610143661499,0.5097375512123108,-0.3569682836532593
1772868521946718200,7.17871826171875,0.4754799008369446,0.38148370385169983,-0.42143887281417847
1772868521956784000,7.1887841796875,0.3748609125614166,0.207393079996109,-0.48816370964050293
1772868521966851300,7.198851318359375,0.2871984541416168,0.005957442335784435,-0.558777928352356
1772868521976917200,7.208917236328125,0.22144562005996704,-0.1590341180562973,-0.5986952185630798
1772868521986984200,7.218984130859375,0.1592235267162323,-0.2038431316614151,-0.585244357585907
1772868521997050400,7.22905029296875,0.08521362394094467,-0.13918454945087433,-0.5297560095787048
1772868522007117300,7.239117431640625,-0.016031499952077866,-0.010419636964797974,-0.45772311091423035
1772868522017183200,7.249183349609375,-0.11269763857126236,0.14466321468353271,-0.37432488799095154
1772868522027249400,7.25924951171875,-0.18324825167655945,0.2728872299194336,-0.29440635442733765
1772868522037316400,7.26931640625,-0.21500036120414734,0.32120805978775024,-0.21473515033721924
1772868522047382300,7.27938232421875,-0.23135723173618317,0.2922123670578003,-0.12749026715755463
1772868522057449200,7.28944921875,-0.24924598634243011,0.20887795090675354,-0.03426903858780861
1772868522067515400,7.299515380859375,-0.275429368019104,0.07117575407028198,0.04156314209103584
1772868522077582300,7.309582275390625,-0.3144059181213379,-0.1214151680469513,0.08326464891433716
1772868522087648500,7.3196484375,-0.35136181116104126,-0.3125949800014496,0.0935782715678215
1772868522097715500,7.329715576171875,-0.3848831355571747,-0.39331406354904175,0.08902686089277267
1772868522107781400,7.339781494140625,-0.38986510038375854,-0.31788986921310425,0.09078454226255417
1772868522117848300,7.349848388671875,-0.36022302508354187,-0.11337193846702576,0.10667482763528824
1772868522127914500,7.35991455078125,-0.31124427914619446,0.12453889846801758,0.12170997262001038
1772868522137981400,7.3699814453125,-0.283805787563324,0.3366967439651489,0.11112204939126968
1772868522148047000,7.380047119140625,-0.2738434374332428,0.44714871048927307,0.07403380423784256
1772868522158114600,7.390114501953125,-0.28656357526779175,0.476652592420578,0.011548048816621304
1772868522168180200,7.40018017578125,-0.33469194173812866,0.4435420334339142,-0.0653989315032959
1772868522178247200,7.4102470703125,-0.42321184277534485,0.33321595191955566,-0.14167067408561707
1772868522188313300,7.420313232421875,-0.5367785692214966,0.1636975109577179,-0.17371807992458344
1772868522198380300,7.43038037109375,-0.6421757340431213,-0.048663243651390076,-0.12300130724906921
1772868522208446200,7.4404462890625,-0.7400400042533875,-0.2392078936100006,0.012366103939712048
1772868522218513200,7.45051318359375,-0.8143979907035828,-0.35944709181785583,0.2098769098520279
1772868522228579300,7.460579345703125,-0.8513869047164917,-0.3954421281814575,0.4378991723060608
1772868522238645200,7.470645263671875,-0.8319269418716431,-0.38566410541534424,0.643680214881897
1772868522248712200,7.480712158203125,-0.8193203210830688,-0.32835716009140015,0.806568443775177
1772868522258778400,7.4907783203125,-0.7976618409156799,-0.19178202748298645,0.9311166405677795
1772868522268845300,7.50084521484375,-0.7606393694877625,-0.034121569246053696,1.0097224712371826
1772868522278911200,7.5109111328125,-0.7018886804580688,0.08882461488246918,1.0415788888931274
1772868522288978400,7.520978515625,-0.6571451425552368,0.15233701467514038,1.023747444152832
1772868522299044400,7.53104443359375,-0.6543152928352356,0.13205181062221527,0.9586575627326965
1772868522309111300,7.541111328125,-0.7024213075637817,0.08384831994771957,0.871283233165741
1772868522319177500,7.551177490234375,-0.7711679935455322,0.05111908167600632,0.7846939563751221
1772868522329244400,7.561244384765625,-0.840531587600708,0.07458259165287018,0.7131814360618591
1772868522339310300,7.571310302734375,-0.8930107951164246,0.11594068259000778,0.6577765941619873
1772868522349377300,7.581377197265625,-0.9335899353027344,0.14096079766750336,0.6314664483070374
1772868522359443500,7.591443359375,-0.9632591605186462,0.077473483979702,0.6275327801704407
1772868522369510400,7.601510498046875,-0.995765209197998,-0.09248919039964676,0.6265013813972473
1772868522379576300,7.611576416015625,-1.0920695066452026,-0.27024751901626587,0.6239832043647766
1772868522389643500,7.6216435546875,-1.1909902095794678,-0.42082372307777405,0.6436474323272705
1772868522399709200,7.631709228515625,-1.2560315132141113,-0.5386925935745239,0.6717597842216492
1772868522409776000,7.641776123046875,-1.2496364116668701,-0.6217297315597534,0.7071340680122375
1772868522419842300,7.65184228515625,-1.2157518863677979,-0.7018188834190369,0.6979717016220093
1772868522429909200,7.6619091796875,-1.2092615365982056,-0.7987807989120483,0.6477300524711609
1772868522439975200,7.67197509765625,-1.1824413537979126,-0.8496286869049072,0.5963262915611267
1772868522450042400,7.68204248046875,-1.1368217468261719,-0.7661886811256409,0.5531734824180603
1772868522460108300,7.6921083984375,-1.088778018951416,-0.6244223117828369,0.5136615037918091
1772868522470175200,7.70217529296875,-1.0577398538589478,-0.4300105571746826,0.458530068397522
1772868522480241400,7.712241455078125,-1.020200490951538,-0.3053542375564575,0.3890431821346283
1772868522490307300,7.722307373046875,-0.9673087000846863,-0.1893080770969391,0.3227781653404236
1772868522500374300,7.732374267578125,-0.9161537289619446,-0.049295518547296524,0.27425509691238403
1772868522510440400,7.7424404296875,-0.897826075553894,0.08350646495819092,0.23497959971427917
1772868522520507400,7.75250732421875,-0.9135743975639343,0.19275665283203125,0.1912769228219986
1772868522530573300,7.7625732421875,-0.9595757126808167,0.1986563503742218,0.13026869297027588
1772868522540640300,7.77264013671875,-0.9696530103683472,0.035469334572553635,0.04263639077544212
1772868522550706400,7.78270654296875,-0.9354090094566345,-0.19815513491630554,-0.060546986758708954
1772868522560773400,7.7927734375,-0.8642416000366211,-0.3866058588027954,-0.1638316959142685
1772868522570839300,7.80283935546875,-0.7699523568153381,-0.4826924502849579,-0.21316754817962646
1772868522580906500,7.812906494140625,-0.6483748555183411,-0.4826272130012512,-0.2001522183418274
1772868522590972400,7.822972412109375,-0.5833942294120789,-0.45346319675445557,-0.1650131344795227
1772868522601039400,7.833039306640625,-0.5460895299911499,-0.07964377850294113,-0.12754260003566742
1772868522611105500,7.84310546875,-0.514396607875824,-0.14598898589611053,-0.0834084302186966
1772868522621172500,7.85317236328125,-0.45698052644729614,-0.24265392124652863,-0.009281870909035206
1772868522631238100,7.863238037109375,-0.3786284625530243,-0.2518620789051056,0.11375803500413895
1772868522641305000,7.87330517578125,-0.3208656311035156,-0.3555290400981903,0.17531101405620575
1772868522651371300,7.883371337890625,-0.2570858299732208,-0.4899446368217468,0.18147996068000793
1772868522661438200,7.893438232421875,-0.1846839338541031,-0.6080297827720642,0.13506565988063812
1772868522671504400,7.90350439453125,-0.10115174949169159,-0.5912222862243652,0.08225596696138382
1772868522681571300,7.9135712890625,-0.009435193613171577,-0.5208320617675781,0.025014054030179977
1772868522691637200,7.92363720703125,0.06390906125307083,-0.4348931908607483,-0.008695973083376884
1772868522701704200,7.9337041015625,0.1579461246728897,-0.2993287444114685,0.06305477768182755
1772868522711770400,7.943770263671875,0.2624352276325226,-0.1377079039812088,0.24006977677345276
1772868522721837300,7.95383740234375,0.3549070954322815,0.04720538109540939,0.45241579413414
1772868522731903200,7.9639033203125,0.4509499967098236,0.2563580870628357,0.6323392391204834
1772868522741970200,7.97397021484375,0.5127407908439636,0.35264402627944946,0.6941288113594055
1772868522752036400,7.984036376953125,0.5210123062133789,0.23066142201423645,0.5761076211929321
1772868522762103300,7.994103271484375,0.4945802092552185,-0.020413117483258247,0.3380473256111145
1772868522772169500,8.00416943359375,0.43189018964767456,-0.2374008297920227,0.10238766670227051
1772868522782236400,8.014236328125,0.3402603566646576,-0.3499324917793274,-0.04827168211340904
1772868522792302000,8.024302001953124,0.2725476324558258,-0.3733752369880676,-0.07170083373785019
1772868522802369300,8.034369384765625,0.2967921197414398,-0.32847341895103455,0.05396587401628494
1772868522812435200,8.044435302734374,0.3239228129386902,-0.20983120799064636,0.3144049048423767
1772868522822502100,8.054502197265625,0.37858861684799194,-0.045052796602249146,0.589972198009491
1772868522832568000,8.064568115234374,0.4314779043197632,0.1701258271932602,0.8102827072143555
1772868522842634200,8.07463427734375,0.49226704239845276,0.34020957350730896,0.9396253824234009
1772868522852701200,8.084701171875,0.5745113492012024,0.3566119968891144,0.9532266855239868
1772868522862767000,8.09476708984375,0.6397811770439148,0.24440795183181763,0.8551627397537231
1772868522872834300,8.104834228515625,0.6952649354934692,0.10516856610774994,0.7093932628631592
1772868522882900200,8.114900146484375,0.743477463722229,-0.028693486005067825,0.5595672130584717
1772868522892967200,8.12496728515625,0.7726609110832214,-0.11023521423339844,0.3861885070800781
1772868522903033300,8.135033447265625,0.7972572445869446,-0.10123790055513382,0.17411738634109497
1772868522913100300,8.145100341796875,0.8299259543418884,-0.028139185160398483,-0.05737549439072609
1772868522923166200,8.155166259765625,0.8528115749359131,0.10310551524162292,-0.27505409717559814
1772868522933233200,8.165233154296875,0.9362931251525879,0.31360629200935364,-0.42967456579208374
1772868522943299300,8.17529931640625,1.0433073043823242,0.46994370222091675,-0.5247305035591125
1772868522953366300,8.1853662109375,1.1124290227890015,0.47790470719337463,-0.5579372048377991
1772868522963432200,8.19543212890625,1.1363157033920288,0.474753737449646,-0.5370684862136841
1772868522973499400,8.20549951171875,1.1517137289047241,0.5833619832992554,-0.4815109968185425
1772868522983565300,8.2155654296875,1.1754800081253052,0.7821291089057922,-0.41237160563468933
1772868522993632300,8.22563232421875,1.184752345085144,1.0023057460784912,-0.3323582410812378
1772868523003698400,8.235698486328126,1.186736822128296,1.1979539394378662,-0.23268826305866241
1772868523013765400,8.245765380859375,1.1926718950271606,1.3459959030151367,-0.108314648270607
1772868523023831000,8.2558310546875,1.2049657106399536,1.4150588512420654,0.03976742923259735
1772868523033898200,8.265898193359375,1.1718556880950928,1.446632742881775,0.19526620209217072
1772868523043964200,8.275964111328125,1.070208191871643,1.3654779195785522,0.30617082118988037
1772868523054031000,8.286031005859375,0.9207507371902466,1.1546216011047363,0.31392115354537964
1772868523064097300,8.29609716796875,0.7516812086105347,0.8660382032394409,0.17970308661460876
1772868523074164200,8.306164306640625,0.600812554359436,0.5510443449020386,-0.05881360545754433
1772868523084230100,8.316230224609376,0.45635855197906494,0.2760331928730011,-0.30446943640708923
1772868523094297000,8.326297119140625,0.32283511757850647,0.09530310332775116,-0.4757106900215149
1772868523104363300,8.33636328125,0.20731528103351593,0.03980270400643349,-0.5656837224960327
1772868523114430200,8.34643017578125,0.13697293400764465,0.10362136363983154,-0.580009400844574
1772868523124496100,8.35649609375,0.10011325776576996,0.22544293105602264,-0.5273671746253967
1772868523134563300,8.366563232421875,0.09165240079164505,0.32810062170028687,-0.38703852891921997
1772868523144629200,8.376629150390626,0.08929194509983063,0.36348918080329895,-0.19627785682678223
1772868523154696200,8.3866962890625,0.06216631829738617,0.2585909962654114,-0.02582942321896553
1772868523164762400,8.396762451171876,0.016000602394342422,0.03870467096567154,0.11025790125131607
1772868523174829300,8.406829345703125,-0.0504591166973114,-0.2433730959892273,0.16862852871418
1772868523184895200,8.416895263671876,-0.119957335293293,-0.5118772983551025,0.12195736914873123
1772868523194962200,8.426962158203125,-0.19109728932380676,-0.6581916213035583,0.058308620005846024
1772868523205028400,8.4370283203125,-0.24331313371658325,-0.7513924837112427,0.005246004089713097
1772868523215095300,8.44709521484375,-0.29186150431632996,-0.727830708026886,-0.08361196517944336
1772868523225161200,8.4571611328125,-0.3371911644935608,-0.6494539976119995,-0.0894789770245552
1772868523235228400,8.467228515625,-0.32141247391700745,-0.46701762080192566,-0.07123152911663055
1772868523245294300,8.47729443359375,-0.2540879547595978,-0.1942128986120224,-0.026822851970791817
1772868523255361300,8.487361328125,-0.13461829721927643,0.044437751173973083,-0.011040691286325455
1772868523265427500,8.497427490234376,0.018864987418055534,0.19433031976222992,-0.08496244996786118
1772868523275494400,8.507494384765625,0.19647200405597687,0.28464585542678833,-0.21792635321617126
1772868523285560000,8.51756005859375,0.2645012438297272,0.43290960788726807,-0.34233158826828003
1772868523295627300,8.527627197265625,0.24111656844615936,0.48686683177948,-0.4811438024044037
1772868523305693200,8.537693115234376,0.20118039846420288,0.3894897401332855,-0.581433892250061
1772868523315760000,8.547760009765625,0.13155578076839447,0.16995900869369507,-0.6349269151687622
1772868523325826000,8.557825927734376,0.025653278455138206,-0.15402154624462128,-0.6341172456741333
1772868523335893200,8.567893310546875,-0.10766936093568802,-0.5081599354743958,-0.5620798468589783
1772868523345959200,8.577959228515626,-0.23327316343784332,-0.8562347292900085,-0.4160568416118622
1772868523356026000,8.588026123046875,-0.30380937457084656,-1.1313433647155762,-0.1993040144443512
1772868523366092300,8.59809228515625,-0.32108810544013977,-1.3081656694412231,0.037587493658065796
1772868523376159200,8.6081591796875,-0.2923206388950348,-1.4049304723739624,0.23730753362178802
1772868523386225200,8.61822509765625,-0.22171834111213684,-1.4054228067398071,0.3510943353176117
1772868523396292000,8.6282919921875,-0.12366288900375366,-1.248528242111206,0.37639862298965454
1772868523406359300,8.638359375,-0.05098781734704971,-0.9879335761070251,0.36738815903663635
1772868523416425200,8.64842529296875,0.004548678640276194,-0.6386991739273071,0.2877335548400879
1772868523426492200,8.6584921875,0.07580586522817612,-0.2301749736070633,0.16686592996120453
1772868523436558300,8.668558349609375,0.12502427399158478,0.15402169525623322,0.05457746610045433
1772868523446625300,8.678625244140624,0.10095039010047913,0.45858436822891235,-0.02126690000295639
1772868523456691200,8.688691162109375,0.008146952837705612,0.5896936655044556,-0.08298458904027939
1772868523466758100,8.698758056640624,-0.09912679344415665,0.5895740389823914,-0.13126464188098907
1772868523476824300,8.70882421875,-0.20709294080734253,0.4928843080997467,-0.14245684444904327
1772868523486891300,8.718891357421874,-0.3122480511665344,0.35440295934677124,-0.09739089757204056
1772868523496957200,8.728957275390625,-0.47724899649620056,0.21934685111045837,0.006642562337219715
1772868523507024400,8.7390244140625,-0.5981811881065369,0.03746085241436958,0.1298489272594452
1772868523517090300,8.74909033203125,-0.6675168871879578,-0.06365004926919937,0.23428452014923096
1772868523527157200,8.7591572265625,-0.7275257706642151,-0.13553570210933685,0.32792559266090393
1772868523537223400,8.769223388671875,-0.8039981722831726,-0.21969293057918549,0.4007214903831482
1772868523547290400,8.779290283203125,-0.88479083776474,-0.2626042664051056,0.3984123170375824
1772868523557356300,8.789356201171875,-0.9282664060592651,-0.2848488390445709,0.29388219118118286
1772868523567423200,8.79942333984375,-0.9136667251586914,-0.32583755254745483,0.11920712143182755
1772868523577489200,8.8094892578125,-0.8881542086601257,-0.32353442907333374,-0.05134331062436104
1772868523587556400,8.819556396484375,-0.8681288957595825,-0.30650243163108826,-0.19978056848049164
1772868523597622300,8.829622314453125,-0.8571603894233704,-0.26661279797554016,-0.3266908526420593
1772868523607689200,8.839689208984375,-0.8277167081832886,-0.24193140864372253,-0.4329935908317566
1772868523617755100,8.849755126953125,-0.8011013865470886,-0.26858246326446533,-0.5178813338279724
1772868523627822000,8.859822021484375,-0.8057907819747925,-0.3357200026512146,-0.5863727331161499
1772868523637888300,8.86988818359375,-0.7937751412391663,-0.42461711168289185,-0.6301982402801514
1772868523647955200,8.879955078125,-0.7820701599121094,-0.37740233540534973,-0.6481586694717407
1772868523658021000,8.890021240234375,-0.8090730309486389,-0.2290530800819397,-0.6296555995941162
1772868523668088300,8.90008837890625,-1.0356508493423462,-0.0024031931534409523,-0.5236974954605103
1772868523678154200,8.910154296875,-1.1500579118728638,0.049175843596458435,-0.3262081742286682
1772868523688221200,8.92022119140625,-1.1569057703018188,-0.018987266346812248,-0.07202228158712387
1772868523698287400,8.930287353515626,-1.1125634908676147,-0.05149301141500473,0.2296728491783142
1772868523708354300,8.940354248046875,-1.003391981124878,-0.06730297207832336,0.46234816312789917
1772868523718420200,8.950420166015626,-0.7969080209732056,-0.06306561082601547,0.5432147979736328
1772868523728487200,8.960487060546875,-0.5497071146965027,-0.06715946644544601,0.494882732629776
1772868523738553300,8.97055322265625,-0.4144933521747589,-0.06772805005311966,0.39584776759147644
1772868523748620300,8.980620361328125,-0.39208799600601196,-0.03527282923460007,0.32382896542549133
1772868523758686200,8.990686279296876,-0.37572288513183594,0.04547900706529617,0.2431812584400177
1772868523768753400,9.00075341796875,-0.3284076750278473,0.16920679807662964,0.1470225751399994
1772868523778820400,9.0108203125,-0.2979235351085663,0.2257278710603714,0.06458069384098053
1772868523788886300,9.02088623046875,-0.291045606136322,0.1846390813589096,-0.005293923895806074
1772868523798953200,9.030953125,-0.2728700637817383,0.19534872472286224,-0.06820311397314072
1772868523809019400,9.041019287109375,-0.20347492396831512,0.20191146433353424,-0.0629633441567421
1772868523819086300,9.05108642578125,-0.07335340231657028,0.258092999458313,0.00029951281612738967
1772868523829152300,9.06115234375,0.1541767120361328,0.4203222393989563,0.028740938752889633
1772868523839219500,9.071219482421874,0.3670649826526642,0.5710470080375671,-0.02290281467139721
1772868523849285400,9.081285400390625,0.5152460932731628,0.6148476004600525,-0.09223887324333191
1772868523859352300,9.091352294921874,0.5477116107940674,0.5014209151268005,-0.1602964848279953
1772868523869418500,9.10141845703125,0.4458737075328827,0.2276812195777893,-0.2647121250629425
1772868523879485400,9.1114853515625,0.3254232108592987,-0.19253256916999817,-0.37813907861709595
1772868523889551400,9.12155126953125,0.19544987380504608,-0.629751980304718,-0.4585045576095581
1772868523899618300,9.131618408203124,0.047514207661151886,-0.9755312204360962,-0.48211055994033813
1772868523909684500,9.1416845703125,-0.04280873388051987,-1.1779910326004028,-0.4254664182662964
1772868523919751400,9.15175146484375,-0.042861729860305786,-1.2128231525421143,-0.2828701436519623
1772868523929817300,9.1618173828125,0.011766282841563225,-0.9581908583641052,-0.05372317507863045
1772868523939884500,9.171884521484374,0.12006799131631851,-0.46250367164611816,0.21076573431491852
1772868523949950200,9.1819501953125,0.303083598613739,0.08361680805683136,0.42694389820098877
1772868523960017400,9.192017333984374,0.5156621932983398,0.5068279504776001,0.5399224162101746
1772868523970083300,9.202083251953125,0.7062177658081055,0.7434552311897278,0.4948476552963257
1772868523980150300,9.212150390625,0.8570259213447571,0.8502019047737122,0.31608694791793823
1772868523990216200,9.22221630859375,0.9659416079521179,0.8513107895851135,0.08157432079315186
1772868524000283100,9.232283203125,1.037236213684082,0.7304754853248596,-0.16124896705150604
1772868524010349300,9.242349365234375,1.0651586055755615,0.5035769939422607,-0.3712341785430908
1772868524020416300,9.252416259765624,1.0641402006149292,0.24910500645637512,-0.47691717743873596
1772868524030482200,9.262482177734375,1.0442428588867188,0.05874067544937134,-0.47319501638412476
1772868524040549400,9.27254931640625,1.007062554359436,-0.04035501927137375,-0.38625746965408325
1772868524050615300,9.282615234375,0.9612012505531311,-0.07056176662445068,-0.2714059054851532
1772868524060682200,9.29268212890625,0.8905187845230103,-0.06693348288536072,-0.1722545474767685
1772868524070748400,9.30274853515625,0.8432581424713135,-0.05608740448951721,-0.10000278800725937
1772868524080815400,9.3128154296875,0.8528314232826233,-0.08277920633554459,0.006187029182910919
1772868524090881300,9.32288134765625,0.9878153204917908,-0.05814307928085327,0.0800350159406662
1772868524100948200,9.3329482421875,1.1647868156433105,0.02581147663295269,0.1340053230524063
1772868524111014400,9.343014404296875,1.3176395893096924,0.12536221742630005,0.17655763030052185
1772868524121081300,9.353081298828124,1.3988624811172485,0.22744303941726685,0.1889147013425827
1772868524131147300,9.363147216796875,1.4087426662445068,0.3162476718425751,0.1757638156414032
1772868524141214500,9.37321435546875,1.3723809719085693,0.4175843894481659,0.15021583437919617
1772868524151280400,9.3832802734375,1.317965030670166,0.6315534114837646,0.1478026807308197
1772868524161347300,9.393347412109375,1.218367099761963,0.8711506128311157,0.15356948971748352
1772868524171413500,9.40341357421875,1.069706916809082,0.9932093620300293,0.12369987368583679
1772868524181480400,9.41348046875,0.9204855561256409,0.9802301526069641,0.05996377393603325
1772868524191546400,9.42354638671875,0.7649198770523071,0.7994973063468933,-0.055669549852609634
1772868524201613300,9.43361328125,0.6358063817024231,0.610110342502594,-0.16322502493858337
1772868524211679200,9.44367919921875,0.5198798775672913,0.3786235451698303,-0.2781212627887726
1772868524221746400,9.453746337890625,0.4007739722728729,0.15306442975997925,-0.3714275062084198
1772868524231812400,9.463812255859375,0.30373480916023254,-0.0316748283803463,-0.4475763440132141
1772868524241879300,9.47387939453125,0.24089273810386658,-0.026612425222992897,-0.43488264083862305
1772868524251945200,9.4839453125,0.1751493364572525,-0.04995682090520859,-0.40582647919654846
1772868524262012200,9.49401220703125,0.0828457698225975,-0.026608621701598167,-0.41473424434661865
1772868524272079000,9.5040791015625,-0.016663338989019394,0.1020374521613121,-0.417166143655777
1772868524282145300,9.514145263671875,-0.1325467973947525,0.24869239330291748,-0.40928906202316284
1772868524292212200,9.524212158203126,-0.21664290130138397,0.4014419913291931,-0.4209607243537903
1772868524302278400,9.5342783203125,-0.2701663374900818,0.5468266010284424,-0.46624377369880676
1772868524312345300,9.544345458984376,-0.29036930203437805,0.6506274938583374,-0.5251134037971497
1772868524322411300,9.554411376953125,-0.2885895073413849,0.6265418529510498,-0.5270191431045532
1772868524332478200,9.564478271484376,-0.27765125036239624,0.4592302143573761,-0.44971930980682373
1772868524342544400,9.57454443359375,-0.2982505261898041,0.23577581346035004,-0.3385158181190491
1772868524352611300,9.584611328125,-0.3495360016822815,0.030492622405290604,-0.21907171607017517
1772868524362677200,9.59467724609375,-0.3771497905254364,-0.14340327680110931,-0.10905706882476807
1772868524372744400,9.604744384765626,-0.3479570150375366,-0.25723013281822205,-0.0021958048455417156
1772868524382810400,9.614810302734375,-0.23604191839694977,-0.29760101437568665,0.10932140052318573
1772868524392877300,9.624877197265626,-0.11408855020999908,-0.29433345794677734,0.23366551101207733
1772868524402943500,9.634943603515625,-0.033342305570840836,-0.25365501642227173,0.3734742999076843
1772868524413010400,9.645010498046876,0.014566518366336823,-0.21880623698234558,0.4897667467594147
1772868524423076400,9.655076416015625,0.06557989865541458,-0.2079344093799591,0.533048152923584
1772868524433143300,9.665143310546876,0.11692167818546295,-0.21141666173934937,0.5041555762290955
1772868524443209500,9.67520947265625,0.1376754343509674,-0.2119346410036087,0.414669930934906
1772868524453276400,9.6852763671875,0.10868867486715317,-0.22668923437595367,0.2863923907279968
1772868524463342300,9.69534228515625,0.02405049279332161,-0.2883089482784271,0.11790589988231659
1772868524473409500,9.705409423828126,-0.09843307733535767,-0.4160296320915222,-0.06412249058485031
1772868524483475200,9.71547509765625,-0.22397874295711517,-0.551753580570221,-0.18725800514221191
1772868524493542400,9.72554248046875,-0.3286692798137665,-0.644550085067749,-0.21747103333473206
1772868524503608300,9.7356083984375,-0.4368421137332916,-0.6869204640388489,-0.13693305850028992
1772868524513675300,9.74567529296875,-0.5158640742301941,-0.6850672364234924,0.023997114971280098
1772868524523741200,9.7557412109375,-0.5521723031997681,-0.5898102521896362,0.21178166568279266
1772868524533808000,9.76580810546875,-0.5411598682403564,-0.475347638130188,0.37045493721961975
1772868524543875300,9.775875244140625,-0.49604105949401855,-0.3925861716270447,0.4753592312335968
1772868524553941200,9.785941162109374,-0.41924187541007996,-0.3489554822444916,0.5191091895103455
1772868524564008200,9.79600830078125,-0.3340817093849182,-0.30001750588417053,0.5081444382667542
1772868524574074400,9.806074462890624,-0.2728930711746216,-0.2650291621685028,0.46189403533935547
1772868524584141300,9.816141357421875,-0.23555313050746918,-0.25923463702201843,0.3915833830833435
1772868524594207200,9.826207275390624,-0.23511222004890442,-0.2279205620288849,0.29266107082366943
1772868524604274200,9.836274169921875,-0.2728646397590637,-0.1767100989818573,0.15753573179244995
1772868524614340400,9.84634033203125,-0.3317774534225464,-0.1453332155942917,0.0014565861783921719
1772868524624407300,9.8564072265625,-0.4239686131477356,-0.1204206794500351,-0.11364682763814926
1772868524634473200,9.86647314453125,-0.5449193120002747,-0.10231801122426987,-0.14125782251358032
1772868524644540400,9.87654052734375,-0.6829051971435547,-0.157160222530365,-0.10191494226455688
1772868524654606300,9.8866064453125,-0.7854133248329163,-0.28583088517189026,-0.011164466850459576
1772868524664672800,9.8966728515625,-0.8294630646705627,-0.4015510678291321,0.08361983299255371
1772868524674739000,9.906739013671874,-0.8479477763175964,-0.4890387952327728,0.1475341022014618
1772868524684806000,9.916805908203125,-0.8503957986831665,-0.5294288396835327,0.19078409671783447
1772868524694871800,9.926871826171874,-0.8655174374580383,-0.5475858449935913,0.20802021026611328
1772868524704939000,9.93693896484375,-0.8840059041976929,-0.5168724060058594,0.20365768671035767
1772868524715005000,9.9470048828125,-0.8869741559028625,-0.4843981862068176,0.18633009493350983
1772868524725072000,9.95707177734375,-0.8621950149536133,-0.4442281126976013,0.1408425122499466
1772868524735138000,9.967137939453124,-0.8150334358215332,-0.3503294885158539,0.0532427541911602
1772868524745205000,9.977205078125,-0.746383547782898,-0.21745267510414124,-0.06447775661945343
1772868524755270700,9.987270751953124,-0.6792067289352417,-0.0744011327624321,-0.17373792827129364
1772868524765337900,9.997337890625,-0.6324781179428101,0.0018353164196014404,-0.26208698749542236
1772868524775403800,10.00740380859375,-0.6201846599578857,-0.0009035561233758926,-0.300555557012558
1772868524785470700,10.017470703125,-0.6374089121818542,-0.05161520466208458,-0.28246229887008667
1772868524795537700,10.02753759765625,-0.6091111898422241,-0.039346590638160706,-0.19087271392345428
1772868524805603800,10.037603759765625,-0.5739478468894958,-0.06491532921791077,-0.12463643401861191
1772868524815670800,10.0476708984375,-0.5474177002906799,-0.14042942225933075,-0.10088816285133362
1772868524825736700,10.05773681640625,-0.5474464893341064,-0.22598133981227875,-0.07503818720579147
1772868524835803600,10.0678037109375,-0.5862975120544434,-0.3702925741672516,-0.012912699021399021
1772868524845869800,10.077869873046875,-0.635804295539856,-0.5506516695022583,0.09036096185445786
1772868524855936800,10.087936767578125,-0.583472490310669,-0.7622972726821899,0.20699502527713776
1772868524866002700,10.098002685546875,-0.5186734795570374,-0.7827823162078857,0.2665257155895233
1772868524876070000,10.10806982421875,-0.49431362748146057,-0.6977702379226685,0.35257095098495483
1772868524886135800,10.1181357421875,-0.5011744499206543,-0.6629454493522644,0.3723342716693878
1772868524896202800,10.12820263671875,-0.5052661895751953,-0.5118022561073303,0.3032461106777191
1772868524906269000,10.13826904296875,-0.4539797902107239,-0.35534024238586426,0.20479252934455872
1772868524916335900,10.1483359375,-0.404707133769989,-0.16563545167446136,0.15950681269168854
1772868524926401800,10.15840185546875,-0.37812983989715576,0.002415859140455723,0.15576134622097015
1772868524936468700,10.16846875,-0.3353409171104431,0.1033775582909584,0.1687423139810562
1772868524946535000,10.178534912109376,-0.27642619609832764,0.2006942480802536,0.2159242033958435
1772868524956601900,10.188601806640625,-0.18819716572761536,0.38819217681884766,0.33597737550735474
1772868524966667800,10.198667724609376,-0.09248023480176926,0.6401245594024658,0.5255758166313171
1772868524976735000,10.20873486328125,0.0006752423942089081,0.8466587066650391,0.7014644742012024
1772868524986802000,10.218802001953126,0.07610182464122772,0.985105037689209,0.8450506329536438
1772868524996867800,10.228867919921875,0.13085806369781494,1.0333348512649536,0.9343598484992981
1772868525006934800,10.238934814453126,0.18511492013931274,0.9823886752128601,0.9138367772102356
1772868525017001000,10.2490009765625,0.21566157042980194,0.8602485656738281,0.7696146368980408
1772868525027068000,10.25906787109375,0.2154141664505005,0.6747719049453735,0.5543398857116699
1772868525037133800,10.2691337890625,0.17240369319915771,0.4673028886318207,0.30902737379074097
1772868525047201000,10.279200927734376,0.11119599640369415,0.24219362437725067,0.09530604630708694
1772868525057266700,10.2892666015625,0.04960149526596069,0.03682553023099899,-0.03231083229184151
1772868525067334000,10.299333984375,0.03532455489039421,-0.08640479296445847,-0.02168082445859909
1772868525077399800,10.30939990234375,0.07683180272579193,-0.05821189656853676,0.10082944482564926
1772868525087466800,10.319466796875,0.1735391616821289,0.14718225598335266,0.3084907531738281
1772868525097532700,10.32953271484375,0.28857165575027466,0.42278873920440674,0.5255741477012634
1772868525107599600,10.339599609375,0.3986552953720093,0.6336826086044312,0.6691057682037354
1772868525117665800,10.349665771484375,0.498792827129364,0.6829224824905396,0.6844164133071899
1772868525127732700,10.359732666015624,0.5752529501914978,0.6288794875144958,0.589593768119812
1772868525137799000,10.369798828125,0.6431921124458313,0.503858208656311,0.42383697628974915
1772868525147865900,10.379865966796874,0.657477855682373,0.31935709714889526,0.23746684193611145
1772868525157931800,10.389931884765625,0.6766424179077148,0.14148136973381042,0.09097122400999069
1772868525167998700,10.399998779296874,0.6386561393737793,-0.06133779138326645,-0.05438810586929321
1772868525178065700,10.410065673828125,0.5870388150215149,-0.22033432126045227,-0.18342551589012146
1772868525188131800,10.4201318359375,0.5615757703781128,-0.3152954578399658,-0.2798127830028534
1772868525198198800,10.43019873046875,0.5528419613838196,-0.3494623303413391,-0.35544925928115845
1772868525208264700,10.4402646484375,0.5594969391822815,-0.30990105867385864,-0.3846268653869629
1772868525218332000,10.450331787109375,0.5692386627197266,-0.21145111322402954,-0.34671303629875183
1772868525228397800,10.460397705078124,0.5932345390319824,-0.13126839697360992,-0.2813795804977417
1772868525238464800,10.47046484375,0.6358554363250732,-0.0429215207695961,-0.177141934633255
1772868525248531000,10.480531005859374,0.6814663410186768,0.12036620825529099,-0.0735100656747818
1772868525258598000,10.490597900390625,0.7070410251617432,0.2698115408420563,-0.0162864588201046
1772868525268663800,10.500663818359374,0.722294270992279,0.3653540313243866,0.017563117668032646
1772868525278730800,10.510730712890625,0.7134309411048889,0.4021613597869873,0.0501338392496109
1772868525288797000,10.520796875,0.6724861264228821,0.37506288290023804,0.08146247267723083
1772868525298863900,10.53086376953125,0.6185731887817383,0.3547734320163727,0.12368043512105942
1772868525308930000,10.540929931640624,0.565325140953064,0.28785058856010437,0.12310226261615753
1772868525318997000,10.5509970703125,0.5251500606536865,0.16510161757469177,0.05848538130521774
1772868525329063000,10.56106298828125,0.4899049997329712,0.049120426177978516,-0.03672315925359726
1772868525339129900,10.5711298828125,0.45072489976882935,-0.030192051082849503,-0.13933609426021576
1772868525349196800,10.58119677734375,0.4083563983440399,-0.07854040712118149,-0.22875012457370758
1772868525359263000,10.591262939453125,0.3327142298221588,-0.10510876029729843,-0.3002454936504364
1772868525369330000,10.601329833984375,0.2581915259361267,-0.10582035779953003,-0.33110272884368896
1772868525379395800,10.611395751953125,0.20867428183555603,-0.01083511020988226,-0.3214772045612335
1772868525389462800,10.621462890625,0.13987897336483002,0.10212633013725281,-0.33388644456863403
1772868525399528700,10.63152880859375,0.07630465179681778,0.2253372222185135,-0.35981690883636475
1772868525409595600,10.641595703125,0.03171321377158165,0.35308322310447693,-0.35833272337913513
1772868525419661800,10.651661865234376,0.027585558593273163,0.49351978302001953,-0.27080389857292175
1772868525429728800,10.661728759765625,-0.002026128815487027,0.5793923735618591,-0.17408934235572815
1772868525439794700,10.671794677734376,-0.05332710221409798,0.5896785855293274,-0.08303440362215042
1772868525449862000,10.68186181640625,-0.0800202339887619,0.5454120635986328,-0.017178421840071678
1772868525459927800,10.691927734375,-0.1018272414803505,0.47504064440727234,-0.020414695143699646
1772868525469994800,10.701994873046875,-0.11632682383060455,0.3850657641887665,-0.08720357716083527
1772868525480061000,10.71206103515625,-0.11813007295131683,0.358940988779068,-0.1769985854625702
1772868525490128000,10.7221279296875,-0.13374924659729004,0.37658336758613586,-0.24388307332992554
1772868525500194800,10.73219482421875,-0.1175515353679657,0.4566236138343811,-0.2249896079301834
1772868525510260700,10.7422607421875,-0.0998910441994667,0.5424338579177856,-0.1461656391620636
1772868525520327700,10.75232763671875,-0.09384114295244217,0.6863040924072266,0.003078779671341181
1772868525530393900,10.762393798828125,-0.13461947441101074,0.7841536998748779,0.29044902324676514
1772868525540460800,10.772460693359376,-0.13683637976646423,0.5176692008972168,0.4050229787826538
1772868525550527000,10.78252685546875,-0.032760847359895706,0.2594318091869354,0.3388783037662506
1772868525560594000,10.792593994140624,0.016548875719308853,0.08477547764778137,0.1646912544965744
1772868525570659800,10.802659912109375,-0.02468378096818924,0.009025052189826965,-0.05729787424206734
1772868525580726800,10.812726806640624,-0.08577488362789154,-0.024223368614912033,-0.268879771232605
1772868525590793000,10.82279296875,-0.17256170511245728,-0.058830346912145615,-0.4314393997192383
1772868525600860000,10.83285986328125,-0.2542214095592499,-0.07695582509040833,-0.5558897256851196
1772868525610925800,10.84292578125,-0.30195483565330505,-0.07081829756498337,-0.6666281819343567
1772868525620993000,10.852992919921874,-0.38226354122161865,-0.08726628124713898,-0.7160623073577881
1772868525631060000,10.86306005859375,-0.44252341985702515,-0.20842093229293823,-0.670269250869751
1772868525641126000,10.8731259765625,-0.38502606749534607,-0.29321005940437317,-0.5815890431404114
