time,seconds_elapsed,z,y,x
1772867296512317700,0.064317626953125,-0.005387574899941683,0.011841213330626488,0.0006183860241435468
1772867296522383600,0.074383544921875,-0.0030810111202299595,0.014853514730930328,-0.0007574030314572155
1772867296532449500,0.084449462890625,-0.0028573055751621723,0.012269715778529644,0.002424275502562523
1772867296542514700,0.0945146484375,-0.005859753116965294,0.011745605617761612,-0.001514539704658091
1772867296552580600,0.10458056640625,-0.00418355967849493,0.012508600950241089,0.002347842790186405
1772867296562646500,0.114646484375,-0.0010793792316690087,0.011550928466022015,0.002588059986010194
1772867296572712700,0.124712646484375,-0.005556685384362936,0.013234845362603664,0.000636495475191623
1772867296582778600,0.134778564453125,-0.003918575122952461,0.012900352478027344,-0.0012415656819939613
1772867296592844500,0.144844482421875,-0.003993942867964506,0.012491823174059391,0.0008788431296125054
1772867296602909400,0.154909423828125,-0.0041092573665082455,0.013230584561824799,-0.0004993426846340299
1772867296612975600,0.1649755859375,-0.003582217963412404,0.012776515446603298,-0.000404534162953496
1772867296623041500,0.17504150390625,-0.006933007389307022,0.012850284576416016,0.001746501075103879
1772867296633107700,0.185107666015625,-0.005310343112796545,0.01113174669444561,0.00276089902035892
1772867296643173600,0.195173583984375,-0.005970540922135115,0.011896606534719467,0.002621349412947893
1772867296653239600,0.205239501953125,-0.0019507654942572117,0.009977532550692558,-0.00009614011651137844
1772867296663304400,0.215304443359375,-0.002691656816750765,0.012689430266618729,0.000035420041967881843
1772867296673370600,0.22537060546875,-0.0019736685790121555,0.013770407065749168,0.0013915016315877438
1772867296683436500,0.2354365234375,-0.003763312939554453,0.010059557855129242,0.00017124126316048205
1772867296693502700,0.245502685546875,-0.005715409759432077,0.012918195687234402,0.0001411475386703387
1772867296703568600,0.255568603515625,-0.0033723609521985054,0.012438826262950897,0.000675377668812871
1772867296713634600,0.265634521484375,-0.0038448055274784565,0.012583170086145401,0.0012144014472141862
1772867296723699500,0.275699462890625,-0.0030368026345968246,0.015441007912158966,0.0008314388687722385
1772867296733765600,0.285765625,0.000035420041967881843,0.013138438574969769,0.0024466461036354303
1772867296743831600,0.29583154296875,-0.0033899378031492233,0.014622618444263935,0.0023441144730895758
1772867296753897700,0.305897705078125,-0.0018232000293210149,0.013531520962715149,-0.000031425301131093875
1772867296763963600,0.315963623046875,-0.0034165694378316402,0.012237224727869034,0.007233412005007267
1772867296774029600,0.326029541015625,-0.004916728008538485,0.014449247159063816,-0.0035657063126564026
1772867296784094500,0.336094482421875,-0.005032575689256191,0.011231348849833012,0.0010602044640108943
1772867296794160600,0.34616064453125,-0.003644269658252597,0.013037504628300667,-0.00047164582065306604
1772867296804226600,0.3562265625,-0.003864513011649251,0.014742461033165455,-0.002002697205170989
1772867296814292700,0.366292724609375,-0.0035268242936581373,0.010130930691957474,0.004738296382129192
1772867296824358700,0.376358642578125,-0.004991562571376562,0.010261425748467445,-0.0011475561186671257
1772867296834424600,0.386424560546875,-0.004418450407683849,0.011682488955557346,0.00028282770654186606
1772867296844489500,0.396489501953125,-0.004704474005848169,0.012909673154354095,0.0023182816803455353
1772867296854555600,0.4065556640625,-0.004851746838539839,0.013948572799563408,-0.001586178783327341
1772867296864621600,0.41662158203125,-0.003433613572269678,0.012885704636573792,0.004168379586189985
1772867296874687700,0.426687744140625,-0.004733236040920019,0.013798636384308338,0.0008239820599555969
1772867296884753700,0.436753662109375,-0.003087668912485242,0.011387676931917667,0.0023433153983205557
1772867296894818600,0.446818603515625,-0.0044048684649169445,0.01446762215346098,0.00452764006331563
1772867296904884500,0.456884521484375,-0.0027944548055529594,0.014274010434746742,-0.0012921657180413604
1772867296914950700,0.46695068359375,-0.003144926857203245,0.01338797714561224,-0.00041492050513625145
1772867296925016600,0.4770166015625,-0.0057162088342010975,0.01315282005816698,-0.00018322547839488834
1772867296935082800,0.487082763671875,-0.0041428133845329285,0.009010539390146732,0.002198173198848963
1772867296945148700,0.497148681640625,-0.003525492735207081,0.012248942628502846,0.0034844798501580954
1772867296955213600,0.507213623046875,-0.005270928610116243,0.01203908585011959,-0.001457548001781106
1772867296965279500,0.517279541015625,-0.001017327536828816,0.014090253040194511,0.0012085424968972802
1772867296975345700,0.527345703125,-0.004926581867039204,0.011183411814272404,-0.0012482235906645656
1772867296985411600,0.53741162109375,-0.004849350079894066,0.013262009248137474,0.001758218975737691
1772867296995477800,0.547477783203125,-0.0007608651067130268,0.012646819464862347,0.0013014868600293994
1772867297005543700,0.557543701171875,-0.0033811493776738644,0.014573615975677967,0.00038748994120396674
1772867297015608600,0.567608642578125,-0.00475374236702919,0.011150655336678028,0.0008764463127590716
1772867297025674500,0.577674560546875,-0.0031092404387891293,0.014929148368537426,-0.00022770027862861753
1772867297035740700,0.58774072265625,-0.004699147772043943,0.012629775330424309,0.0016591493040323257
1772867297045806600,0.597806640625,-0.006137521006166935,0.012972258031368256,0.0025624935515224934
1772867297055872800,0.607872802734375,-0.003227484878152609,0.0128159299492836,0.001291100517846644
1772867297065938400,0.6179384765625,-0.006351372692734003,0.013584517873823643,0.003040797309949994
1772867297076003600,0.628003662109375,-0.0029257487040013075,0.01350595522671938,0.00233266269788146
1772867297086069500,0.638069580078125,-0.002778475871309638,0.013190636411309242,0.0010005496442317963
1772867297096135700,0.6481357421875,-0.004369714763015509,0.01067980844527483,0.0027944548055529594
1772867297106201600,0.65820166015625,-0.006689061876386404,0.011930429376661777,0.0023278691805899143
1772867297116267800,0.668267822265625,-0.0052173989824950695,0.012709403410553932,0.00025353292585350573
1772867297126333400,0.67833349609375,-0.003861849894747138,0.013395966030657291,0.002173938322812319
1772867297136398600,0.688398681640625,-0.005455751903355122,0.014072675257921219,-0.0013488910626620054
1772867297146464500,0.698464599609375,-0.003924167715013027,0.013644172810018063,-0.000681236619129777
1772867297156530700,0.70853076171875,-0.0057159424759447575,0.013227920979261398,0.0011211908422410488
1772867297166596600,0.7185966796875,-0.0070669641718268394,0.01076849177479744,-0.00046099317842163146
1772867297176662800,0.728662841796875,-0.002335592173039913,0.015225025825202465,-0.0004087952256668359
1772867297186727400,0.7387275390625,-0.004038417246192694,0.011634285561740398,0.0011635350529104471
1772867297196793600,0.748793701171875,-0.002944657113403082,0.01299436204135418,0.0012474246323108673
1772867297206859500,0.758859619140625,-0.004188885912299156,0.011639611795544624,0.0003195793251506984
1772867297216925700,0.76892578125,-0.0036458675749599934,0.012938168831169605,0.005744704511016607
1772867297226991600,0.77899169921875,-0.0029547770973294973,0.013463078066706657,-0.00040986048406921327
1772867297237058000,0.78905810546875,-0.003099386813119054,0.012753878720104694,0.0012508867075666785
1772867297247122700,0.799122802734375,-0.0028716865926980972,0.014193583279848099,-0.0007448861724697053
1772867297257188900,0.80918896484375,-0.003745469730347395,0.010422547347843647,-0.00025992453447543085
1772867297267254800,0.8192548828125,-0.003838680451735854,0.010214021429419518,-0.00019574233738239855
1772867297277321000,0.829321044921875,-0.0031135017052292824,0.014242852106690407,0.002115348819643259
1772867297287387000,0.839386962890625,-0.0035065840929746628,0.011096859350800514,0.00021971078240312636
1772867297297452800,0.849452880859375,-0.00404587434604764,0.011476360261440277,0.001856755930930376
1772867297307517700,0.859517578125,-0.004490355961024761,0.013352823443710804,-0.0008847020799294114
1772867297317584000,0.869583984375,-0.0032266860362142324,0.01434991043061018,-0.00039707732503302395
1772867297327649800,0.87964990234375,-0.0034088462125509977,0.013609019108116627,0.0003427488263696432
1772867297337716000,0.889716064453125,-0.002552373567596078,0.011788216419517994,0.0023164174053817987
1772867297347782000,0.899781982421875,-0.0031286815647035837,0.011315505020320415,0.0023366576060652733
1772867297357847800,0.909847900390625,-0.003026149934157729,0.013154418207705021,0.000761664065066725
1772867297367912700,0.91991259765625,-0.004375573713332415,0.011355185881257057,-0.00033582461765035987
1772867297377979000,0.929978759765625,-0.0008591357618570328,0.01233283244073391,0.0024317323695868254
1772867297388044800,0.940044921875,-0.002173938322812319,0.011419101618230343,0.001767273643054068
1772867297398111000,0.950111083984375,-0.0040884846821427345,0.013864682987332344,0.0035364115610718727
1772867297408177000,0.960177001953125,-0.002682868391275406,0.01392939779907465,-0.00202293717302382
1772867297418242000,0.970241943359375,-0.004832039587199688,0.01200047042220831,-0.0020066918805241585
1772867297428307700,0.9803076171875,-0.0027177559677511454,0.015065502375364304,0.002965962514281273
1772867297438374000,0.990373779296875,-0.004601676017045975,0.012945625931024551,-0.001671932521276176
1772867297448439800,1.000439697265625,-0.005637379363179207,0.013440174981951714,0.003487143199890852
1772867297458506000,1.010506103515625,-0.003493002150207758,0.012864932417869568,0.0005603290628641844
1772867297468572000,1.020572021484375,-0.005196892656385899,0.012504606507718563,0.003631486324593425
1772867297478637000,1.030636962890625,-0.0035566515289247036,0.01375149842351675,0.0007518103811889887
1772867297488702700,1.04070263671875,-0.005327120888978243,0.011501659639179707,-0.002162486780434847
1772867297498769000,1.050768798828125,-0.0031380027066916227,0.012704343535006046,0.0015251922886818647
1772867297508834800,1.060834716796875,-0.0041468082927167416,0.010909106582403183,-0.001198688754811883
1772867297518901000,1.07090087890625,-0.0049223206005990505,0.010431068949401379,-0.0015853798249736428
1772867297528967000,1.080966796875,-0.00780439330264926,0.01065157912671566,0.0026346652302891016
1772867297539032000,1.091031982421875,-0.006928746122866869,0.012501411139965057,-0.0012218583142384887
1772867297549097700,1.10109765625,-0.004661597311496735,0.010672351345419884,-0.0012090750969946384
1772867297559164000,1.111163818359375,-0.005043760873377323,0.01146703865379095,-0.0031065773218870163
1772867297569229800,1.121229736328125,-0.006299174856394529,0.013003682717680931,0.0012697952333837748
1772867297579296000,1.1312958984375,-0.0022775353863835335,0.013252155855298042,0.001398159540258348
1772867297589361000,1.14136083984375,-0.004150536376982927,0.01179460808634758,0.0002133192028850317
1772867297599427000,1.151427001953125,-0.0020455741323530674,0.01318051666021347,-0.0012831110507249832
1772867297609492700,1.16149267578125,-0.002526008291170001,0.014277206733822823,-0.001478587044402957
1772867297619559000,1.171558837890625,-0.0034434671979397535,0.013903564773499966,-0.00020905814017169178
1772867297629624800,1.181624755859375,-0.003907922655344009,0.012348811142146587,-0.0018543590558692813
1772867297639690800,1.191690673828125,-0.0020540961995720863,0.010494984686374664,0.00006657902849838138
1772867297649756000,1.201755859375,-0.003769171889871359,0.013878265395760536,-0.0020663465838879347
1772867297659822000,1.211822021484375,-0.0036192359402775764,0.012807141989469528,-0.00010626012954162434
1772867297669887700,1.2218876953125,-0.0037023264449089766,0.009034774266183376,0.002423742786049843
1772867297679954000,1.231953857421875,-0.0007960188668221235,0.013134177774190903,0.0009598032338544726
1772867297690019800,1.242019775390625,-0.003970240708440542,0.01104519423097372,-0.0026013758033514023
1772867297700085800,1.252085693359375,-0.00518810423091054,0.014124341309070587,-0.0003400856803636998
1772867297710151000,1.26215087890625,-0.002636263146996498,0.013283847831189632,0.0021225393284112215
1772867297720217000,1.272217041015625,-0.004525243304669857,0.010869425721466541,0.0008777778712101281
1772867297730282800,1.28228271484375,-0.003230147995054722,0.013158146291971207,0.0012628709664568305
1772867297740349000,1.292348876953125,-0.003920173272490501,0.014188257046043873,0.0015701997326686978
1772867297750414800,1.302414794921875,-0.003912183456122875,0.012477176263928413,0.0007653924985788763
1772867297760480800,1.312480712890625,-0.00452737370505929,0.01372460089623928,0.0012897689593955874
1772867297770546000,1.3225458984375,-0.0031076427549123764,0.010659036226570606,-0.0005403553950600326
1772867297780612000,1.332612060546875,-0.004452539142221212,0.011382883414626122,0.004504204262048006
1772867297790677800,1.342677734375,-0.00358807691372931,0.009553557261824608,0.0010969560826197267
1772867297800744000,1.352743896484375,-0.0032354744616895914,0.011907259002327919,-0.0003091930120717734
1772867297810809900,1.362809814453125,-0.003227484878152609,0.013390373438596725,0.0002990729990415275
1772867297820875800,1.372875732421875,-0.005306082312017679,0.010964234359562397,0.0012311793398112059
1772867297830941000,1.38294091796875,-0.0038932752795517445,0.011782091110944748,0.0007723167072981596
1772867297841007000,1.393007080078125,-0.0034208304714411497,0.01305348426103592,0.00030866035376675427
1772867297851072800,1.40307275390625,-0.002039981307461858,0.012413259595632553,0.0010713896481320262
1772867297861139000,1.413138916015625,-0.005539641249924898,0.012838833034038544,-0.0018391790799796581
1772867297871204900,1.423204833984375,-0.005652825813740492,0.00914236530661583,0.00038456046604551375
1772867297881270800,1.433270751953125,-0.0022274679504334927,0.01369344163686037,0.0029526466969400644
1772867297891336000,1.4433359375,-0.0044083306565880775,0.012315255589783192,0.0021550299134105444
1772867297901402000,1.453402099609375,-0.003820304526016116,0.01194161456078291,0.000577107013668865
1772867297911467800,1.4634677734375,-0.0029294772539287806,0.015006912872195244,0.0013768542557954788
1772867297921533700,1.47353369140625,-0.004144677426666021,0.011005513370037079,0.0010258496040478349
1772867297931600000,1.483599853515625,-0.006329002324491739,0.011799401603639126,0.00026738137239590287
1772867297941665000,1.4936650390625,-0.00452817277982831,0.012015650048851967,-0.00019574233738239855
1772867297951731000,1.50373095703125,-0.0012351741315796971,0.01287558488547802,0.003153981640934944
1772867297961797000,1.513797119140625,-0.005723399575799704,0.010903247632086277,0.0024775387719273567
1772867297971862800,1.52386279296875,-0.0032080437522381544,0.010329869575798512,-0.0002844255941454321
1772867297981928700,1.5339287109375,-0.005626993253827095,0.01230407040566206,0.003409911412745714
1772867297991995000,1.543994873046875,-0.0031641016248613596,0.011959191411733627,-0.0005078648100607097
1772867298002060000,1.55406005859375,-0.003026149934157729,0.01426149345934391,0.0007787083159200847
1772867298012126000,1.5641259765625,-0.005567071959376335,0.014838334172964096,0.00043063313933089375
1772867298022192000,1.574192138671875,-0.0034850125666707754,0.011179683730006218,0.000734766130335629
1772867298032257800,1.5842578125,-0.001255946815945208,0.01284762192517519,0.0019600866362452507
1772867298042323700,1.59432373046875,-0.0008689894457347691,0.014605574309825897,-0.002548911375924945
1772867298052390000,1.604389892578125,-0.0033832797780632973,0.011390073224902153,-0.00042743736412376165
1772867298062455000,1.614455078125,-0.004686897154897451,0.015091334469616413,0.0006796387024223804
1772867298072521000,1.62452099609375,-0.0025124261155724525,0.014162157662212849,-0.0010817759903147817
1772867298082587000,1.6345869140625,-0.0024927188642323017,0.013601296581327915,0.0009294432238675654
1772867298092652800,1.64465283203125,-0.00467651104554534,0.012890231795608997,-0.0012604740913957357
1772867298102718700,1.65471875,-0.00336090917699039,0.00908617302775383,-0.000472977408207953
1772867298112785000,1.664784912109375,-0.0034698324743658304,0.0131496237590909,-0.0009992180857807398
1772867298122850000,1.67485009765625,-0.0038661109283566475,0.01278876606374979,0.0017302557826042175
1772867298132916000,1.684916015625,-0.004922853317111731,0.012986638583242893,0.0024743429385125637
1772867298142982000,1.69498193359375,-0.002558765234425664,0.011483816429972649,0.002088983543217182
1772867298153047800,1.7050478515625,-0.0027718180790543556,0.01056369487196207,-0.0016138756182044744
1772867298163113700,1.71511376953125,-0.004496747627854347,0.011930695734918118,0.0025063008069992065
1772867298173180000,1.725179931640625,-0.006509564816951752,0.01324070431292057,-0.00014168016787152737
1772867298183245000,1.7352451171875,-0.004702077247202396,0.01344363670796156,0.0024892566725611687
1772867298193311000,1.74531103515625,-0.004400873556733131,0.013847638852894306,0.0015238607302308083
1772867298203377000,1.755376953125,-0.002168079372495413,0.011071559973061085,0.0007741809240542352
1772867298213442800,1.76544287109375,-0.0029084382113069296,0.01407746970653534,0.0011896340874955058
1772867298223508700,1.7755087890625,-0.004305532667785883,0.012545619159936905,0.002083124592900276
1772867298233575000,1.785574951171875,-0.004450408276170492,0.011847072280943394,-0.0009603358921594918
1772867298243640000,1.79564013671875,-0.0021515677217394114,0.011300858110189438,0.0014258564915508032
1772867298253706000,1.8057060546875,-0.0030623688362538815,0.01182443555444479,-0.0006346312584355474
1772867298263772000,1.81577197265625,-0.004826446995139122,0.014809572137892246,-0.0003890878288075328
1772867298273838000,1.825838134765625,-0.003011502558365464,0.012293950654566288,0.001026382320560515
1772867298283904000,1.835904052734375,-0.0029888655990362167,0.011562380008399487,0.0007283745799213648
1772867298293970200,1.84597021484375,-0.006154298782348633,0.014111557975411415,-0.00021731393644586205
1772867298304035000,1.85603515625,-0.002718821167945862,0.012122709304094315,0.003343598684296012
1772867298314101000,1.86610107421875,-0.005696501582860947,0.013423130847513676,0.0029963224660605192
1772867298324167000,1.8761669921875,-0.005386509466916323,0.011847338639199734,0.0015254586469382048
1772867298334233000,1.886233154296875,-0.005825132131576538,0.01336001418530941,-0.0009954896522685885
1772867298344299000,1.896299072265625,-0.007534615229815245,0.01065264455974102,0.0023044333793222904
1772867298354365200,1.906365234375,-0.004310059826821089,0.00968804769217968,0.0020122844725847244
1772867298364430000,1.91643017578125,-0.00443869037553668,0.013704094104468822,0.0019166769925504923
1772867298374496000,1.92649609375,-0.006023005116730928,0.01242417935281992,0.0014061490073800087
1772867298384562000,1.93656201171875,-0.003832821501418948,0.012088354676961899,0.0011105381418019533
1772867298394628000,1.946628173828125,-0.003454652614891529,0.011136540211737156,0.004319913685321808
1772867298404694000,1.956694091796875,-0.0031225562561303377,0.01375416200608015,0.001392300589941442
1772867298414760200,1.96676025390625,-0.0030312100425362587,0.011522166430950165,0.002101234160363674
1772867298424825000,1.9768251953125,-0.004434429574757814,0.013452958315610886,-0.00012197277828818187
1772867298434891000,1.98689111328125,-0.004044010303914547,0.010812168009579182,0.0016559535870328546
1772867298444957000,1.99695703125,-0.006072539836168289,0.013972806744277477,0.001585646066814661
1772867298455023000,2.007023193359375,-0.005644303746521473,0.011097924783825874,0.0018024274613708258
1772867298465089000,2.017089111328125,-0.0049337721429765224,0.012205267325043678,0.001440237509086728
1772867298475155200,2.0271552734375,-0.00043569316039793193,0.012968262657523155,0.0013704627053812146
1772867298485220000,2.03722021484375,-0.003288471372798085,0.014278005808591843,-0.0011760519118979573
1772867298495286000,2.0472861328125,-0.001216531964018941,0.012297678738832474,-0.0022509037517011166
1772867298505352000,2.05735205078125,-0.005012601613998413,0.012979714199900627,-0.003498861100524664
1772867298515418000,2.067418212890625,-0.002659965306520462,0.013703295029699802,0.0012889700010418892
1772867298525484000,2.077484130859375,-0.0027273432351648808,0.013224725611507893,0.0010404969798400998
1772867298535550200,2.08755029296875,-0.004234958905726671,0.010031594894826412,0.0009797769598662853
1772867298545615000,2.097614990234375,-0.004270378965884447,0.012899020686745644,0.0014586133183911443
1772867298555681000,2.107680908203125,-0.0007518103811889887,0.010685667395591736,0.002276203827932477
1772867298565747000,2.117746826171875,-0.002977414056658745,0.012648417614400387,-0.00037044569035060704
1772867298575813000,2.127813232421875,-0.004578240215778351,0.013276124373078346,0.00011478224041638896
1772867298585879000,2.137879150390625,-0.004426706116646528,0.013793576508760452,0.0018844527658075094
1772867298595945200,2.1479453125,-0.004078364931046963,0.011916047893464565,-0.0010894992155954242
1772867298606010000,2.158010009765625,-0.006087453570216894,0.011623899452388287,0.0007797735743224621
1772867298616076000,2.168075927734375,-0.004850681405514479,0.010380469262599945,0.0022652847692370415
1772867298626142000,2.178141845703125,-0.004833370912820101,0.012899020686745644,0.0011251855175942183
1772867298636208000,2.1882080078125,-0.0029435919132083654,0.010694456286728382,-0.0002849582233466208
1772867298646274000,2.198274169921875,-0.00535508431494236,0.012462262064218521,-0.00009454221435589716
1772867298656340200,2.20834033203125,-0.005367867648601532,0.011424428783357143,0.001181111903861165
1772867298666406100,2.21840625,-0.003150785807520151,0.01512968447059393,0.00045353634050115943
1772867298676471000,2.228470947265625,-0.004505003336817026,0.012262525036931038,0.0011765845119953156
1772867298686537000,2.238536865234375,-0.001255680457688868,0.011830028146505356,-0.0025001754984259605
1772867298696603100,2.24860302734375,-0.004916994366794825,0.011257980950176716,-0.001133174984715879
1772867298706669000,2.2586689453125,-0.004247209057211876,0.012173042632639408,-0.00021145498612895608
1772867298716735200,2.2687353515625,-0.004977980628609657,0.012479306198656559,0.0013395700370892882
1772867298726801200,2.27880126953125,-0.004084490239620209,0.014356834813952446,0.001213602488860488
1772867298736866000,2.288865966796875,-0.004781705792993307,0.011683819815516472,0.0002426139690214768
1772867298746932000,2.298931884765625,-0.00199284334667027,0.011840414255857468,0.0010151970200240612
1772867298756998100,2.308998046875,-0.003643736941739917,0.009790845215320587,-0.00004926848123432137
1772867298767064000,2.31906396484375,-0.0049159289337694645,0.014191985130310059,-0.0004934837343171239
1772867298777130200,2.329130126953125,-0.005754558369517326,0.0124233802780509,0.0011478224769234657
1772867298787196200,2.339196044921875,-0.0030035129748284817,0.011346131563186646,0.0017174725653603673
1772867298797261000,2.349260986328125,-0.006561496295034885,0.012826049700379372,0.0010045443195849657
1772867298807327000,2.359326904296875,-0.004376106429845095,0.012708604335784912,0.0025872609112411737
1772867298817393200,2.36939306640625,-0.004448544234037399,0.014013553969562054,-0.0007017429452389479
1772867298827459000,2.379458984375,-0.0033510555513203144,0.009104282595217228,0.0005781722720712423
1772867298837525200,2.389525146484375,-0.0032107068691402674,0.011802064254879951,0.0011688614031299949
1772867298847591200,2.399591064453125,-0.004878911189734936,0.012773585505783558,0.0033398703671991825
1772867298857657000,2.409656982421875,-0.0029342707712203264,0.010883008129894733,0.0006319681415334344
1772867298867722000,2.419721923828125,-0.003896470880135894,0.012072108685970306,-0.0008641957538202405
1772867298877788200,2.4297880859375,-0.004543619230389595,0.01581997610628605,-0.00012916330888401717
1772867298887854000,2.43985400390625,-0.006626477465033531,0.012865198776125908,0.0012330436147749424
1772867298897920300,2.449920166015625,-0.0037230991292744875,0.013798636384308338,-0.001907355966977775
1772867298907986200,2.459986083984375,-0.005339105147868395,0.01215892843902111,0.00037230990710668266
1772867298918052000,2.470052001953125,-0.002718821167945862,0.012540026567876339,-0.001505751279182732
1772867298928117000,2.480116943359375,-0.003212304785847664,0.014021542854607105,-0.0017480988753959537
1772867298938183200,2.49018310546875,-0.0022682142443954945,0.011173824779689312,0.0020599551498889923
1772867298948249000,2.5002490234375,-0.005138036794960499,0.012652678415179253,0.0012796488590538502
1772867298958315000,2.51031494140625,-0.005642439238727093,0.012684369459748268,0.00044022052315995097
1772867298968381200,2.520381103515625,-0.005931658670306206,0.012760535813868046,0.0014687333023175597
1772867298978447000,2.530447021484375,-0.0041002025827765465,0.013165869750082493,0.00009108010999625549
1772867298988513000,2.540512939453125,-0.0019411781104281545,0.012650014832615852,0.0011427623685449362
1772867298998578200,2.550578125,-0.005860818549990654,0.012796222232282162,0.0023190807551145554
1772867299008644000,2.56064404296875,-0.003668770659714937,0.009956493973731995,0.0023529028985649347
1772867299018710000,2.5707099609375,-0.0026088326703757048,0.014367487281560898,0.0022562299855053425
1772867299028776200,2.580776123046875,-0.0029856697656214237,0.010864099487662315,-0.0031305458396673203
1772867299038842000,2.590842041015625,-0.00446798512712121,0.011908058077096939,0.0017243968322873116
1772867299048908000,2.600907958984375,-0.005170261021703482,0.012020976282656193,0.0007542071980424225
1772867299058973200,2.61097314453125,-0.0026969832833856344,0.010478206910192966,0.0013321131700649858
1772867299069039000,2.6210390625,-0.00526693370193243,0.012928049080073833,-0.0010831075487658381
1772867299079105000,2.63110498046875,-0.0019374496769160032,0.01197037659585476,-0.0008807073463685811
1772867299089171200,2.641171142578125,-0.0041220407001674175,0.012267584912478924,-0.0003217098710592836
1772867299099237000,2.651237060546875,-0.0037326866295188665,0.013383716344833374,0.0035984632559120655
1772867299109303000,2.661302978515625,-0.003876763628795743,0.013224192894995213,0.00017869810108095407
1772867299119369000,2.671368896484375,-0.004220843780785799,0.01309130061417818,0.0014839133946225047
1772867299129434000,2.68143408203125,-0.003412308171391487,0.012979980558156967,0.0006945523782633245
1772867299139500000,2.6915,-0.002767290687188506,0.00993332453072071,0.001582716591656208
1772867299149566200,2.701566162109375,-0.005243231542408466,0.01245107688009739,-0.00045619948650710285
1772867299159632100,2.711632080078125,-0.004474909510463476,0.00993252545595169,0.0017547567840665579
1772867299169698000,2.721697998046875,-0.004652542527765036,0.011963185854256153,0.0036064526066184044
1772867299179764000,2.731763916015625,-0.0038900794461369514,0.015302789397537708,0.0017659420846030116
1772867299189829000,2.7418291015625,-0.0057676080614328384,0.010831075720489025,0.0016586167039349675
1772867299199895000,2.75189501953125,-0.004740693140774965,0.015108644962310791,-0.002600576728582382
1772867299209961200,2.761961181640625,-0.005104747135192156,0.013012737967073917,-0.0019542276859283447
1772867299220027100,2.772027099609375,-0.00444028852507472,0.012553342618048191,-0.000395745737478137
1772867299230093000,2.782093017578125,-0.0019417107105255127,0.011567972600460052,-0.0009811085183173418
1772867299240158700,2.79215869140625,-0.00387356779538095,0.00951174646615982,-0.0003379551344551146
1772867299250225000,2.802224853515625,-0.004824316129088402,0.013249225914478302,0.0018274611793458462
1772867299260289800,2.812289794921875,-0.003367833560332656,0.011470767669379711,-0.0012370382901281118
1772867299270355700,2.822355712890625,-0.004157460760325193,0.011901400052011013,0.0007624630234204233
1772867299280421600,2.832421630859375,-0.0028043086640536785,0.013761085458099842,0.00023915186466183513
1772867299290487800,2.84248779296875,-0.005432582460343838,0.011741344816982746,-0.0005374259199015796
1772867299300553700,2.8525537109375,-0.0020149475894868374,0.014239123091101646,0.0009528790251351893
1772867299310620000,2.862619873046875,-0.0036820864770561457,0.011552260257303715,-0.0014002900570631027
1772867299320685800,2.872685791015625,-0.002754773711785674,0.01281566359102726,-0.0012751214671880007
1772867299330750700,2.882750732421875,-0.0026940538082271814,0.01395789347589016,0.0004577973741106689
1772867299340816600,2.892816650390625,-0.004081560764461756,0.011607120744884014,0.00004873584839515388
1772867299350882800,2.9028828125,-0.005959089379757643,0.013564012013375759,-0.0011012171162292361
1772867299360948700,2.91294873046875,-0.002868224401026964,0.011924570426344872,0.0011741877533495426
1772867299371015000,2.923014892578125,-0.004031493328511715,0.011439075693488121,0.0005605954211205244
1772867299381080800,2.933080810546875,-0.003157443832606077,0.011974903754889965,0.002037051832303405
1772867299391146800,2.943146728515625,-0.002689792774617672,0.011284878477454185,-0.00141041015740484
1772867299401211600,2.953211669921875,-0.003900199430063367,0.011748534627258778,0.0008953547803685069
1772867299411277800,2.96327783203125,-0.003823234001174569,0.013526461087167263,0.0005512743373401463
1772867299421343700,2.97334375,-0.004905010107904673,0.012415390461683273,0.0013680658303201199
1772867299431410000,2.983409912109375,-0.002502572489902377,0.012720055878162384,-0.0018671422731131315
1772867299441475800,2.993475830078125,-0.004719920456409454,0.011860387399792671,0.0005422196118161082
1772867299451541800,3.003541748046875,-0.003314037574455142,0.012438293546438217,-0.00006151902198325843
1772867299461606700,3.013606689453125,-0.004965996369719505,0.011649198830127716,0.0005041363765485585
1772867299471672800,3.0236728515625,-0.004792624618858099,0.012167183682322502,0.0004713795206043869
1772867299481738800,3.03373876953125,-0.004618720151484013,0.012734970077872276,-0.0009387642494402826
1772867299491805000,3.043804931640625,-0.002910568844527006,0.013226056471467018,0.0030658310279250145
1772867299501870800,3.053870849609375,-0.003209641668945551,0.010171410627663136,0.0004881574132014066
1772867299511936800,3.063936767578125,-0.00618226220831275,0.012382900342345238,-0.00033582461765035987
1772867299522002700,3.074002685546875,-0.005556419026106596,0.013495569117367268,-0.0002079928817693144
1772867299532067800,3.08406787109375,-0.0027947211638092995,0.013874270021915436,-0.0009358347742818296
1772867299542133800,3.0941337890625,-0.004954012110829353,0.011415639892220497,0.0008673915872350335
1772867299552200000,3.104199951171875,-0.005351888481527567,0.01435150858014822,0.0037611823063343763
1772867299562265900,3.114265869140625,-0.003733485471457243,0.011638280004262924,0.0015456987312063575
1772867299572331800,3.124331787109375,-0.0050701261498034,0.01224627997726202,0.001446096459403634
1772867299582397700,3.134397705078125,-0.003379817819222808,0.013452425599098206,0.003397660795599222
1772867299592463600,3.144463623046875,-0.001469798618927598,0.015442872419953346,-0.0006072007236070931
1772867299602528800,3.15452880859375,-0.004441353492438793,0.012399145402014256,0.001630120910704136
1772867299612595000,3.164594970703125,-0.0030511836521327496,0.013650031760334969,0.0011906992876902223
1772867299622660900,3.174660888671875,-0.00481233187019825,0.01113627478480339,0.001430916483514011
1772867299632726800,3.184726806640625,-0.0024458470288664103,0.012775716371834278,0.0006799050024710596
1772867299642792700,3.194792724609375,-0.001844771672040224,0.013597301207482815,0.000010386328540334944
1772867299652858600,3.204858642578125,-0.004792358260601759,0.013998639769852161,0.0009113337146118283
1772867299662924800,3.2149248046875,-0.005498362239450216,0.008913866244256496,0.0011656655697152019
1772867299672990000,3.224989990234375,-0.0017270599491894245,0.012731507420539856,-0.0009030779474414885
1772867299683055600,3.2350556640625,-0.004929511342197657,0.014054832980036736,-0.0007925567333586514
1772867299693121800,3.245121826171875,-0.0029904635157436132,0.010545318946242332,0.0005893575726076961
1772867299703187700,3.255187744140625,-0.003032008884474635,0.014050571247935295,-0.00010066748654935509
1772867299713253600,3.265253662109375,-0.004364388529211283,0.011612447910010815,-0.0004138552176300436
1772867299723319800,3.27531982421875,-0.0036253612488508224,0.013601030223071575,0.0007574030314572155
1772867299733385700,3.2853857421875,-0.00440992834046483,0.01236372534185648,-0.000035686356568476185
1772867299743452000,3.295451904296875,-0.0041132522746920586,0.010151703841984272,0.0020996362436562777
1772867299753516800,3.305516845703125,-0.006295979022979736,0.012198342941701412,-0.0007568703731521964
1772867299763582700,3.315582763671875,-0.006834470201283693,0.011169297620654106,-0.000907338981050998
1772867299773648600,3.325648681640625,-0.0030003173742443323,0.01383964903652668,0.0025363946333527565
1772867299783714800,3.33571484375,-0.0035153725184500217,0.014445784501731396,0.0012860405258834362
1772867299793780700,3.34578076171875,-0.004003263544291258,0.013290504924952984,0.0019094864837825298
1772867299803847000,3.355846923828125,-0.0037412086967378855,0.012450011447072029,-0.0013190637109801173
1772867299813912800,3.365912841796875,-0.0027869981713593006,0.012833240441977978,-0.0002884203568100929
1772867299823977700,3.375977783203125,-0.0031374699901789427,0.011593539267778397,0.0015595471486449242
1772867299834043600,3.386043701171875,-0.0041526672430336475,0.01272751297801733,0.0011073424248024821
1772867299844109800,3.39610986328125,-0.003296194365248084,0.0098419776186347,-0.0013342436868697405
1772867299854175700,3.40617578125,-0.0057436395436525345,0.011086473241448402,0.0007856325246393681
1772867299864242000,3.416241943359375,-0.005859220866113901,0.01429611537605524,0.0003091930120717734
1772867299874307800,3.426307861328125,-0.0014535533264279366,0.012151204980909824,-0.0007547398563474417
1772867299884373800,3.436373779296875,-0.00355798308737576,0.012283298186957836,-0.002130795270204544
1772867299894438700,3.446438720703125,-0.004671717062592506,0.011871839873492718,-0.0004655205411836505
1772867299904504800,3.4565048828125,-0.0022743395529687405,0.012980779632925987,0.0037438718136399984
1772867299914570800,3.46657080078125,-0.004803809802979231,0.01287265494465828,-0.0032959282398223877
1772867299924637000,3.476636962890625,-0.004441886208951473,0.011757323518395424,-0.0006759102689102292
1772867299934702800,3.486702880859375,-0.002968359272927046,0.01378265768289566,0.0007909588166512549
1772867299944768800,3.496768798828125,-0.0018197379540652037,0.012632437981665134,0.0024719461798667908
1772867299954834700,3.506834716796875,-0.0028644960839301348,0.013030048459768295,-0.0015299860388040543
1772867299964900600,3.516900634765625,-0.001731587341055274,0.011444934643805027,0.0031377363484352827
1772867299974965800,3.5269658203125,-0.002942526713013649,0.013594372197985649,0.0009970874525606632
1772867299985032000,3.537031982421875,-0.004512193612754345,0.010277670808136463,0.001773398951627314
1772867299995097900,3.547097900390625,-0.0008487494196742773,0.011375959031283855,0.001005609636195004
1772867300005163800,3.557163818359375,-0.003020290983840823,0.011737615801393986,0.0015765913994982839
1772867300015229700,3.567229736328125,-0.004346012603491545,0.014083328656852245,0.0010809770319610834
1772867300025295600,3.577295654296875,-0.003439206164330244,0.010426808148622513,0.0009321063989773393
1772867300035361800,3.58736181640625,-0.004514856729656458,0.013187707401812077,0.0015315839555114508
1772867300045427700,3.597427734375,-0.0017648768844082952,0.012807141989469528,0.0010096043115481734
1772867300055492600,3.60749267578125,-0.0023036343045532703,0.011631621979176998,0.0013757890556007624
1772867300065558800,3.617558837890625,-0.004608067683875561,0.012673983350396156,-0.001597896683961153
1772867300075624700,3.627624755859375,-0.003939880523830652,0.014784006401896477,0.0026410568971186876
1772867300085690600,3.637690673828125,-0.004599012900143862,0.011277422308921814,-0.0009257147903554142
1772867300095756800,3.6477568359375,-0.0041401502676308155,0.01194028276950121,-0.00028628981090150774
1772867300105822700,3.65782275390625,-0.0020844561513513327,0.010566091164946556,0.0032503881957381964
1772867300115889000,3.667888916015625,-0.0014325142838060856,0.011570902541279793,-0.0006298375665210187
1772867300125953800,3.677953857421875,-0.0033992587123066187,0.011684352532029152,0.0013499563792720437
1772867300136019700,3.688019775390625,-0.007564176339656115,0.010120810940861702,-0.002546514617279172
1772867300146085600,3.698085693359375,-0.004335093777626753,0.013856959529221058,0.003317766124382615
1772867300156151800,3.70815185546875,-0.004198207054287195,0.011524563655257225,0.000027164242055732757
1772867300166217700,3.7182177734375,-0.004655205644667149,0.012507801875472069,0.0015150723047554493
1772867300176284000,3.728283935546875,-0.0041244374588131905,0.01191098801791668,0.0011089402250945568
1772867300186349800,3.738349853515625,-0.004216050263494253,0.012296080589294434,0.00025513084256090224
1772867300196415700,3.748415771484375,-0.003963049966841936,0.013110209256410599,-0.0006697850185446441
1772867300206480600,3.758480712890625,-0.002017344580963254,0.011536813341081142,0.0010836402652785182
1772867300216546800,3.768546875,-0.0034149715211242437,0.011322695761919022,0.0010780475568026304
1772867300226612700,3.77861279296875,-0.00424188282340765,0.011810853146016598,-0.002526008291170001
1772867300236678400,3.788678466796875,-0.00407570181414485,0.014305436052381992,0.0015600797487422824
1772867300246744300,3.798744384765625,-0.0025803367607295513,0.0126380305737257,0.0021603561472147703
1772867300256810500,3.808810546875,-0.005770271178334951,0.012634568847715855,0.0036432044580578804
1772867300266876400,3.81887646484375,-0.006419816054403782,0.016208797693252563,0.0030328077264130116
1772867300276942300,3.8289423828125,-0.0026051041204482317,0.0116188395768404,0.0006090649403631687
1772867300287007200,3.83900732421875,-0.003581685246899724,0.012664662674069405,0.001317998394370079
1772867300297073400,3.849073486328125,-0.002837864449247718,0.013365340419113636,-0.0016759273130446672
1772867300307139300,3.859139404296875,-0.005529255140572786,0.01293417438864708,0.0003057308786083013
1772867300317205500,3.86920556640625,-0.0024586303625255823,0.014068947173655033,0.0013670006301254034
1772867300327271200,3.879271240234375,-0.004848018288612366,0.01218875590711832,0.0034133736044168472
1772867300337337300,3.88933740234375,-0.00433029979467392,0.014079865999519825,-0.002245843643322587
1772867300347403300,3.8994033203125,-0.004228567238897085,0.012153602205216885,-0.00036911413189955056
1772867300357469400,3.909469482421875,-0.004641090985387564,0.009739979170262814,0.0006428870838135481
1772867300367535400,3.919535400390625,-0.004559065215289593,0.012060657143592834,-0.00042450788896530867
1772867300377600500,3.9296005859375,-0.002210956299677491,0.013003150001168251,0.0005669869715347886
1772867300387666200,3.939666259765625,-0.004742823541164398,0.011575696058571339,0.0006013417732901871
1772867300397732400,3.949732421875,-0.004866127856075764,0.01181937474757433,0.0028272117488086224
1772867300407798300,3.95979833984375,-0.002237854292616248,0.012256932444870472,0.0008362325606867671
1772867300417864400,3.969864501953125,-0.006235525477677584,0.013683588244020939,-0.0009510148083791137
1772867300427930400,3.979930419921875,-0.004430168308317661,0.01269848458468914,0.0024865935556590557
1772867300437995500,3.98999560546875,-0.00447011599317193,0.013380786404013634,-0.0008069378091022372
1772867300448061200,4.000061279296875,-0.003314836649224162,0.012479306198656559,0.0010423612548038363
1772867300458127400,4.01012744140625,-0.0028655612841248512,0.010675547644495964,0.0009944243356585503
1772867300468193300,4.020193359375,-0.005855758674442768,0.012647085823118687,-0.0003842941368930042
1772867300478258400,4.030258544921875,-0.005512743256986141,0.011361843906342983,0.00008309062832267955
1772867300488324400,4.040324462890625,-0.0031188279390335083,0.015078285709023476,0.0020530307665467262
1772867300498390500,4.050390625,-0.005160673521459103,0.012281167320907116,0.0003296993381809443
1772867300508456200,4.060456298828125,-0.005776130128651857,0.011779693886637688,-0.0016639430541545153
1772867300518522400,4.0705224609375,-0.0022985744290053844,0.015858592465519905,0.003058107802644372
1772867300528588300,4.08058837890625,-0.004567055031657219,0.009722935035824776,0.0001347559446003288
1772867300538654200,4.090654296875,-0.004095675423741341,0.014444985426962376,0.0006466155173256993
1772867300548720400,4.100720458984375,-0.005163869354873896,0.01369370799511671,0.00044341632747091353
1772867300558786300,4.110786376953125,-0.004768123384565115,0.010783139616250992,0.0007379619055427611
1772867300568851200,4.120851318359375,-0.006369482260197401,0.01452674437314272,-0.002177400514483452
1772867300578917400,4.13091748046875,-0.004325772635638714,0.011501925997436047,-0.0004953479510731995
1772867300588983300,4.1409833984375,-0.003290335414931178,0.011144263669848442,-0.00016458335448987782
1772867300599049200,4.15104931640625,-0.0020008329302072525,0.01200100313872099,0.0034999263007193804
1772867300609115400,4.161115478515625,-0.0044197821989655495,0.01260793674737215,0.0013156015193089843
1772867300619181300,4.171181396484375,-0.0026554379146546125,0.012308064848184586,0.0008199872681871057
1772867300629247500,4.18124755859375,-0.0057502975687384605,0.010529340244829655,-0.00039840888348408043
1772867300639313400,4.1913134765625,-0.005646700505167246,0.013481187634170055,-0.0016117451013997197
1772867300649379300,4.20137939453125,-0.005773467011749744,0.01155891828238964,0.0017896442441269755
1772867300659444200,4.2114443359375,-0.002692189533263445,0.01170192938297987,0.0023989754263311625
1772867300669510400,4.221510498046875,-0.005331914871931076,0.012104866094887257,0.0004721784498542547
1772867300679576300,4.231576416015625,-0.006160157732665539,0.010761034674942493,-0.0005803027888759971
1772867300689642500,4.241642578125,-0.0034677020739763975,0.01245027780532837,-0.0029198897536844015
1772867300699708200,4.251708251953125,-0.0034173682797700167,0.012781841680407524,0.0006231797160580754
1772867300709774300,4.2617744140625,-0.0008165251929312944,0.009298427030444145,0.0019142802339047194
1772867300719840300,4.27184033203125,-0.000901480030734092,0.01381248515099287,-0.00002450108149787411
1772867300729906400,4.281906494140625,-0.004971056245267391,0.012447348795831203,0.0013630058383569121
1772867300739972400,4.291972412109375,-0.004462126176804304,0.01155811920762062,0.00173717993311584
1772867300750037500,4.30203759765625,-0.005362807307392359,0.012439092621207237,-0.0007992146420292556
1772867300760103200,4.312103271484375,-0.002659432590007782,0.012383699417114258,0.0012298477813601494
1772867300770169300,4.32216943359375,-0.0033182986080646515,0.01290621142834425,-0.0001507349224993959
1772867300780235300,4.3322353515625,-0.005817675497382879,0.013102485798299313,0.00023302659974433482
1772867300790301400,4.342301513671875,-0.004244545940309763,0.013173858635127544,-0.00016192019393201917
1772867300800367400,4.352367431640625,-0.004172374494373798,0.012754145078361034,0.0012114719720557332
1772867300810433300,4.362433349609375,-0.005249889567494392,0.011157313361763954,0.0033252229914069176
1772867300820499500,4.37249951171875,-0.0027861990965902805,0.013563745655119419,0.0014471617760136724
1772867300830565400,4.3825654296875,-0.0028184233233332634,0.012809005565941334,0.0006644586683250964
1772867300840630300,4.39263037109375,-0.004506867378950119,0.011834555305540562,0.0019571571610867977
1772867300850696400,4.402696533203125,-0.00455613574013114,0.013836720027029514,0.0010183927370235324
1772867300860762400,4.412762451171875,-0.0031127026304602623,0.012382101267576218,0.001130511867813766
1772867300870828300,4.422828369140625,-0.0027893949300050735,0.013743242248892784,0.0013526194961741567
1772867300880894500,4.43289453125,-0.004348942078649998,0.014611433260142803,-0.002525209216400981
1772867300890960400,4.44296044921875,-0.0037465349305421114,0.011889682151377201,-0.0009960222523659468
1772867300901026300,4.4530263671875,-0.00452897185459733,0.014153902418911457,0.001425057533197105
1772867300911092200,4.46309228515625,-0.001597896683961153,0.013575463555753231,0.004207261838018894
1772867300921158400,4.473158447265625,-0.0005054679932072759,0.013491840101778507,0.0012956279097124934
1772867300931224300,4.483224365234375,-0.0032463932875543833,0.011677960865199566,-0.0019598202779889107
1772867300941289500,4.49328955078125,-0.0031489215325564146,0.01281699538230896,-0.0003707120195031166
1772867300951355400,4.50335546875,-0.0038037928752601147,0.013884656131267548,-0.0013273194199427962
1772867300961421300,4.51342138671875,-0.003728159237653017,0.010065949521958828,0.0008317052270285785
1772867300971487200,4.5234873046875,-0.003062102710828185,0.013313142582774162,0.0012311793398112059
1772867300981553400,4.533553466796875,-0.0049340385012328625,0.010843059979379177,0.00019520970818120986
1772867300991619300,4.543619384765625,-0.004069842863827944,0.012701946310698986,0.0006929545197635889
1772867301001685500,4.553685546875,-0.0052323127165436745,0.012795157730579376,-0.002168878447264433
1772867301011751400,4.56375146484375,-0.002880475018173456,0.009281382896006107,0.001487109111621976
1772867301021817300,4.5738173828125,-0.004483165219426155,0.011813515797257423,0.0025771409273147583
1772867301031883300,4.58388330078125,-0.0036280243657529354,0.012526177801191807,0.0008053398923948407
1772867301041948400,4.593948486328125,-0.005274656694382429,0.011175689287483692,0.00018961707246489823
1772867301052014300,4.604014404296875,-0.004597947467118502,0.01145958248525858,-0.00046871634549461305
1772867301062080300,4.614080322265625,-0.004582235123962164,0.012198342941701412,0.00046099317842163146
1772867301072146400,4.624146484375,-0.0044381581246852875,0.014412228949368,0.0005083974683657289
1772867301082212400,4.63421240234375,-0.0037001960445195436,0.010396181605756283,-0.0008551410282962024
1772867301092278300,4.6442783203125,-0.005023787263780832,0.01239302009344101,0.0007819040911272168
1772867301102344200,4.65434423828125,-0.0026911243330687284,0.014043913222849369,0.00023142869758885354
1772867301112410400,4.664410400390625,-0.002222141483798623,0.012825516983866692,0.0015805860748514533
1772867301122476300,4.674476318359375,-0.00387356779538095,0.013943511992692947,0.0006498112925328314
1772867301132542500,4.68454248046875,-0.0037052559200674295,0.014523016288876534,0.0005813680472783744
1772867301142607400,4.694607421875,-0.0029784792568534613,0.013028450310230255,0.002159290947020054
1772867301152673300,4.70467333984375,-0.003933222498744726,0.013949637301266193,0.0005448827287182212
1772867301162739200,4.7147392578125,-0.003335609333589673,0.009433715604245663,-0.0008431567694060504
1772867301172805400,4.724805419921875,-0.0041646515019237995,0.011631888337433338,0.00023142869758885354
1772867301182871300,4.734871337890625,-0.004245345015078783,0.012398879043757915,0.0012727247085422277
1772867301192937500,4.7449375,-0.002436259761452675,0.01263723149895668,0.00034727618913166225
1772867301203003400,4.75500341796875,-0.0049614692106842995,0.01522848755121231,0.00008602010348113254
1772867301213069300,4.7650693359375,-0.005014466121792793,0.011708321049809456,-0.0015662050573155284
1772867301223135200,4.77513525390625,-0.0028067054226994514,0.011590076610445976,0.001538241864182055
1772867301233201200,4.785201171875,-0.004574511665850878,0.011707255616784096,-0.002174737397581339
1772867301243266300,4.795266357421875,-0.005480785388499498,0.012793559581041336,-0.0016492956783622503
1772867301253332500,4.80533251953125,-0.007409979589283466,0.013705692254006863,-0.001070857048034668
1772867301263398400,4.8153984375,-0.0034165694378316402,0.01167663000524044,0.0018309232546016574
1772867301273464300,4.82546435546875,-0.0037550569977611303,0.011140269227325916,-0.000687361869495362
1772867301283530200,4.8355302734375,-0.0030945930629968643,0.013009008951485157,0.00040293627534992993
1772867301293596200,4.84559619140625,-0.005053614266216755,0.010626811534166336,0.0006330333999358118
1772867301303662300,4.855662353515625,-0.003070358419790864,0.01245320774614811,0.003500991500914097
1772867301313728300,4.865728271484375,-0.0057007623836398125,0.012001534923911095,0.00009747169679030776
1772867301323794400,4.87579443359375,-0.0036373452749103308,0.009068063460290432,0.002171008847653866
1772867301333860400,4.8858603515625,-0.005643504671752453,0.014616759493947029,0.0010218549286946654
1772867301343926500,4.895926513671875,-0.004196343012154102,0.0119485380128026,-0.0014237258583307266
1772867301353991200,4.9059912109375,-0.0033816818613559008,0.01414537988603115,0.000904409505892545
1772867301364057300,4.916057373046875,-0.0017989652696996927,0.010471017099916935,-0.00001944107498275116
1772867301374123300,4.926123291015625,-0.0032687638886272907,0.012301673181355,-0.0017185378819704056
1772867301384189400,4.936189453125,-0.004420847166329622,0.012744024395942688,0.0005406216951087117
1772867301394255400,4.94625537109375,-0.0031696942169219255,0.01263696514070034,0.0012948289513587952
1772867301404321500,4.956321533203125,-0.002993126632645726,0.013770673424005508,0.0033987262286245823
1772867301414387200,4.96638720703125,-0.0034144388046115637,0.01315388549119234,0.001886050682514906
1772867301424453400,4.976453369140625,-0.004466121084988117,0.012267318554222584,0.0006591323763132095
1772867301434519300,4.986519287109375,-0.00436145905405283,0.01260900218039751,0.0019435749854892492
1772867301444585200,4.996585205078125,-0.0030104373581707478,0.012897688895463943,-0.001273523666895926
1772867301454651400,5.0066513671875,-0.003215234261006117,0.01332725677639246,-0.0005179848521947861
1772867301464716500,5.016716552734375,-0.003619768423959613,0.013154949992895126,-0.00038242992013692856
1772867301474782200,5.0267822265625,-0.003871171036735177,0.012195945717394352,-0.0008902947301976383
1772867301484848400,5.036848388671875,-0.005687979515641928,0.013734720647335052,0.001219727797433734
1772867301494914300,5.046914306640625,-0.0030892668291926384,0.011411112733185291,0.001936650718562305
1772867301504980200,5.056980224609375,-0.003192331176251173,0.013096626847982407,-0.0012487561907619238
1772867301515046400,5.06704638671875,-0.005114600993692875,0.013169331476092339,0.003466636873781681
1772867301525112300,5.0771123046875,-0.0032288164366036654,0.011630557477474213,0.0005451490869745612
1772867301535178500,5.087178466796875,-0.00472551304847002,0.015217036008834839,-0.003838147735223174
1772867301545244400,5.097244384765625,-0.004066380672156811,0.009935987181961536,0.002502572489902377
1772867301555310300,5.107310302734375,-0.0046179210767149925,0.01486390084028244,-0.0008980178972706199
1772867301565376300,5.117376220703125,-0.00242214510217309,0.011376758106052876,0.0005664543714374304
1772867301575441400,5.12744140625,-0.003439206164330244,0.014115552417933941,0.00047111319145187736
1772867301585507300,5.13750732421875,-0.0046751792542636395,0.012054000049829483,0.0035454663448035717
1772867301595573500,5.147573486328125,-0.0022772690281271935,0.010150105692446232,0.00009241169027518481
1772867301605639400,5.157639404296875,-0.0022591594606637955,0.011152253486216068,0.0010748518398031592
1772867301615705300,5.167705322265625,-0.004194744862616062,0.014242053031921387,0.0008530105114914477
1772867301625771300,5.177771240234375,-0.002427204977720976,0.010065416805446148,0.0015156050212681293
1772867301635837400,5.18783740234375,-0.001113201375119388,0.012433766387403011,0.0013648699969053268
1772867301645903400,5.1979033203125,-0.00392842898145318,0.010569287464022636,-0.0012314456980675459
1772867301655969300,5.20796923828125,-0.003123621689155698,0.012252138927578926,-0.00030173614504747093
1772867301666035500,5.218035400390625,-0.00509915454313159,0.013713947497308254,0.0023728765081614256
1772867301676101400,5.228101318359375,-0.004768123384565115,0.01267052162438631,0.00029640982393175364
1772867301686167300,5.238167236328125,-0.0029819414485245943,0.013188772834837437,0.0006998787284828722
1772867301696232200,5.248232177734375,-0.0038365498185157776,0.011949070729315281,0.002246642718091607
1772867301706298400,5.25829833984375,-0.004787831101566553,0.012795157730579376,0.0009725864510983229
1772867301716364300,5.2683642578125,-0.0036786242853850126,0.013069462962448597,0.00010359696898376569
1772867301726430500,5.278430419921875,-0.004894091282039881,0.010416155681014061,0.00016724651504773647
1772867301736496400,5.288496337890625,-0.0016466324450448155,0.013424196280539036,0.0013046825770288706
1772867301746562300,5.298562255859375,-0.004248807206749916,0.011936288326978683,-0.00003941478280466981
1772867301756628200,5.308628173828125,-0.001838646363466978,0.013613014481961727,-0.0004396878939587623
1772867301766694400,5.3186943359375,-0.005079180933535099,0.013823403976857662,0.002028796123340726
1772867301776760300,5.32876025390625,-0.0056890444830060005,0.012163988314568996,-0.00012117382721044123
1772867301786826500,5.338826416015625,-0.004601942375302315,0.01125318743288517,-0.0005179848521947861
1772867301796892400,5.348892333984375,-0.005375856999307871,0.012899819761514664,0.002192580606788397
1772867301806958300,5.358958251953125,-0.0041156490333378315,0.014972824603319168,-0.0010303769959136844
1772867301817023200,5.369023193359375,-0.0043769050389528275,0.015668708831071854,-0.0015275891637429595
1772867301827089400,5.37908935546875,-0.003129480639472604,0.014113156124949455,-0.0012221246724948287
1772867301837155300,5.3891552734375,-0.004328968469053507,0.012547483667731285,0.0014447649009525776
1772867301847221200,5.39922119140625,-0.00549170421436429,0.011201521381735802,-0.0011323761427775025
1772867301857287400,5.409287353515625,-0.0030272151343524456,0.014868694357573986,0.0036125779151916504
1772867301867353300,5.419353271484375,-0.0023100259713828564,0.012732040137052536,0.0009779128013178706
1772867301877419300,5.429419189453125,-0.003486610483378172,0.011683819815516472,0.00017603494052309543
1772867301887485200,5.439485107421875,-0.005404086317867041,0.012242019176483154,0.0017555557424202561
1772867301897551400,5.44955126953125,-0.005036570131778717,0.011036139912903309,0.0006958839949220419
1772867301907617300,5.4596171875,-0.005195294506847858,0.01390010304749012,0.0003379551344551146
1772867301917683500,5.469683349609375,-0.003909253980964422,0.010143980383872986,-0.00037044569035060704
1772867301927749400,5.479749267578125,-0.0033073797821998596,0.010374343954026699,-0.0006756439688615501
1772867301937814300,5.489814208984375,-0.0038948729634284973,0.013290771283209324,0.0012796488590538502
1772867301947880200,5.499880126953125,-0.005060805007815361,0.012619388289749622,-0.0018165421206504107
1772867301957946400,5.5099462890625,-0.004846953321248293,0.01465644035488367,0.00023808660625945777
1772867301968012300,5.52001220703125,-0.0029590383637696505,0.011202054098248482,-0.0016021577175706625
1772867301978078500,5.530078369140625,-0.003999269101768732,0.011226821690797806,-0.00040027310024015605
1772867301988144400,5.540144287109375,-0.003686880227178335,0.012571984902024269,0.0008506136364303529
1772867301998210300,5.550210205078125,-0.008265919052064419,0.015127819962799549,0.0005773733137175441
1772867302008276200,5.560276123046875,-0.0027973842807114124,0.01378345675766468,0.0004215783847030252
1772867302018342100,5.570342041015625,-0.00529702752828598,0.008022240363061428,0.0012191950809210539
1772867302028408300,5.580408203125,-0.004039749037474394,0.012439092621207237,0.00012783173588104546
1772867302038474200,5.59047412109375,-0.00401737866923213,0.014043913222849369,0.0006271744496189058
1772867302048540400,5.60054052734375,-0.0022471752017736435,0.010251305997371674,0.0003478088474366814
1772867302058606300,5.6106064453125,-0.002781405346468091,0.013336844742298126,0.002757703186944127
1772867302068671200,5.620671142578125,-0.006250971462577581,0.011360512115061283,0.0010277138790115714
1772867302078737200,5.630737060546875,-0.004285824950784445,0.011025752872228622,0.0009241168736480176
1772867302088803300,5.64080322265625,-0.005664010997861624,0.014970960095524788,-0.00043569316039793193
1772867302098869200,5.650869140625,-0.004341219086199999,0.014225541613996029,0.002296710154041648
1772867302108935400,5.660935302734375,-0.002907639369368553,0.01233469694852829,0.00008442220860160887
1772867302119001300,5.67100146484375,-0.004304467234760523,0.014884939417243004,0.0016508935950696468
1772867302129067500,5.681067626953125,-0.0038301581516861916,0.011910455301404,0.0004980111261829734
1772867302139133400,5.691133544921875,-0.0049095372669398785,0.013709953054785728,0.0009036105475388467
1772867302149199400,5.701199462890625,-0.004084223881363869,0.013844176195561886,-0.002697782125324011
1772867302159265300,5.711265380859375,-0.00475560687482357,0.012134427204728127,0.002254898427054286
1772867302169331200,5.721331298828125,-0.007207578979432583,0.01311952993273735,0.00279125920496881
1772867302179397400,5.7313974609375,-0.003811516100540757,0.01173335500061512,-0.00021758026559837162
1772867302189463300,5.74146337890625,-0.0051862397231161594,0.01269635371863842,0.0017723336350172758
1772867302199529500,5.751529541015625,-0.006079730577766895,0.010962636210024357,0.001445830101147294
1772867302209594400,5.761594482421875,-0.0007563377148471773,0.013511547818779945,-0.0011174624087288976
1772867302219660300,5.771660400390625,-0.004376106429845095,0.01501303818076849,0.0010426276130601764
1772867302229726200,5.781726318359375,-0.004246410448104143,0.009165268391370773,0.0035020567011088133
1772867302239792400,5.79179248046875,-0.0036615801509469748,0.013332050293684006,-0.00042983421008102596
1772867302249858300,5.8018583984375,-0.0030860709957778454,0.011696869507431984,0.003069825703278184
1772867302259924500,5.811924560546875,-0.005134308245033026,0.014049239456653595,0.0013145363191142678
1772867302269990400,5.821990478515625,-0.0029201561119407415,0.012850284576416016,0.00045833003241568804
1772867302280056300,5.832056396484375,-0.003968908917158842,0.012630041688680649,-0.00065460498444736
1772867302290122200,5.842122314453125,-0.003191798459738493,0.012823387049138546,0.0033989925868809223
1772867302300188400,5.8521884765625,-0.005720203742384911,0.012521917000412941,0.0009677927591837943
1772867302310254300,5.86225439453125,-0.0036724992096424103,0.013788782991468906,0.0011001517996191978
1772867302320320300,5.8723203125,-0.0057412427850067616,0.011057444848120213,-0.00005805691034765914
1772867302330386400,5.882386474609375,-0.003230947069823742,0.011531753465533257,0.0016588830621913075
1772867302340452400,5.892452392578125,-0.0028445222415030003,0.013173592276871204,-0.0014090784825384617
1772867302350517200,5.902517333984375,-0.0030474551022052765,0.010296579450368881,0.003620567498728633
1772867302360583400,5.91258349609375,-0.0030866037122905254,0.0101964445784688,-0.000060453756304923445
1772867302370649300,5.9226494140625,-0.0038402783684432507,0.011390073224902153,0.00079735042527318
1772867302380715300,5.93271533203125,-0.003096190979704261,0.012582903727889061,-0.00044128578156232834
1772867302390781400,5.942781494140625,-0.004311923868954182,0.015351259149610996,0.0007805725326761603
1772867302400847400,5.952847412109375,-0.003373159794136882,0.012438826262950897,0.0002388855500612408
1772867302410913300,5.962913330078125,-0.004773450084030628,0.011314173229038715,-0.00005965480886516161
1772867302420979200,5.972979248046875,-0.004289287142455578,0.015198926441371441,0.0018636800814419985
1772867302431045400,5.98304541015625,-0.00375958438962698,0.010331466794013977,0.004815261345356703
1772867302441111300,5.993111328125,-0.006335660349577665,0.011148524470627308,-0.0001840244367485866
1772867302451177500,6.003177490234375,-0.00538304727524519,0.014211426489055157,0.0003217098710592836
1772867302461243400,6.013243408203125,-0.003994741477072239,0.013161608017981052,-0.0010157296201214194
1772867302471309300,6.023309326171875,-0.004546548705548048,0.013759754598140717,0.0014183996245265007
1772867302481375500,6.03337548828125,-0.0034384073223918676,0.011748534627258778,0.002469815546646714
1772867302491441200,6.043441162109375,-0.0037204360123723745,0.013876400887966156,0.0014974954538047314
1772867302501506300,6.05350634765625,-0.001446362817659974,0.009604690596461296,0.002124936319887638
1772867302511572500,6.063572509765625,-0.002011485630646348,0.013051087036728859,0.0025622271932661533
1772867302521638400,6.073638427734375,-0.004229632206261158,0.012338957749307156,-0.0015725966077297926
1772867302531704300,6.083704345703125,-0.004199006129056215,0.013287575915455818,0.0012245214311406016
1772867302541770500,6.0937705078125,-0.005054679699242115,0.013921407982707024,0.001279116258956492
1772867302551836200,6.103836181640625,-0.004226969089359045,0.011678227223455906,0.0014000238152220845
1772867302561902300,6.11390234375,-0.002718821167945862,0.014357633888721466,0.002255697501823306
1772867302571968300,6.12396826171875,-0.004013916477560997,0.013933658599853516,0.0023704797495156527
1772867302582034400,6.134034423828125,-0.00018242653459310532,0.014156298711895943,-0.0022559636272490025
1772867302592100400,6.144100341796875,-0.0038123151753097773,0.014074539765715599,-0.00017949705943465233
1772867302602166500,6.15416650390625,-0.002960103563964367,0.014516624622046947,-0.002133724745362997
1772867302612232400,6.164232421875,-0.004122839774936438,0.010325607843697071,0.0029499835800379515
1772867302622298400,6.17429833984375,-0.0034471957478672266,0.015350726433098316,-0.00008202536264434457
1772867302632364300,6.1843642578125,-0.0032381375785917044,0.0128172617405653,-0.0003462109307292849
1772867302642430200,6.19443017578125,-0.004116714466363192,0.014184528030455112,-0.001377919572405517
1772867302652495400,6.204495361328125,-0.005103149451315403,0.010987670160830021,0.002484196564182639
1772867302662561500,6.2145615234375,-0.00520647969096899,0.013246563263237476,0.0037494644057005644
1772867302672627500,6.22462744140625,-0.0029465213883668184,0.014555240049958229,0.00230789533816278
1772867302682693000,6.234693115234375,-0.003861050819978118,0.010807639919221401,0.0018218684708699584
1772867302692759300,6.24475927734375,-0.0039145806804299355,0.014067881740629673,0.004794755019247532
1772867302702825200,6.2548251953125,-0.004748682491481304,0.013222328387200832,-0.00013315805699676275
1772867302712891400,6.264891357421875,-0.004224039614200592,0.011109376326203346,0.0006458165589720011
1772867302722957300,6.274957275390625,-0.003573962254449725,0.013643108308315277,0.00021891183860134333
1772867302733023500,6.2850234375,-0.0054757255129516125,0.011441739276051521,0.0012181298807263374
1772867302743089400,6.29508935546875,-0.004613127559423447,0.012266785837709904,0.0012144014472141862
1772867302753155300,6.3051552734375,-0.0030860709957778454,0.012958941981196404,-0.001118793967179954
1772867302763221200,6.31522119140625,-0.004298075567930937,0.010568754747509956,0.0026082999538630247
1772867302773287400,6.325287353515625,-0.004817392211407423,0.013685718178749084,-0.00048176583368331194
1772867302783353300,6.335353271484375,-0.0029081718530505896,0.011374627240002155,-0.0007693872321397066
1772867302793419300,6.345419189453125,-0.0029113676864653826,0.014654044061899185,-0.0015339808305725455
1772867302803485400,6.3554853515625,-0.004147606901824474,0.012348012998700142,0.001285241567529738
1772867302813550300,6.36555029296875,-0.004231763072311878,0.013373062945902348,0.00018029600323643535
1772867302823616300,6.3756162109375,-0.002773415995761752,0.012142150662839413,0.005846703890711069
1772867302833682200,6.38568212890625,-0.0033044503070414066,0.013069995678961277,0.000966727442573756
1772867302843748400,6.395748291015625,-0.00481286458671093,0.012998889200389385,0.0006748450105078518
1772867302853814300,6.405814208984375,-0.003949734382331371,0.010806309059262276,-0.0024591628462076187
1772867302863880400,6.41588037109375,-0.003997670952230692,0.010805509984493256,0.0009145294898189604
1772867302873946400,6.4259462890625,-0.0043745082803070545,0.014372281730175018,-0.000050333743274677545
1772867302884012300,6.43601220703125,-0.004716724622994661,0.012268916703760624,-0.0003787015157286078
1772867302894078200,6.446078125,-0.0036706349346786737,0.011264905333518982,-0.0007368966471403837
1772867302904144400,6.456144287109375,-0.0044144559651613235,0.012838300317525864,0.0041159153915941715
1772867302914210300,6.466210205078125,-0.005089034326374531,0.011218033730983734,0.002376871183514595
1772867302924276200,6.476276123046875,-0.005513009615242481,0.013734987005591393,0.0008727178792469203
1772867302934342400,6.48634228515625,-0.004174771253019571,0.011242002248764038,0.0022357236593961716
1772867302944408300,6.496408203125,-0.004009921569377184,0.012104866094887257,0.00036192359402775764
1772867302954474500,6.506474609375,-0.004747084807604551,0.012537629343569279,-0.0005187837523408234
1772867302964540200,6.5165400390625,-0.003296194365248084,0.012202071025967598,0.003507116809487343
1772867302974606300,6.5266064453125,-0.005806223955005407,0.01398798730224371,-0.001359277404844761
1772867302984672300,6.53667236328125,-0.005720470100641251,0.013670538552105427,-0.00037523938226513565
1772867302994737400,6.5467373046875,-0.0007030745036900043,0.012835637666285038,-0.0026048377621918917
1772867303004803300,6.55680322265625,-0.003239735495299101,0.015194132924079895,0.0005739112384617329
1772867303014869500,6.566869384765625,-0.003114300547167659,0.012685168534517288,-0.0011590076610445976
1772867303024935200,6.57693505859375,-0.0037739656399935484,0.013889184221625328,0.003151318524032831
1772867303035001300,6.58700146484375,-0.004029096569865942,0.01302285771816969,0.0036370791494846344
1772867303045067300,6.5970673828125,-0.003698598127812147,0.011195396073162556,0.0021939121652394533
1772867303055133400,6.607133544921875,-0.0059716058894991875,0.014008493162691593,-0.001324123702943325
1772867303065199400,6.617199462890625,-0.0024794030468910933,0.011113104410469532,-0.00014913702034391463
1772867303075265300,6.627265380859375,-0.0035337484441697598,0.014366689138114452,-0.0017113472567871213
1772867303085331500,6.63733154296875,-0.0026296053547412157,0.01158581580966711,-0.0009542105835862458
1772867303095397000,6.647397216796875,-0.004538026638329029,0.01134187076240778,0.0030828751623630524
1772867303105463300,6.65746337890625,-0.003236006945371628,0.013029249384999275,0.0015398397808894515
1772867303115529200,6.667529296875,-0.004168912302702665,0.010087788105010986,0.000707868195604533
1772867303125595400,6.677595458984375,-0.005351888481527567,0.013164537958800793,0.001270061475224793
1772867303135661300,6.687661376953125,-0.003381948219612241,0.0135656101629138,0.00010572749306447804
1772867303145727500,6.6977275390625,-0.00387356779538095,0.012978382408618927,0.0022655511274933815
1772867303155793400,6.70779345703125,-0.003632818115875125,0.010942928493022919,0.0028336034156382084
1772867303165859300,6.717859375,-0.0029553098138421774,0.010794324800372124,0.0008490157779306173
1772867303175925200,6.72792529296875,-0.004341484978795052,0.011126154102385044,0.00039015308720991015
1772867303185990400,6.737990478515625,-0.0030980552546679974,0.01067847665399313,-0.0012942962348461151
1772867303196056300,6.748056396484375,-0.0024200144689530134,0.011516041122376919,0.00011291803093627095
1772867303206122500,6.75812255859375,-0.0036525253672152758,0.01255041267722845,0.0034085798542946577
1772867303216188400,6.7681884765625,-0.005181446205824614,0.011445733718574047,0.0016857809387147427
1772867303226254300,6.77825439453125,-0.005634183529764414,0.012615393847227097,0.0006143912323750556
1772867303236320300,6.7883203125,-0.006962035782635212,0.010779410600662231,0.001576857641339302
1772867303246387000,6.798386962890625,-0.003856523660942912,0.011477425694465637,0.0017259946325793862
1772867303256453000,6.808453125,-0.0025270734913647175,0.013950969092547894,-0.0013246563030406833
1772867303266519000,6.81851904296875,-0.0032232238445430994,0.010951451025903225,-0.0020809939596801996
1772867303276585200,6.828585205078125,-0.0032860743813216686,0.010818825103342533,-0.0001627191377338022
1772867303286651100,6.838651123046875,-0.005132976453751326,0.009890447370707989,0.00043755737715400755
1772867303296717000,6.848717041015625,-0.0029643645975738764,0.012829778715968132,0.0009941579774022102
1772867303306783200,6.858783203125,-0.004249872639775276,0.013337642885744572,-0.001133441342972219
1772867303316849000,6.868848876953125,-0.0028644960839301348,0.012311527505517006,0.002353968098759651
1772867303326915000,6.8789150390625,-0.0026487798895686865,0.012939500622451305,-0.00030599720776081085
1772867303336981000,6.88898095703125,-0.0034112429711967707,0.0141139542683959,-0.0010567422723397613
1772867303347047200,6.899047119140625,-0.004992361646145582,0.010071808472275734,0.00016698020044714212
1772867303357113000,6.909113037109375,-0.004746818449348211,0.01227371022105217,-0.00044607947347685695
1772867303367179300,6.91917919921875,-0.005459746345877647,0.0111607750877738,-0.0002926813904196024
1772867303377245200,6.9292451171875,-0.002710032742470503,0.011884888634085655,0.0014772554859519005
1772867303387310000,6.93931005859375,-0.003337739733979106,0.012988769449293613,-0.0006420881254598498
1772867303397376000,6.9493759765625,-0.002385925967246294,0.014009824953973293,0.0008711199625395238
1772867303407442200,6.959442138671875,-0.004139351192861795,0.012938435189425945,0.00006338323146337643
1772867303417508000,6.969508056640625,-0.0028839372098445892,0.010972223244607449,0.0010106696281582117
1772867303427574300,6.97957421875,-0.006853112485259771,0.013540842570364475,-0.00009028115891851485
1772867303437640200,6.98964013671875,-0.0007970841252245009,0.013844708912074566,-0.0002085255109705031
1772867303447706000,6.9997060546875,-0.004579305648803711,0.009945841506123543,-0.0008857673965394497
1772867303457772000,7.00977197265625,-0.0029148298781365156,0.012231898494064808,0.0018945727497339249
1772867303467838000,7.019837890625,-0.0039039277471601963,0.015045261941850185,0.003323625074699521
1772867303477904100,7.029904052734375,-0.0028016455471515656,0.015304653905332088,0.0007214503129944205
1772867303487970000,7.039969970703125,-0.0032557144295424223,0.01070777140557766,0.0013499563792720437
1772867303498036200,7.0500361328125,-0.005988384131342173,0.011377290822565556,-0.0022413162514567375
1772867303508102100,7.06010205078125,-0.004142280668020248,0.012731241062283516,0.00032863407977856696
1772867303518168000,7.07016796875,-0.006066414527595043,0.011678493581712246,0.001517202821560204
1772867303528234000,7.08023388671875,-0.004441886208951473,0.012521917000412941,0.000251402409048751
1772867303538300200,7.090300048828125,-0.001406947965733707,0.014843660406768322,0.0012000204296782613
1772867303548366000,7.100365966796875,-0.003941744565963745,0.012602077797055244,0.0018279937794432044
1772867303558432000,7.110431884765625,-0.0035577169619500637,0.01347639411687851,0.0024437166284769773
1772867303568498200,7.120498291015625,-0.004652009811252356,0.015364575199782848,0.00148125016130507
1772867303578564000,7.130564208984375,-0.0037444045301526785,0.010296579450368881,0.000943025341257453
1772867303588630300,7.14063037109375,-0.002436259761452675,0.013798103667795658,0.0013278521364554763
1772867303598695000,7.15069482421875,-0.004805940669029951,0.0126982182264328,-0.002058357233181596
1772867303608761000,7.160760986328125,-0.002001631772145629,0.011892345733940601,0.0009659285424277186
1772867303618827000,7.170826904296875,-0.005398493725806475,0.012538961134850979,-0.0012650014832615852
1772867303628893200,7.18089306640625,-0.004441619850695133,0.012765063904225826,-0.0012897689593955874
1772867303638959000,7.190958984375,-0.004415520932525396,0.015351791866123676,-0.0010697918478399515
1772867303649025300,7.201025390625,-0.004594219382852316,0.01176158431917429,0.0009803095599636436
1772867303659091000,7.211091064453125,-0.004485828336328268,0.011689413338899612,-0.0026082999538630247
1772867303669157000,7.2211572265625,-0.004246144089847803,0.013977068476378918,0.0014860439114272594
1772867303679223000,7.23122314453125,-0.004582235123962164,0.014159761369228363,0.0013291836949065328
1772867303689289200,7.241289306640625,-0.005608617328107357,0.011804461479187012,0.0006388923502527177
1772867303699355100,7.251355224609375,-0.006812898442149162,0.010998056270182133,0.0015049523208290339
1772867303709421000,7.261421142578125,-0.0046823699958622456,0.012456136755645275,0.000544350128620863
1772867303719487200,7.2714873046875,-0.0026493126060813665,0.01076609455049038,0.001975000137463212
1772867303729553000,7.281552978515625,-0.004238154739141464,0.010105098597705364,-0.0004791026876773685
1772867303739619000,7.291619140625,-0.005259742960333824,0.012722985818982124,0.0025885924696922302
1772867303749685000,7.30168505859375,-0.005893309134989977,0.01008113007992506,0.0021912488155066967
1772867303759751200,7.311751220703125,-0.004847751930356026,0.013048424385488033,-0.0011044129496440291
1772867303769817000,7.321817138671875,-0.0029406624380499125,0.013393569737672806,0.0013110742438584566
1772867303779883300,7.33188330078125,-0.007129814941436052,0.012718192301690578,-0.0014889733865857124
1772867303789949200,7.34194921875,-0.0043798345141112804,0.012555472552776337,0.0009190568816848099
1772867303800014800,7.352014892578125,-0.0040823593735694885,0.011989285238087177,0.00015765913121867925
1772867303810081000,7.3620810546875,-0.00612313998863101,0.014855378307402134,0.00023755396250635386
1772867303820147000,7.37214697265625,0.00027803401462733746,0.012664929032325745,-0.00046845004544593394
1772867303830213000,7.382213134765625,-0.0028791434597223997,0.010934406891465187,0.0020879183430224657
1772867303840278300,7.3922783203125,-0.003745736088603735,0.011297661811113358,-0.0007041397620923817
1772867303850344200,7.40234423828125,-0.0017531589837744832,0.013085175305604935,-0.00039254993316717446
1772867303860409900,7.412409912109375,-0.002749713836237788,0.01501277182251215,0.0005962817813269794
1772867303870476000,7.42247607421875,-0.004332430195063353,0.012686233967542648,0.003334810258820653
1772867303880542000,7.4325419921875,-0.0043862261809408665,0.0115586519241333,0.00037683729897253215
1772867303890608000,7.442608154296875,-0.004385161213576794,0.012663863599300385,0.0023638217244297266
1772867303900674000,7.452674072265625,-0.004448277875781059,0.009043295867741108,0.0006671218434348702
1772867303910740200,7.462740234375,-0.003819771809503436,0.013576262630522251,0.00014168016787152737
1772867303920806100,7.47280615234375,-0.0033188313245773315,0.01133973989635706,0.0009901633020490408
1772867303930872300,7.482872314453125,-0.00421418622136116,0.012405004352331161,0.0008229167433455586
1772867303940938000,7.49293798828125,-0.0030415961518883705,0.011246795766055584,-0.0016234630020335317
1772867303951004000,7.50300390625,-0.004788097459822893,0.011464908719062805,0.0009795106016099453
1772867303961070000,7.513070068359375,-0.0022152173332870007,0.012042547576129436,-0.0002324939559912309
1772867303971136000,7.523135986328125,-0.0029885992407798767,0.013280917890369892,-0.00010572749306447804
1772867303981202200,7.5332021484375,-0.0043683829717338085,0.010881676338613033,-0.00016964336100500077
1772867303991268000,7.54326806640625,-0.0034320156555622816,0.012375443242490292,0.0030312100425362587
1772867304001334300,7.553334228515625,-0.005995574407279491,0.01209847442805767,0.00033902039285749197
1772867304011400000,7.56339990234375,-0.0008109325426630676,0.012462794780731201,-0.0011297129094600677
1772867304021466000,7.573466064453125,-0.004599811974912882,0.01101510040462017,0.0017230651574209332
1772867304031532000,7.583531982421875,-0.004010987002402544,0.011663047596812248,0.0009049421059899032
1772867304041598200,7.59359814453125,-0.0044139232486486435,0.014122743159532547,0.0005185174522921443
1772867304051664100,7.6036640625,-0.0044077979400753975,0.009159675799310207,-0.0007177218794822693
1772867304061730000,7.61372998046875,-0.0033396040089428425,0.012703011743724346,-0.0014735270524397492
1772867304071796200,7.623796142578125,-0.002453836612403393,0.011546134948730469,-0.0004780374001711607
1772867304081862000,7.63386181640625,-0.0020634171087294817,0.010869692079722881,0.004454136826097965
1772867304091928000,7.643927978515625,-0.002079928759485483,0.013259879313409328,0.0010309095960110426
1772867304101994000,7.653993896484375,-0.003207244910299778,0.00996288564056158,0.0012144014472141862
1772867304112059100,7.66405908203125,-0.0038312235847115517,0.013119264505803585,0.00009614011651137844
1772867304122125000,7.674125,-0.002703907433897257,0.012858807109296322,0.000547279603779316
1772867304132191200,7.684191162109375,-0.003084206720814109,0.010134659707546234,0.001216531964018941
1772867304142257000,7.6942568359375,-0.0010436928132548928,0.01116263959556818,0.0006511429091915488
1772867304152323000,7.704322998046875,-0.0017816547770053148,0.012517123483121395,0.0017153420485556126
1772867304162389000,7.714388916015625,-0.004483964294195175,0.013277722522616386,0.0024772724136710167
1772867304172455200,7.724455078125,-0.002843723399564624,0.014393320307135582,0.0011012171162292361
1772867304182521000,7.73452099609375,-0.0041401502676308155,0.01318318024277687,0.0035033884923905134
1772867304192587300,7.744587158203125,-0.0028597023338079453,0.013914217241108418,-0.001109739183448255
1772867304202653200,7.754653076171875,-0.0034011229872703552,0.011172226630151272,0.0028993834275752306
1772867304212719000,7.764718994140625,-0.0017156084068119526,0.01182230468839407,0.0020607539918273687
1772867304222785000,7.774784912109375,-0.005661614239215851,0.013681723736226559,-0.001395230065099895
1772867304232851000,7.784850830078125,-0.0018671422731131315,0.010203901678323746,-0.0006282397080212831
1772867304242917000,7.794917236328125,-0.003022687742486596,0.012909673154354095,0.0014940333785489202
1772867304252982500,7.804982421875,-0.0027057717088609934,0.015149657614529133,-0.0018013621447607875
1772867304263048700,7.815048583984375,-0.003174221608787775,0.012500612065196037,0.001088700257241726
1772867304273114600,7.825114501953125,-0.0032983249984681606,0.011262774467468262,0.003719104453921318
1772867304283180800,7.835180908203125,-0.002260491019114852,0.011897405609488487,0.0012170645641162992
1772867304293246700,7.845246826171875,-0.003961185924708843,0.011942679062485695,0.0005587312043644488
1772867304303313000,7.85531298828125,-0.00466559175401926,0.012043080292642117,-0.0014061490073800087
1772867304313378800,7.86537890625,-0.0007534082396887243,0.01276000402867794,0.005222458858042955
1772867304323444500,7.875444580078125,-0.00253426400013268,0.012387960217893124,0.0011707255616784096
1772867304333510700,7.8855107421875,-0.005135107319802046,0.012811136431992054,0.0014269216917455196
1772867304343576600,7.89557666015625,-0.004393949639052153,0.013081713579595089,-0.00012916330888401717
1772867304353642800,7.905642822265625,-0.0024927188642323017,0.010218283161520958,0.0016990967560559511
1772867304363708700,7.915708740234375,-0.003210174385458231,0.01218875590711832,-0.0009502158500254154
1772867304373774800,7.92577490234375,-0.004232295788824558,0.010881942696869373,-0.00013901700731366873
1772867304383840800,7.9358408203125,-0.00469568558037281,0.011454521678388119,0.001654622028581798
1772867304393907000,7.945906982421875,-0.004366252571344376,0.01320821326225996,0.0008072041091509163
1772867304403972600,7.95597265625,-0.004231230355799198,0.010123740881681442,-0.000690291344653815
1772867304414037800,7.966037841796875,-0.0033830134198069572,0.010835603810846806,0.00010945591930067167
1772867304424103700,7.976103759765625,-0.004257595632225275,0.01221831701695919,0.0011805793037638068
1772867304434169900,7.986169921875,-0.003424292430281639,0.010687531903386116,0.002987001556903124
1772867304444235800,7.99623583984375,-0.0029854036401957273,0.012260128743946552,0.0026346652302891016
1772867304454302000,8.006302001953125,-0.0005142564186826348,0.013941914774477482,0.0003150519623886794
1772867304464367600,8.01636767578125,-0.0033364081755280495,0.01142922230064869,0.0011885687708854675
1772867304474433500,8.02643359375,-0.004575577098876238,0.01258024014532566,-0.0018522285390645266
1772867304484499700,8.036499755859374,-0.002659965306520462,0.011517106555402279,0.001877262257039547
1772867304494565600,8.046565673828125,-0.004806206561625004,0.011903530918061733,0.0008761800127103925
1772867304504631800,8.0566318359375,-0.0029529130551964045,0.011945609003305435,0.0024027039762586355
1772867304514697700,8.06669775390625,-0.003221892286092043,0.0115573201328516,0.00009640643111197278
1772867304524764000,8.076763916015626,-0.002494050422683358,0.011981295421719551,0.00005858954318682663
1772867304534829600,8.08682958984375,-0.003965713083744049,0.013787983916699886,0.0007723167072981596
1772867304544895700,8.096895751953125,-0.004297542851418257,0.011740545742213726,0.005438175052404404
1772867304554961700,8.106961669921875,-0.00344479875639081,0.010409231297671795,0.0009534116834402084
1772867304565027800,8.11702783203125,-0.0031561122741550207,0.010337592102587223,0.00019734023953787982
1772867304575093800,8.12709375,-0.005163869354873896,0.01242311391979456,-0.00038242992013692856
1772867304585159700,8.13715966796875,-0.0031875374261289835,0.01218875590711832,-0.00017204020696226507
1772867304595225900,8.147225830078124,-0.004400340840220451,0.010189520195126534,0.001107076066546142
1772867304605291500,8.15729150390625,-0.005766808986663818,0.01326973270624876,0.0013305152533575892
1772867304615357700,8.167357666015626,-0.002822950715199113,0.012053467333316803,0.00015180018090177327
1772867304625423600,8.177423583984375,-0.004775846842676401,0.011350658722221851,0.0013145363191142678
1772867304635489800,8.18748974609375,-0.004532434046268463,0.010482468642294407,0.0013102752855047584
1772867304645555700,8.1975556640625,-0.004525776021182537,0.012446017004549503,-0.001514806062914431
1772867304655622000,8.207621826171875,-0.0027382622938603163,0.010744789615273476,0.0010583401890471578
1772867304665687800,8.217687744140624,-0.002487126039341092,0.011342668905854225,0.00006418218254111707
1772867304675753700,8.227753662109375,-0.003834951901808381,0.012476110830903053,-0.0006900250446051359
1772867304685819600,8.237819580078124,-0.0002620550512801856,0.010906975716352463,-0.0008290420519188046
1772867304695885600,8.247885498046875,-0.0018319884547963738,0.010579673573374748,0.003623230615630746
1772867304705951700,8.25795166015625,-0.0019739349372684956,0.014346715062856674,0.000028495824153651483
1772867304716017700,8.268017578125,-0.0019896477460861206,0.013454556465148926,-0.001237571006640792
1772867304726083800,8.278083740234376,-0.005747634451836348,0.011668906547129154,0.00205223192460835
1772867304736149800,8.288149658203125,-0.002953711897134781,0.011062504723668098,0.005711681675165892
1772867304746216000,8.2982158203125,-0.0031521173659712076,0.011847072280943394,0.0012570120161399245
1772867304756281600,8.308281494140624,-0.003230414353311062,0.01255094539374113,0.0011827098205685616
1772867304766347500,8.318347412109375,-0.001912948559038341,0.010481669567525387,-0.0008873652550391853
1772867304776413700,8.32841357421875,-0.0046362970024347305,0.013069729320704937,-0.0011020160745829344
1772867304786478800,8.338478759765625,-0.006872553378343582,0.01059085875749588,0.002743322169408202
1772867304796544800,8.348544677734376,-0.004746552091091871,0.011758655309677124,-0.00032650353386998177
1772867304806611000,8.35861083984375,-0.003859453136101365,0.01347506232559681,0.0001715075777610764
1772867304816676600,8.368676513671875,-0.006375074852257967,0.009808155708014965,-0.0008735168376006186
1772867304826742500,8.378742431640624,-0.003802461316809058,0.013845507986843586,-0.002519616624340415
1772867304836808700,8.38880859375,-0.0033633061684668064,0.01215972751379013,-0.0012484899489209056
1772867304846874600,8.39887451171875,-0.0028551749419420958,0.011447598226368427,0.0010511496802791953
1772867304856940800,8.40894091796875,-0.003635747591033578,0.012223909609019756,-0.0003249056462664157
1772867304867006700,8.4190068359375,-0.0029728866647928953,0.012324310839176178,-0.0004655205411836505
1772867304877073000,8.429072998046875,-0.004526308737695217,0.010819357819855213,-0.003328951308503747
1772867304887138600,8.439138671875,-0.0029230855870991945,0.012487296015024185,0.0013345100451260805
1772867304897204700,8.449204833984375,-0.001671666163019836,0.00965582299977541,-0.0025180187076330185
1772867304907270700,8.459270751953126,-0.004793157335370779,0.011677960865199566,0.0004884237423539162
1772867304917336600,8.469336669921875,-0.004029895178973675,0.012144280597567558,0.0002103897277265787
1772867304927402800,8.47940283203125,-0.004736698232591152,0.01248276885598898,-0.0026735474821180105
1772867304937468700,8.48946875,-0.003635747591033578,0.012458800338208675,-0.0014375743921846151
1772867304947534800,8.499534912109375,-0.004659200087189674,0.010261958464980125,-0.0007262440049089491
1772867304957600800,8.509600830078124,-0.0026642263401299715,0.014240188524127007,-0.004477039910852909
1772867304967666700,8.519666748046875,-0.004244279582053423,0.01299436204135418,-0.0003177151083946228
1772867304977732600,8.529732666015626,-0.002776611829176545,0.01167529821395874,0.0003145193331874907
1772867304987798800,8.539798828125,-0.007348194252699614,0.01131151057779789,0.0017443705582991242
1772867304997864700,8.54986474609375,-0.0031228226143866777,0.00968698225915432,-0.00010892329009948298
1772867305007931000,8.559930908203125,-0.003317499766126275,0.01275867223739624,0.0002990729990415275
1772867305017996800,8.569996826171876,-0.005314338020980358,0.012004198506474495,0.0011523497523739934
1772867305028062700,8.580062744140625,-0.005126585252583027,0.014423147775232792,-0.0002825613773893565
1772867305038128600,8.590128662109375,-0.004269579891115427,0.012595952488481998,0.0009741843095980585
1772867305048194600,8.600194580078124,-0.0028069717809557915,0.011081679724156857,-0.00032623723382130265
1772867305058260700,8.6102607421875,-0.0028764803428202868,0.012383964844048023,-0.00032863407977856696
1772867305068326700,8.62032666015625,-0.0054909056052565575,0.012092349119484425,0.0008024104172363877
1772867305078393600,8.6303935546875,-0.003049319377169013,0.011500861495733261,0.002043443499132991
1772867305088459800,8.640459716796874,-0.0038575888611376286,0.011226288974285126,0.0004876247840002179
1772867305098525700,8.650525634765625,-0.0012447615154087543,0.010969294235110283,-0.002150768879801035
1772867305108591900,8.660591796875,-0.003721501212567091,0.011235876940190792,-0.0006428870838135481
1772867305118656500,8.670656494140625,-0.005242166109383106,0.011796205304563046,-0.0011515507940202951
1772867305128722700,8.68072265625,-0.0037534593138843775,0.010512827895581722,0.00020000340009573847
1772867305138788600,8.69078857421875,-0.003114566905423999,0.012442022562026978,0.001315068919211626
1772867305148854800,8.700854736328125,-0.004231763072311878,0.01407746970653534,0.0017387778498232365
1772867305158920700,8.710920654296874,-0.006462692748755217,0.012237757444381714,-0.0009369000908918679
1772867305168987000,8.72098681640625,-0.0027744811959564686,0.012769058346748352,0.0026085663121193647
1772867305179052800,8.731052734375,-0.00395719101652503,0.011866779066622257,-0.00025033715064637363
1772867305189118700,8.74111865234375,-0.004290086217224598,0.012489426881074905,-0.0014077469240874052
1772867305199184600,8.7511845703125,-0.004167846869677305,0.014140586368739605,-0.0007060039788484573
1772867305209250800,8.761250732421875,-0.004567853640764952,0.012456403113901615,0.002242914168164134
1772867305219316700,8.771316650390625,-0.005709284916520119,0.01341434195637703,0.0011310444679111242
1772867305229382700,8.781382568359374,-0.005225654691457748,0.013746438547968864,0.000015712650565546937
1772867305239448800,8.79144873046875,-0.003950000274926424,0.014847922138869762,-0.0000125168571685208
1772867305249514800,8.8015146484375,-0.003849599277600646,0.011129883117973804,-0.0018692727899178863
1772867305259580700,8.81158056640625,-0.00421338714659214,0.013227654621005058,0.0003014698449987918
1772867305269646600,8.821646484375,-0.004224305972456932,0.011275824159383774,-0.0017587515758350492
1772867305279712800,8.831712646484375,-0.0034144388046115637,0.013934457674622536,-0.00033396040089428425
1772867305289778700,8.84177880859375,-0.004358529578894377,0.012413525953888893,0.0018572885310277343
1772867305299844900,8.851844970703125,-0.0029702235478907824,0.012493954040110111,0.002065015025436878
1772867305309910800,8.861910888671876,-0.003979561384767294,0.012996758334338665,-0.0003701793903019279
1772867305319976700,8.871976806640625,-0.005380117800086737,0.014280402101576328,0.002398176584392786
1772867305330042600,8.882042724609375,-0.002784601179882884,0.010517888702452183,-0.00038748994120396674
1772867305340108500,8.892108642578124,-0.005608883686363697,0.013436979614198208,0.0014514228096231818
1772867305350174700,8.9021748046875,-0.0033830134198069572,0.010926417075097561,0.0009566074586473405
1772867305360240600,8.91224072265625,-0.0019467707024887204,0.014195181429386139,-0.00010812433902174234
1772867305370306800,8.922306884765625,-0.0032599754631519318,0.01116130780428648,0.00001651159800530877
1772867305380372700,8.932372802734376,-0.0027593011036515236,0.010335994884371758,0.0029912625905126333
1772867305390439000,8.94243896484375,-0.003739877138286829,0.011535216122865677,0.001975532853975892
1772867305400504800,8.9525048828125,-0.0038256309926509857,0.01420263759791851,-0.00032384038786403835
1772867305410570500,8.962570556640625,-0.002924150787293911,0.011178085580468178,0.0025515747256577015
1772867305420636700,8.97263671875,-0.0009305084822699428,0.013059343211352825,-0.001583249308168888
1772867305430702600,8.98270263671875,-0.006620618514716625,0.013252688571810722,0.0024921861477196217
1772867305440768800,8.992768798828125,-0.0028855351265519857,0.013525130227208138,0.002004561247304082
1772867305450834700,9.002834716796874,-0.005723133217543364,0.012412994168698788,0.0014330470003187656
1772867305460900900,9.01290087890625,-0.005196892656385899,0.011969311162829399,0.0003070624661631882
1772867305470966800,9.022966796875,-0.005408081226050854,0.01158395130187273,0.0006522081675939262
1772867305481032700,9.03303271484375,-0.003120692213997245,0.012439092621207237,0.00036671728594228625
1772867305491098600,9.0430986328125,-0.003156644757837057,0.013323528692126274,0.003525492735207081
1772867305501164800,9.053164794921875,-0.00586534570902586,0.01059405505657196,-0.0003153182624373585
1772867305511230700,9.063230712890626,-0.005130313336849213,0.012559201568365097,0.003352387109771371
1772867305521296600,9.073296630859375,-0.006625145673751831,0.015051653608679771,0.002398442942649126
1772867305531362800,9.08336279296875,-0.005556419026106596,0.010237723588943481,0.0000958738019107841
1772867305541428700,9.0934287109375,-0.0000900148443179205,0.014404771849513054,0.00026312030968256295
1772867305551494700,9.10349462890625,-0.00569889834150672,0.01230646762996912,0.0005632585380226374
1772867305561560600,9.113560546875,-0.005449626594781876,0.012682772241532803,0.00018109494703821838
1772867305571626800,9.123626708984375,-0.005634716246277094,0.013843377120792866,0.0019923108629882336
1772867305581692700,9.133692626953126,-0.004287423100322485,0.010385262779891491,-0.00010279801790602505
1772867305591758800,9.1437587890625,-0.004589691758155823,0.013556022197008133,0.0010045443195849657
1772867305601824800,9.15382470703125,-0.004079962614923716,0.010155964642763138,0.0015720640076324344
1772867305611890700,9.163890625,-0.0021869877818971872,0.011916047893464565,0.0035811527632176876
1772867305621956900,9.173956787109375,-0.00574869941920042,0.013481187634170055,0.0004767058417201042
1772867305632022500,9.1840224609375,-0.0036448021419346333,0.00977246928960085,0.0032690302468836308
1772867305642087700,9.194087646484375,-0.0027204190846532583,0.013458817265927792,0.0009350358741357923
1772867305652153900,9.20415380859375,-0.0049220542423427105,0.012028433382511139,-0.0009438242996111512
1772867305662219800,9.2142197265625,-0.004514324478805065,0.014051370322704315,0.0024429175537079573
1772867305672285700,9.22428564453125,-0.004335360135883093,0.012311261147260666,0.0010418286547064781
1772867305682351900,9.234351806640625,-0.0030024477746337652,0.013964018784463406,0.0029949909076094627
1772867305692417500,9.24441748046875,-0.006019010208547115,0.012587697245180607,0.0019244002178311348
1772867305702483700,9.254483642578125,-0.003929493948817253,0.010470750741660595,-0.0002884203568100929
1772867305712549600,9.264549560546875,-0.002927879337221384,0.012769591063261032,-0.000010652644050423987
1772867305722615800,9.27461572265625,-0.0026258768048137426,0.015302257612347603,-0.0005645901546813548
1772867305732681700,9.284681640625,-0.006590524688363075,0.011690744198858738,0.000020240024241502397
1772867305742748000,9.294747802734374,-0.0035356127191334963,0.012623383663594723,0.002858637133613229
1772867305752813800,9.304813720703125,-0.005191565956920385,0.011640943586826324,0.0018956380663439631
1772867305762879500,9.31487939453125,-0.0054794540628790855,0.012102202512323856,0.004002731293439865
1772867305772945700,9.324945556640625,-0.004039749037474394,0.01426548883318901,0.0009139968897216022
1772867305783011600,9.335011474609376,-0.0024559672456234694,0.012467321939766407,0.0013451626291498542
1772867305793077800,9.345077880859375,-0.0029965888243168592,0.012312060222029686,0.00016644757124595344
1772867305803143700,9.355143798828125,-0.004126567859202623,0.011779427528381348,0.00224930583499372
1772867305813209900,9.3652099609375,-0.0012277172645553946,0.013079316355288029,0.001201618229970336
1772867305823275800,9.37527587890625,-0.0043505397625267506,0.015147794038057327,0.0019776634871959686
1772867305833341700,9.385341796875,-0.0057196710258722305,0.01133787538856268,0.001169127761386335
1772867305843407600,9.39540771484375,-0.004856008104979992,0.013160277158021927,-0.0006442186422646046
1772867305853473500,9.4054736328125,-0.0034794199746102095,0.012794358655810356,0.0009123989730142057
1772867305863539700,9.415539794921875,-0.005078648217022419,0.01411422062665224,0.0014482269762083888
1772867305873605600,9.425605712890626,-0.0035185683518648148,0.014297446236014366,-0.0010663296561688185
1772867305883671800,9.435671875,-0.0007211840129457414,0.015510782599449158,-0.001514806062914431
1772867305893737700,9.44573779296875,-0.004905542824417353,0.013333914801478386,0.0008234494016505778
1772867305903804000,9.455803955078125,-0.008216917514801025,0.011625496670603752,-0.00007403588097076863
1772867305913869600,9.46586962890625,-0.004861600697040558,0.01119513064622879,-0.0005850964807905257
1772867305923935700,9.475935791015624,-0.002017610939219594,0.013654293492436409,0.004133225884288549
1772867305934001700,9.486001708984375,-0.002793655963614583,0.01341913640499115,-0.00027084347675554454
1772867305944067800,9.49606787109375,-0.001662877737544477,0.012233230285346508,-0.00004953479583491571
1772867305954133800,9.5061337890625,-0.0017291904659941792,0.011606056243181229,-0.0023094932548701763
1772867305964199700,9.51619970703125,-0.0049430932849645615,0.011950402520596981,0.0005755090969614685
1772867305974265900,9.526265869140625,-0.0032437301706522703,0.012054798193275928,0.0006972155533730984
1772867305984331500,9.53633154296875,-0.006542587652802467,0.012073706835508347,0.00040986048406921327
1772867305994397700,9.546397705078125,-0.004637628793716431,0.015213307924568653,-0.001961418194696307
1772867306004463600,9.556463623046875,-0.003946538548916578,0.012251872569322586,-0.0014327806420624256
1772867306014529800,9.56652978515625,-0.002228266792371869,0.012810070998966694,-0.001927862293086946
1772867306024595700,9.576595703125,-0.003799265483394265,0.011669172905385494,0.0003323625132907182
1772867306034662000,9.586661865234374,-0.004767857491970062,0.011979430913925171,-0.0004426173691172153
1772867306044727800,9.596727783203125,-0.0036879454273730516,0.012719256803393364,-0.002395513467490673
1772867306054792700,9.606792724609376,-0.0027957865968346596,0.012701679952442646,0.00010892329009948298
1772867306064859600,9.616859619140625,-0.0046666571870446205,0.012926184572279453,0.0009408948244526982
1772867306074924800,9.6269248046875,-0.004882373381406069,0.013168532401323318,0.0012218583142384887
1772867306084990700,9.63699072265625,-0.003852795111015439,0.01101430132985115,0.0024682176299393177
1772867306095057000,9.647056884765625,-0.002834402257576585,0.01188062783330679,0.0007475492893718183
1772867306105122800,9.657122802734374,-0.002763562137261033,0.012915265746414661,0.001966211711987853
1772867306115188500,9.6671884765625,-0.0011523497523739934,0.011110974475741386,-0.0012460930738598108
1772867306125254700,9.677254638671876,-0.005134574603289366,0.013933924958109856,0.00002450108149787411
1772867306135320600,9.687320556640625,-0.0027316042687743902,0.011175422929227352,-0.0012431635987013578
1772867306145386800,9.69738671875,-0.004387824330478907,0.013199158944189548,0.0024141555186361074
1772867306155452700,9.70745263671875,-0.003757720347493887,0.015282549895346165,0.0006117281154729426
1772867306165518800,9.717518798828126,-0.004716191906481981,0.012598083354532719,0.0013219931861385703
1772867306175584800,9.727584716796875,-0.003011236200109124,0.011187939904630184,-0.00012303804396651685
1772867306185651000,9.73765087890625,-0.0041673146188259125,0.012015650048851967,0.002073537092655897
1772867306195716600,9.747716552734374,-0.005862416233867407,0.014011955820024014,0.0020000338554382324
1772867306205782500,9.757782470703125,-0.007132744416594505,0.010156231001019478,0.0012053466634824872
1772867306215848700,9.7678486328125,-0.005293298978358507,0.011531220749020576,-0.0003605920064728707
1772867306225914600,9.77791455078125,-0.004284493625164032,0.015003450214862823,-0.0010367685463279486
1772867306235980800,9.787980712890626,-0.004800880327820778,0.011983958072960377,0.0003451456723269075
1772867306246048000,9.798048095703125,-0.006314354948699474,0.012749883346259594,0.0016266588354483247
1772867306256114000,9.808114013671876,-0.0029374666046351194,0.01483487244695425,-0.0006452839006669819
1772867306266180000,9.81818017578125,-0.004110589157789946,0.01164467167109251,0.000621848099399358
1772867306276246000,9.82824609375,-0.005933789070695639,0.012871590442955494,0.002546248259022832
1772867306286312200,9.838312255859375,-0.0031941954512149096,0.011579424142837524,0.000767523015383631
1772867306296377900,9.8483779296875,-0.004291151650249958,0.012052135542035103,0.0019941749051213264
1772867306306444000,9.858444091796875,-0.003209908027201891,0.012435897253453732,0.0010138654615730047
1772867306316510000,9.868510009765625,-0.0031190942972898483,0.010852914303541183,-0.0004703142330981791
1772867306326575900,9.878575927734374,-0.003979295492172241,0.01296213734894991,-0.0013171994360163808
1772867306336642000,9.88864208984375,-0.003518834710121155,0.012384231202304363,-0.0014112089993432164
1772867306346708000,9.8987080078125,-0.005679723806679249,0.01236479077488184,-0.000011984225238848012
1772867306356774100,9.908774169921875,-0.004191549029201269,0.013964018784463406,0.00028389296494424343
1772867306366840000,9.918840087890626,-0.0024381240364164114,0.011923504993319511,0.0025153555907309055
1772867306376906000,9.928906005859375,-0.004201402887701988,0.014038320630788803,0.0014618091518059373
1772867306386972000,9.938971923828126,-0.004772651009261608,0.01305348426103592,0.00008096009696600959
1772867306397038000,9.9490380859375,-0.004721251782029867,0.012326973490417004,0.000030360035452758893
1772867306407103000,9.95910302734375,-0.002552373567596078,0.012861469760537148,-0.0018359832465648651
1772867306417169200,9.969169189453124,-0.0046570696868002415,0.010523214936256409,0.000496945867780596
1772867306427234800,9.97923486328125,-0.005556419026106596,0.012107795104384422,0.000003462109361862531
1772867306437301000,9.989301025390626,-0.004266650415956974,0.011576228775084019,0.001005343277938664
1772867306447367000,9.999366943359375,-0.0054823835380375385,0.011806325986981392,0.0023068301379680634
1772867306457433000,10.00943310546875,-0.004680239129811525,0.015268168412148952,0.0015962987672537565
1772867306467499000,10.0194990234375,-0.004004595335572958,0.01509825885295868,0.002633333671838045
1772867306477565000,10.02956494140625,-0.004177700728178024,0.013254286721348763,0.00173771264962852
1772867306487631000,10.039631103515624,-0.0034296188969165087,0.014283065684139729,-0.0003153182624373585
1772867306497697000,10.049697021484375,-0.0008988168556243181,0.009795905090868473,-0.00047590688336640596
1772867306507763000,10.059762939453124,-0.004554271697998047,0.015005314722657204,0.0013875069562345743
1772867306517828900,10.069828857421875,-0.002085521351546049,0.011780492961406708,0.002674879040569067
1772867306527895000,10.07989501953125,-0.002758235903456807,0.014453774318099022,-0.003947070799767971
1772867306537961000,10.0899609375,-0.0046876962296664715,0.011724567040801048,0.0003067961661145091
1772867306548027100,10.100027099609376,-0.003151318524032831,0.013055614195764065,-0.001817607437260449
1772867306558093000,10.110093017578125,-0.0041734399273991585,0.015300659462809563,0.0036514601670205593
1772867306568159000,10.120158935546876,-0.005664010997861624,0.012560532428324223,0.0019856528379023075
1772867306578225000,10.130224853515625,-0.003910319413989782,0.013293967582285404,0.001838646363466978
1772867306588290800,10.140290771484375,-0.0027257453184574842,0.011723767966032028,0.0036213663406670094
1772867306598357000,10.15035693359375,-0.004561994690448046,0.011993546038866043,0.0005448827287182212
1772867306608423000,10.1604228515625,-0.002161954063922167,0.01324043795466423,0.0001613875647308305
1772867306618489000,10.170489013671874,-0.005364938173443079,0.010300308465957642,0.0002596582053229213
1772867306628555000,10.180554931640625,-0.005333246197551489,0.013966149650514126,0.0015784555580466986
1772867306638621200,10.19062109375,-0.004127100575715303,0.012205267325043678,0.00009028115891851485
1772867306648687000,10.20068701171875,-0.00455666845664382,0.010500311851501465,0.002064482541754842
1772867306658752000,10.210751953125,-0.003353186184540391,0.012606605887413025,-0.00007962851668708026
1772867306668818000,10.22081787109375,-0.003934820648282766,0.012880112044513226,-0.0010109359864145517
1772867306678884000,10.230884033203125,-0.003981159534305334,0.012399145402014256,0.00019148127466905862
1772867306688950000,10.240949951171874,-0.0007869640830904245,0.013540842570364475,0.002204298507422209
1772867306699016200,10.25101611328125,-0.0030927290208637714,0.011258780024945736,0.0006327670416794717
1772867306709081900,10.261081787109376,-0.004123372491449118,0.011405253782868385,-0.0007835020078346133
1772867306719148000,10.27114794921875,-0.0032676986884325743,0.010211625136435032,-0.0006916229031048715
1772867306729214000,10.2812138671875,-0.004328435752540827,0.011457451619207859,0.0037265613209456205
1772867306739280000,10.29127978515625,-0.0007227819296531379,0.012558402493596077,-0.00236249016597867
1772867306749346000,10.301345947265625,-0.004700212739408016,0.011861452832818031,0.0006351639167405665
1772867306759412000,10.311411865234374,-0.00219524372369051,0.014246047474443913,-0.002835467690601945
1772867306769478100,10.32147802734375,-0.002126534003764391,0.011403389275074005,0.0009978864109143615
1772867306779544000,10.3315439453125,-0.0030927290208637714,0.013637248426675797,0.0002665824140422046
1772867306789610000,10.34160986328125,-0.00469515286386013,0.012289688922464848,0.0008287757518701255
1772867306799676000,10.351676025390624,-0.003477022983133793,0.011935489252209663,-0.0001627191377338022
1772867306809742000,10.3617421875,-0.003932689782232046,0.01260793674737215,0.0013693973887711763
1772867306819808000,10.37180810546875,-0.002317216480150819,0.010614028200507164,0.003212571144104004
1772867306829874000,10.3818740234375,-0.0021310613956302404,0.012040417641401291,0.0016298545524477959
1772867306839940000,10.391940185546876,-0.0032522522378712893,0.011199125088751316,0.0005962817813269794
1772867306850006000,10.402006103515625,-0.00469515286386013,0.010639594867825508,-0.0012058793799951673
1772867306860072000,10.412072021484375,-0.0041401502676308155,0.01309236604720354,-0.0006340986583381891
1772867306870137900,10.422137939453124,-0.005869873333722353,0.011063570156693459,0.0004516721237450838
1772867306880204000,10.4322041015625,-0.0029316076543182135,0.011381551623344421,0.001487375469878316
1772867306890269000,10.44226904296875,-0.005364139098674059,0.012190086767077446,0.0033041839487850666
1772867306900335000,10.452335205078125,-0.004803543444722891,0.013689447194337845,0.000833036785479635
1772867306910401000,10.462401123046876,-0.004653607495129108,0.010966364294290543,0.002114816103130579
1772867306920467000,10.472467041015625,-0.0037859496660530567,0.013294766657054424,-0.0007568703731521964
1772867306930532900,10.482532958984375,-0.004772651009261608,0.011331217363476753,0.0021968416403979063
1772867306940599000,10.49259912109375,-0.00336197461001575,0.013089437037706375,0.0013470269041135907
1772867306950665000,10.5026650390625,-0.00347409350797534,0.00959936436265707,0.0022951122373342514
1772867306960731100,10.512731201171874,-0.004441619850695133,0.012167982757091522,0.0004724447790067643
1772867306970797000,10.522797119140625,-0.003796336008235812,0.011443602852523327,0.002017344580963254
1772867306980863000,10.532863037109376,-0.0035201662685722113,0.013794375583529472,0.0014748586108908057
1772867306990929000,10.542928955078125,-0.00812024436891079,0.012026036158204079,0.00015472965606022626
1772867307000994800,10.552994873046876,-0.0026253440883010626,0.013135509565472603,0.0011744539951905608
1772867307011061000,10.56306103515625,-0.004009655211120844,0.011697668582201004,-0.0008080030675046146
1772867307021127000,10.573126953125,-0.004626177251338959,0.01338691171258688,-0.002359827049076557
1772867307031193000,10.583193115234375,-0.00279125920496881,0.011788482777774334,0.0005400890368036926
1772867307041259000,10.593259033203125,-0.0018032263033092022,0.011492338962852955,-0.0005733785801567137
1772867307051325200,10.6033251953125,-0.004461860284209251,0.010965566150844097,-0.0009062737226486206
1772867307061391000,10.61339111328125,-0.0016026903176680207,0.012220979668200016,0.00020532972121145576
1772867307071457000,10.62345703125,-0.002645584288984537,0.011847604997456074,0.00010120012302650139
1772867307081523000,10.63352294921875,-0.00606481684371829,0.010906975716352463,0.0012926984345540404
1772867307091588900,10.6435888671875,-0.0046695866622030735,0.014635401777923107,-0.000604004948399961
1772867307101654000,10.653654052734375,-0.0020003002136945724,0.013259612955152988,0.002266349969431758
1772867307111720200,10.66372021484375,-0.002947852946817875,0.013616742566227913,0.0006711165769957006
1772867307121786000,10.6737861328125,-0.007032343186438084,0.011218033730983734,0.000621848099399358
1772867307131852000,10.68385205078125,-0.0016668725293129683,0.012426842004060745,0.0012540825409814715
1772867307141918000,10.69391796875,-0.002017078222706914,0.014031130820512772,0.0031411985401064157
1772867307151983900,10.70398388671875,-0.002400573343038559,0.012219381518661976,0.0015765913994982839
1772867307162050000,10.714050048828126,-0.0009672601008787751,0.014789598993957043,0.0018761969404295087
1772867307172116000,10.724115966796875,-0.0036402747500687838,0.011651329696178436,0.0013275857781991363
1772867307182182100,10.73418212890625,-0.0031907332595437765,0.012044145725667477,-0.0005041363765485585
1772867307192248000,10.744248046875,-0.0014958975370973349,0.013689979910850525,-0.00005912217602599412
1772867307202314000,10.75431396484375,-0.007345264777541161,0.012120844796299934,-0.00040187101694755256
1772867307212380000,10.7643798828125,-0.0041129859164357185,0.012093148194253445,-0.0013994910987094045
1772867307222446000,10.774446044921875,-0.0032003207597881556,0.013604491949081421,-0.0010831075487658381
1772867307232512000,10.784511962890624,-0.003573695896193385,0.01164467167109251,-0.002662362065166235
1772867307242578000,10.794577880859375,-0.003876763628795743,0.014373878948390484,0.0006687197601422668
