time,seconds_elapsed,z,y,x
1772867296527416800,0.079416748046875,0.0014202224556356668,-0.000684250146150589,-0.0007479755440726876
1772867296537481500,0.0894814453125,0.001745128072798252,0.0017682546749711037,-0.00085609988309443
1772867296547547600,0.099547607421875,-0.0003208948764950037,0.0014875736087560654,-0.00041972065810114145
1772867296557613600,0.109613525390625,0.0015547696966677904,-0.0012802490964531898,-0.0010647382587194443
1772867296567679700,0.1196796875,0.0020424597896635532,0.0027355793863534927,-0.000019342696759849787
1772867296577745700,0.12974560546875,0.00009329221211373806,-0.00008177943527698517,-0.002791959559544921
1772867296587811600,0.1398115234375,-0.0004231987986713648,-0.0005785925313830376,0.001242234488017857
1772867296597876500,0.14987646484375,0.0015507363714277744,0.00024405773729085922,0.003672368824481964
1772867296607942700,0.159942626953125,0.0005290517583489418,0.0003238292410969734,-0.0008965987362898886
1772867296618008600,0.170008544921875,-0.0011892197653651237,0.00020718295127153397,-0.001685959636233747
1772867296628074800,0.18007470703125,0.00032735709100961685,-0.0003640148788690567,0.00008473283378407359
1772867296638140700,0.190140625,0.00047356472350656986,-0.0019523240625858307,0.0027939665596932173
1772867296648206600,0.20020654296875,-0.0005308948457241058,0.0012711593881249428,-0.0012287654681131244
1772867296658271500,0.210271484375,0.0012001600116491318,-0.0026396922767162323,0.0017598338890820742
1772867296668337700,0.220337646484375,0.0008792541921138763,0.00030176062136888504,0.0000606967369094491
1772867296678403600,0.230403564453125,-0.0013082665391266346,0.0014370661228895187,0.0002697548479773104
1772867296688469800,0.2404697265625,0.00008395174518227577,0.0007747821509838104,-0.0032361475750803947
1772867296698535700,0.25053564453125,-0.001280918251723051,0.0005691861733794212,-0.0013988327700644732
1772867296708601600,0.2606015625,-0.00009800796397030354,-0.0007313042879104614,0.00007523124804720283
1772867296718666500,0.27066650390625,-0.0006114654242992401,0.0017449026927351952,-0.0008789793937467039
1772867296728732700,0.280732666015625,0.0008546728640794754,0.0003876602277159691,-0.0007878590258769691
1772867296738798600,0.290798583984375,0.000263450900092721,-0.0005963770672678947,0.0005197530263103545
1772867296748864800,0.30086474609375,0.00020373822189867496,0.001522931270301342,0.003726567141711712
1772867296758930700,0.3109306640625,0.001247963635250926,-0.0021474380046129227,-0.00004020787309855223
1772867296768996400,0.320996337890625,0.0002734230365604162,0.00018379278481006622,-0.0012129025999456644
1772867296779061500,0.3310615234375,-0.00037186103872954845,-0.0005317991599440575,0.0038902463857084513
1772867296789127700,0.341127685546875,0.0017181702423840761,-0.0011478345841169357,-0.0030355388298630714
1772867296799193600,0.351193603515625,-0.0005668217781931162,0.0007986696437001228,0.0033440636470913887
1772867296809259800,0.361259765625,0.0002566354814916849,0.0006083585321903229,-0.0005341084906831384
1772867296819325700,0.37132568359375,-0.00046987482346594334,-0.0002363966777920723,0.0017234531696885824
1772867296829391400,0.381391357421875,-0.003109418088570237,0.0007464773952960968,0.000006016285624355078
1772867296839456500,0.39145654296875,-0.0015541322063654661,0.00011078082025051117,0.0015578401507809758
1772867296849522700,0.401522705078125,0.0005219983868300915,-0.0011600060388445854,-0.0009095784625969827
1772867296859588600,0.411588623046875,0.00026154122315347195,0.0017585521563887596,-0.001823575352318585
1772867296869654500,0.421654541015625,-0.0015853180084377527,0.0010959990322589874,0.0006212422158569098
1772867296879720700,0.431720703125,0.00041737896390259266,-0.0007375879213213921,0.004067106172442436
1772867296889786400,0.441786376953125,-0.0024483432061970234,-0.002097107470035553,-0.003058098955079913
1772867296899851500,0.4518515625,0.0007586353458464146,0.0007492788136005402,0.0025883351918309927
1772867296909917700,0.461917724609375,0.0009317835792899132,-0.00017696060240268707,0.00012885930482298136
1772867296919983600,0.471983642578125,0.0007658684626221657,0.0005847038701176643,-0.0010743568418547511
1772867296930049500,0.482049560546875,-0.0012337311636656523,-0.0010589566081762314,0.00004818500019609928
1772867296940115700,0.49211572265625,-0.0020076457876712084,0.0001333402469754219,-0.000613077892921865
1772867296950181400,0.502181396484375,-0.000212052371352911,0.002358419820666313,0.0008030178141780198
1772867296960246500,0.51224658203125,-0.0009004794992506504,-0.0011295229196548462,-0.0005986038013361394
1772867296970312700,0.522312744140625,0.0013887013774365187,0.000201408751308918,-0.0009377781534567475
1772867296980378600,0.532378662109375,0.0028664893470704556,0.0023841354995965958,0.001782374456524849
1772867296990444500,0.542444580078125,-0.0006199120543897152,0.0001938818022608757,0.0008325488888658583
1772867297000510700,0.5525107421875,0.0009992897976189852,0.001255151815712452,0.0006756886723451316
1772867297010575600,0.56257568359375,0.0005542796570807695,0.0008982280269265175,0.0002781776711344719
1772867297020641500,0.5726416015625,-0.0020449657458812,0.001002623699605465,-0.0005402116803452373
1772867297030707700,0.582707763671875,0.0012382464483380318,0.0006850967183709145,0.003955408930778503
1772867297040773600,0.592773681640625,-0.0011591312941163778,0.0014275861904025078,0.0002778501366265118
1772867297050839600,0.602839599609375,-0.000346033601090312,0.000521576963365078,0.0009378030081279576
1772867297060905700,0.61290576171875,0.0005000527016818523,-0.002992464229464531,0.0019836262799799442
1772867297070970600,0.622970703125,-0.00038875150494277477,0.0017519490793347359,0.0006002972950227559
1772867297081036500,0.63303662109375,-0.0006297675427049398,0.0024893786758184433,-0.0005837440839968622
1772867297091102700,0.643102783203125,-0.0019436264410614967,0.0006450256332755089,0.0009087882353924215
1772867297101168600,0.653168701171875,0.0007203335408121347,0.00005699973553419113,0.0018187903333455324
1772867297111234600,0.663234619140625,0.0007403995841741562,-0.00216852780431509,0.0023498819209635258
1772867297121300700,0.67330078125,0.0008972599171102047,0.0006645433604717255,0.0009330803295597434
1772867297131365600,0.68336572265625,-0.0025244890712201595,0.0016053803265094757,0.0015727567952126265
1772867297141431600,0.693431640625,0.0019163319375365973,0.00017073564231395721,0.001423353562131524
1772867297151497700,0.703497802734375,-0.0015729859005659819,0.00002746284008026123,-0.0012453284580260515
1772867297161563600,0.713563720703125,-0.00046191527508199215,-0.0015675043687224388,-0.0027199205942451954
1772867297171629600,0.723629638671875,0.0006088330410420895,-0.00013002287596464157,-0.0013126793783158064
1772867297181695700,0.73369580078125,0.00046981615014374256,-0.003291994333267212,-0.0004082698142156005
1772867297191760600,0.7437607421875,0.0007834548596292734,-0.0006135459989309311,0.0012156408047303557
1772867297201826600,0.75382666015625,0.000739778857678175,0.00014572124928236008,-0.0024227697867900133
1772867297211892500,0.763892578125,0.0011336745228618383,0.0015029571950435638,0.0026178976986557245
1772867297221958700,0.773958740234375,-0.000941993435844779,-0.000022768042981624603,0.0026919336523860693
1772867297232024600,0.784024658203125,0.002323412336409092,-0.000228135846555233,-0.0006837623659521341
1772867297242091000,0.794091064453125,0.0004376282449811697,-0.0012430660426616669,0.0015642117941752076
1772867297252156000,0.804156005859375,-0.0020723335910588503,0.0018377099186182022,-0.0006842924631200731
1772867297262221800,0.814221923828125,0.000824120594188571,-0.0043461499735713005,-0.0022145449183881283
1772867297272287700,0.824287841796875,-0.0006105403881520033,-0.0010339291766285896,-0.0011337040923535824
1772867297282354000,0.83435400390625,-0.0008552849758416414,-0.001661103218793869,0.0017984362784773111
1772867297292419800,0.844419921875,-0.00009911623783409595,-0.0010445993393659592,-0.00043440176523290575
1772867297302485000,0.854485107421875,0.0011773367878049612,0.0016704928129911423,-0.00041096596396528184
1772867297312550700,0.864550537109375,-0.0016882945783436298,-0.0004980266094207764,0.0006641982472501695
1772867297322616800,0.874616943359375,-0.000010503223165869713,0.001501208171248436,-0.001286300946958363
1772867297332682800,0.884682861328125,0.002325828652828932,0.00001543574035167694,-0.0002275946899317205
1772867297342749000,0.8947490234375,-0.0019583983812481165,-0.0022130971774458885,0.0015314233023673296
1772867297352814800,0.90481494140625,-0.00018568476662039757,0.0017151301726698875,0.0009160257177427411
1772867297362880000,0.9148798828125,0.0013464316725730896,0.00006317161023616791,0.0015005895402282476
1772867297372945700,0.924945556640625,-0.00029236520640552044,-0.0005044732242822647,-0.0032587398309260607
1772867297383011800,0.93501171875,-0.0006580173503607512,0.0012478865683078766,-0.0006797347450628877
1772867297393077800,0.945077880859375,-0.001035867491737008,-0.0033258283510804176,-0.0008361390791833401
1772867297403144000,0.95514404296875,0.0011769530829042196,0.0018873093649744987,0.0007252722280099988
1772867297413209900,0.9652099609375,0.0020239870063960552,-0.0020227739587426186,-0.0009442283771932125
1772867297423275000,0.97527490234375,-0.0030517319682985544,0.0006307996809482574,-0.0028617042116820812
1772867297433340700,0.985340576171875,-0.00032074563205242157,0.0013710567727684975,0.0005800522631034255
1772867297443406800,0.99540673828125,0.001436674501746893,-0.0006707888096570969,0.0005704648792743683
1772867297453472800,1.00547265625,0.0006319326348602772,0.0033651702105998993,0.0021772016771137714
1772867297463539000,1.0155390625,0.0017917393706738949,-0.0004024030640721321,-0.0001956750056706369
1772867297473604900,1.02560498046875,-0.00038330419920384884,0.0011170916259288788,-0.0018956160638481379
1772867297483670000,1.035669921875,-0.0005130001809448004,0.001678219996392727,0.000024789420422166586
1772867297493735700,1.045735595703125,0.0017973203212022781,0.0024662213400006294,0.0009384647128172219
1772867297503801900,1.0558017578125,-0.0002738197799772024,-0.000012915581464767456,0.0015760255046188831
1772867297513867800,1.06586767578125,-0.0008838935755193233,-0.0009624278172850609,0.0017019433435052633
1772867297523934000,1.075933837890625,-0.004143336322158575,-0.0000063534826040267944,-0.0012254032772034407
1772867297533998800,1.085998779296875,-0.000556326238438487,0.001572946086525917,-0.0004984310362488031
1772867297544065000,1.09606494140625,-0.0017411669250577688,-0.001279565505683422,0.0017079978715628386
1772867297554130700,1.106130615234375,-0.00032613775692880154,-0.00035263318568468094,-0.001623849617317319
1772867297564196900,1.11619677734375,-0.0022713106591254473,-0.0003366544842720032,0.00005181127926334739
1772867297574262800,1.1262626953125,-0.0006329168099910021,0.0026402967050671577,-0.002934750635176897
1772867297584329000,1.136328857421875,0.0015237107872962952,0.001432286575436592,0.0011260372120887041
1772867297594393900,1.146393798828125,0.0006163462530821562,-0.0009171152487397194,0.0001741431187838316
1772867297604460000,1.1564599609375,0.0007867885287851095,0.00018170569092035294,0.00031662225956097245
1772867297614525700,1.166525634765625,0.00021284865215420723,-0.00030190683901309967,0.0011660488089546561
1772867297624592000,1.176591796875,0.00001950305886566639,0.00018784869462251663,0.0014083964051678777
1772867297634657800,1.18665771484375,0.0020885637495666742,-0.00005431380122900009,-0.0030794257763773203
1772867297644724000,1.196723876953125,0.0017878927756100893,-0.001689760945737362,-0.0007334472611546516
1772867297654788900,1.206788818359375,0.000018579652532935143,0.001804295927286148,-0.0022670282050967216
1772867297664854800,1.216854736328125,-0.00016278168186545372,0.0005747145041823387,-0.002247853437438607
1772867297674920700,1.226920654296875,-0.0010922928340733051,0.000406729057431221,-0.001992742298170924
1772867297684987000,1.23698681640625,0.0004656563978642225,0.0010386966168880463,-0.0012862056028097868
1772867297695052800,1.247052734375,-0.002133556641638279,-0.003305668942630291,0.0019874044228345156
1772867297705118000,1.257117919921875,0.0019882177002727985,-0.000774068757891655,0.00175064941868186
1772867297715183900,1.267183837890625,0.0031190882436931133,-0.002497360110282898,-0.0002965565072372556
1772867297725249800,1.277249755859375,-0.0016932438593357801,-0.0021692588925361633,0.0016715193632990122
1772867297735315700,1.287315673828125,-0.0004790134262293577,0.0017496608197689056,-0.001734116580337286
1772867297745382000,1.2973818359375,0.0016094374004751444,-0.0021633217111229897,-0.002232926432043314
1772867297755447800,1.30744775390625,0.00038837362080812454,0.00041184574365615845,0.0017819294007495046
1772867297765513000,1.317512939453125,-0.0029725355561822653,-0.0012337211519479752,0.0015497017884626985
1772867297775579000,1.327578857421875,0.002022403758019209,-0.001080116257071495,0.0005283658974803984
1772867297785644800,1.337644775390625,-0.0012982918415218592,-0.0002324320375919342,-0.0020754067227244377
1772867297795710700,1.347710693359375,0.0006408661138266325,-0.0020466605201363564,0.0012391495984047651
1772867297805777000,1.35777685546875,-0.00015621795319020748,0.001096135936677456,0.0007877438911236823
1772867297815842800,1.3678427734375,0.0006265700794756413,-0.0005960492417216301,-0.00025500322226434946
1772867297825908000,1.377907958984375,0.000864390516653657,-0.002123904414474964,0.0011258458252996206
1772867297835974000,1.387973876953125,0.0010240096598863602,-0.0008791517466306686,0.000059485144447535276
1772867297846039800,1.398039794921875,0.0010852622799575329,-0.0013188393786549568,0.0006949153612367809
1772867297856105700,1.408105712890625,0.000664902850985527,0.0006511863321065903,0.0013611428439617157
1772867297866172000,1.418171875,-0.0023753619752824306,-0.0012303367257118225,-0.002393115311861038
1772867297876237800,1.42823779296875,0.0015934796538203955,-0.0013872040435671806,0.002051236107945442
1772867297886303000,1.438302978515625,-0.001199111109599471,0.0015425393357872963,0.000521782785654068
1772867297896369000,1.448368896484375,-0.0019133745227009058,-0.0020231641829013824,0.001724246540106833
1772867297906434800,1.458434814453125,0.0016962739173322916,0.00106077641248703,0.0001782815670594573
1772867297916500700,1.468500732421875,-0.0006500582676380873,-0.0018796157091856003,-0.0016641130205243826
1772867297926567000,1.47856689453125,-0.0018503449391573668,-0.0022109132260084152,0.00011887331493198872
1772867297936632800,1.4886328125,-0.0010502161458134651,0.0012975223362445831,-0.00020807568216696382
1772867297946698000,1.498697998046875,0.0028369338251650333,0.0006762072443962097,-0.0009420428541488945
1772867297956764000,1.508763916015625,0.0027605262584984303,0.0003961380571126938,0.0007726780604571104
1772867297966829800,1.518829833984375,-0.0004669586196541786,-0.0010768556967377663,-0.0001474441378377378
1772867297976895700,1.528895751953125,0.0007692694198340178,-0.0014353496953845024,0.0007279777200892568
1772867297986962000,1.5389619140625,-0.0007399437017738819,0.001365230418741703,-0.0015319808153435588
1772867297997027800,1.54902783203125,0.0018772331532090902,-0.00128188356757164,-0.0003662480739876628
1772867298007093000,1.559093017578125,-0.001801391365006566,-0.00125072430819273,-0.0019686720333993435
1772867298017159000,1.569158935546875,0.002996380440890789,0.0026909243315458298,0.0015350591856986284
1772867298027224800,1.579224853515625,0.00139289116486907,-0.00028355978429317474,0.0024980581365525723
1772867298037290800,1.589290771484375,0.0007491814903914928,-0.00216663908213377,0.0016503171063959599
1772867298047357000,1.59935693359375,0.0022410843521356583,-0.0017309458926320076,-0.002913275733590126
1772867298057422800,1.6094228515625,0.00186504318844527,0.0005029570311307907,-0.0009625409729778767
1772867298067488000,1.619488037109375,0.0010676926467567682,-0.001120239496231079,0.0012566710356622934
1772867298077554000,1.629553955078125,0.0008544912561774254,-0.00037513766437768936,0.00004888814873993397
1772867298087619800,1.639619873046875,0.001722149085253477,-0.000794852152466774,-0.00048028197488747537
1772867298097685800,1.649685791015625,0.0007579682860523462,-0.0015525994822382927,-0.0015423413133248687
1772867298107752000,1.659751953125,0.0002743382938206196,0.0003321189433336258,-0.0007082392694428563
1772867298117816800,1.66981689453125,0.0029914178885519505,0.00033065956085920334,-0.000617645331658423
1772867298127883000,1.679883056640625,0.0012036378029733896,0.001489667221903801,0.0006039465661160648
1772867298137949000,1.689948974609375,-0.0011035706847906113,0.0025909682735800743,-0.0023752611596137285
1772867298148014800,1.700014892578125,0.0012882142327725887,0.00046949367970228195,-0.0007251665811054409
1772867298158080800,1.710080810546875,0.0006004560273140669,-0.001417837105691433,-0.0006142970523796976
1772867298168147000,1.72014697265625,-0.0013961158692836761,0.0007643569260835648,0.001910645980387926
1772867298178211800,1.7302119140625,0.00010754493996500969,-0.0006267065182328224,0.00036678306059911847
1772867298188278000,1.740278076171875,-0.0015904863830655813,0.002980012446641922,0.001852027839049697
1772867298198344000,1.750343994140625,-0.0002899901010096073,-0.00030519068241119385,-0.0009749506134539843
1772867298208409900,1.760409912109375,0.0013483867514878511,-0.001477779820561409,-0.0008178241550922394
1772867298218475800,1.770475830078125,-0.0005273486021906137,0.0013543972745537758,0.0007346404017880559
1772867298228542000,1.7805419921875,0.0014830715954303741,-0.0006861165165901184,-0.0008933499921113253
1772867298238607000,1.790607177734375,-0.0020839646458625793,0.00033459998667240143,0.0008379759383387864
1772867298248673300,1.80067333984375,0.0005765331443399191,0.00026722252368927,0.001679002307355404
1772867298258739000,1.810739013671875,-0.0015783198177814484,0.00005370471626520157,-0.00021963694598525763
1772867298268805000,1.82080517578125,0.001665676711127162,0.0020633265376091003,-0.0007301649311557412
1772867298278871000,1.83087109375,0.00010895123705267906,-0.0015664882957935333,-0.0015350086614489555
1772867298288937200,1.840937255859375,-0.0003435197286307812,0.0015073325484991074,-0.0023648496717214584
1772867298299002000,1.851002197265625,0.0009675167966634035,0.00023350119590759277,0.0011666084174066782
1772867298309068300,1.861068359375,-0.001468743197619915,-0.00020751822739839554,0.0003735192003659904
1772867298319134000,1.871134033203125,-0.0005906717851758003,0.00011451076716184616,-0.003226183820515871
1772867298329200000,1.8812001953125,-0.0005928026512265205,-0.0032176366075873375,-0.00029644049936905503
1772867298339266000,1.89126611328125,-0.0045119053684175014,0.0012534931302070618,0.006358387414366007
1772867298349332000,1.90133203125,-0.0018303687684237957,-0.001108730211853981,-0.0025626695714890957
1772867298359397000,1.911397216796875,-0.000607726164162159,-0.0002218354493379593,0.0025519493501633406
1772867298369463300,1.92146337890625,-0.0001957351341843605,0.00006019324064254761,0.00019052455900236964
1772867298379529000,1.931529052734375,-0.0007512904703617096,-0.0011736033484339714,0.0014595099491998553
1772867298389595100,1.94159521484375,-0.0006607426330447197,0.00016330275684595108,0.0000040924642235040665
1772867298399661000,1.9516611328125,-0.000591708580031991,0.0000391155481338501,-0.0010935463942587376
1772867298409727000,1.96172705078125,-0.0007024963852018118,-0.0022754380479454994,0.0016726790927350521
1772867298419792100,1.971792236328125,0.0018462873995304108,0.0014373604208230972,-0.0013984469696879387
1772867298429858300,1.9818583984375,0.0005575837567448616,-0.0009416406974196434,-0.0022543868981301785
1772867298439924000,1.991924072265625,0.00029810983687639236,0.0017517367377877235,0.0006028402131050825
1772867298449990100,2.001990234375,-0.003014862537384033,-0.0003071539103984833,-0.0011465902207419276
1772867298460056000,2.01205615234375,-0.00027119158767163754,-0.0007388899102807045,0.0008094325894489884
1772867298470122000,2.0221220703125,0.0018361679976806045,0.0023993784561753273,0.0005172839155420661
1772867298480187100,2.032187255859375,0.0014052982442080975,-0.00034222472459077835,0.0013209166936576366
1772867298490253000,2.042253173828125,-0.0008533289656043053,0.00014167185872793198,-0.0029180366545915604
1772867298500319000,2.052319091796875,-0.00215326389297843,-0.00013914983719587326,-0.0020372464787214994
1772867298510385200,2.06238525390625,-0.0018432717770338058,-0.0005625924095511436,-0.0010100651998072863
1772867298520451000,2.072451171875,0.0005303143989294767,0.0001545185223221779,-0.0012408271431922913
1772867298530517000,2.08251708984375,0.0018523074686527252,0.0013279076665639877,0.001661752350628376
1772867298540583200,2.092583251953125,0.0009719086810946465,-0.00003161933273077011,-0.0031913460697978735
1772867298550648000,2.10264794921875,0.0001913360320031643,0.0021742768585681915,0.0003693003091029823
1772867298560714000,2.1127138671875,0.0015507612843066454,0.0005712732672691345,-0.0009551713592372835
1772867298570780200,2.1227802734375,-0.0013225232250988483,0.0018890053033828735,-0.0001351840328425169
1772867298580846000,2.13284619140625,0.0008363660890609026,-0.0014375895261764526,0.000622318999376148
1772867298590912000,2.142912109375,0.0017594178207218647,0.0001837434247136116,0.0008324423688463867
1772867298600978200,2.152978271484375,-0.0009666974656283855,0.0019174721091985703,-0.001541375182569027
1772867298611043000,2.16304296875,-0.0020021344535052776,0.000017573125660419464,-0.001416739309206605
1772867298621109000,2.17310888671875,0.0000015944242477416992,0.0014989040791988373,0.00038831878919154406
1772867298631175200,2.183175048828125,0.0001462041400372982,-0.0008420143276453018,0.0007318665739148855
1772867298641241000,2.193240966796875,-0.0010974649339914322,0.0007996503263711929,0.000545899907592684
1772867298651307000,2.20330712890625,0.001798456534743309,-0.001396126113831997,0.0007693390944041312
1772867298661373200,2.213373291015625,-0.0019320270512253046,-0.000629437156021595,0.0010919674532487988
1772867298671438000,2.22343798828125,0.00038918410427868366,0.0012635383754968643,0.0026254155673086643
1772867298681504000,2.23350390625,0.0006611265707761049,-0.0011434750631451607,0.001519524957984686
1772867298691570000,2.24356982421875,0.00020599248819053173,0.0019282149150967598,0.0010454822331666946
1772867298701636000,2.253635986328125,0.00031462498009204865,-0.00019751768559217453,-0.0013134680921211839
1772867298711702000,2.263701904296875,-0.0005556961987167597,0.0011380575597286224,0.0006008120253682137
1772867298721768200,2.273768310546875,0.0005332056898623705,-0.0009733233600854874,0.0017502178670838475
1772867298731834000,2.283834228515625,-0.0009573656134307384,-0.0002832980826497078,-0.0008940346888266504
1772867298741899000,2.29389892578125,-0.0016230258625000715,0.0006469907239079475,-0.0006636563339270651
1772867298751965000,2.30396484375,0.002240954665467143,-0.0002901758998632431,-0.002828806173056364
1772867298762031000,2.314031005859375,-0.000583302229642868,-0.0005798675119876862,-0.00021994317648932338
1772867298772097000,2.324096923828125,0.00022789672948420048,0.00024571269750595093,0.00025969219859689474
1772867298782163200,2.3341630859375,0.0013438323512673378,0.00036469753831624985,-0.0002917349338531494
1772867298792229000,2.34422900390625,0.0004807019140571356,-0.0008789980784058571,0.0002129341010004282
1772867298802294000,2.3542939453125,-0.00009055295959115028,0.0017659766599535942,-0.0015451711369678378
1772867298812360000,2.36435986328125,-0.0025212198961526155,0.0004860619083046913,-0.001617076457478106
1772867298822426000,2.374426025390625,-0.0005931181367486715,0.001135881058871746,0.0013763692695647478
1772867298832492000,2.384491943359375,0.0007163584232330322,0.0018594618886709213,0.00008553510997444391
1772867298842558200,2.39455810546875,-0.001105207484215498,-0.0009757522493600845,-0.00022343691671267152
1772867298852624100,2.4046240234375,0.0015853841323405504,-0.001031411811709404,0.002625346416607499
1772867298862689000,2.41468896484375,-0.00018005981110036373,0.000023642554879188538,0.001733352430164814
1772867298872755000,2.4247548828125,-0.000075930031016469,0.0030378084629774094,-0.0017189034260809422
1772867298882821000,2.434821044921875,-0.0009196882601827383,-0.00036639533936977386,0.0007028321851976216
1772867298892887000,2.444886962890625,-0.00011541391722857952,0.000027487054467201233,-0.00016029831022024155
1772867298902953200,2.454953125,-0.0001093442551791668,-0.0009981989860534668,-0.00038266624324023724
1772867298913019100,2.46501904296875,-0.0007096207700669765,0.001800251193344593,-0.0001096922205761075
1772867298923085000,2.4750849609375,0.0009415941312909126,0.0014743385836482048,-0.002293771132826805
1772867298933150000,2.48514990234375,0.0006678211502730846,-0.0006263628602027893,0.00028976122848689556
1772867298943216000,2.495216064453125,-0.0027300207875669003,0.0018684472888708115,0.0012141538318246603
1772867298953282000,2.505281982421875,0.0016596675850450993,0.0012143747881054878,0.0001821788609959185
1772867298963348200,2.51534814453125,-0.00027814251370728016,0.00009864568710327148,-0.0019868346862494946
1772867298973414100,2.5254140625,0.0005040280520915985,-0.0003615487366914749,0.0020313425920903683
1772867298983480000,2.53547998046875,-0.0002867493312805891,-0.002280173823237419,0.0008371300064027309
1772867298993545000,2.545544921875,0.0006895656697452068,0.0007555633783340454,0.0006320666288957
1772867299003611100,2.555611083984375,-0.00027342885732650757,-0.0027702664956450462,-0.0008971017086878419
1772867299013677000,2.565677001953125,-0.00010618218220770359,-0.002520195208489895,0.000029145681764930487
1772867299023743200,2.5757431640625,0.00028248014859855175,0.0018489016219973564,0.001677591004408896
1772867299033809200,2.58580908203125,0.0018356357468292117,-0.0020502330735325813,0.0019431080436334014
1772867299043875000,2.595875,-0.0024046669714152813,-0.00037067849189043045,-0.00019990489818155766
1772867299053941000,2.60594091796875,0.0013495911844074726,0.001414438709616661,-0.0010265500750392675
1772867299064006100,2.616006103515625,-0.0007464282680302858,-0.0020422935485839844,0.00008686637738719583
1772867299074072000,2.626072021484375,-0.0005706597585231066,0.00024216622114181519,-0.00016533496091142297
1772867299084138200,2.63613818359375,-0.003199016209691763,0.0009956350550055504,-0.0014409876894205809
1772867299094204200,2.6462041015625,-0.00003118603490293026,-0.0011673849076032639,-0.0014332644641399384
1772867299104270000,2.65627001953125,-0.0003918514121323824,0.0018814308568835258,0.0024279302451759577
1772867299114336000,2.6663359375,0.0005319993942975998,-0.0006834594532847404,0.0028825318440794945
1772867299124401200,2.676401123046875,0.0005784505046904087,0.0018718037754297256,-0.00023451808374375105
1772867299134467000,2.686467041015625,-0.0003294211346656084,-0.0015474287793040276,0.0015977367293089628
1772867299144533200,2.696533203125,0.00016395817510783672,0.0008112909272313118,-0.0009618615731596947
1772867299154599200,2.70659912109375,-0.003125312039628625,-0.002341092564165592,0.0005047411541454494
1772867299164665000,2.7166650390625,-0.00101942359469831,-0.0016066888347268105,-0.00016350997611880302
1772867299174731000,2.72673095703125,0.0007712857332080603,0.004001928493380547,0.0005369014106690884
1772867299184797000,2.736796875,-0.0020964303985238075,0.000874098390340805,0.00142055528704077
1772867299194862000,2.746862060546875,-0.0009523364715278149,-0.000001282431185245514,-0.0021017417311668396
1772867299204928300,2.75692822265625,-0.0020582093857228756,0.00028078723698854446,-0.002208649180829525
1772867299214994200,2.766994140625,-0.0016161249950528145,-0.0014641163870692253,-0.0026440760120749474
1772867299225060000,2.77706005859375,0.003409614786505699,-0.00023345369845628738,0.0017513814382255077
1772867299235125800,2.787125732421875,0.00043299957178533077,-0.0015503866598010063,0.0004392421687953174
1772867299245192000,2.79719189453125,-0.0011155798565596342,-0.0012052776291966438,0.00017703213961794972
1772867299255257900,2.8072578125,0.0016650264151394367,0.004012120887637138,0.0003133859718218446
1772867299265322800,2.81732275390625,-0.0004433123394846916,0.0002473248168826103,-0.001368395402096212
1772867299275388700,2.827388671875,-0.0013011167757213116,0.00157065037637949,0.0014297880697995424
1772867299285454800,2.837454833984375,-0.0006208778358995914,-0.0003868592903017998,-0.0010188408195972443
1772867299295520800,2.847520751953125,0.0030742581002414227,-0.0016617141664028168,0.0011678807204589248
1772867299305586700,2.857586669921875,-0.00017883186228573322,-0.0012736162170767784,-0.0007111501763574779
1772867299315652900,2.86765283203125,-0.0019658131059259176,-0.0010642912238836288,0.00009418971603736281
1772867299325717800,2.8777177734375,0.0009105994831770658,0.002865489572286606,0.0013638627715408802
1772867299335783700,2.88778369140625,0.001536442432552576,0.0009368285536766052,0.0015034126117825508
1772867299345849900,2.897849853515625,-0.0004590996541082859,-0.0015953807160258293,0.0007108154240995646
1772867299355915800,2.907915771484375,-0.0021962798200547695,0.001559666357934475,-0.000590937735978514
1772867299365981700,2.917981689453125,0.00027673086151480675,0.0016360851004719734,0.0007828912930563092
1772867299376047900,2.9280478515625,0.00038192584179341793,0.001622769981622696,0.0006633152952417731
1772867299386113500,2.938113525390625,0.0013319472782313824,-0.002225101925432682,-0.0006400059792213142
1772867299396178700,2.9481787109375,-0.0005953824147582054,0.0005621630698442459,0.0014953166246414185
1772867299406244900,2.958244873046875,-0.0017922467086464167,0.0013210279867053032,-0.00024284061510115862
1772867299416310800,2.968310791015625,-0.00033097038976848125,-0.0004718126729130745,-0.002075894270092249
1772867299426376700,2.978376708984375,-0.000946657732129097,0.002603437751531601,-0.0008919365936890244
1772867299436443000,2.98844287109375,-0.00004198169335722923,0.001063598319888115,0.0020838796626776457
1772867299446508500,2.998508544921875,-0.0017459890805184841,0.0015596849843859673,-0.00028713219217024744
1772867299456574700,3.00857470703125,0.00011609308421611786,0.0008494202047586441,-0.0014229703228920698
1772867299466640000,3.018639892578125,0.0014203009195625782,-0.0016214614734053612,0.00041733356192708015
1772867299476705800,3.028705810546875,-0.0007808019872754812,0.0017884494736790657,0.0011228049406781793
1772867299486771700,3.038771728515625,0.0008345609530806541,0.0019830409437417984,0.00042542535811662674
1772867299496838000,3.048837890625,-0.001795843243598938,0.0004607774317264557,-0.001194841810502112
1772867299506903600,3.058903564453125,-0.001125221373513341,-0.0022167591378092766,0.0006533153937198222
1772867299516969700,3.0689697265625,-0.00016808114014565945,-0.0006422987207770348,-0.0008617569110356271
1772867299527035600,3.07903564453125,-0.0013497374020516872,-0.0009097075089812279,0.0013848147355020046
1772867299537100800,3.089100830078125,-0.0016903555952012539,-0.0014782920479774475,0.0006239496287889779
1772867299547166700,3.099166748046875,-0.0021848741453140974,-0.0012971246615052223,0.00027487834449857473
1772867299557233000,3.10923291015625,-0.001979278167709708,0.00235646590590477,-0.00528526958078146
1772867299567298600,3.119298583984375,0.00010331254452466965,-0.0013741189613938332,0.0015872730873525143
1772867299577364700,3.12936474609375,-0.001319614239037037,-0.0008231112733483315,-0.0014191693626344204
1772867299587430700,3.1394306640625,0.0016393717378377914,-0.0007240483537316322,0.001227310742251575
1772867299597496800,3.149496826171875,0.0017176687251776457,0.00020646024495363235,-0.0032433378510177135
1772867299607561700,3.159561767578125,0.0018078061984851956,-0.00012736395001411438,-0.0012466239277273417
1772867299617628000,3.1696279296875,0.002567339688539505,-0.0015497580170631409,-0.00028788589406758547
1772867299627693600,3.179693603515625,-0.002970147179439664,0.0013299817219376564,0.0030562335159629583
1772867299637759700,3.189759765625,-0.0009293670300394297,0.0005083959549665451,-0.0005768508417531848
1772867299647825700,3.19982568359375,0.00029626418836414814,0.0010463353246450424,0.0006036398117430508
1772867299657891800,3.209891845703125,-0.00046060606837272644,0.0017691170796751976,0.00046861759619787335
1772867299667957800,3.219957763671875,0.0032458167988806963,-0.0008606342598795891,-0.0007445508963428438
1772867299678023000,3.23002294921875,0.0005475019570440054,0.00032500550150871277,-0.00041298731230199337
1772867299688088600,3.240088623046875,0.002885229419916868,-0.0006703082472085953,0.001080919522792101
1772867299698154800,3.25015478515625,-0.0014011282473802567,-0.0013675233349204063,-0.0007848910754546523
1772867299708220700,3.260220703125,-0.000009951181709766388,0.0010238364338874817,0.0015714659821242094
1772867299718286800,3.270286865234375,-0.0009282089304178953,-0.0012827282771468163,-0.000373174378182739
1772867299728352800,3.280352783203125,-0.001445271773263812,-0.0009678350761532784,-0.002145252423360944
1772867299738419000,3.2904189453125,0.0014479865785688162,0.0013227500021457672,0.0003831528010778129
1772867299748483600,3.300483642578125,-0.0008475405629724264,-0.003415537066757679,0.001929746475070715
1772867299758549800,3.3105498046875,-0.0008315613958984613,-0.00019391067326068878,0.0018791465554386377
1772867299768615700,3.32061572265625,0.0007910896092653275,0.0016025714576244354,0.0002631558454595506
1772867299778681900,3.330681884765625,-0.0016078860498964787,-0.00008267723023891449,0.0011880716774612665
1772867299788747800,3.340747802734375,0.0006684274412691593,0.00023510027676820755,-0.0004812033730559051
1772867299798813700,3.350813720703125,0.0008527182508260012,0.0003139292821288109,-0.000745655270293355
1772867299808879900,3.3608798828125,-0.000017412705346941948,0.00036179088056087494,-0.000626020657364279
1772867299818944800,3.37094482421875,-0.0029223887249827385,-0.0009474186226725578,0.0007492356817238033
1772867299829010700,3.3810107421875,0.00041109113954007626,-0.001965027302503586,-0.0004509022110141814
1772867299839076900,3.391076904296875,0.0008377295453101397,0.0006240978837013245,-0.00023252301616594195
1772867299849142800,3.401142822265625,0.0007888032123446465,0.00043614208698272705,0.0013530491851270199
1772867299859208700,3.411208740234375,-0.003248548833653331,0.0014617256820201874,-0.001371364458464086
1772867299869275000,3.42127490234375,0.00008781789802014828,0.0007559079676866531,0.0005754174198955297
1772867299879340500,3.431340576171875,0.000053995754569768906,-0.0017091138288378716,-0.0007503041415475309
1772867299889406700,3.44140673828125,-0.0018522893078625202,0.0016274554654955864,0.0006163723301142454
1772867299899472000,3.451471923828125,0.0005432239267975092,-0.0016389116644859314,0.0008398116333410144
1772867299909537800,3.461537841796875,-0.0003655331674963236,0.003908900544047356,-0.0006947442307136953
1772867299919603700,3.471603759765625,-0.00133625534363091,-0.0023314179852604866,0.0015004993183538318
1772867299929670000,3.481669921875,-0.0008551671635359526,-0.0017761485651135445,-0.002104845829308033
1772867299939735600,3.491735595703125,-0.0011023085098713636,-0.0009580254554748535,-0.001282727811485529
1772867299949801700,3.5018017578125,0.0006197846960276365,-0.0019485494121909142,0.0006624602247029543
1772867299959867600,3.51186767578125,-0.0002199099399149418,-0.002279047854244709,-0.001034239772707224
1772867299969932800,3.521932861328125,0.0013392171822488308,0.002608724869787693,0.0030265033710747957
1772867299979998700,3.531998779296875,0.0008052533958107233,-0.003330923616886139,-0.0010318877175450325
1772867299990065000,3.54206494140625,-0.002873289166018367,0.00010146573185920715,-0.0002766817924566567
1772867300000130600,3.552130615234375,-0.0009512861724942923,0.0005685845389962196,0.0008628848590888083
1772867300010196700,3.56219677734375,-0.001004041638225317,0.002245795913040638,-0.0024879067204892635
1772867300020262700,3.5722626953125,-0.0011505158618092537,0.0037190569564700127,0.0004524894175119698
1772867300030328800,3.582328857421875,0.0017574848607182503,-0.0020250454545021057,-0.0022928386460989714
1772867300040394800,3.592394775390625,-0.0017895796336233616,-0.00008919369429349899,0.00016952009173110127
1772867300050460000,3.6024599609375,-0.0007050675339996815,-0.0011387243866920471,0.0008376941550523043
1772867300060525600,3.612525634765625,0.001679793233051896,-0.002046596258878708,-0.0016755310352891684
1772867300070591700,3.622591796875,-0.0010321326553821564,0.0004739537835121155,-0.003103274153545499
1772867300080657700,3.63265771484375,0.0011053206399083138,0.000868634320795536,0.002745293779298663
1772867300090723800,3.642723876953125,0.0010493106674402952,0.000771448016166687,0.0018337452784180641
1772867300100789800,3.652789794921875,-0.0006117029115557671,-0.0011873068287968636,0.002287814160808921
1772867300110856000,3.66285595703125,-0.000354937044903636,0.00031852442771196365,-0.00019791160593740642
1772867300120921900,3.672921875,-0.0006755816284567118,-0.00011077709496021271,0.0020458016078919172
1772867300130986800,3.68298681640625,-0.001952767837792635,-0.0018791630864143372,-0.000959311262704432
1772867300141052700,3.693052734375,0.00031171785667538643,0.000015409663319587708,-0.0006951256655156612
1772867300151118800,3.703118896484375,-0.000005666166543960571,-0.0017128819599747658,0.00188696279656142
1772867300161184800,3.713184814453125,0.0007368230726569891,0.0017058178782463074,-0.002411911729723215
1772867300171251000,3.7232509765625,-0.0005369654390960932,-0.0011293571442365646,0.0018888572230935097
1772867300181316900,3.73331689453125,0.0008097952231764793,0.0011785384267568588,-0.002834258833900094
1772867300191382500,3.743382568359375,-0.003084152238443494,0.00029421504586935043,0.0006248659337870777
1772867300201448700,3.75344873046875,-0.000392495421692729,-0.0012621358036994934,0.0007401807815767825
1772867300211513900,3.763513916015625,-0.0013707932084798813,0.0005837976932525635,0.0020304254721850157
1772867300221579800,3.773579833984375,0.00036825123243033886,-0.0009291442111134529,0.0023777016904205084
1772867300231645700,3.783645751953125,0.0008681884501129389,0.0007348004728555679,-0.0013272033538669348
1772867300241711400,3.79371142578125,-0.0016306557226926088,0.0008828723803162575,-0.00132533919531852
1772867300251777500,3.803777587890625,-0.0006733911577612162,0.0011291317641735077,0.0013210498727858067
1772867300261843500,3.813843505859375,-0.00257888319902122,0.0004273895174264908,0.002451561624184251
1772867300271909000,3.8239091796875,-0.0010168668814003468,0.002401517704129219,-0.0011888036970049143
1772867300281975300,3.833975341796875,0.001995967235416174,-0.0006432747468352318,-0.002988301683217287
1772867300292040400,3.84404052734375,0.001253452617675066,0.0008065523579716682,0.004580696113407612
1772867300302106400,3.8541064453125,-0.00010955310426652431,-0.0008664457127451897,-0.001062808558344841
1772867300312172300,3.86417236328125,0.0023976711090654135,0.00037411879748106003,0.0018224893137812614
1772867300322238500,3.874238525390625,-0.0004170238971710205,-0.0012727808207273483,0.0009055630071088672
1772867300332304100,3.88430419921875,-0.001233670860528946,-0.002157806418836117,0.0019283685833215714
1772867300342370300,3.894370361328125,0.00003133062273263931,0.001675015315413475,0.0013376795686781406
1772867300352436200,3.904436279296875,-0.0003341266419738531,-0.00040915701538324356,0.00022884452482685447
1772867300362502400,3.91450244140625,-0.0009160272311419249,0.0017045941203832626,-0.0025232660118490458
1772867300372567300,3.9245673828125,0.00028435466811060905,0.00018981751054525375,0.0002084200968965888
1772867300382633500,3.934633544921875,0.0015919667202979326,0.0007935566827654839,-0.000992931891232729
1772867300392699100,3.94469921875,0.0008933395147323608,0.00029543135315179825,0.0011280671460554004
1772867300402765300,3.954765380859375,-0.000632918206974864,-0.0012995358556509018,-0.00003786478191614151
1772867300412831200,3.964831298828125,0.0010863735806196928,0.001200987957417965,0.002610855270177126
1772867300422897400,3.9748974609375,-0.001209004782140255,0.0009506512433290482,0.0008454455528408289
1772867300432963300,3.98496337890625,-0.0006634865421801805,-0.0011948812752962112,-0.0020323421340435743
1772867300443028500,3.995028564453125,0.0003431884106248617,-0.0010460102930665016,0.0002302795764990151
1772867300453094100,4.00509423828125,0.0008029178716242313,-0.0019174497574567795,-0.0008605720940977335
1772867300463160300,4.015160400390625,0.0017552641220390797,-0.00011475570499897003,-0.0004927895497530699
1772867300473226200,4.025226318359375,-0.0019777906127274036,-0.0015252046287059784,-0.0004624419962055981
1772867300483291400,4.03529150390625,-0.0019037546589970589,-0.0017451811581850052,0.0012057620333507657
1772867300493357300,4.045357421875,0.0012141233310103416,0.0012930138036608696,-0.001695235027000308
1772867300503423500,4.055423583984375,0.0006543269846588373,0.00031589996069669724,0.000004127970896661282
1772867300513489200,4.0654892578125,-0.0004560668021440506,-0.0010913591831922531,-0.0015878889244049788
1772867300523555300,4.075555419921875,0.00006964150816202164,-0.0013326415792107582,-0.00226379930973053
1772867300533621200,4.085621337890625,-0.001253785565495491,-0.0009714644402265549,-0.0016273143701255322
1772867300543687400,4.0956875,0.001673827413469553,0.0007816944271326065,0.0012156099546700716
1772867300553753300,4.10575341796875,0.00019265199080109596,-0.0004912149161100388,-0.0017613143427297473
1772867300563818500,4.115818603515625,0.001799603458493948,-0.00030905473977327347,0.0005210146773606539
1772867300573884200,4.12588427734375,-0.002320785541087389,-0.000721675343811512,-0.0005628328071907163
1772867300583950300,4.135950439453125,0.00027419859543442726,-0.0021821530535817146,0.001012160675600171
1772867300594016300,4.146016357421875,-0.001710918266326189,0.0018662512302398682,0.0006780101684853435
1772867300604082400,4.15608251953125,-0.0023641916923224926,0.00008086767047643661,-0.00013931398279964924
1772867300614148400,4.1661484375,-0.0006714155897498131,0.0009587164968252182,0.0004059314960613847
1772867300624214500,4.176214599609375,-0.0009305411949753761,-0.000902300700545311,0.0017710678512230515
1772867300634280400,4.186280517578125,-0.0032710100058466196,0.000758117064833641,0.0018544838530942798
1772867300644346000,4.19634619140625,0.0010236033704131842,0.00009578932076692581,0.00009653129382058978
1772867300654412300,4.206412353515625,-0.00027407659217715263,-0.0012845974415540695,0.0005797233316116035
1772867300664477400,4.2164775390625,0.00019091134890913963,-0.000020927749574184418,0.001080930233001709
1772867300674543400,4.22654345703125,-0.0030641385819762945,0.00037787575274705887,-0.00013623631093651056
1772867300684609500,4.236609619140625,0.0006453783717006445,-0.0007731420919299126,0.0012699126964434981
1772867300694675500,4.246675537109375,-0.0009908059146255255,0.0016474677249789238,-0.002072881441563368
1772867300704741000,4.2567412109375,0.0008451773319393396,-0.0015928009524941444,0.0015125323552638292
1772867300714807300,4.266807373046875,-0.000046255066990852356,-0.0004112161695957184,-0.0010493253357708454
1772867300724873200,4.276873291015625,0.0002016853541135788,-0.0009566312655806541,-0.00007087999256327748
1772867300734939400,4.286939453125,-0.0006263775285333395,-0.0012879939749836922,0.00036093121161684394
1772867300745005300,4.29700537109375,-0.0004902898799628019,0.0014199083670973778,0.0019604256376624107
1772867300755070500,4.307070556640625,-0.00019485712982714176,-0.000646812841296196,-0.0016458461759611964
1772867300765136100,4.31713623046875,0.0010166147258132696,-0.002042043022811413,0.0004423384089022875
1772867300775202300,4.327202392578125,0.001986314309760928,0.001766773872077465,0.0004200108232907951
1772867300785268200,4.337268310546875,-0.00025526853278279305,-0.0018934747204184532,0.0003939117887057364
1772867300795334400,4.34733447265625,0.001099433284252882,-0.0012815585359930992,0.0028326085302978754
1772867300805400300,4.357400390625,0.0010432405397295952,-0.003248303197324276,-0.0001788940280675888
1772867300815466500,4.367466552734375,-0.000598628306761384,0.00006812438368797302,0.000478130008559674
1772867300825532400,4.377532470703125,-0.0014540355186909437,0.0015163514763116837,0.00022353173699229956
1772867300835598300,4.387598388671875,-0.00019381078891456127,-0.0015986720100045204,0.0007177580846473575
1772867300845663200,4.397663330078125,-0.0004356259014457464,0.00008524488657712936,0.001040533185005188
1772867300855729400,4.4077294921875,-0.0014301449991762638,0.0014418158680200577,0.0008326277020387352
1772867300865795300,4.41779541015625,-0.0020764945074915886,0.0007038535550236702,0.0007745707989670336
1772867300875861500,4.427861572265625,-0.0010297440458089113,0.0004830751568078995,-0.0002491646446287632
1772867300885927400,4.437927490234375,0.0010895994491875172,0.000056969933211803436,0.0001556358765810728
1772867300895993300,4.447993408203125,-0.0001497261691838503,0.00023769401013851166,0.0003898525610566139
1772867300906059300,4.458059326171875,-0.00106532103382051,0.0011466313153505325,-0.00036328943679109216
1772867300916125200,4.468125244140625,-0.002589205512776971,0.000781782902777195,-0.001793196308426559
1772867300926191400,4.47819140625,-0.0003351059276610613,0.0008209310472011566,0.0004265484167262912
1772867300936257300,4.48825732421875,-0.0029139509424567223,-0.002186172641813755,0.0003835215466096997
1772867300946322400,4.498322509765625,0.0021396633237600327,0.0007792571559548378,-0.00046442897291854024
1772867300956388400,4.508388427734375,-0.0008037085644900799,0.00009660329669713974,-0.00038982846308499575
1772867300966454300,4.518454345703125,0.0019587883725762367,-0.001351623795926571,0.000841084576677531
1772867300976520200,4.528520263671875,0.00011764257214963436,0.0002074623480439186,0.0014734645374119282
1772867300986586400,4.53858642578125,-0.001456019002944231,0.0005989475175738335,-0.000051195151172578335
1772867300996652300,4.54865234375,0.0010324206668883562,0.0009279493242502213,0.0007199435494840145
1772867301006718500,4.558718505859375,0.0005669002421200275,-0.0014454592019319534,0.000864286907017231
1772867301016784400,4.568784423828125,-0.00010043708607554436,-0.0005726618692278862,-0.0015680139185860753
1772867301026850300,4.578850341796875,0.0015259552747011185,0.0008017951622605324,0.0019100743811577559
1772867301036915200,4.588915283203125,-0.001667733769863844,0.0005332212895154953,0.0040826513431966305
1772867301046981400,4.5989814453125,-0.0005585271865129471,-0.0010998286306858063,-0.0002439204545225948
1772867301057047300,4.60904736328125,0.0014441360253840685,0.0018575573340058327,-0.0011890402529388666
1772867301067113500,4.619113525390625,0.001996209379285574,0.0011206604540348053,0.0000163064687512815
1772867301077179400,4.629179443359375,-0.0006122889462858438,-0.0007081283256411552,-0.00015937542775645852
1772867301087245300,4.639245361328125,0.0004764110781252384,-0.0009659221395850182,-0.0011679144809022546
1772867301097311200,4.649311279296875,0.00043223099783062935,0.0003109872341156006,0.0025899186730384827
1772867301107377400,4.65937744140625,0.001431182725355029,0.002165345475077629,0.00005405658157542348
1772867301117443300,4.669443359375,0.0004494444001466036,-0.00011741183698177338,0.00088424829300493
1772867301127509200,4.67950927734375,-0.0022613871842622757,0.003264802508056164,-0.0006635808967985213
1772867301137575400,4.689575439453125,-0.001173906261101365,-0.0028496943414211273,-0.0022020884789526463
1772867301147640300,4.699640380859375,-0.0005009251181036234,0.0014342665672302246,-0.002124590566381812
1772867301157706200,4.709706298828125,0.0013627544976770878,0.0008076392114162445,0.002416334580630064
1772867301167772400,4.7197724609375,0.0015672852750867605,-0.0011407295241951942,-0.0011887865839526057
1772867301177838300,4.72983837890625,-0.00010808859951794147,0.000437367707490921,0.0005416296189650893
1772867301187904300,4.739904296875,-0.0006170186679810286,-0.0007583918049931526,-0.00048608420183882117
1772867301197970400,4.749970458984375,-0.00021902541629970074,0.0009886082261800766,-0.0012688147835433483
1772867301208036400,4.760036376953125,-0.0018291727174073458,-0.0015935925766825676,-0.004417736548930407
1772867301218102500,4.7701025390625,-0.0014836511109024286,-0.0009101033210754395,0.00013535289326682687
1772867301228168200,4.780168212890625,-0.002160093979910016,0.00001614447683095932,-0.0022724110167473555
1772867301238233300,4.7902333984375,-0.0020642857998609543,-0.00031880103051662445,0.0016230737091973424
1772867301248299300,4.80029931640625,-0.0025455192662775517,0.00011715758591890335,-0.001701350323855877
1772867301258365400,4.810365478515625,0.002164632547646761,-0.0004999013617634773,0.0007187320734374225
1772867301268431400,4.820431396484375,-0.0005142409354448318,0.0007813461124897003,-0.00024293537717312574
1772867301278497500,4.83049755859375,-0.001524436753243208,0.00024594273418188095,-0.0006094290874898434
1772867301288563200,4.840563232421875,-0.002375583164393902,0.0008837701752781868,0.0011634372640401125
1772867301298629400,4.85062939453125,0.001978529617190361,0.0012309132143855095,-0.0017321191262453794
1772867301308695300,4.8606953125,-0.0013781185261905193,0.0010503511875867844,-0.0008492812048643827
1772867301318761500,4.870761474609375,0.00014821486547589302,-0.0002614995464682579,-0.0006831490900367498
1772867301328827400,4.880827392578125,0.0004829741083085537,0.0024613160640001297,0.0009086222853511572
1772867301338893300,4.890893310546875,0.0014520459808409214,-0.000027923844754695892,0.0004104528925381601
1772867301348959500,4.90095947265625,-0.0006491879466921091,-0.0009352630004286766,-0.00024282053345814347
1772867301359024400,4.9110244140625,-0.0012405810412019491,0.00010053720325231552,0.001189573435112834
1772867301369090300,4.92109033203125,0.0009842237923294306,0.0016409093514084816,0.0003075344720855355
1772867301379156200,4.93115625,-0.000718454597517848,0.0005258442834019661,-0.0005636292626149952
1772867301389222400,4.941222412109375,-0.0007240476552397013,-0.0027969814836978912,0.0008925872389227152
1772867301399288300,4.951288330078125,0.0022325110621750355,0.0001418003812432289,0.0012115377467125654
1772867301409354500,4.9613544921875,0.0009680420625954866,0.0009892182424664497,0.0002916817902587354
1772867301419420200,4.971420166015625,0.0017249095253646374,0.0006720935925841331,0.0004288068157620728
1772867301429486300,4.981486328125,0.0018980149179697037,0.0024348394945263863,-0.0010114307515323162
1772867301439552300,4.99155224609375,-0.0008539038244634867,-0.0014911172911524773,-0.00445189792662859
1772867301449618400,5.001618408203125,-0.00006374414078891277,-0.001032521016895771,0.0019058664329349995
1772867301459684400,5.011684326171875,0.0009887779597193003,0.0007267436012625694,-0.0009471218218095601
1772867301469749500,5.02174951171875,-0.0008807613048702478,0.0002622883766889572,-0.0016187711153179407
1772867301479815200,5.031815185546875,0.00003759888932108879,0.0005773650482296944,0.000004781817551702261
1772867301489881300,5.04188134765625,-0.000517403706908226,-0.0009986935183405876,0.0016258480027318
1772867301499947300,5.051947265625,-0.001023424556478858,0.0006788745522499084,0.0016157029895111918
1772867301510013400,5.062013427734375,-0.0015243652742356062,0.0013838140293955803,-0.00009883998427540064
1772867301520079400,5.072079345703125,-0.000030250288546085358,-0.0001615714281797409,-0.0025160275399684906
1772867301530145300,5.082145263671875,0.0026938971132040024,0.0007801223546266556,-0.002587932627648115
1772867301540211500,5.09221142578125,-0.0007775579579174519,-0.0012012999504804611,-0.0011682227486744523
1772867301550277000,5.102277099609375,-0.001254530157893896,-0.002199985086917877,0.0007788143120706081
1772867301560343300,5.11234326171875,0.0014932684134691954,0.0021716849878430367,0.001361669274047017
1772867301570409200,5.1224091796875,0.0007672905921936035,0.0002872319892048836,-0.002953184302896261
1772867301580474400,5.132474365234375,-0.00030018086545169353,0.0010381992906332016,-0.0020229832734912634
1772867301590540300,5.142540283203125,0.00274567655287683,0.00003791600465774536,0.0016505811363458633
1772867301600606500,5.1526064453125,-0.0008314677979797125,0.0014594513922929764,-0.0005009645828977227
1772867301610672000,5.162672119140625,-0.00042586843483150005,-0.0002724025398492813,0.0015496695414185524
1772867301620738300,5.17273828125,-0.00048103160224854946,0.0003407970070838928,0.0006786554004065692
1772867301630804200,5.18280419921875,0.00044974288903176785,0.00029445718973875046,-0.0032207451295107603
1772867301640870400,5.192870361328125,-0.0006078649312257767,0.00024269893765449524,-0.002472127787768841
1772867301650936300,5.202936279296875,0.0012654026504606009,-0.0014212438836693764,0.0008970372728072107
1772867301661002500,5.21300244140625,0.0004861482884734869,0.0006157727912068367,-0.001932649058289826
1772867301671068400,5.223068359375,-0.00008483324199914932,0.0002533169463276863,0.00024821353144943714
1772867301681134300,5.23313427734375,-0.0003890674561262131,-0.00011570099741220474,0.00228501227684319
1772867301691199200,5.24319921875,-0.000929955393075943,0.003385556861758232,-0.0005954627995379269
1772867301701265400,5.253265380859375,-0.001074695959687233,0.0005305707454681396,0.0018197721801698208
1772867301711331300,5.263331298828125,-0.0019916221499443054,0.000688496045768261,0.002207262208685279
1772867301721397500,5.2733974609375,-0.0001730599906295538,0.001305452547967434,0.0014381716027855873
1772867301731463400,5.28346337890625,-0.0004620130639523268,0.0027259821072220802,-0.0023869266733527184
1772867301741529300,5.293529296875,0.000946094049140811,0.00017943978309631348,-0.0008485407452099025
1772867301751595300,5.30359521484375,-0.0010904252994805574,-0.0014797095209360123,-0.0012717170175164938
1772867301761661200,5.3136611328125,-0.0006941556930541992,0.001791597343981266,0.0019501050701364875
1772867301771727400,5.323727294921875,0.0010624651331454515,-0.0007458627223968506,0.0034976680763065815
1772867301781793300,5.333793212890625,0.0015454285312443972,-0.00016424711793661118,0.0007540372898802161
1772867301791859500,5.343859375,-0.003682356560602784,-0.00011098384857177734,-0.00021029339404776692
1772867301801925400,5.35392529296875,0.000349181005731225,-0.001685849390923977,-0.0022459106985479593
1772867301811990300,5.363990234375,0.0003379958216100931,-0.0014315173029899597,0.0006271075108088553
1772867301822056200,5.37405615234375,-0.002115871524438262,-0.0016554426401853561,-0.00022660184185951948
1772867301832122400,5.384122314453125,-0.0005603192839771509,0.001394675113260746,0.0007140266243368387
1772867301842188300,5.394188232421875,0.0008174413815140724,-0.0004382617771625519,-0.0014280008617788553
1772867301852254500,5.40425439453125,0.0014038693625479937,-0.0009485231712460518,-0.00042745127575471997
1772867301862320400,5.4143203125,0.00027441931888461113,0.003667498007416725,0.0026188944466412067
1772867301872386600,5.424386474609375,0.0012858877889811993,0.00048635154962539673,0.0004891645512543619
1772867301882452200,5.4344521484375,0.0007581685204058886,0.0005945740267634392,0.0028713508509099483
1772867301892518400,5.444518310546875,0.002717189956456423,-0.00008905958384275436,0.00014320871559903026
1772867301902584300,5.454584228515625,-0.00003278721123933792,-0.0018123714253306389,-0.0021872245706617832
1772867301912650200,5.464650146484375,-0.000840524211525917,0.0011256281286478043,-0.001139537082053721
1772867301922716400,5.47471630859375,-0.001970626413822174,-0.004315623082220554,-0.0032856143079698086
1772867301932782300,5.4847822265625,0.0018174538854509592,0.00005116220563650131,-0.003087208839133382
1772867301942847200,5.49484716796875,-0.00207895552739501,0.0011827116832137108,0.0008693839772604406
1772867301952913400,5.504913330078125,-0.0013375314883887768,0.000006659887731075287,-0.002259031403809786
1772867301962979300,5.514979248046875,-0.000727564562112093,0.0013463245704770088,0.002573625650256872
1772867301973045200,5.525045166015625,-0.003556640353053808,-0.001310710795223713,-0.0027737354394048452
1772867301983111400,5.535111328125,-0.001984172500669956,0.0020785629749298096,0.0008998021949082613
1772867301993177300,5.54517724609375,-0.0013298336416482925,0.0006399238482117653,-0.000013928394764661789
1772867302003243500,5.555243408203125,-0.00004857662133872509,-0.0018891328945755959,-0.00002283666981384158
1772867302013309200,5.56530908203125,0.003200213424861431,-0.00018657371401786804,-0.000045739870984107256
1772867302023375400,5.575375244140625,-0.0006662996020168066,-0.0017272690311074257,-0.0007334945839829743
1772867302033441300,5.585441162109375,-0.0017544676084071398,0.0014165928587317467,-0.0014954250073060393
1772867302043507500,5.595507568359375,-0.0003846241161227226,-0.002857041545212269,-0.0005203442415222526
1772867302053573400,5.605573486328125,-0.0003342907875776291,-0.0014570178464055061,-0.0015664338134229183
1772867302063639300,5.615639404296875,-0.0008093025535345078,-0.0011093579232692719,-0.0033048209734261036
1772867302073704200,5.6257041015625,0.0010189577005803585,-0.0030164476484060287,0.0007716796244494617
1772867302083770400,5.635770263671875,0.001036349218338728,-0.0005184169858694077,0.0005927826277911663
1772867302093836300,5.645836181640625,-0.0014651580713689327,0.0027562053874135017,0.00023325590882450342
1772867302103902500,5.65590234375,-0.0026845720130950212,-0.0006613386794924736,0.000015815661754459143
1772867302113968400,5.665968505859375,0.00016820617020130157,0.0014196550473570824,-0.0003951100807171315
1772867302124034300,5.676034423828125,-0.00005891593173146248,-0.0015170080587267876,0.0017521416302770376
1772867302134100500,5.6861005859375,-0.002008349634706974,0.0016790516674518585,0.0002940610283985734
1772867302144166100,5.696166259765625,0.00023270887322723866,-0.0024284273386001587,-0.0003256360359955579
1772867302154232300,5.706232421875,-0.0008522628340870142,0.0008107749745249748,0.002443518955260515
1772867302164298200,5.71629833984375,-0.0007001080084592104,0.0002794889733195305,0.0008015506900846958
1772867302174364400,5.726364501953125,-0.0016188982408493757,0.0017985561862587929,-0.00042803073301911354
1772867302184430300,5.736430419921875,0.0006319477688521147,0.0006585624068975449,0.0016083773225545883
1772867302194496500,5.74649658203125,-0.0014804715756326914,0.0020434055477380753,-0.0012774239294230938
1772867302204562400,5.7565625,0.0010407119989395142,-0.000603589229285717,-0.0017552311765030026
1772867302214627300,5.76662744140625,0.0008500297553837299,0.0015093619003891945,0.0007771686650812626
1772867302224693200,5.776693359375,-0.0006500065792351961,-0.0007826210930943489,0.0016382643952965736
1772867302234759400,5.786759521484375,-0.0009538733866065741,0.0006200661882758141,0.002802332164719701
1772867302244825300,5.796825439453125,-0.0015711309388279915,0.000744091346859932,0.0018625915981829166
1772867302254891500,5.8068916015625,-0.00027044303715229034,-0.002430129796266556,0.0008492586784996092
1772867302264957400,5.81695751953125,-0.0014757993631064892,0.0014996351674199104,-0.0009731812169775367
1772867302275023000,5.827023193359375,-0.0004960224032402039,0.0006564781069755554,-0.0004173794877715409
1772867302285089300,5.83708935546875,0.0005143526941537857,0.0007203454151749611,0.003302728058770299
1772867302295155200,5.8471552734375,0.0005724097136408091,0.00005482137203216553,-0.0015380998374894261
1772867302305221400,5.857221435546875,0.00007092347368597984,-0.0006228890269994736,0.0003142672940157354
1772867302315287300,5.867287353515625,-0.0007418734021484852,0.00003118347376585007,-0.0002798839414026588
1772867302325353500,5.877353515625,-0.0026601580902934074,-0.0011996673420071602,-0.001700318418443203
1772867302335419400,5.88741943359375,-0.001737372949719429,0.0016978513449430466,0.00005230790702626109
1772867302345485600,5.897485595703125,-0.0006630253046751022,0.0008398247882723808,-0.0011755356099456549
1772867302355550200,5.90755029296875,0.0004488446284085512,-0.000272577628493309,0.0007219666731543839
1772867302365616400,5.917616455078125,0.00027965987101197243,0.0026246290653944016,0.00033313443418592215
1772867302375682300,5.927682373046875,0.0005896517541259527,-0.0009474689140915871,-0.003701288253068924
1772867302385748500,5.93774853515625,0.0018215200398117304,-0.0013257581740617752,0.0018090899102389812
1772867302395814400,5.947814453125,-0.0028470014221966267,-0.0006399946287274361,0.001487912843003869
1772867302405880600,5.957880615234375,-0.0004517580382525921,-0.003135332837700844,-0.002038850449025631
1772867302415946200,5.9679462890625,0.0017141907010227442,-0.001179240643978119,-0.0007261784048750997
1772867302426012200,5.97801220703125,-0.0011705756187438965,-0.0019066454842686653,-0.0001562433608341962
1772867302436078300,5.988078369140625,0.0011951103806495667,-0.0010419171303510666,-0.0028292580973356962
1772867302446144300,5.998144287109375,-0.000831852201372385,0.0028263330459594727,0.00047473813174292445
1772867302456210400,6.00821044921875,-0.0009005619212985039,0.0006414763629436493,0.0006185487727634609
1772867302466276400,6.0182763671875,-0.00044350652024149895,0.00035114586353302,0.0007230211631394923
1772867302476342500,6.028342529296875,0.0014223044272512197,-0.0015673954039812088,-0.00003677862696349621
1772867302486408200,6.038408203125,0.0010468747932463884,-0.002329767681658268,-0.0007375014247372746
1772867302496473300,6.048473388671875,-0.0018410570919513702,-0.001216566190123558,-0.001544705592095852
1772867302506539300,6.058539306640625,-0.00009533343836665154,-0.0019272053614258766,0.0014606686308979988
1772867302516605400,6.06860546875,-0.0009888238273561,-0.0007423656061291695,0.0011855640914291143
1772867302526671400,6.07867138671875,-0.00041525717824697495,0.004378541372716427,-0.0007372454274445772
1772867302536737500,6.088737548828125,0.0015562810003757477,0.0016368180513381958,0.0006577183376066387
1772867302546803200,6.09880322265625,-0.00305093452334404,0.0012749964371323586,-0.001642277231439948
1772867302556869400,6.108869384765625,0.0027366471476852894,-0.00015645194798707962,0.001668830867856741
1772867302566935300,6.118935302734375,0.0006816659588366747,0.0002474375069141388,0.0018462277948856354
1772867302577001200,6.129001220703125,0.0005772700533270836,-0.002530772238969803,0.002014539437368512
1772867302587067400,6.1390673828125,0.0006243728566914797,-0.000056292861700057983,-0.0013357017887756228
1772867302597133300,6.14913330078125,0.0020915083587169647,0.0015708990395069122,0.0030691667925566435
1772867302607199500,6.159199462890625,0.0009634459856897593,0.0011483971029520035,-0.0028070330154150724
1772867302617265200,6.16926513671875,-0.0005327179096639156,-0.00012352783232927322,0.002807975746691227
1772867302627331300,6.179331298828125,0.0002934555523097515,0.002259461209177971,0.003544576931744814
1772867302637397200,6.189397216796875,0.0018279689829796553,-0.0011853380128741264,0.0008369410061277449
1772867302647463400,6.19946337890625,0.0013892422430217266,-0.0018636733293533325,0.0004914262099191546
1772867302657528300,6.2095283203125,0.001982594607397914,0.00014887750148773193,-0.0009405554737895727
1772867302667594500,6.219594482421875,-0.0009598261676728725,0.00324847549200058,-0.003990857396274805
1772867302677660200,6.22966015625,-0.00026713777333498,0.0004295194521546364,0.00012852012878283858
1772867302687726300,6.239726318359375,-0.0005008592270314693,-0.0006801066920161247,-0.00013966020196676254
1772867302697792300,6.249792236328125,-0.002248691860586405,-0.00025266967713832855,0.002334150020033121
1772867302707858400,6.2598583984375,-0.002232708502560854,-0.0004594894126057625,-0.0006665207911282778
1772867302717924400,6.26992431640625,0.00045335572212934494,0.002827649936079979,0.0019103538943454623
1772867302727990300,6.279990234375,0.00022623338736593723,0.0017419364303350449,0.0005115209496580064
1772867302738056400,6.290056396484375,-0.001687514130026102,-0.000773952342569828,0.002004222711548209
1772867302748122400,6.300122314453125,0.0006340194959193468,-0.002297668717801571,0.0008375960751436651
1772867302758188300,6.310188232421875,0.001931777922436595,0.00004298333078622818,0.0019127142149955034
1772867302768254200,6.320254150390625,0.0010677052196115255,0.0004890132695436478,-0.0005728005198761821
1772867302778320400,6.3303203125,-0.0016958569176495075,0.0016062092036008835,0.0005561134312301874
1772867302788386300,6.34038623046875,-0.0023953504860401154,0.00042301882058382034,-0.0032256068661808968
1772867302798452500,6.350452392578125,0.0002779308706521988,-0.0008142860606312752,0.00035634462255984545
1772867302808518400,6.360518310546875,-0.0002736174501478672,-0.0006148787215352058,0.001070215366780758
1772867302818583300,6.370583251953125,-0.0019258428364992142,-0.001380004920065403,-0.00040677376091480255
1772867302828649200,6.380649169921875,-0.0003658072091639042,0.0008582118898630142,0.0009024763712659478
1772867302838715400,6.39071533203125,-0.0018872711807489395,-0.00022409670054912567,0.0020138134714215994
1772867302848781300,6.40078125,0.001092271413654089,-0.000948137603700161,0.00011368904961273074
1772867302858847500,6.410847412109375,-0.0011937860399484634,-0.0002764882519841194,-0.0008381247171200812
1772867302868913400,6.420913330078125,0.001165130641311407,0.0012236488983035088,0.0017910440219566226
1772867302878979300,6.430979248046875,-0.0018293275497853756,0.0013970201835036278,0.0007452205754816532
1772867302889045200,6.441045166015625,0.0019628365989774466,-0.0008130287751555443,-0.001880499767139554
1772867302899111200,6.451111083984375,0.000646169763058424,-0.00012433528900146484,0.000680928525980562
1772867302909177300,6.46117724609375,-0.0006992323324084282,-0.0010758526623249054,0.0007497574551962316
1772867302919243300,6.4712431640625,0.0019530095160007477,-0.00007157493382692337,0.0008307175594381988
1772867302929309400,6.481309326171875,-0.0003629871644079685,0.002128024585545063,0.0012500935699790716
1772867302939375400,6.491375244140625,-0.0017164056189358234,-0.00030530523508787155,-0.001274849520996213
1772867302949441500,6.501441650390625,-0.002159533556550741,0.0007373979315161705,-0.0015812707133591175
1772867302959507200,6.511507080078125,-0.00008679553866386414,0.0014268895611166954,0.0008177047711797059
1772867302969573400,6.521573486328125,-0.00012436509132385254,-0.0001517217606306076,0.0009082859032787383
1772867302979639300,6.531639404296875,-0.002945185173302889,0.0016075624153017998,-0.0019796460401266813
1772867302989704400,6.541704345703125,-0.0015054135583341122,-0.0008683381602168083,0.0005544578889384866
1772867302999770400,6.551770263671875,0.0011172674130648375,-0.00016979128122329712,-0.001556097180582583
1772867303009836500,6.56183642578125,0.0007482587825506926,0.00011596363037824631,0.004098085220903158
1772867303019902200,6.571902099609375,0.0010966002009809017,0.0017977496609091759,0.00006313004996627569
1772867303029968400,6.581968505859375,-0.0005276384763419628,0.0023991400375962257,0.0015367213636636734
1772867303040034300,6.592034423828125,-0.00018595485016703606,-0.0008674934506416321,0.001868551131337881
1772867303050100200,6.602100341796875,-0.0006541237235069275,-0.0010185223072767258,-0.0008841367671266198
1772867303060166400,6.61216650390625,-0.0014882255345582962,0.0018196078017354012,-0.0036482317373156548
1772867303070232300,6.622232421875,0.0005407764110714197,0.0011302093043923378,0.0019497759640216827
1772867303080298500,6.632298583984375,-0.00006935372948646545,-0.00102322269231081,-0.000786622054874897
1772867303090364400,6.642364501953125,-0.0017149252817034721,-0.00084698386490345,0.0018053291132673621
1772867303100430300,6.652430419921875,-0.0006166375242173672,-0.0015058498829603195,-0.0009611625573597848
1772867303110496300,6.662496337890625,-0.0007870616391301155,0.001022910699248314,0.0006955595454201102
1772867303120562400,6.6725625,-0.0013788160867989063,-0.0009606117382645607,-0.00045758922351524234
1772867303130628400,6.68262841796875,0.0010935761965811253,-0.000010699965059757233,0.0008504711440764368
1772867303140694300,6.6926943359375,-0.002835651859641075,-0.0008016582578420639,0.0016946932300925255
1772867303150760400,6.702760498046875,-0.0028328876942396164,-0.002092890441417694,0.0014829812571406364
1772867303160826400,6.712826416015625,-0.00005387887358665466,0.00039503443986177444,0.0003332946798764169
1772867303170892300,6.722892333984375,-0.0006282865069806576,-0.001377682201564312,0.0025403208564966917
1772867303180957400,6.73295751953125,-0.0012301611714065075,-0.001545194536447525,-0.00006345170550048351
1772867303191023400,6.7430234375,0.0013364888727664948,-0.00135002750903368,-0.0004997095093131065
1772867303201089300,6.75308935546875,0.00017029070295393467,0.0006220424547791481,0.0005943170981481671
1772867303211155500,6.763155517578125,-0.00022717658430337906,0.0008435919880867004,-0.0009680487564764917
1772867303221221400,6.773221435546875,0.00012196367606520653,-0.001771366223692894,0.0008024207782000303
1772867303231287300,6.783287353515625,0.0010717615950852633,-0.0012094760313630104,-0.00178677833173424
1772867303241353200,6.793353271484375,-0.0018025883473455906,-0.00337382685393095,0.0013064831728115678
1772867303251420000,6.803419921875,-0.000154807697981596,0.0017312215641140938,0.00045503058936446905
1772867303261486000,6.813486083984375,0.0014249796513468027,0.0013674339279532433,-0.0019420806784182787
1772867303271552000,6.823552001953125,-0.0008430620655417442,0.000058603473007678986,-0.00010759441647678614
1772867303281618200,6.8336181640625,0.00048345839604735374,0.00002717878669500351,-0.0011616735719144344
1772867303291684000,6.84368408203125,0.0021019927226006985,0.0013630762696266174,0.0014842816162854433
1772867303301750300,6.853750244140625,-0.001495671458542347,0.0002956809476017952,0.00023951998446136713
1772867303311816000,6.86381591796875,-0.00004898197948932648,0.001611241139471531,-0.0007794719422236085
1772867303321882000,6.873882080078125,-0.00018293876200914383,0.0028661219403147697,0.0018208386609330773
1772867303331948000,6.883947998046875,0.0012900852598249912,0.0013566305860877037,0.0013134055770933628
1772867303342014000,6.894013916015625,-0.0008620154112577438,-0.003413889557123184,-0.00023442372912541032
1772867303352080100,6.904080078125,-0.00008864980190992355,0.000887804664671421,0.0006918072467669845
1772867303362146000,6.91414599609375,-0.0016428707167506218,0.0017647836357355118,-0.0010368506191298366
1772867303372211000,6.9242109375,-0.0033161835744976997,-0.0021041519939899445,-0.0011371993459761143
1772867303382277000,6.934277099609375,-0.0007118787616491318,-0.00019972585141658783,0.0021949477959424257
1772867303392343000,6.944343017578125,-0.0005796863697469234,-0.0009676152840256691,-0.001994962804019451
1772867303402409000,6.954408935546875,-0.0004673008807003498,0.0005250871181488037,0.002741735428571701
1772867303412475100,6.96447509765625,-0.001933954656124115,-0.0002762638032436371,-0.0013291970826685429
1772867303422541000,6.974541015625,-0.00022420566529035568,-0.00026960577815771103,-0.0007302521262317896
1772867303432607200,6.984607177734375,-0.0015491577796638012,0.002103983424603939,-0.000023920380044728518
1772867303442673200,6.994673095703125,-0.0014527509920299053,-0.0023410990834236145,-0.001709168660454452
1772867303452739000,7.004739013671875,0.00048588961362838745,-0.0009163878858089447,0.0005147558404132724
1772867303462805000,7.014804931640625,0.002044637920334935,-0.0000742962583899498,0.001007174258120358
1772867303472871200,7.02487109375,-0.000704876147210598,0.00015562865883111954,0.0025634795892983675
1772867303482937000,7.03493701171875,0.0013201914262026548,-0.0002672811970114708,-0.0008759928750805557
1772867303493003000,7.0450029296875,-0.0039587486535310745,-0.0020847395062446594,-0.0006183573277667165
1772867303503069200,7.055069091796875,-0.0012575038708746433,-0.0001997547224164009,-0.0007813427946530282
1772867303513135000,7.065135009765625,0.0020417682826519012,0.0014857081696391106,-0.0012323198607191443
1772867303523201000,7.075200927734375,-0.000006202608346939087,-0.0007753157988190651,-0.0004536115739028901
1772867303533267000,7.085266845703125,-0.0009851022623479366,0.0012081591412425041,0.0005794076132588089
1772867303543333000,7.0953330078125,0.0022311971988528967,0.0000462215393781662,0.0007019129698164761
1772867303553399000,7.10539892578125,-0.0015407423488795757,-0.0006628995761275291,0.0028589917346835136
1772867303563465200,7.11546533203125,-0.00006934581324458122,0.0010899929329752922,-0.0001282759476453066
1772867303573531100,7.12553125,0.0019544740207493305,-0.0012690173462033272,0.001954479143023491
1772867303583597000,7.13559716796875,-0.0007310574874281883,-0.0005172071978449821,-0.001999516040086746
1772867303593663000,7.1456630859375,-0.001610280480235815,-0.0018071439117193222,-0.0006401304854080081
1772867303603728100,7.15572802734375,-0.00014927051961421967,-0.0007075248286128044,0.0025460754986852407
1772867303613794000,7.1657939453125,0.0003467900678515434,0.0009650206193327904,-0.002108155284076929
1772867303623860200,7.175860107421875,0.00004691816866397858,-0.00017774198204278946,-0.0009616645984351635
1772867303633926100,7.185926025390625,-0.0014201956801116467,0.0016099503263831139,-0.0015544772613793612
1772867303643992000,7.195991943359375,-0.0012532155960798264,0.00037158001214265823,0.001581661170348525
1772867303654058000,7.20605810546875,0.00017151120118796825,0.0002351207658648491,-0.0022257131058722734
1772867303664124000,7.2161240234375,0.0018386498559266329,0.0014354074373841286,-0.001982832793146372
1772867303674190000,7.226190185546875,0.002136748284101486,0.0017756177112460136,-0.0015499406727030873
1772867303684256000,7.236256103515625,0.0014656316488981247,0.0017593726515769958,-0.002780321054160595
1772867303694322200,7.246322265625,-0.0012783417478203773,-0.0019015902653336525,-0.002083735540509224
1772867303704388000,7.25638818359375,-0.0017467914149165154,-0.0022984007373452187,0.0008396162884309888
1772867303714454300,7.266454345703125,0.00026632659137248993,0.0001996997743844986,-0.000248452415689826
1772867303724520200,7.276520263671875,-0.0008609895594418049,-0.0015470674261450768,-0.000546193856280297
1772867303734586000,7.286586181640625,0.0031000152230262756,0.00008272100239992142,0.002406931482255459
1772867303744652000,7.296652099609375,-0.0012012561783194542,0.0017567845061421394,-0.002148139290511608
1772867303754718000,7.306718017578125,-0.0010730638168752193,-0.0010430654510855675,-0.001232742564752698
1772867303764784000,7.3167841796875,0.000001521781086921692,0.001180407591164112,-0.0023113228380680084
1772867303774850000,7.32685009765625,-0.0004322635941207409,-0.0007545119151473045,0.0002402287209406495
1772867303784916200,7.336916259765625,0.0004918535705655813,0.0021390123292803764,-0.00211373926140368
1772867303794982100,7.346982177734375,0.0010352896060794592,-0.0005032625049352646,-0.00003422284498810768
1772867303805048000,7.357048095703125,0.001891762251034379,-0.0021613463759422302,0.0006677863420918584
1772867303815114000,7.367114013671875,0.002216271823272109,-0.0006190845742821693,0.0002798889181576669
1772867303825180200,7.37718017578125,0.000873772194609046,0.0006568357348442078,0.0007755031692795455
1772867303835246000,7.38724609375,0.0017818098422139883,-0.00007179193198680878,-0.0013437033630907536
1772867303845311200,7.397311279296875,0.0020025859121233225,0.00007574725896120071,-0.001315473928116262
1772867303855377200,7.407377197265625,-0.00009401794523000717,0.0007242010906338692,0.0012365235015749931
1772867303865443000,7.417443115234375,-0.0007781842723488808,0.0005260622128844261,0.0023539860267192125
1772867303875509000,7.427509033203125,-0.00018675392493605614,-0.0007226821035146713,-0.0018409439362585545
1772867303885575200,7.4375751953125,0.0008095346856862307,0.0018936078995466232,0.00023578910622745752
1772867303895641000,7.44764111328125,0.00006805034354329109,-0.0022994037717580795,0.0016942571382969618
1772867303905707000,7.45770703125,0.0006523476913571358,-0.00006234832108020782,0.0012982450425624847
1772867303915773200,7.467773193359375,0.0003422379959374666,0.002193845808506012,-0.00046083753113634884
1772867303925839000,7.477839111328125,-0.00043806806206703186,0.00017170794308185577,-0.0042196232825517654
1772867303935905000,7.487905029296875,0.00025461241602897644,0.0017813462764024734,0.0034442672040313482
1772867303945971000,7.497970947265625,0.0006538201123476028,-0.0019585303962230682,-0.00011904234997928143
1772867303956037000,7.508037109375,0.002119272481650114,-0.00009178929030895233,-0.0017649867804720998
1772867303966103000,7.51810302734375,0.0002774305175989866,0.0010504405945539474,0.0015879329293966293
1772867303976169200,7.528169189453125,-0.00011206604540348053,-0.001051723025739193,-0.0010575416963547468
1772867303986235100,7.538235107421875,0.0022719954140484333,0.0005435105413198471,-0.002741192001849413
1772867303996301000,7.548301025390625,0.0020891178864985704,-0.0010054949671030045,-0.001217578537762165
1772867304006367200,7.5583671875,0.0009889660868793726,-0.0017636977136135101,0.0015606312081217766
1772867304016433000,7.568432861328125,0.003267455380409956,0.0016510989516973495,0.0028921642806380987
1772867304026499000,7.5784990234375,0.0003821868449449539,-0.00030472688376903534,0.0010194294154644012
1772867304036565000,7.58856494140625,-0.0003510662354528904,-0.00011690519750118256,-0.0000583800720050931
1772867304046631200,7.598631103515625,0.0009573446586728096,-0.001238361932337284,-0.000057048455346375704
1772867304056697000,7.608697021484375,0.00037190457805991173,-0.0021720053628087044,0.0013329434441402555
1772867304066763300,7.61876318359375,-0.0011290530674159527,0.002095975913107395,-0.0005062355194240808
1772867304076829200,7.6288291015625,0.0032112072221934795,-0.0008164588361978531,0.0005812140880152583
1772867304086895000,7.63889501953125,0.0009666949044913054,-0.0006172545254230499,-0.0006417094264179468
1772867304096961000,7.6489609375,0.00016832235269248486,0.0015275180339813232,0.0015701798256486654
1772867304107026200,7.659026123046875,0.002137996256351471,-0.0020286012440919876,-0.0003507582878228277
1772867304117092000,7.669092041015625,0.0002544485032558441,-0.0006502224132418633,0.0014307601377367973
1772867304127158300,7.679158203125,0.0019628661684691906,-0.0007309168577194214,-0.0003796567616518587
1772867304137224200,7.68922412109375,0.0012378599494695663,0.002366378903388977,0.0010744333267211914
1772867304147290000,7.6992900390625,0.00013744179159402847,0.00014876481145620346,0.0035088290460407734
1772867304157356000,7.70935595703125,0.0017080658581107855,-0.0001632804051041603,0.0017165069002658129
1772867304167422000,7.719421875,-0.00011167209595441818,0.00048493314534425735,0.0026195847894996405
1772867304177488100,7.729488037109375,-0.0011016572825610638,-0.0008148541674017906,-0.0010637035593390465
1772867304187554000,7.739553955078125,0.00030981795862317085,0.0002565355971455574,-0.0020919498056173325
1772867304197620200,7.7496201171875,-0.00021813251078128815,0.0029032547026872635,0.001680759247392416
1772867304207686100,7.75968603515625,0.00043647270649671555,-0.0011831000447273254,-0.0011070378823205829
1772867304217752000,7.769751953125,0.0027293148450553417,0.0009920038282871246,-0.0001894438173621893
1772867304227818000,7.77981787109375,0.0010672358330339193,-0.0030663879588246346,-0.0026214425452053547
1772867304237884200,7.78988427734375,0.0033475798554718494,-0.0005915025249123573,0.0002921957056969404
1772867304247949600,7.799949462890625,0.0030082932207733393,0.001340886577963829,-0.003115318715572357
1772867304258015700,7.810015625,0.0016537862829864025,-0.0009430274367332458,0.0007486295653507113
1772867304268081700,7.82008154296875,-0.0004277401603758335,-0.0002665845677256584,0.0003366385353729129
1772867304278147600,7.830147705078125,-0.00045338692143559456,0.000529242679476738,-0.001589819323271513
1772867304288213800,7.8402138671875,0.0014648877549916506,-0.0001304224133491516,-0.001581563614308834
1772867304298279700,7.85027978515625,0.0003999571781605482,0.002662036567926407,0.0007001932826824486
1772867304308345900,7.860345947265625,0.0018654947634786367,-0.0015132678672671318,0.001028294675052166
1772867304318411800,7.870411865234375,0.0032546487636864185,-0.0007564369589090347,0.0022291007917374372
1772867304328477700,7.880477783203125,0.001120125176385045,0.0023277699947357178,-0.0007057026959955692
1772867304338543600,7.890543701171875,-0.0028726444579660892,-0.0007731355726718903,0.00047789845848456025
1772867304348609800,7.90060986328125,0.0010294192470610142,-0.0000074766576290130615,0.0027453138027340174
1772867304358675700,7.91067578125,-0.00021789036691188812,-0.000380074605345726,-0.002086085733026266
1772867304368741600,7.92074169921875,-0.00027195224538445473,0.0017091752961277962,0.0014151721261441708
1772867304378807800,7.930807861328125,0.000834994949400425,0.0010875081643462181,-0.0017654560506343842
1772867304388873700,7.940873779296875,0.0009463152382522821,0.000395885668694973,0.0012942496687173843
1772867304398939600,7.950939697265625,0.0003929981030523777,0.0002930453047156334,0.001762712374329567
1772867304409005600,7.961005615234375,0.0019323050510138273,-0.00006727967411279678,0.001643669093027711
1772867304419070700,7.97107080078125,0.002203211188316345,-0.000892171636223793,-0.0020588438492268324
1772867304429136600,7.98113671875,0.0011422077659517527,0.0002769557759165764,-0.002160044154152274
1772867304439202800,7.991202880859375,0.0005232521798461676,0.00018793996423482895,-0.0009087785729207098
1772867304449268700,8.001268798828125,-0.0033591040410101414,0.0036982521414756775,0.000038507801946252584
1772867304459334700,8.011334716796876,0.00008579227142035961,-0.0000447416678071022,-0.0022087590768933296
1772867304469400600,8.021400634765625,0.000947058666497469,0.0005856286734342575,0.00039314921014010906
1772867304479466800,8.031466796875,0.0006545863579958677,-0.0013079922646284103,-0.0007473464356735349
1772867304489532700,8.04153271484375,0.0001405961811542511,0.001564227044582367,0.0003852960071526468
1772867304499598800,8.051598876953125,0.0008915909565985203,0.0007067844271659851,-0.0012231827713549137
1772867304509664800,8.061664794921874,-0.0001467755064368248,-0.00103865098208189,-0.0010886932723224163
1772867304519730700,8.071730712890625,-0.0002975594252347946,0.0003488529473543167,-0.00029956872458569705
1772867304529796600,8.081796630859374,-0.0017662923783063889,-0.0005030930042266846,0.00128767522983253
1772867304539862500,8.091862548828125,0.0002648408990353346,-0.0005896603688597679,-0.0002575467515271157
1772867304549928700,8.1019287109375,-0.0006624716334044933,-0.0012120408937335014,-0.0007393126143142581
1772867304559994600,8.11199462890625,-0.0008709537796676159,-0.0008041560649871826,0.0015156603185459971
1772867304570060800,8.122060791015626,-0.0014019878581166267,-0.0016124257817864418,0.001944162999279797
1772867304580126700,8.132126708984375,0.0004063202068209648,-0.0018783528357744217,0.001982168760150671
1772867304590193000,8.14219287109375,0.0009179133921861649,-0.0013403939083218575,-0.0003374447114765644
1772867304600258800,8.1522587890625,0.0005031127948313951,0.0011753300204873085,-0.003133265068754554
1772867304610324700,8.16232470703125,-0.0010748100467026234,-0.00004359893500804901,-0.0007731717778369784
1772867304620390700,8.172390625,0.0017172598745673895,-0.0003207279369235039,-0.0012731531169265509
1772867304630456600,8.18245654296875,-0.0010151434689760208,0.0012428145855665207,0.0005314049194566905
1772867304640522800,8.192522705078124,-0.00025764480233192444,-0.002128814347088337,-0.0007850531837902963
1772867304650588700,8.202588623046875,-0.0013945484533905983,0.00010211579501628876,-0.002884156536310911
1772867304660654800,8.21265478515625,0.0010601317044347525,0.00040557049214839935,0.00009662122465670109
1772867304670720800,8.222720703125,0.0004942100495100021,-0.0016349432989954948,-0.0007856839802116156
1772867304680786700,8.23278662109375,-0.0007536676712334156,-0.0003559812903404236,0.0007833733106963336
1772867304690852600,8.2428525390625,-0.0007502054795622826,-0.0004305504262447357,-0.0028827341739088297
1772867304700918800,8.252918701171875,0.0013818212319165468,0.0006048679351806641,-0.00039307790575549006
1772867304710984700,8.262984619140624,0.0004734171088784933,0.0011715879663825035,0.0005054726498201489
1772867304721050600,8.273050537109375,-0.00005713361315429211,-0.0015764711424708366,0.00006171333370730281
1772867304731116800,8.28311669921875,0.0016733882948756218,-0.0018803374841809273,-0.002828082535415888
1772867304741182700,8.2931826171875,-0.00014239875599741936,0.00022831931710243225,0.0013076015748083591
1772867304751248600,8.30324853515625,-0.0017450894229114056,0.00031913258135318756,-0.0013747342163696885
1772867304761314600,8.313314453125,-0.00008192495442926884,-0.0009823990985751152,0.0001519939978606999
1772867304771379700,8.323379638671875,0.0004997092764824629,-0.0014532459899783134,-0.00026372543652541935
1772867304781445600,8.333445556640624,-0.0037185349501669407,-0.0021737804636359215,-0.00213157432153821
1772867304791511800,8.34351171875,-0.00009237509220838547,0.0016542468219995499,-0.0015014703385531902
1772867304801577700,8.35357763671875,0.0018443972803652287,0.0018537696450948715,0.0016478332690894604
1772867304811643600,8.3636435546875,0.0009469122160226107,-0.00022722501307725906,-0.0009743149857968092
1772867304821709600,8.37370947265625,0.0012561215553432703,-0.000600149855017662,-0.003244297578930855
1772867304831775700,8.383775634765625,0.0005487860180437565,-0.0017703427001833916,-0.0003326635342091322
1772867304841841700,8.393841552734376,-0.00015946431085467339,-0.0018116086721420288,0.0020152064971625805
1772867304851907800,8.403907958984375,-0.00047185318544507027,0.0015423763543367386,-0.0008721926133148372
1772867304861973800,8.413973876953126,0.002378127072006464,-0.0000670580193400383,-0.005057970993220806
1772867304872039700,8.424039794921875,0.00016264338046312332,-0.0006532203406095505,-0.00164726038929075
1772867304882105900,8.43410595703125,0.002246726769953966,0.0015138965100049973,0.00017051276518031955
1772867304892171500,8.444171630859374,0.000568669056519866,-0.0015516681596636772,-0.0017357778269797564
1772867304902237700,8.45423779296875,0.0010554804466664791,-0.0023091454058885574,-0.0008262287592515349
1772867304912303600,8.4643037109375,-0.00010619033128023148,-0.00007635168731212616,-0.001543151680380106
1772867304922369800,8.474369873046875,-0.0004123472608625889,-0.001892496831715107,0.001351294107735157
1772867304932435700,8.484435791015626,0.0024124677293002605,0.0014170128852128983,-0.0004279636195860803
1772867304942502000,8.494501953125,-0.0003907233476638794,-0.00021235458552837372,0.0006440595607273281
1772867304952567800,8.50456787109375,-0.00152230029925704,-0.0007010446861386299,-0.0005290629342198372
1772867304962633700,8.5146337890625,0.0004617201630026102,-0.0015167566016316414,-0.0017937945667654276
1772867304972699600,8.52469970703125,-0.0003518757876008749,-0.0013804025948047638,-0.00037965603405609727
1772867304982765600,8.534765625,0.001547505147755146,-0.0018383972346782684,-0.0006149890250526369
1772867304992831700,8.544831787109375,-0.0017127366736531258,-0.0015566349029541016,-0.0022118203341960907
1772867305002897700,8.554897705078124,-0.0003547344822436571,-0.0022064605727791786,-0.0018130196258425713
1772867305012963800,8.5649638671875,-0.0017185390461236238,0.0016391444951295853,-0.0005693233688361943
1772867305023029800,8.57502978515625,0.0008746238891035318,-0.0011217687278985977,0.0003178896149620414
1772867305033095700,8.585095703125,0.00000110710971057415,-0.0008362773805856705,-0.002607592847198248
1772867305043161600,8.59516162109375,0.0004519321955740452,0.0013382220640778542,0.0016125813126564026
1772867305053227800,8.605227783203125,-0.0003054710105061531,-0.0018389290198683739,-0.0008449837332591414
1772867305063293700,8.615293701171876,-0.0020680876914411783,0.0009449096396565437,-0.0007830230752006173
1772867305073359600,8.625359619140625,-0.00012557790614664555,-0.0030881818383932114,0.0015717438654974103
1772867305083426800,8.6354267578125,-0.0005659759044647217,0.0006480654701590538,-0.002393638249486685
1772867305093492700,8.64549267578125,0.0015528348740190268,-0.0012851227074861526,0.0005723243812099099
1772867305103558700,8.65555859375,-0.0001565681304782629,-0.0007383869960904121,-0.0005385892582125962
1772867305113624800,8.665624755859374,-0.0020663209725171328,0.0019665854051709175,-0.000008087547030299902
1772867305123689700,8.675689697265625,0.0015470010694116354,-0.001237340271472931,0.0011062466073781252
1772867305133755600,8.685755615234376,0.0004380608443170786,-0.0005409242585301399,0.0008204894256778061
1772867305143821800,8.69582177734375,-0.00031924108043313026,-0.0010834289714694023,0.0006093276897445321
1772867305153887700,8.7058876953125,-0.0011610663495957851,0.0004260502755641937,-0.0015470338985323906
1772867305163953700,8.71595361328125,0.002011439297348261,-0.0007677283138036728,0.0018550374079495668
1772867305174019800,8.726019775390625,-0.00015397695824503899,0.000022698193788528442,-0.0007407456869259477
1772867305184085500,8.73608544921875,-0.00045668473467230797,0.0006043668836355209,-0.003111827652901411
1772867305194151700,8.746151611328125,-0.000423661433160305,-0.00009391363710165024,0.0008863761322572827
1772867305204217600,8.756217529296874,0.0007346011698246002,-0.0029065730050206184,0.0005681999609805644
1772867305214283800,8.76628369140625,0.00004537496715784073,-0.000942758284509182,0.0013040313497185707
1772867305224349700,8.776349609375,0.0009518947917968035,0.0007294751703739166,0.0031203199177980423
1772867305234415900,8.786415771484375,-0.0016918252222239971,0.00008525699377059937,-0.0027551460079848766
1772867305244481800,8.796481689453126,-0.000009140465408563614,0.00189246516674757,-0.0011767284013330936
1772867305254547700,8.806547607421875,-0.0008038277737796307,0.00013690907508134842,0.0009455446852371097
1772867305264613600,8.816613525390625,0.0010701403953135014,0.0013432642444968224,0.0024717231281101704
1772867305274679600,8.826679443359374,0.002658183453604579,-0.0008644964545965195,0.00029059400549158454
1772867305284745700,8.836745849609375,-0.0019319774582982063,-0.0005913665518164635,-0.0006223886739462614
1772867305294811600,8.846811767578124,-0.0029218741692602634,-0.0005697943270206451,0.00010225741425529122
1772867305304877800,8.8568779296875,0.0005056203808635473,0.000701218843460083,-0.00009926612256094813
1772867305314943700,8.86694384765625,-0.0013066604733467102,0.0029284199699759483,-0.0015637384494766593
1772867305325010000,8.877010009765625,0.000803414499387145,0.00029895827174186707,-0.0008926918962970376
1772867305335075600,8.88707568359375,-0.00008022226393222809,0.0008489005267620087,-0.001973402686417103
1772867305345141800,8.897141845703125,0.0012924661859869957,0.00186895951628685,0.0008737564785405993
1772867305355207700,8.907207763671876,-0.0009094355627894402,-0.00041336938738822937,-0.00310527253895998
1772867305365273600,8.917273681640625,0.0004726750776171684,0.002759324386715889,0.00040997075848281384
1772867305375339800,8.92733984375,-0.0006780768744647503,-0.0019033374264836311,0.0019250430632382631
1772867305385405700,8.93740576171875,0.000671672634780407,0.0007832301780581474,-0.0007456752937287092
1772867305395472000,8.947471923828125,-0.000399184413254261,0.0020407745614647865,-0.0007581921527162194
1772867305405537500,8.95753759765625,0.0012858142144978046,-0.0009253658354282379,0.0005366915138438344
1772867305415603700,8.967603759765625,-0.0005184775218367577,0.0011998368427157402,-0.0019592230673879385
1772867305425669600,8.977669677734376,-0.00012966757640242577,0.00035089440643787384,-0.003063921118155122
1772867305435735800,8.98773583984375,0.0019806213676929474,0.00017246324568986893,0.0001012457360047847
1772867305445801700,8.9978017578125,0.0012778481468558311,0.0001255115494132042,0.0003864602476824075
1772867305455867600,9.00786767578125,-0.0002172505483031273,0.0027551166713237762,-0.0013078427873551846
1772867305465933800,9.017933837890626,0.00024176877923309803,0.00028856098651885986,0.003423877991735935
1772867305475999700,9.027999755859375,0.0011858593206852674,-0.0020861802622675896,0.001980178290978074
1772867305486065700,9.038065673828125,-0.0012831087224185467,-0.0011122310534119606,0.0010025366209447384
1772867305496131600,9.048131591796874,0.0028184256516397,0.00029658060520887375,0.00004060292849317193
1772867305506197800,9.05819775390625,-0.0003064768388867378,-0.0014914758503437042,0.000001423293724656105
1772867305516263700,9.068263671875,-0.0007874439470469952,0.0006427811458706856,0.0009335296927019954
1772867305526329900,9.078329833984375,0.0005619046278297901,0.0000363420695066452,-0.0005147386691533029
1772867305536395800,9.088395751953126,0.000578682404011488,0.0010997429490089417,-0.00041939751827158034
1772867305546461700,9.098461669921875,0.00013221031986176968,0.0004085814580321312,0.0020900482777506113
1772867305556527600,9.108527587890626,-0.00020840810611844063,-0.0005645379424095154,-0.00039761041989549994
1772867305566593500,9.118593505859375,-0.0015332954935729504,0.0012380434200167656,0.0005143595626577735
1772867305576659700,9.12865966796875,-0.00004219170659780502,-0.0005305614322423935,-0.00010589064913801849
1772867305586725600,9.1387255859375,0.0010752195958048105,-0.00033645424991846085,0.0032113497145473957
1772867305596791800,9.148791748046875,-0.003993840888142586,0.0003626253455877304,0.002051542978733778
1772867305606857700,9.158857666015624,-0.0008189757354557514,-0.0011530332267284393,-0.0014915796928107738
1772867305616924000,9.168923828125,0.0006433660164475441,0.0017772428691387177,0.001406205934472382
1772867305626989600,9.178989501953126,0.001888128463178873,0.0008401749655604362,0.0017855892656370997
1772867305637054700,9.1890546875,0.0020364667288959026,0.00010194722563028336,0.0002313683507964015
1772867305647120600,9.19912060546875,-0.0011754445731639862,0.0007089143618941307,-0.0006729914457537234
1772867305657186800,9.209186767578124,-0.002015938051044941,0.00037122517824172974,-0.00009854757809080184
1772867305667252700,9.219252685546875,-0.0009033051319420338,0.00010959245264530182,-0.0008326784009113908
1772867305677319000,9.22931884765625,0.0004192208871245384,0.0006467513740062714,0.002132751513272524
1772867305687384600,9.239384521484375,-0.0026690675877034664,0.00025639496743679047,0.0017592960502952337
1772867305697450800,9.24945068359375,0.00007212418131530285,0.0012817122042179108,-0.0023941700346767902
1772867305707516700,9.2595166015625,-0.0006138645112514496,-0.0004548830911517143,0.0017133633373305202
1772867305717582600,9.26958251953125,0.00044207903556525707,0.000009838491678237915,0.00041081130621023476
1772867305727648800,9.279648681640625,0.000680423341691494,-0.0005035512149333954,0.00067565479548648
1772867305737714700,9.289714599609376,-0.0002631344832479954,0.0009577246382832527,0.0032778296153992414
1772867305747780900,9.29978076171875,-0.0009270622394979,0.0026832958683371544,-0.0017524065915495157
1772867305757846800,9.3098466796875,-0.00041014235466718674,0.0012736851349473,0.0038703251630067825
1772867305767912700,9.31991259765625,0.0005017607472836971,-0.001141320914030075,0.002998549723997712
1772867305777978600,9.329978515625,0.0020120395347476006,0.0011535249650478363,-0.0023613283410668373
1772867305788044800,9.340044921875,0.0006658555939793587,-0.000809255987405777,0.0008807418635115027
1772867305798110700,9.35011083984375,-0.0014814510941505432,0.0015204772353172302,0.0007795416750013828
1772867305808176600,9.3601767578125,-0.0006986623629927635,-0.0015486786141991615,0.0029878737404942513
1772867305818242800,9.370242919921875,-0.0012778998352587223,0.0012977076694369316,0.001796641736291349
1772867305828308700,9.380308837890626,-0.0002913912758231163,-0.0010236222296953201,-0.0029094035271555185
1772867305838374700,9.390374755859375,0.0004937085323035717,-0.00008885283023118973,-0.0012481235899031162
1772867305848440600,9.400440673828125,-0.0008447901345789433,0.0032925866544246674,-0.0003618724294938147
1772867305858506800,9.4105068359375,-0.0005510435439646244,0.0006741676479578018,0.0014006076380610466
1772867305868572700,9.42057275390625,0.002057607751339674,0.0000513419508934021,-0.0017077135853469372
1772867305878638800,9.430638916015624,0.0009654455352574587,-0.00044080987572669983,-0.001537271193228662
1772867305888704800,9.440704833984375,-0.000591806136071682,0.0009616883471608162,-0.00020420423243194818
1772867305898770700,9.450770751953126,-0.0005252272821962833,0.000032777898013591766,-0.0006393647054210305
1772867305908836600,9.460836669921875,-0.0022497628815472126,-0.0021874457597732544,-0.0003612527216318995
1772867305918902500,9.470902587890626,0.00015294086188077927,0.001714351586997509,-0.0019484967924654484
1772867305928968700,9.48096875,0.0005958247929811478,0.002740231342613697,0.003188721602782607
1772867305939034600,9.49103466796875,0.00019342126324772835,-0.001458507962524891,-0.000685645267367363
1772867305949100800,9.501100830078125,0.0018192806746810675,0.0007257238030433655,-0.00046209964784793556
1772867305959166700,9.511166748046875,-0.0012537408620119095,0.0016264049336314201,-0.002853085519745946
1772867305969233000,9.52123291015625,-0.0025226203724741936,-0.0012988494709134102,-0.0017428435385227203
1772867305979298800,9.531298828125,0.002133650705218315,-0.0009957822039723396,0.0025941142812371254
1772867305989364700,9.54136474609375,0.0015548216179013252,-0.00042619649320840836,0.0023624268360435963
1772867305999430700,9.5514306640625,-0.002376803196966648,0.00011975225061178207,-0.0010791763197630644
1772867306009496600,9.56149658203125,-0.0013325056061148643,-0.003113118000328541,0.0008229952654801309
1772867306019562800,9.571562744140625,0.0019477098248898983,-0.0012028329074382782,0.00003230269066989422
1772867306029628700,9.581628662109376,-0.0009217830374836922,-0.0013030637055635452,0.00004999534576199949
1772867306039694800,9.59169482421875,0.0031176996417343616,-0.0016340939328074455,0.0010723829036578536
1772867306049760800,9.6017607421875,-0.00035845767706632614,0.0011687884107232094,0.0019866700749844313
1772867306059826700,9.61182666015625,0.002567823976278305,-0.00017184671014547348,0.0010385848581790924
1772867306069891600,9.6218916015625,-0.0009093261323869228,0.00033110566437244415,-0.0016916231252253056
1772867306079957800,9.631957763671876,0.0017735424917191267,0.0007428303360939026,-0.0008276937296614051
1772867306090023700,9.642023681640625,0.0012607858516275883,-0.00038941577076911926,-0.001025926903821528
1772867306100089900,9.65208984375,0.001595278736203909,-0.000009648501873016357,0.0006870183860883117
1772867306110155800,9.66215576171875,-0.0023105675354599953,0.000006122514605522156,0.003256499534472823
1772867306120221700,9.6722216796875,0.002127057872712612,0.00005432590842247009,0.0024370448663830757
1772867306130287600,9.68228759765625,0.0008064629510045052,0.0009810179471969604,0.00009974479326047003
1772867306140353800,9.692353759765625,-0.0015610870905220509,-0.0008794656023383141,0.0002531428763177246
1772867306150419700,9.702419677734374,0.0010147220455110073,0.0007797135040163994,0.001556546427309513
1772867306160485600,9.712485595703125,-0.00040021538734436035,-0.0030227480456233025,0.0027602952904999256
1772867306170551800,9.7225517578125,-0.0028892895206809044,0.00035827886313199997,0.002588387578725815
1772867306180617700,9.73261767578125,-0.0020450674928724766,0.0010275309905409813,-0.000003134453436359763
1772867306190683600,9.74268359375,0.0017577498219907284,-0.00008318014442920685,0.00027748793945647776
1772867306200749600,9.75274951171875,-0.002105697989463806,0.000751720741391182,-0.0008346481481567025
1772867306210815700,9.762815673828126,-0.0012294482439756393,-0.0019224351271986961,0.0013427766971290112
1772867306220881700,9.772881591796875,0.0025112275034189224,0.0020536640658974648,-0.0013038727920502424
1772867306230947800,9.78294775390625,-0.00039438018575310707,0.001167510636150837,0.0005855518393218517
1772867306241013800,9.793013671875,0.00044238497503101826,0.000748063437640667,0.0004635790828615427
1772867306251081000,9.8030810546875,0.0009477492421865463,-0.0011233845725655556,0.0031888161320239305
1772867306261147100,9.813147216796875,-0.0005883621051907539,0.000902215950191021,0.0006854446837678552
1772867306271213000,9.823213134765625,-0.0008024401031434536,-0.0001973351463675499,0.0020434942562133074
1772867306281279000,9.833279052734374,-0.0018669059500098228,0.0023055030032992363,0.00009645719546824694
1772867306291345200,9.84334521484375,0.0026009269058704376,0.0001712888479232788,0.0005348320701159537
1772867306301410800,9.853410888671876,0.001457099337130785,0.0026011569425463676,0.002175072906538844
1772867306311477000,9.86347705078125,0.0018478012643754482,0.0005585271865129471,-0.0006727239233441651
1772867306321543000,9.87354296875,0.0016757610719650984,-0.0010713273659348488,0.001871660235337913
1772867306331609000,9.883609130859375,-0.0008289506658911705,0.0014295680448412895,0.0007421584450639784
1772867306341675000,9.893675048828126,-0.0006457250565290451,0.0009043924510478973,-0.002157491398975253
1772867306351741200,9.9037412109375,0.0010776212438941002,-0.0009448816999793053,-0.0009866897016763687
1772867306361807000,9.91380712890625,-0.00020788656547665596,-0.001028238795697689,-0.0006242335075512528
1772867306371873000,9.923873046875,-0.0008175428956747055,-0.0001131175085902214,0.0011622270103543997
1772867306381939000,9.93393896484375,-0.0013222121633589268,0.0011034142225980759,0.00020269007654860616
1772867306392004900,9.9440048828125,0.0022390696685761213,-0.002285677008330822,-0.00006941420724615455
1772867306402070000,9.954070068359375,0.0008286596275866032,0.001474706456065178,0.0016227582236751914
1772867306412136200,9.96413623046875,0.0006877616979181767,-0.002603301778435707,-0.0020993000362068415
1772867306422202000,9.9742021484375,0.00042757089249789715,-0.001339099369943142,0.0004480134230107069
1772867306432268000,9.98426806640625,0.0017805658280849457,0.0010874886065721512,0.0008374849567189813
1772867306442334000,9.994333984375,0.001326496945694089,0.0011990750208497047,0.0005360151408240199
1772867306452399900,10.00439990234375,-0.0006002439185976982,-0.00017813220620155334,0.0016285694437101483
1772867306462466000,10.014466064453124,-0.00006814440712332726,-0.0017723003402352333,-0.0030234400182962418
1772867306472532000,10.024531982421875,-0.0019021620973944664,0.0003675241023302078,0.0005538979894481599
1772867306482598100,10.03459814453125,0.0018670097924768925,-0.00019919686019420624,-0.0011574493255466223
1772867306492664000,10.0446640625,-0.0021293028257787228,-0.0020032860338687897,0.0007623679121024907
1772867306502730000,10.05472998046875,0.0006656846962869167,0.0007184650748968124,0.0033504278399050236
1772867306512796000,10.0647958984375,0.0004995362833142281,-0.002563175745308399,0.0015798343811184168
1772867306522862000,10.074862060546875,0.00065373326651752,-0.0018116319552063942,0.0013630531029775739
1772867306532928000,10.084927978515625,0.00023951171897351742,0.0016632080078125,-0.0020575225353240967
1772867306542994000,10.094993896484375,0.0032547428272664547,0.00013242289423942566,0.002233628649264574
1772867306553060000,10.10506005859375,0.00029727350920438766,-0.0006052395328879356,-0.0007983609102666378
1772867306563126000,10.1151259765625,-0.0008012806065380573,0.001558045856654644,0.0006061901804059744
1772867306573192200,10.125192138671874,-0.00008790893480181694,-0.000569966621696949,0.0008037124061957002
1772867306583257900,10.1352578125,0.0009536531288176775,0.0006335154175758362,-0.003055740613490343
1772867306593324000,10.145323974609376,-0.0006422428414225578,-0.0011226646602153778,0.0002518893452361226
1772867306603390000,10.155389892578125,0.0007362093310803175,-0.00032371655106544495,-0.000547325296793133
1772867306613456100,10.1654560546875,-0.00028373580425977707,0.0012561818584799767,-0.0008571488433517516
1772867306623522000,10.17552197265625,0.0004654116928577423,0.0006963852792978287,0.0005023949197493494
1772867306633588000,10.185587890625,-0.0007158841472119093,-0.000298558734357357,0.0010483034420758486
1772867306643654100,10.195654052734374,-0.000045566586777567863,0.001049000769853592,0.0011287308298051357
1772867306653719800,10.2057197265625,-0.0017513383645564318,-0.0012697083875536919,0.001005132682621479
1772867306663785000,10.215784912109376,0.0013206179719418287,-0.00011176615953445435,0.001879981136880815
1772867306673851100,10.22585107421875,-0.003077954985201359,-0.00026277080178260803,-0.0003868386847898364
1772867306683917000,10.2359169921875,-0.0005151950754225254,0.0007391106337308884,0.002151686232537031
1772867306693983000,10.24598291015625,0.0020946278236806393,-0.001126037910580635,0.002929595299065113
1772867306704049200,10.256049072265625,-0.000507014337927103,0.0011253990232944489,0.0036758133210241795
1772867306714114800,10.26611474609375,-0.0004939623177051544,-0.0009139878675341606,0.0006041385349817574
1772867306724181000,10.276180908203125,-0.0007197987288236618,-0.001326245255768299,0.0009335715440101922
1772867306734247000,10.286246826171874,-0.001758042024448514,-0.000003910623490810394,-0.002139261458069086
1772867306744313000,10.29631298828125,-0.00010182219557464123,-0.002241765148937702,0.000943613878916949
1772867306754379000,10.30637890625,0.0023115682415664196,-0.0007091397419571877,0.0015634314622730017
1772867306764445200,10.316445068359375,-0.0006631824653595686,0.00032230187207460403,-0.0010049210395663977
1772867306774511000,10.326510986328126,0.0010482389479875565,0.000025752000510692596,-0.0007217965903691947
1772867306784576800,10.33657666015625,-0.0018516771961003542,0.0027136802673339844,0.0015232482692226768
1772867306794643000,10.346642822265625,0.0005700897891074419,-0.0017410293221473694,-0.0009699194924905896
1772867306804708900,10.356708984375,-0.0008517717942595482,-0.002443305216729641,0.0009829765185713768
1772867306814775000,10.366775146484375,-0.002040525898337364,0.0003631673753261566,-0.0001826545048970729
1772867306824841000,10.376841064453124,0.0001419347245246172,-0.0003050193190574646,0.0006698233191855252
1772867306834907100,10.3869072265625,0.0016283334698528051,0.000906599685549736,0.002386411651968956
1772867306844973000,10.39697314453125,-0.001254804665222764,-0.0018926486372947693,-0.00015237979823723435
1772867306855039200,10.407039306640625,0.0005345453973859549,-0.00019184499979019165,0.0004603656125254929
1772867306865105000,10.41710498046875,0.0008328196126967669,0.0006616981700062752,0.0005493151838891208
1772867306875171000,10.427171142578125,-0.0010379208251833916,-0.0018716808408498764,-0.0020782265346497297
1772867306885237000,10.437237060546876,-0.00010687950998544693,0.0016127992421388626,0.002523715840652585
1772867306895302100,10.44730224609375,-0.0012249741703271866,-0.00013404246419668198,0.0046921283937990665
1772867306905368000,10.4573681640625,-0.0008553275838494301,-0.0012192809954285622,-0.0008083644206635654
1772867306915434200,10.467434326171874,-0.00015134364366531372,-0.00035335030406713486,-0.0005032726330682635
1772867306925500000,10.4775,-0.002130604814738035,-0.0011989036574959755,0.0004053979064337909
1772867306935565800,10.48756591796875,0.002084359060972929,0.0008695162832736969,0.0017015708144754171
1772867306945632000,10.497632080078125,-0.00019796984270215034,0.001646094024181366,0.0005039474344812334
1772867306955698000,10.507697998046876,-0.0006129145622253418,0.0010143909603357315,-0.002069435315206647
1772867306965764000,10.51776416015625,0.0007093448657542467,-0.0012370450422167778,-0.0005341229843907058
1772867306975830000,10.527830078125,0.000924381660297513,0.001240733079612255,-0.00015076497220434248
1772867306985896200,10.537896240234375,-0.0006064032204449177,0.00046442169696092606,-0.00011268179514445364
1772867306995961900,10.5479619140625,-0.0041032107546925545,-0.0012994585558772087,-0.0015405146405100822
1772867307006028000,10.558028076171874,-0.00002990569919347763,-0.0024054693058133125,0.00006190931890159845
1772867307016094000,10.568093994140625,0.001774821663275361,-0.000010439194738864899,0.0019965250976383686
1772867307026160000,10.57816015625,0.0009913197718560696,0.0003522830083966255,-0.001563055906444788
1772867307036226000,10.58822607421875,-0.0012127812951803207,-0.0006066327914595604,0.0002768703270703554
1772867307046292000,10.5982919921875,-0.000311301089823246,0.00046502240002155304,0.0015543886693194509
1772867307056358100,10.608358154296875,-0.002056473633274436,-0.0023482851684093475,-0.0023150609340518713
1772867307066423800,10.618423828125,0.0009976394940167665,0.0016584405675530434,-0.0005541787249967456
1772867307076490000,10.628489990234375,-0.002016112208366394,-0.000981256365776062,-0.0007309074862860143
1772867307086556000,10.638555908203125,-0.0005143554881215096,-0.00022278819233179092,0.0028414567932486534
1772867307096621000,10.64862109375,0.000193300424143672,-0.0014883177354931831,0.0023913050536066294
1772867307106687000,10.65868701171875,0.0013059691991657019,-0.0010749958455562592,0.0008293612045235932
1772867307116753200,10.668753173828126,-0.0005142656154930592,0.002226484939455986,0.001136601553298533
1772867307126818800,10.67881884765625,0.0008484739810228348,-0.0007557226344943047,0.0014058471424505115
1772867307136885000,10.688885009765626,-0.0014662484172731638,-0.000430048443377018,0.002044884255155921
1772867307146951000,10.698950927734375,-0.0020872976165264845,0.0008986024186015129,-0.0002853816840797663
1772867307157017000,10.70901708984375,0.0009330280590802431,-0.0006912723183631897,0.002043238840997219
1772867307167083000,10.7190830078125,-0.00010134349577128887,0.000727127306163311,0.0007619918324053288
1772867307177149200,10.729149169921875,0.0005591735243797302,-0.0004269341006875038,-0.0011731350095942616
1772867307187215000,10.739215087890624,-0.0007513680029660463,0.0006010467186570168,0.0011688488302752376
1772867307197281000,10.749281005859375,-0.00025115511380136013,-0.0009514307603240013,-0.0004359793965704739
1772867307207347000,10.759346923828126,0.0009744318667799234,-0.0013370569795370102,-0.0010269348276779056
1772867307217412900,10.769412841796875,-0.002019319450482726,0.00031151995062828064,0.003030728315934539
1772867307227479000,10.77947900390625,-0.00013646460138261318,-0.0002559991553425789,0.0022951632272452116
1772867307237545000,10.789544921875,0.0022479917388409376,-0.0028418898582458496,-0.0005325050442479551
