time,seconds_elapsed,z,y,x
1772790823565629400,0.07962939453125,0.042843133211135864,0.5146245956420898,0.515889585018158
1772790823575694600,0.089694580078125,0.19620472192764282,0.3592619299888611,0.6102957129478455
1772790823585760500,0.099760498046875,0.3670908510684967,0.2265029400587082,0.7261292934417725
1772790823595825400,0.109825439453125,0.49659639596939087,0.0008788714185357094,0.7951993942260742
1772790823605890600,0.119890625,0.5487181544303894,-0.2612450420856476,0.7262769341468811
1772790823615955700,0.129955810546875,0.5475559234619141,-0.5224036574363708,0.5363925099372864
1772790823626020400,0.140020263671875,0.4908803701400757,-0.8160803318023682,0.2419217973947525
1772790823636085500,0.15008544921875,0.3256075084209442,-1.1632250547409058,0.034337181597948074
1772790823646150700,0.160150634765625,0.1086716502904892,-1.3066197633743286,-0.019501589238643646
1772790823656215600,0.170215576171875,-0.05701638013124466,-1.3208510875701904,-0.01669568195939064
1772790823666280400,0.180280517578125,0.0729735791683197,-1.2236653566360474,-0.16379493474960327
1772790823676345600,0.190345703125,0.06405065953731537,-0.8235040903091431,-0.2847714424133301
1772790823686410500,0.200410400390625,-0.1656939536333084,-0.17971578240394592,-0.45134392380714417
1772790823696475400,0.210475341796875,-0.5986757278442383,0.39741653203964233,-0.6889186501502991
1772790823706540500,0.22054052734375,-0.9880917072296143,0.8976693153381348,-0.9082741737365723
1772790823716605400,0.23060546875,-1.1554429531097412,1.1768101453781128,-1.0275590419769287
1772790823726670600,0.240670654296875,-1.1626331806182861,1.2934997081756592,-1.1071571111679077
1772790823736735500,0.250735595703125,-1.1387046575546265,1.2987499237060547,-1.1713215112686157
1772790823746800400,0.26080029296875,-1.167330265045166,1.528949499130249,-1.2291992902755737
1772790823756865500,0.270865478515625,-1.0517821311950684,1.6295855045318604,-1.217833399772644
1772790823766930700,0.2809306640625,-0.7256404161453247,1.1325114965438843,-1.1306473016738892
1772790823776995300,0.290995361328125,-0.3842202425003052,0.19267131388187408,-0.9487565755844116
1772790823787060500,0.301060546875,-0.12665246427059174,-0.8674920201301575,-0.6979471445083618
1772790823797125600,0.311125732421875,-0.004775288049131632,-1.8238916397094727,-0.3430926203727722
1772790823807190500,0.3211904296875,0.09103826433420181,-2.531850576400757,-0.019550707191228867
1772790823817255400,0.33125537109375,0.07871182262897491,-2.6673426628112793,0.1597285121679306
1772790823827320600,0.341320556640625,-0.04874128848314285,-2.7224814891815186,0.27039292454719543
1772790823837385500,0.351385498046875,-0.34766992926597595,-2.4714651107788086,0.32245907187461853
1772790823847451400,0.361451416015625,-0.7583737969398499,-1.7427676916122437,0.3322606682777405
1772790823857516500,0.3715166015625,-1.0825185775756836,-0.5939289331436157,0.24568131566047668
1772790823867581700,0.381581787109375,-1.231614589691162,-0.16285429894924164,0.0371270477771759
1772790823877646300,0.391646240234375,-1.0763267278671265,-0.38221675157546997,-0.06363977491855621
1772790823887711500,0.40171142578125,-0.7086941599845886,-0.3585510849952698,-0.04685923829674721
1772790823897776600,0.411776611328125,-0.28724098205566406,0.681536078453064,0.031255535781383514
1772790823907841500,0.421841552734375,0.008678002282977104,2.2616612911224365,0.1763567179441452
1772790823917906400,0.431906494140625,0.15522855520248413,3.4327304363250732,0.25425922870635986
1772790823927971600,0.4419716796875,0.2618173062801361,3.5905117988586426,0.2638011574745178
1772790823938036500,0.452036376953125,0.32295018434524536,3.180234909057617,0.29917725920677185
1772790823948101600,0.4621015625,0.356512188911438,2.575303077697754,0.40348193049430847
1772790823958166500,0.47216650390625,0.35462135076522827,1.9791507720947266,0.5136651396751404
1772790823968231400,0.4822314453125,0.34686529636383057,1.2234338521957397,0.560774564743042
1772790823978296600,0.492296630859375,0.38113272190093994,0.2852376699447632,0.5811246037483215
1772790823988361500,0.502361572265625,0.48381075263023376,-0.6928335428237915,0.7107909917831421
1772790823998426400,0.51242626953125,0.6227997541427612,-1.547947883605957,0.9756884574890137
1772790824008491500,0.522491455078125,0.536872923374176,-0.8878966569900513,0.8159886598587036
1772790824018556700,0.532556640625,0.09381502866744995,-0.9454116225242615,1.1425535678863525
1772790824028621300,0.542621337890625,0.10360308736562729,-0.9008885622024536,1.5460842847824097
1772790824038686500,0.5526865234375,0.44760945439338684,-0.7731313705444336,1.8800945281982422
1772790824048751600,0.562751708984375,0.9373475909233093,-0.5558516979217529,2.1189944744110107
1772790824058816500,0.57281640625,1.5748146772384644,-0.3686612844467163,2.2518303394317627
1772790824068881400,0.58288134765625,2.157322883605957,-0.17202721536159515,2.2261507511138916
1772790824078946600,0.592946533203125,2.585862874984741,-0.15818676352500916,1.9157025814056396
1772790824089011500,0.603011474609375,2.7183549404144287,-0.4375697672367096,1.4152723550796509
1772790824099076600,0.61307666015625,2.7507410049438477,-0.7247849702835083,1.027801752090454
1772790824109141500,0.6231416015625,2.9622530937194824,-1.0513057708740234,0.8674343824386597
1772790824119206400,0.633206298828125,3.053464889526367,-0.8459568619728088,0.7939662933349609
1772790824129271600,0.643271484375,2.752562999725342,-0.2525276243686676,0.9333394765853882
1772790824139336700,0.653336669921875,2.575082302093506,0.06507725268602371,1.3681628704071045
1772790824149401300,0.6634013671875,2.2682275772094727,0.0533943772315979,1.6206492185592651
1772790824159466500,0.673466552734375,1.7255500555038452,-0.5156458616256714,1.3438615798950195
1772790824169531600,0.68353173828125,1.0161848068237305,-1.4549061059951782,0.6768805384635925
1772790824179596500,0.693596435546875,0.371427983045578,-1.735049843788147,0.0011132413055747747
1772790824189661400,0.703661376953125,0.1134105995297432,-1.1909891366958618,-0.5544232726097107
1772790824199726600,0.7137265625,0.29722490906715393,-0.6575794816017151,-0.9203552007675171
1772790824209791500,0.72379150390625,0.5213649272918701,-0.29356616735458374,-1.0829051733016968
1772790824219856400,0.7338564453125,0.6807633638381958,-0.16171251237392426,-1.1967263221740723
1772790824229921500,0.743921630859375,0.8250563144683838,-0.1647111475467682,-1.3320059776306152
1772790824239986400,0.753986328125,0.7553491592407227,-0.2700681984424591,-1.5626572370529175
1772790824250051600,0.764051513671875,0.4960632920265198,-0.3602219521999359,-1.9533928632736206
1772790824260117500,0.774117431640625,0.25266924500465393,-0.279116690158844,-2.2305431365966797
1772790824270182700,0.7841826171875,0.1994268000125885,0.032436802983284,-2.2454354763031006
1772790824280247600,0.79424755859375,0.1792735904455185,0.3489644229412079,-2.0974361896514893
1772790824290312400,0.8043125,0.10419809818267822,0.6553274989128113,-1.9756871461868286
1772790824300377600,0.814377685546875,0.08851046860218048,0.9180981516838074,-1.8501107692718506
1772790824310442500,0.8244423828125,0.1254381537437439,0.9996813535690308,-1.6539199352264404
1772790824320507600,0.834507568359375,0.11011379212141037,0.6696142554283142,-1.4708446264266968
1772790824330572500,0.844572509765625,0.01404353603720665,0.25025683641433716,-1.3310459852218628
1772790824340637400,0.854637451171875,-0.09711893647909164,0.01575085148215294,-1.151119589805603
1772790824350702600,0.86470263671875,-0.22082284092903137,-0.061119772493839264,-0.9944339990615845
1772790824360767500,0.874767578125,-0.2522268295288086,-0.07069330662488937,-0.9043712019920349
1772790824370832400,0.884832275390625,-0.19696930050849915,0.01601707935333252,-0.886388897895813
1772790824380897500,0.8948974609375,-0.15996865928173065,0.12315818667411804,-0.8757104277610779
1772790824390962700,0.904962646484375,-0.18083703517913818,0.2680671513080597,-0.9110236167907715
1772790824401027300,0.91502734375,-0.2426532506942749,0.42757800221443176,-0.8317711353302002
1772790824411092500,0.925092529296875,-0.23879468441009521,0.5108771920204163,-0.7087525129318237
1772790824421157600,0.93515771484375,-0.18570244312286377,0.5395458936691284,-0.5752045512199402
1772790824431222500,0.945222412109375,-0.07612591981887817,0.6245120763778687,-0.3990984559059143
1772790824441287400,0.955287353515625,0.2386149913072586,0.6618964672088623,-0.09318328648805618
1772790824451352600,0.9653525390625,0.7660296559333801,0.8074705600738525,0.2828519940376282
1772790824461417500,0.97541748046875,0.9261178970336914,0.7217538356781006,0.5266308784484863
1772790824471482600,0.985482666015625,0.9257676601409912,0.6126986145973206,0.3793320059776306
1772790824481547500,0.995547607421875,0.927054226398468,0.7084179520606995,0.10371267795562744
1772790824491612400,1.0056123046875,1.0754358768463135,0.9781503677368164,0.03717172145843506
1772790824501677600,1.015677490234375,1.315679907798767,1.1608359813690186,0.23889125883579254
1772790824511742500,1.025742431640625,1.681662917137146,1.019163966178894,0.7892854809761047
1772790824521807400,1.035807373046875,1.938706874847412,0.37018969655036926,1.3833189010620117
1772790824531873500,1.04587353515625,1.8912039995193481,-0.7295399904251099,1.627109408378601
1772790824541938400,1.0559384765625,1.5879932641983032,-1.9346369504928589,1.4899909496307373
1772790824552003600,1.066003662109375,1.2932703495025635,-2.773557424545288,1.1253525018692017
1772790824562068500,1.076068359375,1.1830782890319824,-2.8469507694244385,0.834747314453125
1772790824572133600,1.086133544921875,1.3114029169082642,-1.8222192525863647,1.0633265972137451
1772790824582197800,1.09619775390625,1.455457091331482,-0.21421454846858978,1.5440809726715088
1772790824592262700,1.1062626953125,1.5429240465164185,0.974772572517395,1.9611968994140625
1772790824602327600,1.11632763671875,1.610195517539978,1.2594819068908691,2.190521001815796
1772790824612392700,1.126392822265625,1.4967286586761475,0.8398380279541016,2.1513407230377197
1772790824622457900,1.136457763671875,1.32902991771698,0.2988991141319275,2.0654795169830322
1772790824632522500,1.1465224609375,1.257336139678955,0.043657973408699036,1.9189897775650024
1772790824642587600,1.156587646484375,1.268262267112732,0.001684160903096199,1.5303688049316406
1772790824652652800,1.16665283203125,1.2474141120910645,0.09124641120433807,0.9357990622520447
1772790824662717700,1.1767177734375,1.1916786432266235,0.20720922946929932,0.2808142900466919
1772790824672782600,1.186782470703125,1.250353217124939,0.17666468024253845,-0.29623591899871826
1772790824682847700,1.19684765625,1.4357795715332031,-0.08227074891328812,-0.5523888468742371
1772790824692912600,1.20691259765625,1.391294002532959,-0.6232007145881653,-0.7012587785720825
1772790824702977500,1.2169775390625,1.3128308057785034,-1.1026887893676758,-0.7587844133377075
1772790824713042700,1.227042724609375,1.1886720657348633,-1.3678059577941895,-0.8283452987670898
1772790824723107600,1.237107666015625,1.1767282485961914,-1.3717128038406372,-0.9586076736450195
1772790824733172700,1.2471728515625,1.326159954071045,-1.1291072368621826,-1.1203944683074951
1772790824743238700,1.25723876953125,1.5316790342330933,-0.7160086035728455,-1.4125405550003052
1772790824753303600,1.267303466796875,1.6358134746551514,-0.1772678792476654,-2.10178279876709
1772790824763368700,1.27736865234375,1.4775786399841309,0.2689969837665558,-3.0860509872436523
1772790824773433600,1.28743359375,1.2133740186691284,0.717095673084259,-3.8343396186828613
1772790824783498500,1.29749853515625,1.0702816247940063,0.9783619046211243,-3.9882194995880127
1772790824793563600,1.307563720703125,1.1159780025482178,1.083587646484375,-3.2603132724761963
1772790824803628800,1.31762890625,1.023833990097046,0.8435454964637756,-2.107659339904785
1772790824813693400,1.327693359375,0.8296063542366028,0.4590168297290802,-1.0519543886184692
1772790824823758600,1.337758544921875,0.5660969614982605,-0.1638568490743637,-0.43016326427459717
1772790824833823700,1.34782373046875,0.3920464515686035,-0.7555050849914551,-0.2864440679550171
1772790824843888600,1.357888671875,0.27214616537094116,-0.9365127086639404,-0.43723759055137634
1772790824853953500,1.36795361328125,0.2952311038970947,-0.60257887840271,-0.7152165770530701
1772790824864018700,1.378018798828125,0.39276671409606934,0.06550921499729156,-0.8490569591522217
1772790824874083600,1.38808349609375,0.46727046370506287,0.6661275625228882,-0.9748035669326782
1772790824884148500,1.3981484375,0.43662866950035095,0.9771935343742371,-1.0130975246429443
1772790824894213600,1.408213623046875,0.351303368806839,0.9650295972824097,-0.9356862902641296
1772790824904278500,1.418278564453125,0.25196292996406555,0.7338035702705383,-0.8260346055030823
1772790824914343700,1.42834375,0.10969393700361252,0.4331446588039398,-0.8234646916389465
1772790824924408600,1.43840869140625,-0.04582134634256363,0.3485022187232971,-0.9342026114463806
1772790824934474800,1.448474853515625,-0.12069579213857651,0.5485451221466064,-1.039399266242981
1772790824944539600,1.45853955078125,-0.05933523178100586,0.8702022433280945,-1.0182629823684692
1772790824954604500,1.4686044921875,0.06221165508031845,1.1081383228302002,-0.8819460868835449
1772790824964669700,1.478669677734375,0.1291763186454773,1.2661458253860474,-0.6869518160820007
1772790824974734600,1.488734619140625,0.09623726457357407,1.4060165882110596,-0.4836048483848572
1772790824984799700,1.4987998046875,0.055429648607969284,1.5457196235656738,-0.3834713399410248
1772790824994864600,1.50886474609375,0.08416662365198135,1.5168707370758057,-0.26386356353759766
1772790825004929500,1.518929443359375,0.17510798573493958,1.4011270999908447,-0.08922145515680313
1772790825014994700,1.52899462890625,0.24493913352489471,1.2586055994033813,0.2763284146785736
1772790825025059600,1.5390595703125,0.26380813121795654,1.1498969793319702,0.8078280091285706
1772790825035124500,1.54912451171875,0.24295733869075775,1.0970507860183716,1.366559624671936
1772790825045189600,1.559189697265625,0.2565101683139801,0.987848162651062,1.6784727573394775
1772790825055254800,1.5692548828125,0.3262946307659149,0.8239532709121704,1.682056188583374
1772790825065319400,1.5793193359375,0.3657831847667694,0.7343392372131348,1.5610911846160889
1772790825075384600,1.589384521484375,0.27589452266693115,0.619331419467926,1.3504098653793335
1772790825085449700,1.59944970703125,0.1335112750530243,0.32314208149909973,1.1330032348632812
1772790825095515600,1.609515625,0.04960477724671364,0.03204382583498955,1.1190141439437866
1772790825105580500,1.61958056640625,0.10231778770685196,-0.2387879341840744,1.26516592502594
1772790825115645700,1.629645751953125,0.2393459528684616,-0.5140807628631592,1.219487190246582
1772790825125710800,1.6397109375,0.4071197509765625,-0.734433650970459,1.0203181505203247
1772790825135775500,1.649775390625,0.5842010378837585,-0.7709317803382874,0.9501180052757263
1772790825145840600,1.659840576171875,0.6989564299583435,-0.48589733242988586,1.2276802062988281
1772790825155905800,1.66990576171875,0.7839735150337219,-0.159305140376091,1.7303723096847534
1772790825165970700,1.679970703125,0.8850431442260742,-0.3095391094684601,1.9621539115905762
1772790825176035600,1.69003564453125,0.9154413342475891,-0.8882767558097839,1.5934038162231445
1772790825186100700,1.700100830078125,0.7998688817024231,-1.648055911064148,0.7704073786735535
1772790825196165600,1.71016552734375,0.6570759415626526,-2.0565576553344727,0.033752668648958206
1772790825206230500,1.72023046875,0.6821972727775574,-2.017874240875244,-0.31523939967155457
1772790825216295700,1.730295654296875,0.8858981728553772,-1.5718399286270142,-0.11671000719070435
1772790825226360600,1.740360595703125,1.1185880899429321,-1.0032331943511963,0.5129520893096924
1772790825236425700,1.75042578125,1.1918877363204956,-0.6779658198356628,1.2315216064453125
1772790825246491600,1.76049169921875,1.108568549156189,-0.7797300219535828,1.7202295064926147
1772790825256556500,1.770556640625,0.8766758441925049,-1.05656099319458,1.8912768363952637
1772790825266621700,1.78062158203125,0.600287914276123,-1.2599806785583496,1.7863130569458008
1772790825276686600,1.7906865234375,0.4526274800300598,-1.2337204217910767,1.4917100667953491
1772790825286751700,1.800751708984375,0.4645930528640747,-1.0625829696655273,1.0731207132339478
1772790825296816600,1.810816650390625,0.5262057185173035,-0.9375229477882385,0.5461748242378235
1772790825306881800,1.8208818359375,0.5549635887145996,-0.9341878294944763,0.036376018077135086
1772790825316946700,1.83094677734375,0.5110148787498474,-0.8829660415649414,-0.34998512268066406
1772790825327011600,1.841011474609375,0.4181155562400818,-0.6687741279602051,-0.5999488830566406
1772790825337076700,1.85107666015625,0.32590797543525696,-0.35506993532180786,-0.7903146743774414
1772790825347141600,1.8611416015625,0.2524361312389374,-0.10468485951423645,-0.9282611012458801
1772790825357206500,1.87120654296875,0.2089468389749527,0.12687230110168457,-1.022383213043213
1772790825367271700,1.881271728515625,0.12025079131126404,0.3347799777984619,-1.1676898002624512
1772790825377337600,1.891337646484375,0.007143476977944374,0.4812717139720917,-1.3756510019302368
1772790825387402500,1.901402587890625,-0.0890597552061081,0.5750711560249329,-1.5632086992263794
1772790825397467600,1.911467529296875,-0.0601201206445694,0.5639121532440186,-1.6742717027664185
1772790825407532800,1.92153271484375,0.011841956526041031,0.4242876470088959,-1.6880170106887817
1772790825417597400,1.931597412109375,0.05094726383686066,0.30556389689445496,-1.649956226348877
1772790825427662600,1.94166259765625,0.04511973261833191,0.3102843463420868,-1.5195342302322388
1772790825437727700,1.951727783203125,-0.03389305621385574,0.40497276186943054,-1.3797118663787842
1772790825447792600,1.961792724609375,-0.11588966101408005,0.5773506760597229,-1.2702397108078003
1772790825457857500,1.971857421875,-0.16276921331882477,0.8342387080192566,-1.1875356435775757
1772790825467922700,1.981922607421875,-0.22732077538967133,1.011754035949707,-1.119678258895874
1772790825477987600,1.991987548828125,-0.3332706391811371,1.1454660892486572,-1.0927960872650146
1772790825488052500,2.002052490234375,-0.4260580837726593,1.0890235900878906,-1.162805199623108
1772790825498117600,2.01211767578125,-0.49200811982154846,0.9714604616165161,-1.2709146738052368
1772790825508183800,2.022183837890625,-0.5205790400505066,0.910801887512207,-1.3148618936538696
1772790825518248400,2.03224853515625,-0.5054015517234802,0.9450361132621765,-1.2909727096557617
1772790825528313600,2.042313720703125,-0.44100022315979004,1.0487500429153442,-1.2081211805343628
1772790825538378800,2.052378662109375,-0.3110008239746094,1.1876438856124878,-1.0388233661651611
1772790825548443600,2.062443603515625,-0.18226709961891174,1.443406105041504,-0.7324559092521667
1772790825558508500,2.072508544921875,0.02699314057826996,1.6077755689620972,-0.434997022151947
1772790825568573700,2.08257373046875,0.33302041888237,1.6396013498306274,-0.21070986986160278
1772790825578638600,2.092638671875,0.7141197323799133,1.5180549621582031,0.022035297006368637
1772790825588703500,2.102703369140625,1.1480309963226318,1.1890817880630493,0.2870650887489319
1772790825598768400,2.112768310546875,1.4822497367858887,0.7992674112319946,0.6529589295387268
1772790825608833300,2.122833251953125,1.6587533950805664,0.45351558923721313,1.1923097372055054
1772790825618898400,2.1328984375,1.7468308210372925,0.25977471470832825,1.7631285190582275
1772790825628964400,2.14296435546875,1.7684301137924194,0.3009463846683502,2.187152147293091
1772790825639029200,2.153029296875,1.712026834487915,0.382879376411438,2.266942262649536
1772790825649094400,2.163094482421875,1.6603974103927612,0.4264034330844879,1.9997670650482178
1772790825659159300,2.1731591796875,1.6698594093322754,0.3734169006347656,1.571475625038147
1772790825669224200,2.18322412109375,1.6321178674697876,0.2477838546037674,1.031945824623108
1772790825679289300,2.193289306640625,1.4031099081039429,-0.0501784011721611,0.5585780143737793
1772790825689354500,2.2033544921875,1.1740695238113403,-0.13159362971782684,0.522592306137085
1772790825699419100,2.213419189453125,1.107258915901184,0.16616791486740112,1.031136393547058
1772790825709484300,2.223484375,1.1823251247406006,0.5798321962356567,1.7488616704940796
1772790825719549400,2.233549560546875,1.3035591840744019,0.692565381526947,2.2229177951812744
1772790825729614600,2.243614501953125,1.3773844242095947,0.3755219280719757,2.2656502723693848
1772790825739679200,2.25367919921875,1.3752496242523193,-0.2376042902469635,2.0353941917419434
1772790825749745400,2.263745361328125,1.277453064918518,-0.8707442283630371,1.8490843772888184
1772790825759810600,2.273810546875,1.2392383813858032,-1.3120847940444946,1.7976480722427368
1772790825769875200,2.283875244140625,1.270343542098999,-1.5816971063613892,1.7060201168060303
1772790825779940400,2.2939404296875,1.30029296875,-1.3776222467422485,1.6177369356155396
1772790825790005500,2.304005615234375,1.2929998636245728,-1.0121270418167114,1.519317388534546
1772790825800070400,2.3140703125,1.1660486459732056,-0.8524158000946045,1.336898922920227
1772790825810135300,2.32413525390625,0.9612607955932617,-0.8681238889694214,1.0208299160003662
1772790825820200400,2.334200439453125,0.7996545433998108,-0.8490301966667175,0.6233188509941101
1772790825830265300,2.344265380859375,0.7482566237449646,-0.8107663989067078,0.1325000822544098
1772790825840330200,2.354330322265625,0.7724430561065674,-0.7072840332984924,-0.44863489270210266
1772790825850395400,2.3643955078125,0.7485081553459167,-0.42109915614128113,-1.086506962776184
1772790825860461600,2.374461669921875,0.6159021258354187,0.0773678869009018,-1.7281056642532349
1772790825870526200,2.384526123046875,0.41053780913352966,0.8259305357933044,-2.2535250186920166
1772790825880591400,2.39459130859375,0.2671680748462677,1.6196366548538208,-2.5528132915496826
1772790825890656500,2.404656494140625,0.188857302069664,2.0699636936187744,-2.647123336791992
1772790825900721400,2.414721435546875,0.07184748351573944,2.042130708694458,-2.581789016723633
1772790825910786300,2.424786376953125,-0.10662797838449478,1.5780160427093506,-2.3522322177886963
1772790825920851500,2.4348515625,-0.2526612877845764,0.895179808139801,-1.995089054107666
1772790825930916400,2.444916259765625,-0.29311177134513855,0.3226645886898041,-1.5309940576553345
1772790825940981500,2.4549814453125,-0.24689602851867676,0.00026054028421640396,-1.076907753944397
1772790825951046400,2.46504638671875,-0.1993495374917984,-0.07650268077850342,-0.7531958222389221
1772790825961112300,2.4751123046875,-0.15815980732440948,0.0012181559577584267,-0.6173902153968811
1772790825971177200,2.48517724609375,-0.1709619015455246,0.05006958544254303,-0.6408728957176208
1772790825981242400,2.495242431640625,-0.21845392882823944,0.08132059127092361,-0.7846598029136658
1772790825991307500,2.5053076171875,-0.32390230894088745,0.10640277713537216,-1.0203789472579956
1772790826001372400,2.515372314453125,-0.5048093795776367,0.10145723819732666,-1.1765544414520264
1772790826011437300,2.525437255859375,-0.638689398765564,0.20546592772006989,-1.2792363166809082
1772790826021502500,2.53550244140625,-0.7347630858421326,0.2988705039024353,-1.3627047538757324
1772790826031567400,2.5455673828125,-0.7672746777534485,0.3357883095741272,-1.4280238151550293
1772790826041632500,2.555632568359375,-0.7261199951171875,0.3408145308494568,-1.5180076360702515
1772790826051697400,2.565697509765625,-0.6551022529602051,0.38575854897499084,-1.6073132753372192
1772790826061763300,2.575763427734375,-0.5942748785018921,0.4299370050430298,-1.617112398147583
1772790826071828500,2.585828369140625,-0.5365175604820251,0.5189864039421082,-1.454732060432434
1772790826081893400,2.595893310546875,-0.46816208958625793,0.5876385569572449,-1.1098424196243286
1772790826091958300,2.605958251953125,-0.15687133371829987,0.5647976994514465,-0.645760178565979
1772790826102023400,2.6160234375,0.046313587576150894,0.7249406576156616,-0.16824491322040558
1772790826112088300,2.62608837890625,0.08309503644704819,0.677547037601471,0.2463216483592987
1772790826122153200,2.6361533203125,0.0922132208943367,0.6400489211082458,0.47752711176872253
1772790826132218400,2.64621826171875,0.10904999077320099,0.6797561645507812,0.7089941501617432
1772790826142283500,2.656283447265625,0.1500849574804306,0.6050578355789185,0.8599562644958496
1772790826152348200,2.66634814453125,0.2797617018222809,0.4871315062046051,1.0175906419754028
1772790826162414300,2.676414306640625,0.489177405834198,0.46813899278640747,1.1637940406799316
1772790826172479500,2.6864794921875,0.716468870639801,0.5526107549667358,1.2370734214782715
1772790826182544400,2.69654443359375,0.8546196818351746,0.6077420115470886,1.2087255716323853
1772790826192609300,2.706609375,0.8359160423278809,0.36045342683792114,1.0951672792434692
1772790826202674400,2.71667431640625,0.6838832497596741,-0.17572173476219177,0.8562424182891846
1772790826212739600,2.726739501953125,0.49702516198158264,-0.7451881170272827,0.5418943762779236
1772790826222804200,2.73680419921875,0.30144333839416504,-1.6105531454086304,0.5026613473892212
1772790826232869400,2.746869384765625,0.18515266478061676,-1.947492003440857,0.6046609878540039
1772790826242934500,2.7569345703125,0.27434614300727844,-1.5303409099578857,1.0599563121795654
1772790826253000400,2.76700048828125,0.4778236150741577,-0.6732041239738464,1.8741799592971802
1772790826263065300,2.7770654296875,0.7069957852363586,0.1714685708284378,2.7434706687927246
1772790826273130500,2.787130615234375,0.7826505899429321,0.3853166997432709,3.175175666809082
1772790826283195400,2.7971953125,0.7194101810455322,0.04920179396867752,3.1283490657806396
1772790826293260300,2.80726025390625,0.5590833425521851,-0.44822049140930176,2.9161884784698486
1772790826303325400,2.817325439453125,0.4100664556026459,-0.8881651163101196,2.766782283782959
1772790826313390600,2.827390625,0.32474809885025024,-1.2347105741500854,2.5325217247009277
1772790826323455200,2.837455322265625,0.26283150911331177,-1.297178030014038,2.234023094177246
1772790826333520400,2.847520263671875,0.25730064511299133,-0.9128484725952148,2.0023696422576904
1772790826343586600,2.857586669921875,0.29360026121139526,-0.2632138729095459,1.8651856184005737
1772790826353651200,2.867651123046875,0.32297733426094055,0.15793122351169586,1.733583688735962
1772790826363716400,2.87771630859375,0.36516857147216797,0.09523490071296692,1.667763590812683
1772790826373781500,2.887781494140625,0.2360779494047165,-0.4050668179988861,1.570572853088379
1772790826383846400,2.897846435546875,-0.020584823563694954,-1.1115097999572754,1.3657116889953613
1772790826393911300,2.907911376953125,-0.27065059542655945,-1.6013902425765991,0.9718040227890015
1772790826403976400,2.9179765625,-0.44134342670440674,-1.7089720964431763,0.38692528009414673
1772790826414041300,2.928041259765625,-0.5583549737930298,-1.372158169746399,-0.2690989077091217
1772790826424106200,2.938106201171875,-0.7073306441307068,-0.8609814047813416,-0.9878578782081604
1772790826434172400,2.94817236328125,-0.8988282084465027,-0.28859665989875793,-1.6819298267364502
1772790826444237600,2.958237548828125,-1.0365703105926514,0.23468545079231262,-2.2341625690460205
1772790826454302200,2.96830224609375,-1.065508246421814,0.47557157278060913,-2.519763469696045
1772790826464367400,2.978367431640625,-1.03623366355896,0.5675989389419556,-2.579342842102051
1772790826474432500,2.9884326171875,-1.020900011062622,0.4651638865470886,-2.5217208862304688
1772790826484497400,2.998497314453125,-0.969538152217865,0.2774786055088043,-2.3970541954040527
1772790826494562300,3.008562255859375,-0.867313802242279,0.08390620350837708,-2.2309348583221436
1772790826504627500,3.01862744140625,-0.7514334321022034,-0.08717465400695801,-2.063783884048462
1772790826514692400,3.0286923828125,-0.6852783560752869,-0.2711261212825775,-1.9176703691482544
1772790826524758300,3.03875830078125,-0.7040854692459106,-0.45216286182403564,-1.771223545074463
1772790826534823400,3.048823486328125,-0.7620648741722107,-0.651554524898529,-1.6592735052108765
1772790826544888600,3.058888671875,-0.7909076809883118,-0.7503947019577026,-1.5873939990997314
1772790826554953200,3.068953125,-0.7599393725395203,-0.6952837705612183,-1.5447921752929688
1772790826565018400,3.079018310546875,-0.6677433252334595,-0.5559000372886658,-1.5344709157943726
1772790826575083500,3.08908349609375,-0.5444016456604004,-0.3749946653842926,-1.5822858810424805
1772790826585152500,3.099152587890625,-0.42198535799980164,-0.23433220386505127,-1.64728844165802
1772790826595217400,3.109217529296875,-0.30185550451278687,-0.09044747054576874,-1.6485158205032349
1772790826605283600,3.11928369140625,-0.22872759401798248,0.10756512731313705,-1.5489482879638672
1772790826615348200,3.12934814453125,-0.18164530396461487,0.1703725904226303,-1.3491957187652588
1772790826625413400,3.139413330078125,-0.14344869554042816,0.14939960837364197,-1.090693473815918
1772790826635478500,3.149478515625,-0.08708421885967255,0.10622816532850266,-0.7933372259140015
1772790826645543400,3.15954345703125,0.046723872423172,0.09624578058719635,-0.488065630197525
1772790826655608300,3.1696083984375,0.23912180960178375,0.226206973195076,-0.16758213937282562
1772790826665673500,3.179673583984375,0.46503138542175293,0.44993624091148376,0.1589902937412262
1772790826675738400,3.18973828125,0.6540396213531494,0.6413218975067139,0.41214507818222046
1772790826685804300,3.19980419921875,0.7381359338760376,0.627960205078125,0.5022290349006653
1772790826695869400,3.209869384765625,0.755143404006958,0.5486533641815186,0.42973029613494873
1772790826705934600,3.2199345703125,0.7957848310470581,0.41257792711257935,0.24195663630962372
1772790826715999500,3.22999951171875,0.8495258092880249,0.13115078210830688,0.005482842680066824
1772790826726064400,3.240064453125,0.9134806394577026,-0.19231952726840973,0.012215896509587765
1772790826736129500,3.250129638671875,0.9629294276237488,-0.4203287363052368,0.2938430607318878
1772790826746194400,3.2601943359375,0.8414035439491272,-0.5790445804595947,0.6557567715644836
1772790826756259300,3.27025927734375,0.6883037090301514,-0.6096768379211426,1.0201762914657593
1772790826766325500,3.280325439453125,0.5903311371803284,-0.5255555510520935,1.2769376039505005
1772790826776390400,3.290390380859375,0.5605517029762268,-0.3741771876811981,1.4320895671844482
1772790826786455300,3.300455322265625,0.526397168636322,-0.31715118885040283,1.4463963508605957
1772790826796520400,3.3105205078125,0.41058671474456787,-0.4173364043235779,1.261439561843872
1772790826806585300,3.32058544921875,0.20476025342941284,-0.5279116034507751,0.9533466100692749
1772790826816650500,3.330650390625,-0.03977520018815994,-0.3100745975971222,0.630561113357544
1772790826826715400,3.34071533203125,-0.2798113524913788,0.36102721095085144,0.329757422208786
1772790826836780300,3.3507802734375,-0.4649316668510437,1.1474202871322632,0.001400059787556529
1772790826846846500,3.360846435546875,-0.5558043718338013,1.7674998044967651,-0.34905722737312317
1772790826856911400,3.370911376953125,-0.603493869304657,2.096409559249878,-0.6142258048057556
1772790826866976500,3.3809765625,-0.6409960985183716,1.9636749029159546,-0.690830647945404
1772790826877041400,3.39104150390625,-0.6930334568023682,1.3831700086593628,-0.5928944945335388
1772790826887106300,3.401106201171875,-0.7550212740898132,0.698297381401062,-0.3388173580169678
1772790826897171500,3.41117138671875,-0.7936162948608398,0.2414720058441162,-0.021883338689804077
1772790826907236400,3.421236328125,-0.7862066626548767,0.08923541009426117,0.2770789563655853
1772790826917301500,3.431301513671875,-0.7527735829353333,0.1357927918434143,0.5266687870025635
1772790826927367400,3.441367431640625,-0.7190085649490356,0.23449894785881042,0.6923706531524658
1772790826937432600,3.4514326171875,-0.7208922505378723,0.40546858310699463,0.7642472386360168
1772790826947497500,3.46149755859375,-0.755218505859375,0.5526990294456482,0.7671740651130676
1772790826957562400,3.471562255859375,-0.745125412940979,0.6733894944190979,0.7358095049858093
1772790826967627500,3.48162744140625,-0.7834715247154236,0.7017105221748352,0.5806146860122681
1772790826977692400,3.4916923828125,-0.7347543239593506,0.5907557606697083,0.424981951713562
1772790826987757600,3.501757568359375,-0.6441652178764343,0.38391542434692383,0.2754736542701721
1772790826997822500,3.511822509765625,-0.5435589551925659,0.34033945202827454,0.05788462236523628
1772790827007888400,3.521888427734375,-0.35376378893852234,0.24770298600196838,-0.13579298555850983
1772790827017953300,3.531953369140625,-0.11758401989936829,0.06516487896442413,-0.3409719467163086
1772790827028018400,3.542018310546875,0.0617387592792511,0.03537292778491974,-0.6444436311721802
1772790827038083300,3.552083251953125,0.12837503850460052,0.08772801607847214,-0.9127009510993958
1772790827048148500,3.5621484375,0.06313398480415344,0.14923499524593353,-1.0793486833572388
1772790827058213400,3.57221337890625,-0.06177253648638725,0.18127761781215668,-1.101361870765686
1772790827068278300,3.5822783203125,-0.13134974241256714,0.33195969462394714,-1.073277473449707
1772790827078344400,3.592344482421875,-0.1093568280339241,0.3947112262248993,-1.1608922481536865
1772790827088409300,3.602409423828125,-0.017297964543104172,0.35414382815361023,-1.2842637300491333
1772790827098474500,3.612474609375,0.1339583843946457,0.27738142013549805,-1.2913904190063477
1772790827108539400,3.622539306640625,0.29497864842414856,0.07762669026851654,-1.1047362089157104
1772790827118604500,3.6326044921875,0.43023553490638733,-0.19494199752807617,-0.7365680932998657
1772790827128669400,3.64266943359375,0.5540836453437805,-0.43254226446151733,-0.24330653250217438
1772790827138734300,3.652734375,0.7045245170593262,-0.5221225023269653,0.2566029131412506
1772790827148800300,3.66280029296875,0.8595753312110901,-0.4456848204135895,0.6149705052375793
1772790827158865400,3.672865478515625,0.9329118728637695,-0.36922866106033325,0.7469807267189026
1772790827168930600,3.6829306640625,0.9250568151473999,-0.29992765188217163,0.7407712936401367
1772790827178995500,3.692995361328125,0.8704774379730225,-0.1289881020784378,0.7743561267852783
1772790827189060400,3.703060302734375,0.805661678314209,0.05226472392678261,0.8112367391586304
1772790827199125500,3.71312548828125,0.7276601195335388,0.1740633249282837,0.7866352200508118
1772790827209190400,3.7231904296875,0.6480888724327087,0.4295426309108734,0.8219729065895081
1772790827219255600,3.733255615234375,0.593898355960846,0.8452418446540833,0.9765321016311646
1772790827229321500,3.743321533203125,0.5907336473464966,1.1538059711456299,1.3107540607452393
1772790827239386400,3.753386474609375,0.6371738314628601,1.0857315063476562,1.6515307426452637
1772790827249451500,3.763451416015625,0.6799167990684509,0.6278303861618042,1.7881327867507935
1772790827259516400,3.773516357421875,0.6792150735855103,-0.11766242980957031,1.7936471700668335
1772790827269581300,3.783581298828125,0.5944773554801941,-0.9084254503250122,1.756949782371521
1772790827279646500,3.793646484375,0.3798398971557617,-1.4980309009552002,1.4829610586166382
1772790827289711400,3.80371142578125,0.14177286624908447,-1.8557766675949097,0.7912111282348633
1772790827299777500,3.813777587890625,0.03541340306401253,-1.8988008499145508,-0.1824411153793335
1772790827309842400,3.823842529296875,0.08242417126893997,-1.3919092416763306,-0.8853108882904053
1772790827319907300,3.8339072265625,0.20501747727394104,-0.5183587670326233,-1.0197978019714355
1772790827329972500,3.843972412109375,0.3842003643512726,0.2207961529493332,-0.6515992283821106
1772790827340037400,3.854037353515625,0.49274203181266785,0.2992536425590515,-0.02668127790093422
1772790827350102500,3.8641025390625,0.37330740690231323,-0.3750297725200653,0.6873985528945923
1772790827360167400,3.87416748046875,0.03788892552256584,-1.467960238456726,1.3271664381027222
1772790827370233600,3.884233642578125,-0.32632988691329956,-2.405592441558838,1.6194614171981812
1772790827380298500,3.894298583984375,-0.4832627773284912,-2.6949195861816406,1.3362704515457153
1772790827390363400,3.90436328125,-0.33184579014778137,-2.190762519836426,0.6136836409568787
1772790827400428500,3.914428466796875,-0.01960453949868679,-1.0959893465042114,-0.34499281644821167
1772790827410493400,3.924493408203125,0.26339486241340637,0.02909994311630726,-1.3145869970321655
1772790827420558300,3.934558349609375,0.3829239308834076,0.7867556810379028,-2.0559420585632324
1772790827430624500,3.94462451171875,0.2771543562412262,1.0648282766342163,-2.4312644004821777
1772790827440689400,3.954689453125,0.008896797895431519,0.9379532933235168,-2.458791494369507
1772790827450754300,3.96475439453125,-0.26565051078796387,0.5921575427055359,-2.216432809829712
1772790827460819500,3.9748193359375,-0.45863592624664307,0.23064565658569336,-1.908201813697815
1772790827470884400,3.98488427734375,-0.49538806080818176,-0.0685807317495346,-1.674273133277893
1772790827480949500,3.994949462890625,-0.4076766073703766,-0.2549484670162201,-1.5425201654434204
1772790827491014400,4.005014404296875,-0.29437097907066345,-0.3224227726459503,-1.4621410369873047
1772790827501079300,4.015079345703125,-0.2008575201034546,-0.2709934115409851,-1.3292967081069946
1772790827511144400,4.02514453125,-0.1482170671224594,-0.15573911368846893,-1.1888608932495117
1772790827521210400,4.03521044921875,-0.15100432932376862,-0.09272872656583786,-1.1480368375778198
1772790827531275500,4.045275634765625,-0.1866106390953064,-0.07238145172595978,-1.233932375907898
1772790827541340400,4.05534033203125,-0.2556307315826416,-0.018111826851963997,-1.4250121116638184
1772790827551405300,4.0654052734375,-0.4216935634613037,0.0024710316210985184,-1.6889019012451172
1772790827561470500,4.075470458984375,-0.6991190314292908,-0.10831407457590103,-1.9476908445358276
1772790827571535400,4.085535400390625,-0.9770158529281616,-0.19028104841709137,-2.0561130046844482
1772790827581600500,4.0956005859375,-1.0549546480178833,-0.163225457072258,-1.8621702194213867
1772790827591663000,4.1056630859375,-0.9415369033813477,-0.11709832400083542,-1.4255335330963135
1772790827601728300,4.115728271484375,-0.6836646199226379,-0.08390814810991287,-0.919191300868988
1772790827611793200,4.125793212890625,-0.3638366460800171,-0.07709334045648575,-0.5428598523139954
1772790827621858000,4.135858154296875,-0.0868002325296402,-0.1887224018573761,-0.3328604996204376
1772790827631923200,4.145923095703125,0.07811123132705688,-0.4761357009410858,-0.22093400359153748
1772790827641988000,4.155988037109375,0.11875958740711212,-0.7579602003097534,-0.21151946485042572
1772790827652054000,4.166053955078125,0.18020226061344147,-0.6883932948112488,-0.1523560881614685
1772790827662119200,4.176119140625,0.35290345549583435,-0.36739131808280945,-0.015531388111412525
1772790827672184300,4.186184326171875,0.5649951100349426,-0.08854334056377411,0.12772053480148315
1772790827682249000,4.1962490234375,0.7263256907463074,0.10485275089740753,0.19323483109474182
1772790827692314000,4.206314208984375,0.7948368787765503,0.22080296277999878,0.1979132443666458
1772790827702379300,4.216379150390625,0.7614980936050415,0.28601765632629395,0.2399515062570572
1772790827712444200,4.226444091796875,0.673280656337738,0.3193391263484955,0.3169078230857849
1772790827722510000,4.236510009765625,0.6353604197502136,0.35044804215431213,0.4731677174568176
1772790827732575200,4.2465751953125,0.6913875937461853,0.35399410128593445,0.6345635056495667
1772790827742640000,4.25664013671875,0.7224571108818054,0.26824671030044556,0.6683571338653564
1772790827752705000,4.266705078125,0.7035718560218811,0.25474610924720764,0.6542865037918091
1772790827762770200,4.276770263671875,0.7441152930259705,0.53106290102005,0.7152470350265503
1772790827772835000,4.2868349609375,0.7950084805488586,1.003743290901184,0.8934008479118347
1772790827782901000,4.29690087890625,0.7953032851219177,1.3169502019882202,1.2203131914138794
1772790827792966100,4.306966064453125,0.8972713351249695,1.1057454347610474,1.610896110534668
1772790827803031300,4.31703125,0.9292575120925903,0.341073602437973,1.9526103734970093
1772790827813096000,4.327095947265625,0.8596039414405823,-0.37764832377433777,2.319315195083618
1772790827823161000,4.3371611328125,0.7464150786399841,-0.8653191328048706,2.592181921005249
1772790827833226200,4.347226318359375,0.5988343954086304,-1.324012279510498,2.4453177452087402
1772790827843291100,4.357291015625,0.4976038932800293,-1.6077358722686768,1.8988662958145142
1772790827853357000,4.367357177734375,0.5227564573287964,-1.4848899841308594,1.3114198446273804
1772790827863422200,4.377422119140625,0.6896162629127502,-0.8857191205024719,0.9876144528388977
1772790827873487400,4.3874873046875,0.8839166760444641,-0.25615692138671875,0.96393221616745
1772790827883552000,4.397552001953125,1.0104974508285522,0.0467989556491375,1.1529732942581177
1772790827893617200,4.4076171875,0.9973787665367126,0.11754601448774338,1.4572789669036865
1772790827903682300,4.417682373046875,0.8295836448669434,0.09796059131622314,1.6826505661010742
1772790827913748000,4.427748046875,0.5555917024612427,0.00158734992146492,1.6421376466751099
1772790827923813000,4.437813232421875,0.26772692799568176,-0.1730065643787384,1.3660693168640137
1772790827933878300,4.447878173828125,0.01462702639400959,-0.3331567347049713,0.9369431138038635
1772790827943943000,4.45794287109375,-0.17167280614376068,-0.34830641746520996,0.4645366966724396
1772790827954008000,4.468008056640625,-0.28161224722862244,-0.2014317363500595,0.01866069808602333
1772790827964073200,4.4780732421875,-0.3479878008365631,0.01332610659301281,-0.38346198201179504
1772790827974139100,4.48813916015625,-0.34586992859840393,0.3027709126472473,-0.7068410515785217
1772790827984204000,4.4982041015625,-0.2887730896472931,0.5860534906387329,-0.9291563630104065
1772790827994269200,4.508269287109375,-0.2720610797405243,0.8618698120117188,-1.0221108198165894
1772790828004334300,4.518334228515625,-0.2885687053203583,1.0740512609481812,-0.9986435770988464
1772790828014399000,4.52839892578125,-0.3330317437648773,1.1332300901412964,-0.8857212066650391
1772790828024464100,4.538464111328125,-0.35484248399734497,1.070419192314148,-0.669793963432312
1772790828034530000,4.548530029296875,-0.31429198384284973,0.9158440232276917,-0.40465179085731506
1772790828044595200,4.55859521484375,-0.21760298311710358,0.6920881271362305,-0.15149915218353271
1772790828054660000,4.56866015625,-0.08377592265605927,0.38852182030677795,0.03627697005867958
1772790828064725200,4.578725341796875,0.10714023560285568,0.052632223814725876,0.15366750955581665
1772790828074790100,4.5887900390625,0.2822750508785248,-0.16026762127876282,0.20226836204528809
1772790828084855000,4.59885498046875,0.2371951937675476,-0.43229594826698303,0.2288712114095688
1772790828094921200,4.608921142578125,0.11820503324270248,-0.5912133455276489,0.3528977632522583
1772790828104986000,4.618986083984375,-0.07707871496677399,-0.3506172299385071,0.41379812359809875
1772790828115051000,4.629051025390625,-0.2758837640285492,0.011913742870092392,0.340650737285614
1772790828125116200,4.6391162109375,-0.4471551179885864,0.35557496547698975,0.17926453053951263
1772790828135181300,4.649181396484375,-0.515938937664032,0.6746574640274048,0.002148044528439641
1772790828145247200,4.659247314453125,-0.525414228439331,0.8163669109344482,-0.14380861818790436
1772790828155312000,4.66931201171875,-0.5609931945800781,0.7566478848457336,-0.26990219950675964
1772790828165377000,4.679376953125,-0.6607118248939514,0.5659708380699158,-0.34657540917396545
1772790828175442200,4.689442138671875,-0.7963094711303711,0.425181120634079,-0.28888431191444397
1772790828185507000,4.699507080078125,-0.811776876449585,0.37039828300476074,-0.21182678639888763
1772790828195572200,4.709572265625,-0.6932677030563354,0.28671181201934814,-0.12797164916992188
1772790828205638100,4.71963818359375,-0.4762780964374542,0.14030693471431732,0.0005500988918356597
1772790828215703000,4.729703125,-0.2771725058555603,0.02105563133955002,0.1522836983203888
1772790828225768200,4.739768310546875,-0.31024229526519775,-0.0816853940486908,0.36032530665397644
1772790828235833000,4.7498330078125,-0.47662243247032166,0.028531514108181,0.6222007274627686
1772790828245898200,4.759898193359375,-0.5794119238853455,0.3173348307609558,0.9004037976264954
1772790828255963100,4.769963134765625,-0.49653059244155884,0.4375814199447632,1.126749038696289
1772790828266029000,4.780029052734375,-0.31341642141342163,0.4481736123561859,1.2911958694458008
1772790828276094200,4.79009423828125,-0.08314724266529083,0.31687256693840027,1.3605890274047852
1772790828286159000,4.8001591796875,0.15127670764923096,0.16978219151496887,1.283440113067627
1772790828296224000,4.81022412109375,0.30766284465789795,-0.07483253628015518,1.0909771919250488
1772790828306289200,4.8202890625,0.24232111871242523,-0.41061267256736755,0.9378190040588379
1772790828316354000,4.83035400390625,0.03332985192537308,-0.7502169013023376,0.8769489526748657
1772790828326420000,4.840419921875,-0.16353021562099457,-0.9668146967887878,0.9570016860961914
1772790828336485000,4.850485107421875,-0.21261195838451385,-0.960429847240448,1.2633718252182007
1772790828346550300,4.86055029296875,-0.0650898888707161,-0.7359620928764343,1.6223347187042236
1772790828356615200,4.870615234375,0.1298915445804596,-0.5431188344955444,1.7532942295074463
1772790828366680000,4.88068017578125,0.18304184079170227,-0.5156621932983398,1.6394318342208862
1772790828376746200,4.890746337890625,0.18515506386756897,-0.45086291432380676,1.4657483100891113
1772790828386811100,4.90081103515625,0.245001882314682,-0.1850842386484146,1.2753080129623413
1772790828396876000,4.9108759765625,0.30724918842315674,0.04026360064744949,0.9861974716186523
1772790828406941200,4.920941162109375,0.3299161493778229,-0.07964735478162766,0.4911574125289917
1772790828417006000,4.931006103515625,0.32949569821357727,-0.47498151659965515,-0.11433173716068268
1772790828427071000,4.941071044921875,0.27503299713134766,-0.8675812482833862,-0.5501545667648315
1772790828437137200,4.95113720703125,0.25840267539024353,-0.9102125763893127,-0.6595887541770935
1772790828447202300,4.961202392578125,0.3920227885246277,-0.5174546241760254,-0.4173167049884796
1772790828457267000,4.971266845703125,0.5922423005104065,0.03304477408528328,0.0560305081307888
1772790828467332000,4.98133203125,0.7056317329406738,0.45258215069770813,0.5855702757835388
1772790828477397200,4.991397216796875,0.6452012658119202,0.6556729674339294,1.0316238403320312
1772790828487462100,5.001462158203125,0.4059372842311859,0.6218084692955017,1.2641379833221436
1772790828497528000,5.011528076171875,0.05510948598384857,0.2962581217288971,1.0409272909164429
1772790828507593200,5.02159326171875,-0.23185569047927856,0.06546244025230408,0.3161824345588684
1772790828517658000,5.031658203125,-0.3658365309238434,-0.3475244343280792,-0.5612722039222717
1772790828527723000,5.041722900390625,-0.3763381540775299,-0.6159574389457703,-1.184998869895935
1772790828537788200,5.0517880859375,-0.2918325960636139,-0.022035129368305206,-1.542646884918213
1772790828547853300,5.061853271484375,-0.1699162721633911,0.7693804502487183,-1.6055454015731812
1772790828557919000,5.0719189453125,-0.10632722079753876,1.1821171045303345,-1.2984241247177124
1772790828567984000,5.081984130859375,-0.12523911893367767,1.1677703857421875,-0.7661051154136658
1772790828578049300,5.09204931640625,-0.14540895819664001,0.8117325901985168,-0.17976713180541992
1772790828588114700,5.10211474609375,-0.14673255383968353,0.2508404552936554,0.351519912481308
1772790828598179800,5.112179931640625,-0.2826773524284363,-0.2389705777168274,0.7112944722175598
1772790828608244700,5.12224462890625,-0.3771474063396454,-0.4746323525905609,0.843762218952179
1772790828618310700,5.132310546875,-0.3885580003261566,-0.4461236894130707,0.8944726586341858
1772790828628375800,5.142375732421875,-0.32814446091651917,-0.20297390222549438,0.9006706476211548
1772790828638441000,5.15244091796875,-0.1923442780971527,0.1430586725473404,0.8027194738388062
1772790828648505600,5.162505615234375,-0.05040046572685242,0.38467714190483093,0.6712568402290344
1772790828658570800,5.17257080078125,0.016635607928037643,0.4716079831123352,0.555195152759552
1772790828668636700,5.18263671875,-0.02978461980819702,0.4195178747177124,0.46387162804603577
1772790828678701600,5.19270166015625,-0.1843682825565338,0.27413585782051086,0.4005517065525055
1772790828688766700,5.2027666015625,-0.35392826795578003,0.14230619370937347,0.40831002593040466
1772790828698832000,5.212831787109375,-0.45550283789634705,0.05949315428733826,0.4931204915046692
1772790828708896500,5.222896484375,-0.4617921710014343,-0.0040456075221300125,0.67866450548172
1772790828718961700,5.232961669921875,-0.39980021119117737,-0.1070060208439827,0.9649505019187927
1772790828729027800,5.24302783203125,-0.3371589481830597,-0.15595091879367828,1.2826957702636719
1772790828739092700,5.2530927734375,-0.27345871925354004,-0.1211397796869278,1.4918813705444336
1772790828749157600,5.26315771484375,-0.22496816515922546,-0.05067892745137215,1.521496295928955
1772790828759222800,5.273222900390625,-0.21571649610996246,0.010508226230740547,1.4160107374191284
1772790828769288000,5.283287841796875,-0.29401636123657227,0.05897882580757141,1.2919892072677612
1772790828779353900,5.293353759765625,-0.382810115814209,0.06578944623470306,1.2607696056365967
1772790828789418800,5.303418701171875,-0.4102316200733185,0.051595333963632584,1.375360369682312
1772790828799484000,5.31348388671875,-0.3494170904159546,-0.027998443692922592,1.528346061706543
1772790828809548800,5.323548828125,-0.19128870964050293,-0.21386125683784485,1.6116915941238403
1772790828819613700,5.33361376953125,0.011069734580814838,-0.3011944890022278,1.6480324268341064
1772790828829678800,5.343678955078125,0.1578485369682312,-0.22064320743083954,1.6870485544204712
1772790828839744800,5.353744873046875,0.16488225758075714,-0.2127445936203003,1.7013345956802368
1772790828849809700,5.3638095703125,0.013645331375300884,-0.4440462291240692,1.548252820968628
1772790828859874800,5.373874755859375,-0.12264365702867508,-0.8552680611610413,1.250173568725586
1772790828869939700,5.383939697265625,-0.10781358182430267,-1.229848027229309,0.9756348729133606
1772790828880004600,5.394004638671875,0.04040094465017319,-1.266023874282837,1.0156139135360718
1772790828890070800,5.40407080078125,0.16749976575374603,-1.0202537775039673,1.4593969583511353
1772790828900135700,5.4141357421875,0.1757543534040451,-0.7007647752761841,2.033888339996338
1772790828910200800,5.424200927734375,0.09954933077096939,-0.5544158220291138,2.357200860977173
1772790828920265700,5.434265625,0.03163769841194153,-0.6124579906463623,2.194952964782715
1772790828930331000,5.444330810546875,-0.0427132323384285,-0.6439841985702515,1.7467573881149292
1772790828940396800,5.454396728515625,-0.12158103287220001,-0.5922837257385254,1.272834300994873
1772790828950462000,5.4644619140625,-0.15989992022514343,-0.42229655385017395,0.9870226383209229
1772790828960526600,5.474526611328125,-0.1231648325920105,-0.2522445321083069,0.896859884262085
1772790828970591700,5.484591796875,-0.017842143774032593,-0.17506825923919678,0.8720408082008362
1772790828980657000,5.494656982421875,0.14745937287807465,-0.14866739511489868,0.7774425745010376
1772790828990721800,5.5047216796875,0.3103060722351074,-0.19780483841896057,0.5235138535499573
1772790829000787700,5.51478759765625,0.40511250495910645,-0.26767459511756897,0.16589541733264923
1772790829010852900,5.524852783203125,0.4078955054283142,-0.24115031957626343,-0.13715685904026031
1772790829020917800,5.534917724609375,0.35211458802223206,-0.04991573095321655,-0.2815139889717102
1772790829030982700,5.544982666015625,0.29783645272254944,0.15908488631248474,-0.30828142166137695
1772790829041047800,5.5550478515625,0.2524203360080719,0.18593168258666992,-0.29940328001976013
1772790829051113700,5.56511376953125,0.20892666280269623,0.03253120183944702,-0.3689413368701935
1772790829061178600,5.5751787109375,0.14134730398654938,-0.11182232201099396,-0.5927366018295288
1772790829071243800,5.585243896484375,0.058921147137880325,-0.0921410322189331,-0.9252311587333679
1772790829081309000,5.595308837890625,-0.0007950956933200359,0.038054853677749634,-1.281968116760254
1772790829091373600,5.60537353515625,-0.05054507404565811,0.20159131288528442,-1.6327348947525024
1772790829101439700,5.615439697265625,-0.10412295162677765,0.35930493474006653,-1.907629370689392
1772790829111505000,5.6255048828125,-0.1697951704263687,0.5131504535675049,-2.026447057723999
1772790829121569800,5.63556982421875,-0.25276973843574524,0.5444638133049011,-2.0310285091400146
1772790829131634700,5.645634765625,-0.3405989110469818,0.42880988121032715,-1.9631348848342896
1772790829141699800,5.655699951171875,-0.3788997232913971,0.1724386364221573,-1.8587108850479126
1772790829151765800,5.665765869140625,-0.4005810618400574,-0.14398670196533203,-1.7832683324813843
1772790829161830700,5.67583056640625,-0.45049363374710083,-0.4218958020210266,-1.6820201873779297
1772790829171895800,5.685895751953125,-0.5143958926200867,-0.4974193274974823,-1.5119209289550781
1772790829181960700,5.695960693359375,-0.570624053478241,-0.463382750749588,-1.3178411722183228
1772790829192025600,5.706025634765625,-0.6006323099136353,-0.3632849156856537,-1.1730587482452393
1772790829202090800,5.7160908203125,-0.5694637298583984,-0.18979521095752716,-1.118099570274353
1772790829212156700,5.72615673828125,-0.4931522011756897,-0.059665434062480927,-1.137075662612915
1772790829222221800,5.736221923828125,-0.39723244309425354,0.11585310101509094,-1.2098480463027954
1772790829232286700,5.74628662109375,-0.31809288263320923,0.3226510286331177,-1.2883095741271973
1772790829242351900,5.756351806640625,-0.2776047885417938,0.4635131061077118,-1.3157395124435425
1772790829252416800,5.766416748046875,-0.2681044936180115,0.5212491154670715,-1.3030798435211182
1772790829262482700,5.776482666015625,-0.2914663553237915,0.5398569107055664,-1.251589298248291
1772790829272547800,5.7865478515625,-0.34112977981567383,0.529945433139801,-1.127953052520752
1772790829282612700,5.79661279296875,-0.3788764178752899,0.5028654932975769,-0.9339643120765686
1772790829292677600,5.806677734375,-0.3748244345188141,0.4367336332798004,-0.7109078168869019
1772790829302742800,5.81674267578125,-0.3223649561405182,0.3336280584335327,-0.48634323477745056
1772790829312808700,5.82680859375,-0.2339155226945877,0.23819659650325775,-0.26461538672447205
1772790829322873900,5.836873779296875,-0.12120582163333893,0.2264828085899353,-0.08213921636343002
1772790829332938800,5.846938720703125,-0.007392964791506529,0.26291245222091675,0.06631523370742798
1772790829343003600,5.857003662109375,0.03910287097096443,0.33667436242103577,0.1795421689748764
1772790829353068800,5.86706884765625,0.015115512534976006,0.4557666480541229,0.2174980640411377
1772790829363135000,5.877135009765625,-0.0009641661308705807,0.4994523227214813,0.19503796100616455
1772790829373199600,5.88719970703125,0.015483783558011055,0.4309353530406952,0.1544806808233261
1772790829383264800,5.8972646484375,0.06138591840863228,0.16269280016422272,0.016793714836239815
1772790829393330000,5.907329833984375,0.13468118011951447,-0.20304709672927856,-0.25196850299835205
1772790829403394800,5.917394775390625,0.11207014322280884,-0.5822471976280212,-0.6257008910179138
1772790829413460700,5.927460693359375,-0.025331124663352966,-0.7656111717224121,-0.8747597336769104
1772790829423526000,5.93752587890625,-0.1228470727801323,-0.5975736379623413,-0.7447394132614136
1772790829433590500,5.947590576171875,-0.06310224533081055,-0.1992100328207016,-0.3719295859336853
1772790829443655700,5.95765576171875,0.30310240387916565,0.2640944719314575,0.013122891075909138
1772790829453720800,5.967720947265625,0.789004385471344,0.5392706394195557,0.28721678256988525
1772790829463786800,5.977786865234375,1.034780740737915,0.47834375500679016,0.37351441383361816
1772790829473851600,5.9878515625,0.9699024558067322,0.20857778191566467,0.33851727843284607
1772790829483916800,5.997916748046875,0.7567797303199768,-0.2253594696521759,0.19981928169727325
1772790829493982000,6.00798193359375,0.6665441393852234,-0.6415444612503052,0.024040525779128075
1772790829504046600,6.018046630859375,0.7820038795471191,-0.9066041111946106,-0.178071528673172
1772790829514112800,6.02811279296875,0.8920164108276367,-1.0136957168579102,-0.38673365116119385
1772790829524177700,6.038177734375,0.8906291127204895,-0.9480175971984863,-0.5483677387237549
1772790829534242800,6.048242919921875,0.8440648317337036,-0.6921874284744263,-0.5989904403686523
1772790829544307700,6.0583076171875,0.8075839281082153,-0.34380820393562317,-0.5031009912490845
1772790829554372900,6.068372802734375,0.7517595887184143,-0.12410889565944672,-0.3037399351596832
1772790829564438800,6.078438720703125,0.6392906904220581,-0.05252465233206749,-0.15600350499153137
1772790829574503700,6.088503662109375,0.4852809011936188,-0.19122740626335144,-0.16354452073574066
1772790829584568800,6.09856884765625,0.32373613119125366,-0.45081236958503723,-0.377674400806427
1772790829594633500,6.108633544921875,0.17285874485969543,-0.6542627215385437,-0.7329049110412598
1772790829604698600,6.11869873046875,0.026685703545808792,-0.6680256724357605,-1.1372448205947876
1772790829614764800,6.128764892578125,-0.1385549157857895,-0.4394116997718811,-1.4636586904525757
1772790829624829700,6.13882958984375,-0.3009321391582489,-0.06144111976027489,-1.6425769329071045
1772790829634894600,6.14889453125,-0.4559534192085266,0.23304510116577148,-1.6754728555679321
1772790829644959700,6.158959716796875,-0.592536211013794,0.3951398730278015,-1.525146245956421
1772790829655024600,6.169024658203125,-0.6531612277030945,0.492196649312973,-1.2319811582565308
1772790829665090600,6.179090576171875,-0.5108622908592224,0.5604864954948425,-0.8493133187294006
1772790829675155700,6.18915576171875,-0.5596452355384827,0.5182772278785706,-0.49060681462287903
1772790829685220600,6.199220703125,-0.5936151742935181,0.3068869709968567,-0.24320629239082336
1772790829695285500,6.209285400390625,-0.48819684982299805,0.11509835720062256,0.005211778450757265
1772790829705350700,6.2193505859375,-0.40652740001678467,-0.11827497184276581,0.31684455275535583
1772790829715416600,6.22941650390625,-0.4357049763202667,-0.3019483685493469,0.465821236371994
1772790829725481700,6.239481689453125,-0.47942936420440674,-0.35184067487716675,0.4854514002799988
1772790829735546600,6.249546630859375,-0.5014103055000305,-0.2493331879377365,0.4830518960952759
1772790829745611800,6.25961181640625,-0.5001859068870544,-0.04309074953198433,0.4498613476753235
1772790829755676700,6.2696767578125,-0.4737655222415924,0.21339376270771027,0.3953626751899719
1772790829765742800,6.279742919921875,-0.43077242374420166,0.5986922383308411,0.3313088119029999
1772790829775807700,6.289807861328125,-0.3621011972427368,0.9910733103752136,0.24425005912780762
1772790829785872600,6.29987255859375,-0.3027138113975525,1.2636446952819824,0.1581362783908844
1772790829795937800,6.309937744140625,-0.2959618866443634,1.3221354484558105,0.04629069194197655
1772790829806003500,6.32000341796875,-0.33770835399627686,1.219489574432373,-0.13954563438892365
1772790829816068600,6.330068603515625,-0.4553188681602478,0.8851368427276611,-0.37564656138420105
1772790829826133800,6.3401337890625,-0.6350439786911011,0.38848310708999634,-0.6250341534614563
1772790829836198700,6.35019873046875,-0.8233577013015747,-0.005971008911728859,-0.749748170375824
1772790829846263600,6.360263671875,-0.8927634954452515,-0.18914467096328735,-0.705790102481842
1772790829856329700,6.370329833984375,-0.7990002036094666,-0.28632423281669617,-0.5717942118644714
1772790829866395000,6.380394775390625,-0.5686572790145874,-0.2622479498386383,-0.409515380859375
1772790829876459500,6.39045947265625,-0.2752003073692322,-0.12380857020616531,-0.2871455252170563
1772790829886524700,6.400524658203125,-0.032321006059646606,0.03310668468475342,-0.23784151673316956
1772790829896589800,6.41058984375,0.08902006596326828,0.1704869121313095,-0.23242013156414032
1772790829906655700,6.42065576171875,0.12082602828741074,0.27689823508262634,-0.22161537408828735
1772790829916720600,6.430720703125,0.16013376414775848,0.34310975670814514,-0.13097414374351501
1772790829926785800,6.440785888671875,0.28714168071746826,0.383516788482666,0.002230038633570075
1772790829936850700,6.4508505859375,0.5207563042640686,0.37172216176986694,0.06084008514881134
1772790829946915600,6.46091552734375,0.7099834680557251,0.401146799325943,-0.0027489282656461
1772790829956981800,6.470981689453125,0.7123198509216309,0.5005088448524475,-0.1003149002790451
1772790829967046700,6.481046630859375,0.5694573521614075,0.6016700267791748,-0.10352018475532532
1772790829977111600,6.491111572265625,0.4336071014404297,0.6875652074813843,0.06767153739929199
1772790829987176700,6.5011767578125,0.44310516119003296,0.6883476972579956,0.34952741861343384
1772790829997242600,6.51124267578125,0.5923769474029541,0.6499509811401367,0.6474488973617554
1772790830007307800,6.521307861328125,0.7469587922096252,0.5321760177612305,0.7881725430488586
1772790830017372700,6.53137255859375,0.7933164834976196,0.2976987957954407,0.6996892690658569
1772790830027437600,6.5414375,0.7543561458587646,0.004082761704921722,0.49395257234573364
1772790830037502700,6.551502685546875,0.7336465716362,-0.3475450575351715,0.25955790281295776
1772790830047568600,6.561568603515625,0.7756984233856201,-0.6394620537757874,0.07806599140167236
1772790830057633500,6.571633544921875,0.8284891843795776,-0.8477069139480591,-0.0517367459833622
1772790830067698700,6.58169873046875,0.8672332763671875,-1.0137118101119995,-0.15447692573070526
1772790830077763600,6.591763671875,0.8424285650253296,-1.103419542312622,-0.1945556402206421
1772790830087828700,6.601828857421875,0.75730299949646,-1.0376441478729248,-0.1987183690071106
1772790830097894700,6.611894775390625,0.6863211989402771,-0.9456667900085449,-0.25455448031425476
1772790830107959800,6.621959716796875,0.648657500743866,-0.8318260312080383,-0.3816748261451721
1772790830118024700,6.632024658203125,0.6416925191879272,-0.6872800588607788,-0.5622134804725647
1772790830128089600,6.642089599609375,0.6232914328575134,-0.5544857978820801,-0.7589877843856812
1772790830138155800,6.65215576171875,0.6030148863792419,-0.49718600511550903,-0.9375117421150208
1772790830148220700,6.662220703125,0.5698533654212952,-0.5265693664550781,-1.0828397274017334
1772790830158285600,6.67228564453125,0.4386870861053467,-0.5495598912239075,-1.164692759513855
1772790830168350700,6.682350830078125,0.23561100661754608,-0.4672277271747589,-1.1547902822494507
1772790830178415900,6.692415771484375,0.05122864991426468,-0.2948538064956665,-1.1122878789901733
1772790830188481500,6.7024814453125,-0.07179978489875793,-0.11886420845985413,-1.0699340105056763
1772790830198546700,6.712546630859375,-0.12766118347644806,-0.006905716378241777,-1.0067542791366577
1772790830208611800,6.72261181640625,-0.13438735902309418,0.05654742568731308,-0.9261615872383118
1772790830218676500,6.732676513671875,-0.12710413336753845,0.10269228368997574,-0.8428541421890259
1772790830228741600,6.74274169921875,-0.11215315759181976,0.12127175182104111,-0.7423934936523438
1772790830238807600,6.7528076171875,-0.08615884184837341,0.11600694805383682,-0.6337093710899353
1772790830248872700,6.762872802734375,-0.054053906351327896,0.08724641054868698,-0.5300166010856628
1772790830258937600,6.7729375,-0.03007746860384941,0.013292825780808926,-0.4329496920108795
1772790830269002800,6.783002685546875,-0.04301438480615616,-0.07476513087749481,-0.3406441807746887
1772790830279068700,6.793068603515625,-0.06760681420564651,-0.1074434369802475,-0.228243887424469
1772790830289133800,6.8031337890625,-0.0878569632768631,-0.09412963688373566,-0.10214235633611679
1772790830299198700,6.81319873046875,-0.0795966386795044,-0.0794186070561409,0.021888243034482002
1772790830309263600,6.823263671875,-0.055008288472890854,-0.06255559623241425,0.12438786774873734
1772790830319328800,6.833328857421875,-0.002053197007626295,-0.002757512964308262,0.1988370567560196
1772790830329394700,6.843394775390625,0.05582679435610771,0.038264088332653046,0.2518375813961029
1772790830339459600,6.85345947265625,0.09365220367908478,0.028934501111507416,0.325320303440094
1772790830349524700,6.863524658203125,0.09884678572416306,0.0182950422167778,0.4327520728111267
1772790830359589600,6.873589599609375,0.08025046437978745,0.002751501277089119,0.5368462800979614
1772790830369655600,6.883655517578125,0.023328950628638268,-0.02531455270946026,0.5980066657066345
1772790830379720700,6.893720703125,-0.055513665080070496,-0.08888926357030869,0.5934297442436218
1772790830389785900,6.903785888671875,-0.14250768721103668,-0.17016954720020294,0.5300135612487793
1772790830399850500,6.9138505859375,-0.21294669806957245,-0.21588696539402008,0.45803895592689514
1772790830409915600,6.92391552734375,-0.23412302136421204,-0.2073056548833847,0.4305376708507538
1772790830419981800,6.93398193359375,-0.20531481504440308,-0.16491267085075378,0.4994807541370392
1772790830430046500,6.94404638671875,-0.12767991423606873,0.031064633280038834,0.668918788433075
1772790830440111600,6.954111572265625,-0.04055860638618469,0.26692724227905273,0.9367288947105408
1772790830450176800,6.9641767578125,0.0029046377167105675,0.37776806950569153,1.195246696472168
1772790830460242700,6.97424267578125,0.0008659877348691225,0.170004740357399,1.2063143253326416
1772790830470307600,6.9843076171875,-0.04358421266078949,-0.3212098479270935,0.8923035860061646
1772790830480372700,6.994372802734375,-0.147197425365448,-0.7848278284072876,0.42530012130737305
1772790830490437600,7.004437744140625,-0.2571612298488617,-0.8112496733665466,0.1959245502948761
1772790830500502500,7.01450244140625,-0.3305281102657318,-0.3930590748786926,0.447761595249176
1772790830510568700,7.024568603515625,-0.34197261929512024,0.3237982392311096,1.0210821628570557
1772790830520633600,7.034633544921875,-0.30609744787216187,1.0660136938095093,1.6171958446502686
1772790830530698800,7.04469873046875,-0.2256932109594345,1.521583080291748,1.962990641593933
1772790830540763600,7.054763671875,-0.17944662272930145,1.546605110168457,2.0444693565368652
1772790830550829600,7.06482958984375,-0.1956922858953476,1.2744373083114624,2.0833170413970947
1772790830560894700,7.074894775390625,-0.1850668042898178,0.9072783589363098,2.1748757362365723
1772790830570959600,7.084959716796875,-0.09328722953796387,0.49387452006340027,2.3089849948883057
1772790830581024800,7.095024658203125,0.07022473216056824,0.06784115731716156,2.413459539413452
1772790830591090200,7.105090087890625,0.23747843503952026,-0.32829979062080383,2.4159469604492188
1772790830601155300,7.1151552734375,0.3849885165691376,-0.5394847393035889,2.3043265342712402
1772790830611220500,7.125220458984375,0.48526647686958313,-0.5866208076477051,2.106440305709839
1772790830621285000,7.13528515625,0.5680410265922546,-0.5628571510314941,1.8499614000320435
1772790830631350300,7.145350341796875,0.6703019142150879,-0.5371201634407043,1.5729296207427979
1772790830641416200,7.155416259765625,0.7655171155929565,-0.5978698134422302,1.271828532218933
1772790830651481000,7.165481201171875,0.8743879795074463,-0.6055325865745544,0.9669684767723083
1772790830661546200,7.175546142578125,0.9163674116134644,-0.5761536955833435,0.6998827457427979
1772790830671611400,7.185611328125,0.8896556496620178,-0.5728298425674438,0.5121772289276123
1772790830681677300,7.19567724609375,0.8070414662361145,-0.6756113767623901,0.41570740938186646
1772790830691742200,7.2057421875,0.6925095319747925,-0.9333459138870239,0.37291696667671204
1772790830701807400,7.215807373046875,0.5876337289810181,-1.2691649198532104,0.31478336453437805
1772790830711872300,7.225872314453125,0.5246649384498596,-1.482340693473816,0.20401518046855927
1772790830721938400,7.2359384765625,0.4877529740333557,-1.4263019561767578,0.02855973318219185
1772790830732003300,7.24600341796875,0.4262160360813141,-1.1271235942840576,-0.15243177115917206
1772790830742068200,7.256068115234375,0.32733097672462463,-0.7327457070350647,-0.3011764883995056
1772790830752133400,7.26613330078125,0.17195825278759003,-0.34542977809906006,-0.40681496262550354
1772790830762198300,7.2761982421875,-0.03317892178893089,-0.028144225478172302,-0.47831180691719055
1772790830772264200,7.28626416015625,-0.2509928047657013,0.1757110357284546,-0.5129706859588623
1772790830782329300,7.296329345703125,-0.4468906819820404,0.345220685005188,-0.5183241963386536
1772790830792394200,7.306394287109375,-0.6024707555770874,0.5235152840614319,-0.5085306167602539
1772790830802459100,7.316459228515625,-0.7668370604515076,0.6654053330421448,-0.532123863697052
1772790830812525300,7.326525390625,-0.9137850403785706,0.7138261198997498,-0.6197101473808289
1772790830822590500,7.336590576171875,-0.9927688241004944,0.8151804208755493,-0.6560300588607788
1772790830832655000,7.346655029296875,-1.0143828392028809,0.8575400114059448,-0.636664628982544
1772790830842720300,7.35672021484375,-1.0110517740249634,0.8805624842643738,-0.5912614464759827
1772790830852786200,7.3667861328125,-1.0113976001739502,0.8668270111083984,-0.5427921414375305
1772790830862851000,7.37685107421875,-1.0108884572982788,0.8270529508590698,-0.48394718766212463
1772790830872916200,7.386916259765625,-0.9926856756210327,0.7863103151321411,-0.3886593282222748
1772790830882981400,7.3969814453125,-0.9270920157432556,0.7644784450531006,-0.31525513529777527
1772790830893046000,7.4070458984375,-0.843821108341217,0.6403571963310242,-0.2860009968280792
1772790830903112200,7.4171123046875,-0.820361316204071,0.35614413022994995,-0.27867624163627625
1772790830913177300,7.42717724609375,-0.8900429010391235,-0.028481313958764076,-0.2960318624973297
1772790830923242200,7.4372421875,-1.0167604684829712,-0.40802302956581116,-0.3698786795139313
1772790830933307100,7.44730712890625,-1.1272410154342651,-0.6997655034065247,-0.45892760157585144
1772790830943373300,7.457373291015625,-1.164914608001709,-0.7964158654212952,-0.5161493420600891
1772790830953438200,7.467438232421875,-1.1236584186553955,-0.7377297878265381,-0.5269889831542969
1772790830963503400,7.47750341796875,-1.0551332235336304,-0.520983874797821,-0.4960094690322876
1772790830973568300,7.487568359375,-0.9975958466529846,-0.22803537547588348,-0.4645529091358185
1772790830983634200,7.49763427734375,-0.9937945008277893,0.15667076408863068,-0.4074195623397827
1772790830993699300,7.50769921875,-1.0415972471237183,0.6144495010375977,-0.27800726890563965
1772790831003764200,7.51776416015625,-1.000026822090149,0.8739806413650513,-0.021611971780657768
1772790831013829000,7.5278291015625,-0.7950422167778015,0.7713007926940918,0.2922733426094055
1772790831023894300,7.537894287109375,-0.5819688439369202,0.6436501741409302,0.6626319885253906
1772790831033960400,7.54796044921875,-0.4630512297153473,0.6750903129577637,1.0676990747451782
1772790831044025000,7.558025146484375,-0.4803415536880493,0.6526182889938354,1.443627953529358
1772790831054090200,7.56809033203125,-0.5140435695648193,0.49005991220474243,1.7866997718811035
1772790831064155400,7.5781552734375,-0.4652685523033142,0.3350293040275574,1.9964466094970703
1772790831074221300,7.58822119140625,-0.38743412494659424,0.18202225863933563,1.9421346187591553
1772790831084286200,7.5982861328125,-0.3579273521900177,0.031538479030132294,1.6615965366363525
1772790831094351400,7.608351318359375,-0.3281790316104889,-0.011992020532488823,1.3620409965515137
1772790831104416300,7.618416259765625,-0.2445744276046753,0.16500964760780334,1.1762596368789673
1772790831114482200,7.628482177734375,-0.140836700797081,0.4839307963848114,1.0775854587554932
1772790831124547300,7.63854736328125,-0.09476641565561295,0.7759250402450562,1.0359429121017456
1772790831134612200,7.6486123046875,-0.12203521281480789,0.9755674600601196,1.0010899305343628
1772790831144677000,7.658677001953125,-0.15979322791099548,1.0825741291046143,0.9556109309196472
1772790831154743300,7.668743408203125,-0.15079139173030853,0.952340841293335,0.8881463408470154
1772790831164808200,7.67880810546875,-0.1194811463356018,0.6671034693717957,0.8227977156639099
1772790831174873300,7.688873291015625,-0.09587545692920685,0.3217717111110687,0.7798023819923401
1772790831184938200,7.698938232421875,-0.11092924326658249,-0.004121443256735802,0.7284207344055176
1772790831195004200,7.709004150390625,-0.15240393579006195,-0.2767576277256012,0.6061965227127075
1772790831205069300,7.7190693359375,-0.185185045003891,-0.49484947323799133,0.393901526927948
1772790831215134200,7.72913427734375,-0.24756011366844177,-0.5828244090080261,0.06018907576799393
1772790831225199000,7.73919921875,-0.36215272545814514,-0.43137118220329285,-0.42449450492858887
1772790831235265300,7.749265380859375,-0.4154641032218933,-0.09262694418430328,-0.9295995235443115
1772790831245330400,7.759330322265625,-0.33987319469451904,0.26565396785736084,-1.3342591524124146
1772790831255395000,7.76939501953125,-0.15770508348941803,0.5986262559890747,-1.4708672761917114
1772790831265460200,7.779460205078125,0.08836275339126587,0.7495225667953491,-1.3355531692504883
1772790831275525400,7.789525390625,0.2896985709667206,0.5432292222976685,-1.0054924488067627
1772790831285591300,7.79959130859375,0.3991933763027191,0.12924852967262268,-0.5256176590919495
1772790831295656200,7.80965625,0.42858296632766724,-0.2939261198043823,-0.016724662855267525
1772790831305721300,7.819721435546875,0.4303739368915558,-0.6271080374717712,0.4130336344242096
1772790831315786200,7.8297861328125,0.45975765585899353,-0.8231438994407654,0.687038004398346
1772790831325852200,7.83985205078125,0.48402783274650574,-0.8949410915374756,0.7960627675056458
1772790831335917300,7.849917236328125,0.4544140100479126,-0.89816814661026,0.7324526309967041
1772790831345982200,7.859982177734375,0.35073021054267883,-0.8412467837333679,0.5450243949890137
1772790831356047000,7.870047119140625,0.20176373422145844,-0.6456040143966675,0.32456982135772705
1772790831366113300,7.88011328125,0.09088141471147537,-0.3492019474506378,0.17424367368221283
1772790831376178200,7.89017822265625,0.022997327148914337,-0.024271387606859207,0.126254141330719
1772790831386243300,7.900243408203125,0.00634431466460228,0.2288716584444046,0.15179118514060974
1772790831396308200,7.91030810546875,0.029006361961364746,0.32368168234825134,0.21294410526752472
1772790831406374100,7.9203740234375,0.05370238795876503,0.28717613220214844,0.2855418622493744
1772790831416439300,7.930439208984375,0.056472014635801315,0.1993975192308426,0.35328444838523865
1772790831426504200,7.940504150390625,0.03611161559820175,0.08042453229427338,0.399126797914505
1772790831436569000,7.950569091796875,0.02339823916554451,-0.034189336001873016,0.42628994584083557
1772790831446635300,7.96063525390625,0.05039630085229874,-0.1509913206100464,0.4484376013278961
1772790831456700400,7.970700439453125,0.0963001474738121,-0.22124551236629486,0.4606793522834778
1772790831466765000,7.98076513671875,0.13539081811904907,-0.2618677616119385,0.46711593866348267
1772790831476830200,7.990830322265625,0.15541066229343414,-0.28970250487327576,0.48225313425064087
1772790831486896400,8.000896484375,0.14147859811782837,-0.2578851878643036,0.463187575340271
1772790831496961300,8.010961181640624,0.09824854880571365,-0.21522070467472076,0.37493860721588135
1772790831507026200,8.021026123046875,0.06523147225379944,-0.1607998013496399,0.2922991216182709
1772790831517091300,8.03109130859375,0.08265180885791779,-0.11609485000371933,0.3031555414199829
1772790831527156500,8.041156494140624,0.11945776641368866,-0.13788510859012604,0.3790774643421173
1772790831537222100,8.05122216796875,0.13533344864845276,-0.22116127610206604,0.45249587297439575
1772790831547287300,8.061287353515626,0.0546034537255764,-0.465448796749115,0.3355519473552704
1772790831557352200,8.071352294921875,-0.11464455723762512,-0.7323995232582092,-0.00985862035304308
1772790831567417000,8.0814169921875,-0.25602832436561584,-0.8767351508140564,-0.4088728725910187
1772790831577483300,8.091483154296874,-0.297079473733902,-0.723046600818634,-0.5813876390457153
1772790831587548200,8.101548095703125,-0.18383842706680298,-0.30926090478897095,-0.4418414235115051
1772790831597612300,8.1116123046875,0.020596329122781754,0.16902902722358704,-0.10572493821382523
1772790831607677400,8.121677490234376,0.12978912889957428,0.49027949571609497,0.28562578558921814
1772790831617743600,8.13174365234375,0.12111411243677139,0.5384683609008789,0.5230899453163147
1772790831627808300,8.141808349609375,0.020619194954633713,0.38688012957572937,0.5312359929084778
1772790831637873400,8.151873291015624,-0.039206888526678085,0.20452545583248138,0.435050368309021
1772790831647938600,8.1619384765625,0.0016744999447837472,0.031208787113428116,0.2607576847076416
1772790831658004200,8.172004150390626,0.11372046917676926,-0.08072187751531601,0.10646895319223404
1772790831668069400,8.1820693359375,0.20687012374401093,-0.06197695434093475,0.015043966472148895
1772790831678134500,8.192134521484375,0.30791157484054565,0.1143048107624054,-0.031696867197752
1772790831688199200,8.20219921875,0.4234227240085602,0.35872918367385864,-0.06455441564321518
1772790831698265300,8.212265380859375,0.5849969387054443,0.5063844323158264,-0.06829638034105301
1772790831708330500,8.22233056640625,0.7530839443206787,0.5424736738204956,-0.05489615350961685
1772790831718395400,8.2323955078125,0.8841019868850708,0.4422611594200134,-0.05275849252939224
1772790831728460300,8.242460205078125,0.930180549621582,0.23289170861244202,-0.08764537423849106
1772790831738526500,8.2525263671875,0.8607314229011536,0.04993826895952225,-0.14732356369495392
1772790831748591400,8.26259130859375,0.7167364358901978,-0.04730679467320442,-0.22470250725746155
1772790831758656300,8.27265625,0.5146763324737549,-0.07186946272850037,-0.3090306222438812
1772790831768721400,8.282721435546875,0.36458665132522583,-0.04074110463261604,-0.34846484661102295
1772790831778787300,8.292787353515624,0.29024994373321533,0.005764547735452652,-0.35781329870224
1772790831788852500,8.3028525390625,0.23243242502212524,0.13160264492034912,-0.31924912333488464
1772790831798917400,8.31291748046875,0.15406835079193115,0.2687638998031616,-0.21527637541294098
1772790831808982300,8.322982177734374,0.056453898549079895,0.35853826999664307,-0.0832003578543663
1772790831819048400,8.33304833984375,-0.03857016563415527,0.4475894272327423,-0.03593709319829941
1772790831829113600,8.343113525390624,-0.14938190579414368,0.4023092985153198,-0.09257960319519043
1772790831839178200,8.35317822265625,-0.24312911927700043,0.29557088017463684,-0.23902462422847748
1772790831849243400,8.363243408203125,-0.28989261388778687,0.13698680698871613,-0.42150869965553284
1772790831859309300,8.373309326171874,-0.26978495717048645,-0.09597925841808319,-0.5940730571746826
1772790831869374200,8.383374267578125,-0.21588312089443207,-0.2786034047603607,-0.7302452921867371
1772790831879439400,8.393439453125,-0.14333143830299377,-0.31110960245132446,-0.8081356287002563
1772790831889504500,8.40350439453125,0.015592433512210846,0.039676643908023834,-0.8670846819877625
1772790831899570400,8.4135703125,0.09734928607940674,0.5383378267288208,-0.9667673707008362
1772790831909635300,8.42363525390625,0.056679628789424896,0.6715722680091858,-0.862785279750824
1772790831919700500,8.433700439453125,0.05483807995915413,0.6850605607032776,-0.6396141648292542
1772790831929765400,8.443765380859375,0.0069483183324337006,0.5629977583885193,-0.4189198911190033
1772790831939831600,8.45383154296875,-0.024920837953686714,0.3953925371170044,-0.2645280659198761
1772790831949896400,8.463896484375,-0.031110823154449463,0.18666647374629974,-0.14096830785274506
1772790831959961300,8.47396142578125,-0.0238767359405756,-0.050524890422821045,-0.008759591728448868
1772790831970026500,8.484026611328124,-0.013392137363553047,-0.30906644463539124,0.07891672849655151
1772790831980092200,8.494092041015625,-0.030387483537197113,-0.4763096868991852,0.13034653663635254
1772790831990157300,8.5041572265625,-0.029969099909067154,-0.51275235414505,0.18226751685142517
1772790832000222500,8.514222412109374,0.003919660113751888,-0.5334972739219666,0.2678180932998657
1772790832010287400,8.524287353515625,0.04338477551937103,-0.5272009968757629,0.37045392394065857
1772790832020353300,8.534353271484376,0.05200318992137909,-0.4909631311893463,0.4488527178764343
1772790832030418400,8.54441845703125,0.020440738648176193,-0.44455593824386597,0.5126431584358215
1772790832040483600,8.554483642578125,-0.030900822952389717,-0.41858068108558655,0.6100602149963379
1772790832050548200,8.56454833984375,-0.0903974398970604,-0.3946061134338379,0.7039566040039062
1772790832060614400,8.574614501953125,-0.17412838339805603,-0.39624953269958496,0.7847729325294495
1772790832070679600,8.584679443359375,-0.23703359067440033,-0.3483339548110962,0.8435563445091248
1772790832080744200,8.594744140625,-0.25586220622062683,-0.28004568815231323,0.7936403751373291
1772790832090810400,8.604810302734375,-0.29515528678894043,-0.27455610036849976,0.6271510124206543
1772790832100875300,8.614875244140626,-0.3957746624946594,-0.38098442554473877,0.27366340160369873
1772790832110940400,8.6249404296875,-0.5344417691230774,-0.39219072461128235,-0.2166128307580948
1772790832121006600,8.635006591796875,-0.704018771648407,-0.15447105467319489,-0.6176831126213074
1772790832131071200,8.6450712890625,-0.9229699969291687,0.2336828112602234,-0.7401467561721802
1772790832141136400,8.655136474609375,-1.020501971244812,0.6222212314605713,-0.6132593750953674
1772790832151201500,8.665201416015625,-0.9384662508964539,0.9693182110786438,-0.41396892070770264
1772790832161267200,8.67526708984375,-0.7535589337348938,1.205604076385498,-0.2344767153263092
1772790832171332400,8.685332275390625,-0.5987057089805603,1.210858702659607,-0.13808386027812958
1772790832181397500,8.6953974609375,-0.49195876717567444,1.0035181045532227,-0.07462617754936218
1772790832191462400,8.70546240234375,-0.4030555188655853,0.6020824909210205,0.0005276927258819342
1772790832201528300,8.7155283203125,-0.33624139428138733,0.19613955914974213,0.06716116517782211
1772790832211593500,8.725593505859376,-0.29256609082221985,-0.0024750055745244026,0.08920734375715256
1772790832221658400,8.735658447265624,-0.23845572769641876,0.03265203535556793,0.040338050574064255
1772790832231723300,8.74572314453125,-0.12643252313137054,-0.06765486299991608,-0.09490739554166794
1772790832241789400,8.75578955078125,0.0018100942252203822,-0.34236711263656616,-0.32324889302253723
1772790832251854300,8.765854248046875,0.07363101840019226,-0.5307663083076477,-0.6288027167320251
1772790832261919200,8.775919189453125,0.09612099081277847,-0.5831838250160217,-0.8939225077629089
1772790832271984400,8.785984375,0.10486175119876862,-0.6687051057815552,-1.0213171243667603
1772790832282050300,8.79605029296875,0.027733471244573593,-0.8254904747009277,-1.051804780960083
1772790832292115500,8.806115478515625,-0.03593951463699341,-0.8513298034667969,-0.9779678583145142
1772790832302180400,8.816180419921874,-0.09439487755298615,-0.9051041007041931,-0.9297941327095032
1772790832312246300,8.826246337890625,-0.08619846403598785,-0.9803410768508911,-0.9005230665206909
1772790832322311400,8.8363115234375,-0.04481969401240349,-1.0747606754302979,-0.8669120073318481
1772790832332376600,8.84637646484375,0.008645927533507347,-0.9898428916931152,-0.8518989682197571
1772790832342441200,8.856441162109375,0.06881000846624374,-0.7982995510101318,-0.8925174474716187
1772790832352507400,8.86650732421875,0.10374855250120163,-0.6335588097572327,-0.9970347881317139
1772790832362572500,8.876572509765625,0.14938317239284515,-0.4471338987350464,-1.1571338176727295
1772790832372637200,8.88663720703125,0.25094279646873474,-0.15296323597431183,-1.302424430847168
1772790832382702300,8.896702392578124,0.44478943943977356,0.09943832457065582,-1.3513263463974
1772790832392768300,8.906768310546875,0.6305882930755615,0.2007678598165512,-1.2794734239578247
1772790832402833400,8.91683349609375,0.7303305864334106,0.21378673613071442,-1.0944039821624756
1772790832412898300,8.926898193359374,0.7547531127929688,0.16974443197250366,-0.8314246535301208
1772790832422963500,8.93696337890625,0.7705662250518799,0.1003957986831665,-0.5224554538726807
1772790832433029400,8.947029296875,0.7531065344810486,0.008600631728768349,-0.2695281207561493
1772790832443094500,8.957094482421875,0.7164897918701172,-0.06726863980293274,-0.09356468915939331
1772790832453159400,8.967159423828125,0.678861677646637,-0.19600051641464233,0.017817232757806778
1772790832463224300,8.977224365234376,0.5723706483840942,-0.41377219557762146,0.03067675419151783
1772790832473290500,8.98729052734375,0.37969839572906494,-0.4670005440711975,-0.07538948953151703
1772790832483355400,8.99735546875,0.199723020195961,-0.4012584686279297,-0.22997835278511047
1772790832493420300,9.007420166015624,0.07700801640748978,-0.272355318069458,-0.3477579951286316
1772790832503486500,9.017486572265625,0.03481774032115936,-0.14555417001247406,-0.37503746151924133
1772790832513551400,9.02755126953125,0.05713449791073799,-0.12881432473659515,-0.34240442514419556
1772790832523616300,9.0376162109375,0.06626357138156891,-0.156260147690773,-0.276425838470459
1772790832533681400,9.047681396484375,0.03731314092874527,-0.1013774573802948,-0.17354446649551392
1772790832543747300,9.057747314453126,-0.023955726996064186,-0.04846524819731712,0.03029608353972435
1772790832553812200,9.067812255859375,-0.08284221589565277,-0.01842212677001953,0.28067609667778015
1772790832563877400,9.07787744140625,-0.12456706166267395,-0.1085050106048584,0.5051358938217163
1772790832573942500,9.087942626953126,-0.12590396404266357,-0.25099024176597595,0.6878524422645569
1772790832584008400,9.098008544921875,-0.09599996358156204,-0.4629083275794983,0.8603677749633789
1772790832594074400,9.108074462890626,-0.011601460166275501,-0.6885579228401184,1.1561930179595947
1772790832604139300,9.11813916015625,0.15688098967075348,-0.8095550537109375,1.5554167032241821
1772790832614204400,9.128204345703125,0.352874219417572,-1.007236123085022,1.9044742584228516
1772790832624270300,9.138270263671876,0.5190911293029785,-1.1874263286590576,1.9707341194152832
1772790832634335200,9.148335205078125,0.5265277028083801,-1.3510421514511108,1.6139472723007202
1772790832644400400,9.158400390625,0.3528035879135132,-1.3746211528778076,0.8948201537132263
1772790832654466300,9.16846630859375,0.15802372992038727,-1.0029797554016113,0.12449811398983002
1772790832664531500,9.178531494140625,0.14085285365581512,-0.07013370096683502,-0.1840989887714386
1772790832674596400,9.188596435546875,0.1656721830368042,0.8034848570823669,0.23423142731189728
1772790832684661500,9.19866162109375,0.1080014705657959,0.8877657055854797,1.1076569557189941
1772790832694727400,9.2087275390625,0.01431785337626934,0.5003218054771423,1.8444095849990845
1772790832704792300,9.218792236328126,-0.12878477573394775,0.29627561569213867,1.9787909984588623
1772790832714857200,9.228857177734374,-0.1966804713010788,0.32079800963401794,1.5804193019866943
1772790832724922400,9.23892236328125,-0.05465954169631004,0.5225180983543396,1.028117299079895
1772790832734988500,9.248988525390626,-0.020431529730558395,0.7243169546127319,0.7490323185920715
1772790832745053200,9.25905322265625,-0.14571475982666016,0.8617270588874817,0.7956461906433105
1772790832755118300,9.269118408203125,-0.33077195286750793,0.90488600730896,0.9465105533599854
1772790832765184500,9.2791845703125,-0.43097424507141113,0.896335780620575,0.9593412280082703
1772790832775249400,9.28924951171875,-0.46131935715675354,0.8832330107688904,0.7847821712493896
1772790832785314300,9.299314208984375,-0.5055704712867737,0.8535411357879639,0.56656813621521
1772790832795379500,9.30937939453125,-0.5186092853546143,0.7170411348342896,0.41522738337516785
1772790832805445400,9.3194453125,-0.480008602142334,0.4471915066242218,0.24164243042469025
1772790832815510300,9.32951025390625,-0.41128119826316833,0.1975870281457901,0.09334484487771988
1772790832825575400,9.339575439453125,-0.2689506709575653,-0.06456226110458374,0.015489500015974045
1772790832835640300,9.349640380859375,-0.09570831060409546,-0.3376649022102356,-0.08079256117343903
1772790832845706500,9.35970654296875,0.026659773662686348,-0.4337584674358368,-0.3239319920539856
1772790832855771400,9.369771484375,0.05813088268041611,-0.3349357545375824,-0.6694007515907288
1772790832865836300,9.379836181640625,0.06528658419847488,-0.34387925267219543,-1.0090845823287964
1772790832875902500,9.38990234375,0.1013692170381546,-0.5178332328796387,-1.1914995908737183
1772790832885967600,9.399967529296875,0.143858402967453,-0.618202805519104,-1.1339141130447388
1772790832896032300,9.4100322265625,0.1646190732717514,-0.6612170934677124,-0.9326819777488708
1772790832906097400,9.420097412109374,0.21412493288516998,-0.5816837549209595,-0.740393340587616
1772790832916163300,9.430163330078125,0.2592247724533081,-0.31031516194343567,-0.6221253275871277
1772790832926228200,9.440228271484376,0.3299054503440857,-0.02796529233455658,-0.5860321521759033
1772790832936293400,9.45029345703125,0.42579761147499084,0.11102429032325745,-0.6397268176078796
1772790832946358500,9.460358642578125,0.5122649669647217,0.09838259220123291,-0.7904330492019653
1772790832956424400,9.470424560546874,0.5769891142845154,-0.015184981748461723,-0.982480525970459
1772790832966489300,9.4804892578125,0.598933219909668,-0.08624783158302307,-1.134624719619751
1772790832976554500,9.490554443359375,0.5597043633460999,-0.061788029968738556,-1.1709872484207153
1772790832986620400,9.500620361328124,0.4901466965675354,0.04203784838318825,-1.0184708833694458
1772790832996685300,9.510685302734375,0.4128201901912689,0.1332484483718872,-0.7367455959320068
1772790833006750500,9.52075048828125,0.33946362137794495,0.18591473996639252,-0.447288453578949
1772790833016815400,9.5308154296875,0.28936558961868286,0.15696431696414948,-0.24356460571289062
1772790833026881500,9.540881591796875,0.263683021068573,0.07089125365018845,-0.182511568069458
1772790833036946200,9.5509462890625,0.23821760714054108,0.020563893020153046,-0.2662426829338074
1772790833047011300,9.56101123046875,0.1869833618402481,-0.00297718308866024,-0.43315330147743225
1772790833057077500,9.571077392578125,0.1279410719871521,0.016610633581876755,-0.5540182590484619
1772790833067142400,9.581142333984374,0.039050884544849396,0.10947300493717194,-0.5394095778465271
1772790833077207300,9.591207275390625,-0.06320198625326157,0.19340838491916656,-0.40227410197257996
1772790833087272400,9.6012724609375,-0.14392928779125214,0.20953543484210968,-0.17880377173423767
1772790833097338400,9.61133837890625,-0.17135532200336456,0.2370046079158783,0.04341491311788559
1772790833107403300,9.6214033203125,-0.17884236574172974,0.27276813983917236,0.20136971771717072
1772790833117468400,9.631468505859376,-0.16279229521751404,0.31988877058029175,0.2823958396911621
1772790833127534300,9.641534423828125,-0.15221793949604034,0.3583758771419525,0.2753569781780243
1772790833137599500,9.651599609375,-0.16443200409412384,0.3666583299636841,0.20862989127635956
1772790833147664400,9.661664306640626,-0.18259760737419128,0.3197201192378998,0.20777028799057007
1772790833157729300,9.671729248046875,-0.23629571497440338,0.1891506463289261,0.35046887397766113
1772790833167795500,9.68179541015625,-0.3385520875453949,0.10874421149492264,0.5791170001029968
1772790833177860400,9.6918603515625,-0.46736279129981995,0.0789804607629776,0.7150524258613586
1772790833187925200,9.70192529296875,-0.5464343428611755,0.10116787254810333,0.5938582420349121
1772790833197990400,9.711990478515625,-0.548708975315094,0.1826038658618927,0.14369317889213562
1772790833208056600,9.722056640625,-0.5186689496040344,0.3482043743133545,-0.5723622441291809
1772790833218121200,9.732121337890625,-0.5649679899215698,0.661978542804718,-1.2892730236053467
1772790833228186400,9.742186279296876,-0.6810097694396973,1.0696630477905273,-1.678288459777832
1772790833238252300,9.752252197265625,-0.8093602657318115,1.5477596521377563,-1.5193140506744385
1772790833248317400,9.7623173828125,-0.840935468673706,1.9401830434799194,-0.8257283568382263
1772790833258382300,9.77238232421875,-0.7541659474372864,2.016982078552246,0.04149648919701576
1772790833268447500,9.782447509765625,-0.5402140021324158,1.7964589595794678,0.714345395565033
1772790833278513400,9.792513427734375,-0.2924015522003174,1.4290615320205688,1.0023715496063232
1772790833288578300,9.802578369140624,-0.06579434871673584,0.9020785689353943,0.9282863140106201
1772790833298643500,9.8126435546875,0.057878319174051285,0.4426439106464386,0.7847280502319336
1772790833308709400,9.82270947265625,0.05780031532049179,0.10687631368637085,0.8007053732872009
1772790833318774500,9.8327744140625,0.030867232009768486,-0.14192311465740204,0.968218982219696
1772790833328839400,9.84283935546875,0.06349233537912369,-0.36304691433906555,1.1065946817398071
1772790833338904300,9.852904296875,0.15660922229290009,-0.5370794534683228,1.1392948627471924
1772790833348970500,9.862970458984375,0.286672979593277,-0.5830817222595215,1.0443540811538696
1772790833359035400,9.873035400390625,0.3785131573677063,-0.4524851143360138,0.8462426066398621
1772790833369100300,9.883100341796874,0.4337727427482605,-0.34109172224998474,0.6189684867858887
1772790833379165400,9.89316552734375,0.4690268635749817,-0.3654897212982178,0.3886524438858032
1772790833389231400,9.9032314453125,0.5135506391525269,-0.48794808983802795,0.1984894871711731
1772790833399296300,9.913296142578124,0.5639778971672058,-0.6268207430839539,0.09306186437606812
1772790833409361400,9.923361328125,0.6096537113189697,-0.7008404731750488,0.043804917484521866
1772790833419427300,9.93342724609375,0.6176487803459167,-0.7222690582275391,0.013750346377491951
1772790833429492500,9.943492431640625,0.5722520351409912,-0.6932114958763123,-0.049508336931467056
1772790833439557400,9.953557373046875,0.491577684879303,-0.616265594959259,-0.20491576194763184
1772790833449622300,9.963622314453126,0.4006316065788269,-0.5842851996421814,-0.39126259088516235
1772790833459688400,9.9736884765625,0.29945704340934753,-0.49645543098449707,-0.5599152445793152
1772790833469753300,9.98375341796875,0.24805396795272827,-0.39204445481300354,-0.6486652493476868
1772790833479818200,9.993818359375,0.2136259526014328,-0.2890571057796478,-0.6712890267372131
1772790833489884400,10.003884521484375,0.16566763818264008,-0.21846574544906616,-0.7126999497413635
1772790833499949600,10.013949462890626,0.08704899996519089,-0.2248045951128006,-0.7358545660972595
1772790833510014200,10.02401416015625,0.009848694317042828,-0.2012542188167572,-0.6637758016586304
1772790833520080400,10.034080322265625,-0.07766012102365494,-0.17541170120239258,-0.5231361389160156
1772790833530145300,10.044145263671876,-0.1303444355726242,-0.20420753955841064,-0.3342987298965454
1772790833540210400,10.05421044921875,-0.12503409385681152,-0.23978577554225922,-0.142349511384964
1772790833550275300,10.064275390625,-0.06886449456214905,-0.19078508019447327,-0.0032689967192709446
1772790833560341200,10.07434130859375,-0.019627436995506287,-0.09271097183227539,0.0532374233007431
1772790833570406400,10.084406494140625,0.014212647452950478,0.05970260500907898,0.0498327761888504
1772790833580471300,10.09447119140625,0.0397462360560894,0.233734592795372,0.0035182752180844545
1772790833590537000,10.104536865234374,0.039561741054058075,0.37601712346076965,-0.127773717045784
1772790833600602000,10.11460205078125,0.04550245404243469,0.32357656955718994,-0.28623124957084656
1772790833610667300,10.124667236328126,0.049167241901159286,0.19438332319259644,-0.4778333306312561
1772790833620732200,10.134732177734374,0.04152849689126015,0.07308458536863327,-0.5982169508934021
1772790833630798000,10.144798095703125,0.025048550218343735,-0.027470890432596207,-0.5432785749435425
1772790833640863200,10.15486328125,-0.03196892887353897,-0.10013843327760696,-0.34537243843078613
1772790833650928400,10.164928466796875,-0.05905989184975624,-0.16218163073062897,-0.10492011904716492
1772790833660994000,10.174994140625,-0.044833820313215256,-0.2964121401309967,0.07799377292394638
1772790833671059200,10.18505908203125,0.03557135909795761,-0.2872478663921356,0.1753448098897934
1772790833681124000,10.1951240234375,0.1691768318414688,-0.39517781138420105,0.16425886750221252
1772790833691189200,10.205189208984375,0.3389766216278076,-0.3594985604286194,0.034710679203271866
1772790833701255200,10.215255126953124,0.3399449586868286,-0.3374941945075989,-0.1770058423280716
1772790833711320000,10.225320068359375,0.1125313863158226,-0.37045353651046753,-0.31599774956703186
1772790833721385200,10.23538525390625,-0.16040825843811035,-0.41134530305862427,-0.20967397093772888
1772790833731451400,10.245451416015625,-0.36715900897979736,-0.35437875986099243,-0.006170614622533321
1772790833741516000,10.25551611328125,-0.46963876485824585,-0.21286211907863617,0.09101425856351852
1772790833751581200,10.265581298828126,-0.5131654143333435,-0.039106376469135284,-0.03661046177148819
1772790833761646300,10.275646240234375,-0.5957953333854675,0.20617902278900146,-0.28675025701522827
1772790833771712000,10.2857119140625,-0.8038157820701599,0.5527150630950928,-0.4388664960861206
1772790833781777200,10.295777099609374,-0.9530835747718811,0.8401502966880798,-0.40722787380218506
1772790833791842300,10.30584228515625,-0.976135790348053,1.0466570854187012,-0.34712299704551697
1772790833801908200,10.315908203125,-0.9133169054985046,1.0674071311950684,-0.31383004784584045
1772790833811973000,10.32597314453125,-0.7949041724205017,0.9291701912879944,-0.4277206063270569
1772790833822038300,10.336038330078125,-0.5861772894859314,0.7592823505401611,-0.7475462555885315
1772790833832103200,10.346103271484376,-0.2894294857978821,0.6537449359893799,-1.006910800933838
1772790833842169300,10.35616943359375,-0.007424970623105764,0.7157691121101379,-1.00205659866333
1772790833852234200,10.366234130859375,0.19606678187847137,0.7990959286689758,-0.697946310043335
1772790833862299100,10.376299072265626,0.30524224042892456,0.7084946632385254,-0.22160185873508453
1772790833872365300,10.386365234375,0.36679747700691223,0.49078941345214844,0.2077188640832901
1772790833882430000,10.396429931640625,0.36267784237861633,0.16216808557510376,0.4468182623386383
1772790833892495000,10.4064951171875,0.32706397771835327,-0.20823727548122406,0.4080537259578705
1772790833902561300,10.416561279296875,0.3296501636505127,-0.5116986036300659,0.14353498816490173
1772790833912626200,10.426626220703126,0.35076457262039185,-0.7065704464912415,-0.15183515846729279
1772790833922691000,10.436691162109375,0.3499613404273987,-0.7800001502037048,-0.292084664106369
1772790833932756200,10.446756103515625,0.34590399265289307,-0.7838924527168274,-0.23046350479125977
1772790833942822100,10.456822265625,0.3354553282260895,-0.8161065578460693,-0.0716932937502861
1772790833952887000,10.466886962890625,0.34120893478393555,-0.9189141392707825,0.0784783884882927
1772790833962952200,10.4769521484375,0.3345111012458801,-1.0392227172851562,0.14119502902030945
1772790833973018000,10.48701806640625,0.31168287992477417,-1.175954818725586,0.16900116205215454
1772790833983083300,10.497083251953125,0.2689892053604126,-1.3624563217163086,0.07699132710695267
1772790833993148200,10.507148193359376,0.2306155115365982,-1.4906214475631714,-0.1518149971961975
1772790834003214000,10.517214111328125,0.17858240008354187,-1.4157109260559082,-0.4350986182689667
1772790834013279200,10.527279296875,0.1388230174779892,-1.1778032779693604,-0.680318295955658
1772790834023344400,10.537344482421876,0.09901942312717438,-0.8500469923019409,-0.8107172846794128
1772790834033409000,10.547408935546875,0.0952949970960617,-0.5683170557022095,-0.8325052261352539
1772790834043475200,10.55747509765625,0.1423242837190628,-0.3479098081588745,-0.7993389964103699
1772790834053540400,10.567540283203124,0.20380555093288422,-0.080625519156456,-0.7569724917411804
1772790834063605000,10.57760498046875,0.24241313338279724,0.1804095357656479,-0.7104976177215576
1772790834073671200,10.587671142578126,0.2676762342453003,0.27774956822395325,-0.6411702036857605
1772790834083736000,10.597736083984374,0.30557888746261597,0.2924763262271881,-0.6079699397087097
1772790834093801200,10.60780126953125,0.3294006288051605,0.2877032458782196,-0.5938072204589844
1772790834103866000,10.6178662109375,0.3177269399166107,0.20845343172550201,-0.5205673575401306
1772790834113932000,10.62793212890625,0.2746814489364624,0.10198796540498734,-0.35686710476875305
1772790834123997200,10.6379970703125,0.1876211315393448,0.0060686273500323296,-0.14430318772792816
1772790834134062000,10.64806201171875,0.11301880329847336,-0.053192537277936935,0.08349258452653885
1772790834144128000,10.6581279296875,0.07997003942728043,-0.08850924670696259,0.22673630714416504
1772790834154193200,10.668193115234375,0.06652549654245377,-0.09893959760665894,0.2819676995277405
1772790834164258300,10.67825830078125,0.06684161722660065,-0.15023954212665558,0.3376102149486542
1772790834174324200,10.68832421875,0.05813807621598244,-0.14272235333919525,0.4088013768196106
1772790834184389000,10.69838916015625,0.017327262088656425,-0.027261804789304733,0.503214955329895
1772790834194454300,10.708454345703124,-0.05458534508943558,0.14334921538829803,0.6739215850830078
1772790834204520200,10.718520263671875,-0.13257867097854614,0.2961467504501343,0.9059611558914185
1772790834214585000,10.728585205078126,-0.1783118098974228,0.4180169105529785,1.0995053052902222
1772790834224650200,10.738650146484375,-0.21199093759059906,0.4578271508216858,1.1802939176559448
1772790834234715100,10.748715087890625,-0.2485722452402115,0.3665260076522827,1.118559718132019
1772790834244781300,10.75878125,-0.25550365447998047,0.1550273448228836,0.9587705731391907
1772790834254846200,10.76884619140625,-0.2396203577518463,0.030355865135788918,0.7250418066978455
1772790834264911000,10.7789111328125,-0.23451240360736847,0.0805487260222435,0.4852944314479828
1772790834274977300,10.788977294921875,-0.24226437509059906,0.18335746228694916,0.34092071652412415
1772790834285042200,10.799042236328125,-0.25447630882263184,0.25841784477233887,0.35528528690338135
1772790834295107000,10.809107177734376,-0.2781658470630646,0.26164788007736206,0.4810754954814911
1772790834305172200,10.819172119140624,-0.31853750348091125,0.11999648064374924,0.6662818193435669
1772790834315238100,10.829238037109375,-0.35314637422561646,-0.11713379621505737,0.7436368465423584
1772790834325303000,10.839302978515626,-0.33100032806396484,-0.3161312937736511,0.5550965070724487
1772790834335368200,10.8493681640625,-0.24373677372932434,-0.3511878252029419,0.18658903241157532
1772790834345434000,10.85943408203125,-0.14587439596652985,-0.16037234663963318,-0.12989570200443268
1772790834355499300,10.869499267578124,-0.09953517466783524,0.07268902659416199,-0.262942373752594
1772790834365564200,10.879564208984375,-0.1197509616613388,0.11595367640256882,-0.21106453239917755
1772790834375630000,10.889630126953126,-0.1505974531173706,0.02792374975979328,-0.056253984570503235
1772790834385695200,10.8996953125,-0.16607467830181122,-0.098442442715168,0.06787249445915222
1772790834395760000,10.909760009765625,-0.1676533967256546,-0.18438930809497833,0.14020608365535736
1772790834405826000,10.919825927734376,-0.14214564859867096,-0.1827610433101654,0.1874457597732544
1772790834415891200,10.92989111328125,-0.1059485375881195,-0.10098382830619812,0.22214853763580322
1772790834425956400,10.939956298828125,-0.06571029871702194,-0.023020319640636444,0.2807793617248535
1772790834436021000,10.95002099609375,-0.03917386010289192,0.003120671957731247,0.3655632734298706
1772790834446087200,10.960087158203125,-0.024442855268716812,-0.0028155138716101646,0.5321687459945679
1772790834456152300,10.97015234375,-0.03640104830265045,0.08918724209070206,0.6178547739982605
1772790834466217200,10.98021728515625,-0.043575603514909744,0.19886234402656555,0.5985143780708313
1772790834476283100,10.990283203125,-0.04029865562915802,0.251695841550827,0.5053662657737732
1772790834486348000,11.00034814453125,-0.050369665026664734,0.20098285377025604,0.41003361344337463
1772790834496413200,11.0104130859375,-0.052189312875270844,0.1629873365163803,0.3506419360637665
1772790834506478000,11.02047802734375,-0.0719425156712532,0.09497738629579544,0.36602887511253357
1772790834516544000,11.0305439453125,-0.08730316907167435,-0.0656459778547287,0.447356641292572
1772790834526609200,11.040609130859375,-0.08137790113687515,-0.23215214908123016,0.5004321336746216
1772790834536674300,11.05067431640625,-0.04380439966917038,-0.279306024312973,0.44894397258758545
1772790834546740000,11.060739990234374,-0.002658562269061804,-0.2026786208152771,0.3253016769886017
1772790834556805000,11.07080517578125,0.055573686957359314,-0.0240025594830513,0.11768236011266708
1772790834566870300,11.080870361328126,0.09156817197799683,0.1836901754140854,-0.1152278482913971
