time,seconds_elapsed,z,y,x
1772790101632792800,0.067792724609375,-0.03240593895316124,0.024031300097703934,-0.4198185205459595
1772790101642859000,0.07785888671875,-0.07286760956048965,0.034386735409498215,-0.3229524493217468
1772790101652924700,0.087924560546875,-0.0957895889878273,0.04823008179664612,-0.25223004817962646
1772790101662990800,0.097990966796875,-0.09296184778213501,0.0443091094493866,-0.19310519099235535
1772790101673056800,0.108056884765625,-0.08468259871006012,0.041302602738142014,-0.1461341381072998
1772790101683123000,0.118123046875,-0.06915796548128128,0.06383959949016571,-0.12309645861387253
1772790101693188900,0.12818896484375,-0.03934190049767494,0.07644776999950409,-0.1449519395828247
1772790101703255000,0.138255126953125,-0.0003782571293413639,0.05231820419430733,-0.2035963386297226
1772790101713321000,0.148321044921875,0.03988279402256012,0.020024064928293228,-0.293680876493454
1772790101723387000,0.158386962890625,0.06095026433467865,-0.0010631084442138672,-0.3911168873310089
1772790101733452800,0.168452880859375,0.05368902534246445,-0.021507035940885544,-0.49390703439712524
1772790101743519700,0.178519775390625,0.033464182168245316,-0.034020960330963135,-0.5940061807632446
1772790101753586000,0.1885859375,0.013840343803167343,-0.05486331135034561,-0.6869884133338928
1772790101763651800,0.19865185546875,-0.0027785806450992823,-0.10580957680940628,-0.7411693930625916
1772790101773717800,0.2087177734375,-0.021501293405890465,-0.14301423728466034,-0.7374897003173828
1772790101783784000,0.218783935546875,-0.025706158950924873,-0.14996083080768585,-0.6766217947006226
1772790101793849900,0.228849853515625,-0.021682091057300568,-0.12111999839544296,-0.5784010291099548
1772790101803916000,0.238916015625,-0.002484163036569953,-0.07581882923841476,-0.47364774346351624
1772790101813981700,0.248981689453125,0.034224022179841995,-0.03745771571993828,-0.3838830888271332
1772790101824047900,0.2590478515625,0.07359859347343445,-0.01080985926091671,-0.32815030217170715
1772790101834113800,0.26911376953125,0.12863992154598236,0.013597632758319378,-0.3143731653690338
1772790101844180000,0.279179931640625,0.17868177592754364,0.022320549935102463,-0.33166399598121643
1772790101854246000,0.289245849609375,0.2171441912651062,0.023166855797171593,-0.3620428144931793
1772790101864311800,0.299311767578125,0.24666079878807068,0.02315193973481655,-0.39944371581077576
1772790101874379300,0.309379150390625,0.27088963985443115,0.01611967384815216,-0.42805153131484985
1772790101884445200,0.319445068359375,0.29202499985694885,0.013717502355575562,-0.4317490756511688
1772790101894511000,0.329510986328125,0.31319659948349,0.020494449883699417,-0.42327943444252014
1772790101904577000,0.339576904296875,0.3277824819087982,0.013055175542831421,-0.39005568623542786
1772790101914643000,0.349642822265625,0.34680184721946716,-0.009580524638295174,-0.3386724591255188
1772790101924709000,0.359709228515625,0.3539960980415344,-0.02556108869612217,-0.2833165228366852
1772790101934775000,0.369775146484375,0.35418710112571716,-0.056582801043987274,-0.23562802374362946
1772790101944841200,0.37984130859375,0.33852025866508484,-0.11121542006731033,-0.20315903425216675
1772790101954907100,0.3899072265625,0.3133014738559723,-0.1912902295589447,-0.16920484602451324
1772790101964973300,0.399973388671875,0.27737730741500854,-0.23823563754558563,-0.11553682386875153
1772790101975039000,0.4100390625,0.24376055598258972,-0.22940705716609955,-0.06652840226888657
1772790101985105200,0.420105224609375,0.2173720896244049,-0.1910223811864853,-0.023478932678699493
1772790101995171000,0.430171142578125,0.18831811845302582,-0.15253973007202148,-0.011252974160015583
1772790102005237000,0.440237060546875,0.1581927090883255,-0.1338193118572235,-0.02108190208673477
1772790102015303200,0.45030322265625,0.1286451816558838,-0.1306912750005722,-0.05586044862866402
1772790102025369000,0.460369140625,0.10636384785175323,-0.1298004537820816,-0.08995956182479858
1772790102035435300,0.470435302734375,0.09393853694200516,-0.0962480753660202,-0.12025333195924759
1772790102045501200,0.480501220703125,0.09300483763217926,-0.03347337618470192,-0.14993026852607727
1772790102055567000,0.490567138671875,0.0947876051068306,0.029054515063762665,-0.18123571574687958
1772790102065633000,0.500633056640625,0.09866676479578018,0.07796985656023026,-0.20303474366664886
1772790102075699200,0.51069921875,0.09505924582481384,0.11602402478456497,-0.2171998918056488
1772790102085765000,0.52076513671875,0.08425852656364441,0.13767100870609283,-0.2175849825143814
1772790102095831000,0.5308310546875,0.06463238596916199,0.14262805879116058,-0.2078390270471573
1772790102105897200,0.540897216796875,0.026713766157627106,0.13401566445827484,-0.2050938457250595
1772790102115963100,0.550963134765625,-0.010616572573781013,0.09351571649312973,-0.19771984219551086
1772790102126029000,0.561029052734375,-0.051240164786577225,0.04677964001893997,-0.19033996760845184
1772790102136095000,0.571094970703125,-0.09682532399892807,0.004878482781350613,-0.169930562376976
1772790102146161200,0.5811611328125,-0.130294069647789,-0.018972788006067276,-0.12700332701206207
1772790102156228000,0.59122802734375,-0.15525995194911957,-0.004445889499038458,-0.0695367380976677
1772790102166294000,0.6012939453125,-0.17706619203090668,0.03422187641263008,-0.02486674301326275
1772790102176360200,0.611360107421875,-0.1855216771364212,0.06620322912931442,0.000009622599463909864
1772790102186426000,0.621426025390625,-0.18581993877887726,0.0877082571387291,0.004150837659835815
1772790102196492300,0.6314921875,-0.17655907571315765,0.1100088357925415,-0.013742832466959953
1772790102206558200,0.64155810546875,-0.15755556523799896,0.14363285899162292,-0.042874619364738464
1772790102216624000,0.6516240234375,-0.12869133055210114,0.19832995533943176,-0.08440794795751572
1772790102226690000,0.66168994140625,-0.10000587999820709,0.281248539686203,-0.14558422565460205
1772790102236756000,0.671755859375,-0.07628943771123886,0.3486897051334381,-0.22939424216747284
1772790102246822100,0.681822265625,-0.06261090934276581,0.40238913893699646,-0.3316982686519623
1772790102256888000,0.69188818359375,-0.04992960765957832,0.42811092734336853,-0.44454339146614075
1772790102266954200,0.701954345703125,-0.04763342812657356,0.4205198585987091,-0.5505838394165039
1772790102277020200,0.712020263671875,-0.05232393369078636,0.3798295855522156,-0.6414881348609924
1772790102287086000,0.722086181640625,-0.064496710896492,0.3163454234600067,-0.7050274014472961
1772790102297152000,0.732152099609375,-0.08611644804477692,0.25681570172309875,-0.7514209747314453
1772790102307218200,0.74221826171875,-0.10589920729398727,0.21519741415977478,-0.7631271481513977
1772790102317284000,0.7522841796875,-0.12610289454460144,0.17702710628509521,-0.7310333251953125
1772790102327350000,0.76235009765625,-0.1406823694705963,0.14472322165966034,-0.669429361820221
1772790102337416200,0.772416259765625,-0.1513964831829071,0.11656081676483154,-0.5761342644691467
1772790102347482000,0.782482177734375,-0.14968328177928925,0.07772526890039444,-0.45793095231056213
1772790102357548000,0.792548095703125,-0.14091399312019348,0.03630046173930168,-0.32887911796569824
1772790102367614000,0.802614013671875,-0.1368127316236496,0.003061281517148018,-0.21559730172157288
1772790102377680100,0.81268017578125,-0.12909677624702454,-0.04540537670254707,-0.1414218246936798
1772790102387746000,0.82274609375,-0.13637599349021912,-0.11819782108068466,-0.12519198656082153
1772790102397812200,0.832812255859375,-0.14508554339408875,-0.1927354633808136,-0.16101418435573578
1772790102407878100,0.842878173828125,-0.16297265887260437,-0.2594119608402252,-0.23854200541973114
1772790102417944300,0.8529443359375,-0.18509802222251892,-0.3032040297985077,-0.33461490273475647
1772790102428010200,0.86301025390625,-0.1947551816701889,-0.3028620779514313,-0.43675461411476135
1772790102438076000,0.873075927734375,-0.17817269265651703,-0.2793217897415161,-0.5199409127235413
1772790102448142000,0.88314208984375,-0.1462046504020691,-0.23486670851707458,-0.5620819330215454
1772790102458208000,0.8932080078125,-0.10397858917713165,-0.14997094869613647,-0.5567535161972046
1772790102468274200,0.903274169921875,-0.05914986878633499,-0.04579474404454231,-0.5143000483512878
1772790102478340000,0.913340087890625,-0.011031788773834705,0.09087426215410233,-0.4453895390033722
1772790102488407000,0.923406982421875,0.049045395106077194,0.2447165697813034,-0.3729552924633026
1772790102498473200,0.93347314453125,0.12745076417922974,0.38850465416908264,-0.31609153747558594
1772790102508539100,0.9435390625,0.2065650224685669,0.4990077614784241,-0.2888481914997101
1772790102518605300,0.953605224609375,0.27849823236465454,0.5557888150215149,-0.28999197483062744
1772790102528671000,0.9636708984375,0.33278754353523254,0.5489348769187927,-0.3027234673500061
1772790102538737200,0.973737060546875,0.36180055141448975,0.5004090070724487,-0.29723069071769714
1772790102548803000,0.983802978515625,0.36730557680130005,0.44970056414604187,-0.26033473014831543
1772790102558869200,0.993869140625,0.3544458746910095,0.4249745309352875,-0.20242804288864136
1772790102568935200,1.00393505859375,0.33146360516548157,0.39421793818473816,-0.1430262327194214
1772790102579001000,1.0140009765625,0.3027251660823822,0.3215327262878418,-0.09552499651908875
1772790102589067300,1.0240673828125,0.2715265154838562,0.22215716540813446,-0.06806594133377075
1772790102599133000,1.0341328125,0.22781814634799957,0.10422780364751816,-0.04134293645620346
1772790102609199000,1.04419921875,0.1708528697490692,-0.007817773148417473,-0.01264098472893238
1772790102619265000,1.05426513671875,0.09738432615995407,-0.09190990030765533,0.028096426278352737
1772790102629331200,1.064331298828125,0.019123081117868423,-0.1435515284538269,0.08182436972856522
1772790102639397000,1.074397216796875,-0.06019093096256256,-0.14516639709472656,0.13690464198589325
1772790102649463300,1.08446337890625,-0.13000303506851196,-0.13492387533187866,0.1729838252067566
1772790102659529200,1.094529296875,-0.19358080625534058,-0.11653225123882294,0.17949964106082916
1772790102669595000,1.104594970703125,-0.25473684072494507,-0.09315475821495056,0.15674400329589844
1772790102679661000,1.1146611328125,-0.32890716195106506,-0.043517570942640305,0.11894001811742783
1772790102689727000,1.12472705078125,-0.3984697461128235,0.03985508531332016,0.06840573996305466
1772790102699793200,1.134793212890625,-0.4683241844177246,0.1344297230243683,0.0043144687078893185
1772790102709859000,1.144859130859375,-0.5333551168441772,0.20006465911865234,-0.0700598955154419
1772790102719925200,1.15492529296875,-0.5990989208221436,0.23695968091487885,-0.138209730386734
1772790102729991200,1.1649912109375,-0.6515493392944336,0.27466869354248047,-0.196359321475029
1772790102740057300,1.175057373046875,-0.6908268928527832,0.29400375485420227,-0.2336837649345398
1772790102750124300,1.185124267578125,-0.7079517841339111,0.30641674995422363,-0.2546843886375427
1772790102760190000,1.19518994140625,-0.6966561079025269,0.34474173188209534,-0.24810877442359924
1772790102770256100,1.205256103515625,-0.663098931312561,0.39843931794166565,-0.22837847471237183
1772790102780322000,1.215322021484375,-0.6249498724937439,0.4399946331977844,-0.20146605372428894
1772790102790388200,1.22538818359375,-0.5805080533027649,0.44396114349365234,-0.17882491648197174
1772790102800454100,1.2354541015625,-0.5303439497947693,0.4052322208881378,-0.16415022313594818
1772790102810520000,1.24552001953125,-0.4887453615665436,0.3339204788208008,-0.14903810620307922
1772790102820586200,1.255586181640625,-0.4600365161895752,0.2697855532169342,-0.12665383517742157
1772790102830653200,1.265653076171875,-0.4398662745952606,0.22971032559871674,-0.09635105729103088
1772790102840719000,1.275718994140625,-0.41428884863853455,0.2066451609134674,-0.07007703930139542
1772790102850785000,1.285784912109375,-0.38920798897743225,0.1763480007648468,-0.06857368350028992
1772790102860851000,1.295850830078125,-0.36164605617523193,0.12789103388786316,-0.07711376249790192
1772790102870917000,1.305917236328125,-0.3278670608997345,0.06821971386671066,-0.09003648161888123
1772790102880982800,1.315982666015625,-0.2870606482028961,0.006759644486010075,-0.08771026134490967
1772790102891049000,1.326049072265625,-0.2506704032421112,-0.05220514163374901,-0.05432913824915886
1772790102901115000,1.336114990234375,-0.23204776644706726,-0.12524086236953735,0.004986261483281851
1772790102911181000,1.34618115234375,-0.22029204666614532,-0.19901734590530396,0.09467140585184097
1772790102921247000,1.3562470703125,-0.19956448674201965,-0.24190805852413177,0.17700959742069244
1772790102931313200,1.366313232421875,-0.1590743213891983,-0.2585538923740387,0.25817689299583435
1772790102941379000,1.376379150390625,-0.11454282701015472,-0.25407251715660095,0.3107985258102417
1772790102951445000,1.386445068359375,-0.05484594404697418,-0.2603703439235687,0.3462473452091217
1772790102961511000,1.396510986328125,0.010617549531161785,-0.24602603912353516,0.36632755398750305
1772790102971576800,1.406576904296875,0.07520666718482971,-0.23328068852424622,0.35939347743988037
1772790102981643000,1.41664306640625,0.12199152261018753,-0.21870329976081848,0.3442954123020172
1772790102991709000,1.426708984375,0.15303972363471985,-0.2057400941848755,0.3206707835197449
1772790103001775000,1.436775146484375,0.1783016175031662,-0.17536990344524384,0.3076718747615814
1772790103011841000,1.446841064453125,0.18479493260383606,-0.14041884243488312,0.30799755454063416
1772790103021908000,1.456907958984375,0.19004030525684357,-0.11263496428728104,0.3292584717273712
1772790103031974100,1.46697412109375,0.1816694587469101,-0.10209976881742477,0.3695875108242035
1772790103042039800,1.477039794921875,0.15994469821453094,-0.1089058592915535,0.39988213777542114
1772790103052106000,1.48710595703125,0.1455409973859787,-0.1506170779466629,0.41928911209106445
1772790103062172000,1.497171875,0.1251983940601349,-0.2041711062192917,0.4320618510246277
1772790103072238000,1.507238037109375,0.10135911405086517,-0.23981645703315735,0.4359703063964844
1772790103082304000,1.517303955078125,0.07409710437059402,-0.2527109384536743,0.44057950377464294
1772790103092370000,1.527369873046875,0.055394258350133896,-0.22707884013652802,0.43299588561058044
1772790103102436000,1.53743603515625,0.04017637297511101,-0.17842745780944824,0.4213782250881195
1772790103112502000,1.547501953125,0.027358045801520348,-0.14583010971546173,0.4021592438220978
1772790103122568000,1.55756787109375,0.006555389612913132,-0.15341387689113617,0.3867463171482086
1772790103132633900,1.5676337890625,-0.01273867953568697,-0.1532737910747528,0.38672181963920593
1772790103142700000,1.577699951171875,-0.018189525231719017,-0.14082486927509308,0.3892337381839752
1772790103152766000,1.587765869140625,-0.013738051056861877,-0.13671907782554626,0.38657110929489136
1772790103162832100,1.59783203125,-0.011579413898289204,-0.14734844863414764,0.3680998384952545
1772790103172898000,1.60789794921875,-0.013710476458072662,-0.15199753642082214,0.3480137586593628
1772790103182964000,1.6179638671875,-0.013176204636693,-0.14884749054908752,0.32501861453056335
1772790103193030000,1.62802978515625,-0.009703442454338074,-0.12580208480358124,0.3222292363643646
1772790103203095800,1.638095703125,-0.0015657264739274979,-0.07008108496665955,0.33733314275741577
1772790103213162000,1.648161865234375,0.015378103591501713,-0.01883307844400406,0.35899797081947327
1772790103223228000,1.658227783203125,0.0316951610147953,0.02076883614063263,0.36824852228164673
1772790103233294800,1.668294921875,0.0386449471116066,0.01553705520927906,0.34963327646255493
1772790103243361000,1.678361083984375,0.024070855230093002,-0.032322175800800323,0.3147023320198059
1772790103253427000,1.688427001953125,0.0008981581777334213,-0.126816987991333,0.2594446837902069
1772790103263493000,1.6984931640625,-0.025173798203468323,-0.22385042905807495,0.21633514761924744
1772790103273559000,1.70855908203125,-0.045341651886701584,-0.2821566164493561,0.20561406016349792
1772790103283625000,1.718625,-0.05308077484369278,-0.29277870059013367,0.22413583099842072
1772790103293691000,1.72869091796875,-0.04580075666308403,-0.2680000960826874,0.2792920470237732
1772790103303757000,1.738757080078125,-0.020706292241811752,-0.21844413876533508,0.3483010530471802
1772790103313823000,1.748822998046875,0.00435511814430356,-0.17883121967315674,0.4267471134662628
1772790103323889000,1.758888916015625,0.021692097187042236,-0.1475611925125122,0.47174572944641113
1772790103333955000,1.768955078125,0.03812699764966965,-0.12910760939121246,0.47966837882995605
1772790103344021000,1.77902099609375,0.057310476899147034,-0.12017296999692917,0.4355376958847046
1772790103354087000,1.7890869140625,0.06585682928562164,-0.12356823682785034,0.35785913467407227
1772790103364152800,1.79915283203125,0.06268511712551117,-0.13506539165973663,0.2553969621658325
1772790103374219000,1.809218994140625,0.055443450808525085,-0.1850675642490387,0.16520847380161285
1772790103384285000,1.819284912109375,0.04614436626434326,-0.22283262014389038,0.1019057184457779
1772790103394351000,1.82935107421875,0.04939129203557968,-0.20425014197826385,0.06807958334684372
1772790103404417000,1.8394169921875,0.06146415323019028,-0.1477240025997162,0.04968082532286644
1772790103414483000,1.84948291015625,0.09062763303518295,-0.0978350043296814,0.04021887853741646
1772790103424550100,1.859550048828125,0.12966737151145935,-0.06352256238460541,0.03196709603071213
1772790103434616000,1.869615966796875,0.15887001156806946,-0.043955788016319275,0.02745729871094227
1772790103444682000,1.879681884765625,0.17905956506729126,-0.02831653505563736,0.030201032757759094
1772790103454748000,1.889747802734375,0.19142702221870422,-0.015556799247860909,0.027181008830666542
1772790103464813800,1.899813720703125,0.198020339012146,-0.010152016766369343,0.010957950726151466
1772790103474880000,1.9098798828125,0.19885577261447906,-0.022635051980614662,-0.019378649070858955
1772790103484946000,1.91994580078125,0.1822681874036789,-0.059435442090034485,-0.06468088179826736
1772790103495012000,1.93001220703125,0.15495747327804565,-0.10917504131793976,-0.11141323298215866
1772790103505078000,1.940078125,0.11357856541872025,-0.16591700911521912,-0.15340368449687958
1772790103515144000,1.95014404296875,0.05786576867103577,-0.22308868169784546,-0.18614324927330017
1772790103525209900,1.9602099609375,0.0048361062072217464,-0.2908477485179901,-0.21666334569454193
1772790103535276000,1.970276123046875,-0.03992018103599548,-0.36285483837127686,-0.22829550504684448
1772790103545342000,1.980342041015625,-0.06292582303285599,-0.4222514033317566,-0.2068961262702942
1772790103555408100,1.990408203125,-0.06387922912836075,-0.44175854325294495,-0.15590430796146393
1772790103565474000,2.00047412109375,-0.04823940619826317,-0.41971591114997864,-0.08402528613805771
1772790103575540000,2.0105400390625,-0.020772894844412804,-0.3779114782810211,-0.0059304810129106045
1772790103585606100,2.020606201171875,-0.004465900361537933,-0.3394945561885834,0.06162914261221886
1772790103595673000,2.030673095703125,0.012102424167096615,-0.28056812286376953,0.11305292695760727
1772790103605738800,2.04073876953125,0.01164386048913002,-0.2315467745065689,0.14991845190525055
1772790103615805000,2.050804931640625,-0.010447327047586441,-0.2018463909626007,0.17109805345535278
1772790103625870800,2.060870849609375,-0.05635739862918854,-0.1840764582157135,0.177337646484375
1772790103635937000,2.07093701171875,-0.10994446277618408,-0.17316628992557526,0.18364587426185608
1772790103646003000,2.0810029296875,-0.16214215755462646,-0.14510706067085266,0.1891147643327713
1772790103656069000,2.091069091796875,-0.21071581542491913,-0.10412634909152985,0.19400964677333832
1772790103666135000,2.101135009765625,-0.257220983505249,-0.05526748672127724,0.1937364637851715
1772790103676201200,2.111201171875,-0.3148413896560669,-0.02549733966588974,0.1887182742357254
1772790103686267000,2.121266845703125,-0.3803116977214813,-0.037759050726890564,0.181558296084404
1772790103696333000,2.1313330078125,-0.4505555033683777,-0.08135579526424408,0.17298318445682526
1772790103706399000,2.14139892578125,-0.5345279574394226,-0.12627167999744415,0.17048019170761108
1772790103716465000,2.15146484375,-0.6205536127090454,-0.1539355367422104,0.18364419043064117
1772790103726531000,2.161531005859375,-0.6991991996765137,-0.1561901718378067,0.19773870706558228
1772790103736597000,2.171596923828125,-0.7664655447006226,-0.14912372827529907,0.20410606265068054
1772790103746663200,2.1816630859375,-0.8356963396072388,-0.14000259339809418,0.20665061473846436
1772790103756730000,2.191730224609375,-0.9049118757247925,-0.13390101492404938,0.19874714314937592
1772790103766795800,2.201795654296875,-0.9790120720863342,-0.13446064293384552,0.18917660415172577
1772790103776862000,2.211862060546875,-1.0494630336761475,-0.14894743263721466,0.1827956736087799
1772790103786927900,2.221927978515625,-1.1176230907440186,-0.17629028856754303,0.18058864772319794
1772790103796994000,2.231994140625,-1.186336874961853,-0.20422311127185822,0.20091629028320312
1772790103807060000,2.24206005859375,-1.2556267976760864,-0.22886443138122559,0.2329190969467163
1772790103817126100,2.252126220703125,-1.3178893327713013,-0.23953837156295776,0.2759975790977478
1772790103827192000,2.262192138671875,-1.3885031938552856,-0.2501143515110016,0.3169938027858734
1772790103837258000,2.272258056640625,-1.4547613859176636,-0.2682238519191742,0.33465373516082764
1772790103847324000,2.282323974609375,-1.5172269344329834,-0.2942284941673279,0.32629427313804626
1772790103857389800,2.292389892578125,-1.5814908742904663,-0.325522243976593,0.29557815194129944
1772790103867456300,2.302456298828125,-1.6428031921386719,-0.3435034155845642,0.2634325623512268
1772790103877522200,2.312522216796875,-1.7092458009719849,-0.33221080899238586,0.2459995150566101
1772790103887588400,2.32258837890625,-1.7860780954360962,-0.29338642954826355,0.23352017998695374
1772790103897654000,2.332654052734375,-1.8499338626861572,-0.24948394298553467,0.22373011708259583
1772790103907720200,2.34272021484375,-1.912089467048645,-0.21741041541099548,0.21084973216056824
1772790103917787100,2.352787109375,-1.9698693752288818,-0.2237420678138733,0.19762074947357178
1772790103927853000,2.36285302734375,-2.02787184715271,-0.26843592524528503,0.18887268006801605
1772790103937919200,2.372919189453125,-2.082674741744995,-0.32559826970100403,0.19787389039993286
1772790103947985200,2.382985107421875,-2.1330902576446533,-0.3682176470756531,0.22060368955135345
1772790103958051300,2.39305126953125,-2.171196937561035,-0.3916683793067932,0.26118892431259155
1772790103968117200,2.4031171875,-2.1980679035186768,-0.3717580735683441,0.31759151816368103
1772790103978183200,2.41318310546875,-2.214459180831909,-0.32238760590553284,0.37550783157348633
1772790103988249000,2.4232490234375,-2.214224338531494,-0.2562147080898285,0.44042903184890747
1772790103998315000,2.43331494140625,-2.2070937156677246,-0.19419342279434204,0.5065257549285889
1772790104008381200,2.443381103515625,-2.2038042545318604,-0.1382286101579666,0.5536125302314758
1772790104018447000,2.453447021484375,-2.2038486003875732,-0.12307735532522202,0.574958860874176
1772790104028513300,2.46351318359375,-2.2123007774353027,-0.17544738948345184,0.5594432353973389
1772790104038579200,2.4735791015625,-2.241567373275757,-0.24889710545539856,0.5228064060211182
1772790104048645400,2.483645263671875,-2.295915126800537,-0.3350462019443512,0.47183361649513245
1772790104058711000,2.4937109375,-2.372086524963379,-0.4245699644088745,0.4167274832725525
1772790104068778000,2.503778076171875,-2.478952169418335,-0.4993533492088318,0.33972132205963135
1772790104078844200,2.51384423828125,-2.597675323486328,-0.5931603312492371,0.23733824491500854
1772790104088910000,2.52391015625,-2.723238229751587,-0.7107251286506653,0.10642934590578079
1772790104098976300,2.533976318359375,-2.851606845855713,-0.7892851829528809,-0.03321722894906998
1772790104109042200,2.544042236328125,-2.9667751789093018,-0.816179096698761,-0.1439772993326187
1772790104119108000,2.554108154296875,-3.0472381114959717,-0.786357045173645,-0.21159470081329346
1772790104129174300,2.56417431640625,-3.0903818607330322,-0.7347561717033386,-0.23678307235240936
1772790104139240200,2.574240234375,-3.081937074661255,-0.67563796043396,-0.23670929670333862
1772790104149306000,2.58430615234375,-3.0356457233428955,-0.6023717522621155,-0.21658141911029816
1772790104159372000,2.5943720703125,-2.9685771465301514,-0.5039557218551636,-0.18347087502479553
1772790104169438200,2.604438232421875,-2.8859803676605225,-0.3719842731952667,-0.13654468953609467
1772790104179504000,2.614504150390625,-2.7819318771362305,-0.2148873209953308,-0.1002521961927414
1772790104189570300,2.6245703125,-2.669046401977539,-0.06054433807730675,-0.07929027825593948
1772790104199636200,2.63463623046875,-2.5661673545837402,0.059090450406074524,-0.08016965538263321
1772790104209703200,2.644703125,-2.481783866882324,0.1562664657831192,-0.09793984144926071
1772790104219769300,2.654769287109375,-2.413233757019043,0.21137499809265137,-0.11600645631551743
1772790104229835300,2.664835205078125,-2.352693796157837,0.2425306886434555,-0.12583841383457184
1772790104239901200,2.674901123046875,-2.2960503101348877,0.26367461681365967,-0.11890274286270142
1772790104249967000,2.684967041015625,-2.2406301498413086,0.27504104375839233,-0.09508403390645981
1772790104260033000,2.695032958984375,-2.190075397491455,0.25695791840553284,-0.06753762811422348
1772790104270099200,2.70509912109375,-2.147550106048584,0.19520507752895355,-0.04236917942762375
1772790104280165000,2.7151650390625,-2.1072001457214355,0.06861943006515503,-0.03150561451911926
1772790104290231300,2.725231201171875,-2.0780646800994873,-0.08875325322151184,-0.02783115580677986
1772790104300297200,2.735297119140625,-2.0598652362823486,-0.2498239129781723,-0.03203016147017479
1772790104310363100,2.745363037109375,-2.048862934112549,-0.40743371844291687,-0.04135337844491005
1772790104320429000,2.755428955078125,-2.047628164291382,-0.581696093082428,-0.06993575394153595
1772790104330495200,2.7654951171875,-2.058643102645874,-0.7783313393592834,-0.09448002278804779
1772790104340561200,2.77556103515625,-2.090472936630249,-0.9458732008934021,-0.1066831648349762
1772790104350627000,2.785626953125,-2.1323041915893555,-1.0700551271438599,-0.10660164803266525
1772790104360694300,2.7956943359375,-2.174453020095825,-1.1634937524795532,-0.10258453339338303
1772790104370760200,2.80576025390625,-2.2116832733154297,-1.2257801294326782,-0.09332118928432465
1772790104380826000,2.815826171875,-2.2367806434631348,-1.258707880973816,-0.07741226255893707
1772790104390892300,2.825892333984375,-2.2498042583465576,-1.2562493085861206,-0.05664495751261711
1772790104400958000,2.8359580078125,-2.2550504207611084,-1.2001186609268188,-0.01999400369822979
1772790104411024100,2.846024169921875,-2.2640020847320557,-1.092533826828003,0.022162696346640587
1772790104421090000,2.856090087890625,-2.286489248275757,-0.946711540222168,0.05274137854576111
1772790104431156200,2.86615625,-2.3058743476867676,-0.7836432456970215,0.05961153283715248
1772790104441222100,2.87622216796875,-2.3298215866088867,-0.6270043253898621,0.05126358941197395
1772790104451288300,2.886288330078125,-2.3610715866088867,-0.4739237129688263,0.019306164234876633
1772790104461354200,2.896354248046875,-2.396836042404175,-0.32631561160087585,-0.025864776223897934
1772790104471420200,2.906420166015625,-2.440753221511841,-0.20128437876701355,-0.07626011222600937
1772790104481486000,2.916486083984375,-2.489637851715088,-0.10249068588018417,-0.1267901360988617
1772790104491552000,2.926552001953125,-2.5314884185791016,-0.053939830511808395,-0.17013244330883026
1772790104501618200,2.9366181640625,-2.568422794342041,-0.033134154975414276,-0.1966007947921753
1772790104511685000,2.94668505859375,-2.5945842266082764,-0.004345911554992199,-0.19376905262470245
1772790104521751000,2.9567509765625,-2.62115740776062,0.034331709146499634,-0.169746533036232
1772790104531817200,2.966817138671875,-2.6339030265808105,0.07717336714267731,-0.13014496862888336
1772790104541883100,2.976883056640625,-2.631516218185425,0.12293367087841034,-0.08251485973596573
1772790104551949300,2.98694921875,-2.6172611713409424,0.16937017440795898,-0.04045265167951584
1772790104562015000,2.997014892578125,-2.5921390056610107,0.2047412246465683,-0.014760071411728859
1772790104572081200,3.0070810546875,-2.567066192626953,0.19666628539562225,-0.006735771894454956
1772790104582147000,3.01714697265625,-2.5414235591888428,0.14270824193954468,-0.007589847780764103
1772790104592213200,3.027213134765625,-2.5203654766082764,0.0859103798866272,-0.0054474808275699615
1772790104602279200,3.037279052734375,-2.512418508529663,0.046054840087890625,0.01393473893404007
1772790104612345300,3.047345458984375,-2.5112688541412354,0.010389999486505985,0.04346418380737305
1772790104622411300,3.057411376953125,-2.5165419578552246,-0.01716865785419941,0.07169662415981293
1772790104632477000,3.067476806640625,-2.5186994075775146,-0.03050174191594124,0.0910508781671524
1772790104642543000,3.077543212890625,-2.5157454013824463,-0.04062947630882263,0.07928050309419632
1772790104652609000,3.087609130859375,-2.512707471847534,-0.04764244705438614,0.04413808137178421
1772790104662676000,3.097676025390625,-2.507737159729004,-0.0698540061712265,-0.003985241986811161
1772790104672742100,3.1077421875,-2.4907286167144775,-0.11640632152557373,-0.049812763929367065
1772790104682808000,3.11780810546875,-2.4630000591278076,-0.16962002217769623,-0.08582908660173416
1772790104692874200,3.127874267578125,-2.4184391498565674,-0.19237837195396423,-0.10207855701446533
1772790104702940200,3.137940185546875,-2.360980987548828,-0.205414280295372,-0.11174609512090683
1772790104713006300,3.14800634765625,-2.292426824569702,-0.21754589676856995,-0.13279111683368683
1772790104723072000,3.158072021484375,-2.2310497760772705,-0.2343299388885498,-0.1447194218635559
1772790104733138200,3.16813818359375,-2.173647880554199,-0.2559456527233124,-0.14691951870918274
1772790104743204000,3.1782041015625,-2.1035711765289307,-0.2767049968242645,-0.13252300024032593
1772790104753270300,3.188270263671875,-2.02170729637146,-0.2881024181842804,-0.08246680349111557
1772790104763336200,3.198336181640625,-1.9380215406417847,-0.28082534670829773,-0.011298619210720062
1772790104773402000,3.208402099609375,-1.852081060409546,-0.2561434209346771,0.07194434106349945
1772790104783468300,3.21846826171875,-1.7600611448287964,-0.22776901721954346,0.15049587190151215
1772790104793534000,3.228533935546875,-1.6546510457992554,-0.19350497424602509,0.22302211821079254
1772790104803600100,3.23860009765625,-1.555750846862793,-0.14477099478244781,0.3022279739379883
1772790104813667000,3.2486669921875,-1.4571733474731445,-0.07805629074573517,0.395259827375412
1772790104823733000,3.25873291015625,-1.3549599647521973,0.0234929658472538,0.4923751950263977
1772790104833799200,3.268799072265625,-1.2475357055664062,0.15014705061912537,0.5728809833526611
1772790104843865000,3.278864990234375,-1.1480647325515747,0.2670571506023407,0.6093881130218506
1772790104853931300,3.28893115234375,-1.0558818578720093,0.35677531361579895,0.6022500395774841
1772790104863997200,3.2989970703125,-0.9770629405975342,0.4293304681777954,0.5624075531959534
1772790104874066700,3.309066650390625,-0.9199221134185791,0.47414159774780273,0.5040881037712097
1772790104884132600,3.319132568359375,-0.8832176327705383,0.46171504259109497,0.4363958537578583
1772790104894198800,3.32919873046875,-0.8663500547409058,0.42402106523513794,0.38330531120300293
1772790104904264700,3.3392646484375,-0.865807294845581,0.35499247908592224,0.3481137752532959
1772790104914330600,3.34933056640625,-0.8808910846710205,0.2321423590183258,0.3381693363189697
1772790104924396500,3.359396484375,-0.9147321581840515,0.039422716945409775,0.3397536277770996
1772790104934462500,3.36946240234375,-0.9593628644943237,-0.21635288000106812,0.35465484857559204
1772790104944528600,3.379528564453125,-0.9905684590339661,-0.46891990303993225,0.3946739137172699
1772790104954594600,3.389594482421875,-0.9895593523979187,-0.6607191562652588,0.47409069538116455
1772790104964660700,3.39966064453125,-0.9543129801750183,-0.754920482635498,0.600629448890686
1772790104974727700,3.409727783203125,-0.8963276743888855,-0.7466384768486023,0.7617055177688599
1772790104984793600,3.419793701171875,-0.8304703235626221,-0.6410899758338928,0.9127142429351807
1772790104994859800,3.42985986328125,-0.7671919465065002,-0.49678733944892883,0.9895163774490356
1772790105004925700,3.43992578125,-0.7061983346939087,-0.39990660548210144,0.9612131118774414
1772790105014991600,3.44999169921875,-0.6569291353225708,-0.37379899621009827,0.8303967118263245
1772790105025057500,3.4600576171875,-0.6285566091537476,-0.35733455419540405,0.6544714570045471
1772790105035123700,3.470123779296875,-0.609989583492279,-0.3065711557865143,0.49199798703193665
1772790105045189600,3.480189697265625,-0.5966309309005737,-0.21010880172252655,0.38236042857170105
1772790105055255600,3.490255615234375,-0.5868255496025085,-0.09938788414001465,0.32631006836891174
1772790105065321700,3.50032177734375,-0.5804805755615234,0.02464139461517334,0.3160073459148407
1772790105075387600,3.5103876953125,-0.579877495765686,0.1611204445362091,0.33116042613983154
1772790105085453600,3.52045361328125,-0.577928900718689,0.2829321026802063,0.33883190155029297
1772790105095519500,3.53051953125,-0.5761004090309143,0.35965609550476074,0.3378548324108124
1772790105105585700,3.540585693359375,-0.5806863903999329,0.3878192901611328,0.30845168232917786
1772790105115651600,3.550651611328125,-0.5898106098175049,0.3730825185775757,0.26728150248527527
1772790105125718500,3.560718505859375,-0.6182510256767273,0.32188111543655396,0.2115926891565323
1772790105135784700,3.57078466796875,-0.6525653600692749,0.21267302334308624,0.15236279368400574
1772790105145850600,3.5808505859375,-0.6974755525588989,0.08568976819515228,0.09500683099031448
1772790105155916800,3.590916748046875,-0.7378833293914795,-0.043715447187423706,0.0435013473033905
1772790105165982700,3.600982666015625,-0.772291898727417,-0.15557460486888885,-0.005433971527963877
1772790105176048600,3.611048583984375,-0.800963282585144,-0.257110595703125,-0.04799496382474899
1772790105186114600,3.621114501953125,-0.824730634689331,-0.3345872759819031,-0.08060244470834732
1772790105196180500,3.631180419921875,-0.8387801051139832,-0.38053303956985474,-0.09631575644016266
1772790105206246700,3.64124658203125,-0.8351651430130005,-0.39755862951278687,-0.08993189036846161
1772790105216312600,3.6513125,-0.8203265070915222,-0.3846370279788971,-0.07292593270540237
1772790105226378800,3.661378662109375,-0.7981495261192322,-0.3309743404388428,-0.053971946239471436
1772790105236444700,3.671444580078125,-0.7725666761398315,-0.24852749705314636,-0.03843024745583534
1772790105246510600,3.681510498046875,-0.7531194686889648,-0.16189460456371307,-0.038929056376218796
1772790105256576500,3.691576416015625,-0.738142192363739,-0.08441746979951859,-0.05814206972718239
1772790105266642700,3.701642578125,-0.735895574092865,-0.030640792101621628,-0.09025366604328156
1772790105276708600,3.71170849609375,-0.7400058507919312,-0.005196582525968552,-0.12364918738603592
1772790105286774500,3.7217744140625,-0.7302019596099854,0.01883445307612419,-0.15738077461719513
1772790105296841700,3.731841796875,-0.7039871215820312,0.036698225885629654,-0.1948942393064499
1772790105306907600,3.74190771484375,-0.6681934595108032,0.03954221308231354,-0.2189178168773651
1772790105316973600,3.7519736328125,-0.6261618733406067,0.029195096343755722,-0.24646316468715668
1772790105327039700,3.762039794921875,-0.5906824469566345,0.009681581519544125,-0.26467519998550415
1772790105337105400,3.77210546875,-0.5432413816452026,-0.006087280809879303,-0.28772827982902527
1772790105347171600,3.782171630859375,-0.4898031949996948,-0.021922968327999115,-0.3124661147594452
1772790105357237500,3.792237548828125,-0.4308428466320038,-0.04001276567578316,-0.3322819173336029
1772790105367303700,3.8023037109375,-0.36820343136787415,-0.03888944536447525,-0.34478917717933655
1772790105377369600,3.81236962890625,-0.29494228959083557,-0.033980172127485275,-0.3398932218551636
1772790105387435800,3.822435791015625,-0.21997056901454926,-0.02858354151248932,-0.3219616413116455
1772790105397501700,3.832501708984375,-0.14261510968208313,-0.011539450846612453,-0.28917738795280457
1772790105407567600,3.842567626953125,-0.07031161338090897,-0.0031081493943929672,-0.24480432271957397
1772790105417633500,3.852633544921875,-0.0041550202295184135,-0.02069743722677231,-0.19710245728492737
1772790105427699500,3.862699462890625,0.05520790442824364,-0.07143198698759079,-0.14935144782066345
1772790105437765600,3.872765625,0.09495697915554047,-0.12192126363515854,-0.09005964547395706
1772790105447831600,3.88283154296875,0.13709166646003723,-0.1591421514749527,-0.02627001330256462
1772790105457897700,3.892897705078125,0.17465659976005554,-0.17651411890983582,0.03389975056052208
1772790105467964700,3.902964599609375,0.2224275916814804,-0.18285217881202698,0.08133570849895477
1772790105478030600,3.913030517578125,0.2596588134765625,-0.19432589411735535,0.1241287887096405
1772790105488096800,3.9230966796875,0.2894177734851837,-0.20226532220840454,0.156258225440979
1772790105498162400,3.933162353515625,0.3202381730079651,-0.20817731320858002,0.1833501011133194
1772790105508228600,3.943228515625,0.34616777300834656,-0.199604332447052,0.20423860847949982
1772790105518294500,3.95329443359375,0.3775138556957245,-0.18430794775485992,0.2159615308046341
1772790105528360700,3.963360595703125,0.40867042541503906,-0.18188154697418213,0.22951196134090424
1772790105538426600,3.973426513671875,0.43856725096702576,-0.22051188349723816,0.2296394258737564
1772790105548492500,3.983492431640625,0.4629887044429779,-0.29585081338882446,0.24443434178829193
1772790105558557400,3.993557373046875,0.4854206442832947,-0.3758879601955414,0.27105802297592163
1772790105568623600,4.00362353515625,0.5074934959411621,-0.4309541583061218,0.3080695569515228
1772790105578689500,4.013689453125,0.5261679291725159,-0.4625496566295624,0.33404073119163513
1772790105588755700,4.023755615234375,0.5483152866363525,-0.4723804295063019,0.32863959670066833
1772790105598821600,4.033821533203125,0.5648586750030518,-0.4800058901309967,0.28273043036460876
1772790105608888600,4.043888671875,0.574170708656311,-0.49169424176216125,0.20327690243721008
1772790105618954800,4.053954833984375,0.5842384696006775,-0.4736882150173187,0.11884013563394547
1772790105629020700,4.064020751953125,0.5900673270225525,-0.37700721621513367,0.0446159765124321
1772790105639086800,4.0740869140625,0.5995886921882629,-0.2332206815481186,-0.03478968143463135
1772790105649152500,4.084152587890625,0.6214673519134521,-0.09104010462760925,-0.1306578814983368
1772790105659218400,4.094218505859375,0.6652699708938599,0.025798074901103973,-0.22568902373313904
1772790105669284600,4.10428466796875,0.72076815366745,0.12107931077480316,-0.30227699875831604
1772790105679350500,4.1143505859375,0.7970476746559143,0.21982821822166443,-0.3321288526058197
1772790105689416700,4.124416748046875,0.8750623464584351,0.32068079710006714,-0.31337299942970276
1772790105699482600,4.134482666015625,0.960483193397522,0.41683894395828247,-0.2671351730823517
1772790105709548800,4.144548828125,1.0479017496109009,0.47842055559158325,-0.20491652190685272
1772790105719614500,4.154614501953125,1.1394163370132446,0.493679940700531,-0.12854501605033875
1772790105729680600,4.1646806640625,1.227577805519104,0.459389328956604,-0.04799211397767067
1772790105739746600,4.17474658203125,1.3054004907608032,0.3831753730773926,0.053257640451192856
1772790105749812500,4.1848125,1.3733930587768555,0.30155402421951294,0.18688547611236572
1772790105759878700,4.194878662109375,1.4398404359817505,0.26797741651535034,0.3331034481525421
1772790105769944600,4.204944580078125,1.5139421224594116,0.2617405652999878,0.4731351137161255
1772790105780010800,4.2150107421875,1.5819467306137085,0.2046501636505127,0.5778835415840149
1772790105790076700,4.22507666015625,1.6367909908294678,0.17285388708114624,0.6653071641921997
1772790105800143600,4.2351435546875,1.6657557487487793,0.14378537237644196,0.7257841229438782
1772790105810209500,4.24520947265625,1.6663237810134888,0.0959792360663414,0.7510104179382324
1772790105820275500,4.255275390625,1.6465728282928467,0.03272796794772148,0.7435489296913147
1772790105830341600,4.265341552734375,1.6095643043518066,-0.02986137568950653,0.7103446125984192
1772790105840407600,4.275407470703125,1.5491869449615479,-0.09962436556816101,0.665471076965332
1772790105850473700,4.2854736328125,1.485739827156067,-0.15784212946891785,0.6258928179740906
1772790105860539600,4.29553955078125,1.426700234413147,-0.17654675245285034,0.5974135398864746
1772790105870605800,4.305605712890625,1.3780275583267212,-0.15883485972881317,0.567936897277832
1772790105880667600,4.315667724609375,1.3321492671966553,-0.14436380565166473,0.5374560356140137
1772790105890733800,4.32573388671875,1.2896074056625366,-0.1217447817325592,0.499812513589859
1772790105900799700,4.3357998046875,1.2359715700149536,-0.0968269631266594,0.45295506715774536
1772790105910865700,4.34586572265625,1.1795581579208374,-0.08419239521026611,0.3870657980442047
1772790105920931800,4.355931884765625,1.1371145248413086,-0.07929547131061554,0.3120623230934143
1772790105930997800,4.365997802734375,1.1024367809295654,-0.07061037421226501,0.24774697422981262
1772790105941063700,4.376063720703125,1.0827043056488037,-0.015409950166940689,0.21722647547721863
1772790105951129600,4.386129638671875,1.0941977500915527,0.08616860210895538,0.20768943428993225
1772790105961195800,4.39619580078125,1.128147006034851,0.19534876942634583,0.20073077082633972
1772790105971261700,4.40626171875,1.185526967048645,0.2810359597206116,0.17763103544712067
1772790105981328000,4.416327880859375,1.262128472328186,0.355480819940567,0.13440269231796265
1772790105991393800,4.426393798828125,1.3347315788269043,0.43943697214126587,0.07784861326217651
1772790106001460700,4.436460693359375,1.3955943584442139,0.5513173341751099,0.000023399887140840292
1772790106011527000,4.44652685546875,1.4306634664535522,0.6414653062820435,-0.08812616020441055
1772790106021592800,4.4565927734375,1.4578344821929932,0.6909527778625488,-0.18899047374725342
1772790106031658800,4.46665869140625,1.488858699798584,0.7062678337097168,-0.2829558253288269
1772790106041724700,4.476724609375,1.5217772722244263,0.6730391979217529,-0.3536408543586731
1772790106051790600,4.48679052734375,1.5466357469558716,0.6005085706710815,-0.39874574542045593
1772790106061856800,4.496856689453125,1.5530983209609985,0.5226826667785645,-0.41842782497406006
1772790106071922700,4.506922607421875,1.543729543685913,0.44500839710235596,-0.4188283681869507
1772790106081988900,4.51698876953125,1.5097849369049072,0.38452595472335815,-0.4142928421497345
1772790106092054800,4.5270546875,1.4661610126495361,0.3559638261795044,-0.4068801999092102
1772790106102120700,4.53712060546875,1.4230866432189941,0.3579697608947754,-0.4040687382221222
1772790106112186600,4.5471865234375,1.3870092630386353,0.3821430206298828,-0.4156534969806671
1772790106122252800,4.557252685546875,1.3708674907684326,0.3929818272590637,-0.43082496523857117
1772790106132318700,4.567318603515625,1.3891847133636475,0.365845263004303,-0.44082537293434143
1772790106142384600,4.577384521484375,1.4265317916870117,0.33728641271591187,-0.4269924759864807
1772790106152450800,4.587450927734375,1.468502163887024,0.3463917374610901,-0.38200315833091736
1772790106162516700,4.597516845703125,1.5045913457870483,0.37761229276657104,-0.32469990849494934
1772790106172582700,4.607582763671875,1.519420862197876,0.4077611267566681,-0.2794695794582367
1772790106182648600,4.617648681640625,1.524538278579712,0.42693352699279785,-0.24883952736854553
1772790106192714800,4.62771484375,1.5208604335784912,0.43832945823669434,-0.23520201444625854
1772790106202781700,4.63778173828125,1.512093186378479,0.438798189163208,-0.23610012233257294
1772790106212847600,4.64784765625,1.5089049339294434,0.4008263051509857,-0.23990151286125183
1772790106222913800,4.657913818359375,1.4964849948883057,0.3607577085494995,-0.2369059920310974
1772790106232979700,4.667979736328125,1.4835259914398193,0.3170222342014313,-0.21808037161827087
1772790106243046000,4.6780458984375,1.4583845138549805,0.24723997712135315,-0.19232071936130524
1772790106253111800,4.68811181640625,1.4169366359710693,0.19809666275978088,-0.14695243537425995
1772790106263177700,4.698177734375,1.3585004806518555,0.16764266788959503,-0.09409435838460922
1772790106273243600,4.70824365234375,1.299435019493103,0.14260442554950714,-0.055366404354572296
1772790106283309800,4.718309814453125,1.2385023832321167,0.13105851411819458,-0.027760250493884087
1772790106293375700,4.728375732421875,1.1802843809127808,0.13716992735862732,-0.016786960884928703
1772790106303441700,4.738441650390625,1.123178482055664,0.16133838891983032,-0.015283341519534588
1772790106313507800,4.7485078125,1.0731779336929321,0.21396104991436005,-0.0250844769179821
1772790106323573800,4.75857373046875,1.0378731489181519,0.28236332535743713,-0.043102700263261795
1772790106333639700,4.7686396484375,1.0272793769836426,0.33559590578079224,-0.07510989904403687
1772790106343705600,4.77870556640625,1.0367804765701294,0.40075090527534485,-0.11648503690958023
1772790106353771800,4.788771728515625,1.0497833490371704,0.4606725573539734,-0.16501076519489288
1772790106363837700,4.798837646484375,1.0623992681503296,0.5025724768638611,-0.2120671421289444
1772790106373904000,4.80890380859375,1.0735878944396973,0.5192885994911194,-0.2467510849237442
1772790106383969800,4.8189697265625,1.0835342407226562,0.5109902620315552,-0.2642986476421356
1772790106394035700,4.82903564453125,1.102823257446289,0.49959906935691833,-0.2605166733264923
1772790106404102000,4.839101806640625,1.1310160160064697,0.5014249682426453,-0.2445240020751953
1772790106414168800,4.8491689453125,1.1592130661010742,0.4665452241897583,-0.22961270809173584
1772790106424234800,4.85923486328125,1.1826176643371582,0.40113815665245056,-0.204319030046463
1772790106434300700,4.86930078125,1.2008179426193237,0.35928231477737427,-0.1615806221961975
1772790106444366600,4.87936669921875,1.219721794128418,0.3352847099304199,-0.11729182302951813
1772790106454432800,4.889432861328125,1.2469336986541748,0.34745320677757263,-0.08174049109220505
1772790106464498700,4.899498779296875,1.2754924297332764,0.38685691356658936,-0.07093743234872818
1772790106474564900,4.90956494140625,1.2807329893112183,0.4031570553779602,-0.08448067307472229
1772790106484630800,4.919630859375,1.246138095855713,0.3700447678565979,-0.11437242478132248
1772790106494697000,4.929697021484375,1.1783345937728882,0.27540746331214905,-0.14518173038959503
1772790106504762600,4.9397626953125,1.104644775390625,0.1319599747657776,-0.13474953174591064
1772790106514828800,4.949828857421875,1.0277271270751953,0.0020448463037610054,-0.055726081132888794
1772790106524894700,4.959894775390625,0.9497455358505249,-0.10306072980165482,0.0757564827799797
1772790106534960600,4.969960693359375,0.8728491067886353,-0.20429545640945435,0.2128874510526657
1772790106545026800,4.98002685546875,0.814683735370636,-0.28999757766723633,0.3331576883792877
1772790106555092700,4.9900927734375,0.7826389670372009,-0.35434088110923767,0.4261869788169861
1772790106565159000,5.000158935546875,0.7567991018295288,-0.3423217833042145,0.5072783827781677
1772790106575224600,5.010224609375,0.7530613541603088,-0.23810268938541412,0.5643922686576843
1772790106585290800,5.020290771484375,0.7769925594329834,-0.07143688201904297,0.5899611115455627
1772790106595356700,5.030356689453125,0.8270552158355713,0.16007277369499207,0.5741757750511169
1772790106605422800,5.0404228515625,0.8836863040924072,0.4428653419017792,0.5295501947402954
1772790106615488800,5.05048876953125,0.9326117634773254,0.7027597427368164,0.4374457895755768
1772790106625554700,5.0605546875,0.9635074138641357,0.8869644403457642,0.30060675740242004
1772790106635622000,5.070621826171875,0.9686089754104614,0.9609132409095764,0.14048713445663452
1772790106645687800,5.080687744140625,0.9605574607849121,0.9439488053321838,-0.012814444489777088
1772790106655753700,5.090753662109375,0.9356827139854431,0.8870791792869568,-0.10200823098421097
1772790106665819600,5.100819580078125,0.894263744354248,0.8076269626617432,-0.11470676213502884
1772790106675885600,5.110885498046875,0.8496427536010742,0.687349259853363,-0.06896351277828217
1772790106685951700,5.12095166015625,0.8101799488067627,0.5381869673728943,0.02259705401957035
1772790106696017700,5.131017578125,0.7809153199195862,0.4070931077003479,0.12626273930072784
1772790106706083800,5.141083740234375,0.7608116865158081,0.29522275924682617,0.20787933468818665
1772790106716149800,5.151149658203125,0.7431325316429138,0.20088455080986023,0.23383557796478271
1772790106726216000,5.1612158203125,0.7239054441452026,0.13038000464439392,0.20145577192306519
1772790106736281600,5.171281494140625,0.7046944499015808,0.0970553383231163,0.12141287326812744
1772790106746347800,5.18134765625,0.6748782992362976,0.09889736771583557,0.004662338178604841
1772790106756413700,5.19141357421875,0.6358270645141602,0.12264104932546616,-0.12541283667087555
1772790106766479600,5.201479736328125,0.5999379754066467,0.17362087965011597,-0.25232893228530884
1772790106776545800,5.2115458984375,0.5896547436714172,0.24823838472366333,-0.35299164056777954
1772790106786611700,5.22161181640625,0.5971017479896545,0.3027246594429016,-0.4024498760700226
1772790106796678000,5.231677978515625,0.594527542591095,0.36319705843925476,-0.4001196026802063
1772790106806743600,5.24174365234375,0.5831456780433655,0.46643131971359253,-0.3407479524612427
1772790106816809700,5.251809814453125,0.5755958557128906,0.5899836421012878,-0.25362345576286316
1772790106826875600,5.261875732421875,0.5821561217308044,0.6876640319824219,-0.16891717910766602
1772790106836942600,5.271942626953125,0.5960700511932373,0.745185375213623,-0.12219468504190445
1772790106847008800,5.2820087890625,0.6062467694282532,0.7409748435020447,-0.12207130342721939
1772790106857074700,5.29207470703125,0.605506956577301,0.6743430495262146,-0.1736210435628891
1772790106867140900,5.302140869140625,0.580573558807373,0.544969379901886,-0.2379622608423233
1772790106877206000,5.3122060546875,0.524543285369873,0.34661152958869934,-0.2809547185897827
1772790106887272200,5.322272216796875,0.4423659145832062,0.1492890566587448,-0.2751849293708801
1772790106897338000,5.332338134765625,0.34434774518013,-0.015193363651633263,-0.21833468973636627
1772790106907404300,5.342404296875,0.23926538228988647,-0.14680403470993042,-0.13697651028633118
1772790106917470200,5.35247021484375,0.12932850420475006,-0.27115926146507263,-0.0631994903087616
1772790106927536000,5.3625361328125,0.02305011637508869,-0.39793890714645386,0.0009665694087743759
1772790106937602000,5.37260205078125,-0.07016345113515854,-0.542806088924408,0.04123302921652794
1772790106947668000,5.38266796875,-0.13972152769565582,-0.6312452554702759,0.07885776460170746
1772790106957734100,5.392734130859375,-0.1743498146533966,-0.6609289050102234,0.12011679261922836
1772790106967800000,5.402800048828125,-0.19118735194206238,-0.6724365949630737,0.16043619811534882
1772790106977866200,5.4128662109375,-0.20578093826770782,-0.6727748513221741,0.2110290676355362
1772790106987932200,5.42293212890625,-0.23291721940040588,-0.6481372117996216,0.2542743682861328
1772790106997998300,5.432998291015625,-0.2607850730419159,-0.597747802734375,0.28439658880233765
1772790107008064300,5.443064208984375,-0.28654587268829346,-0.5369696617126465,0.2904598116874695
1772790107018131200,5.453131103515625,-0.31720367074012756,-0.47331345081329346,0.2735106647014618
1772790107028197000,5.463197021484375,-0.35328003764152527,-0.39531588554382324,0.2408892959356308
1772790107038263000,5.473262939453125,-0.38807424902915955,-0.3186330795288086,0.1866803914308548
1772790107048329200,5.4833291015625,-0.4184125065803528,-0.2855154871940613,0.11818569898605347
1772790107058395100,5.49339501953125,-0.43961766362190247,-0.2775251865386963,0.06080682575702667
1772790107068461000,5.5034609375,-0.4621149003505707,-0.26610976457595825,0.03572239726781845
1772790107078527200,5.51352734375,-0.48255202174186707,-0.2566899061203003,0.04364769905805588
1772790107088593200,5.52359326171875,-0.49287813901901245,-0.24568572640419006,0.07648074626922607
1772790107098659000,5.5336591796875,-0.48505911231040955,-0.2361995279788971,0.12440112978219986
1772790107108725000,5.54372509765625,-0.4740851819515228,-0.2097543627023697,0.17362037301063538
1772790107118791200,5.553791259765625,-0.4652823507785797,-0.18588978052139282,0.20654475688934326
1772790107128857000,5.563857177734375,-0.4501872956752777,-0.1615002155303955,0.22476789355278015
1772790107138923300,5.57392333984375,-0.44716089963912964,-0.14289963245391846,0.23049502074718475
1772790107148989200,5.5839892578125,-0.4477940499782562,-0.1313626617193222,0.2262340784072876
1772790107159055400,5.594055419921875,-0.4403097927570343,-0.13832123577594757,0.20995976030826569
1772790107169121300,5.604121337890625,-0.4240517020225525,-0.1644439846277237,0.19192838668823242
1772790107179187000,5.61418701171875,-0.400399386882782,-0.1989194005727768,0.16070175170898438
1772790107189253000,5.624253173828125,-0.3684268891811371,-0.25482624769210815,0.13211505115032196
1772790107199320000,5.634320068359375,-0.3334856629371643,-0.32169076800346375,0.1070493832230568
1772790107209386000,5.644385986328125,-0.3020199239253998,-0.411539226770401,0.10167916119098663
1772790107219452200,5.6544521484375,-0.2748143970966339,-0.5006749629974365,0.11848583817481995
1772790107229518000,5.66451806640625,-0.2398577183485031,-0.5614474415779114,0.15660840272903442
1772790107239584300,5.674584228515625,-0.18897590041160583,-0.5890961289405823,0.20848704874515533
1772790107249650200,5.684650146484375,-0.15095855295658112,-0.6148968935012817,0.24558940529823303
1772790107259716400,5.69471630859375,-0.10988142341375351,-0.6215776801109314,0.25311389565467834
1772790107269782000,5.704781982421875,-0.08157551288604736,-0.6644025444984436,0.24109850823879242
1772790107279848200,5.71484814453125,-0.06478534638881683,-0.7212839722633362,0.21590712666511536
1772790107289914000,5.7249140625,-0.06635893881320953,-0.7485584616661072,0.19999684393405914
1772790107299980300,5.734980224609375,-0.0874549001455307,-0.7057185769081116,0.21555529534816742
1772790107310046200,5.745046142578125,-0.09816340357065201,-0.5857134461402893,0.25816887617111206
1772790107320112000,5.755112060546875,-0.10181806236505508,-0.4032309651374817,0.3126766085624695
1772790107330178300,5.76517822265625,-0.09239978343248367,-0.18964846432209015,0.3631156384944916
1772790107340244000,5.775243896484375,-0.07124149799346924,0.01011817716062069,0.39791008830070496
1772790107350310100,5.78531005859375,-0.04816190153360367,0.17879284918308258,0.40302774310112
1772790107360376000,5.7953759765625,-0.021710051223635674,0.30281251668930054,0.3530482053756714
1772790107370442200,5.805442138671875,0.004767091479152441,0.36310604214668274,0.27458420395851135
1772790107380509200,5.81550927734375,0.030928920954465866,0.38524115085601807,0.19419321417808533
1772790107390575000,5.8255751953125,0.05835115537047386,0.38182780146598816,0.13669292628765106
1772790107400641300,5.835641357421875,0.0848354920744896,0.3622247874736786,0.11622148007154465
1772790107410707200,5.845707275390625,0.10639198869466782,0.34859055280685425,0.12821383774280548
1772790107420773400,5.8557734375,0.11007007956504822,0.3215658664703369,0.17057940363883972
1772790107430839000,5.865839111328125,0.083884097635746,0.2912966012954712,0.22455058991909027
1772790107440905200,5.8759052734375,0.04252627119421959,0.23964190483093262,0.26758700609207153
1772790107450971100,5.88597119140625,-0.0029137737583369017,0.16015827655792236,0.29796454310417175
1772790107461037000,5.896037109375,-0.05582306161522865,0.04084252938628197,0.30585977435112
1772790107471103200,5.906103271484375,-0.11082426458597183,-0.08670622110366821,0.30499857664108276
1772790107481169200,5.916169189453125,-0.17143914103507996,-0.2281898558139801,0.3017314374446869
1772790107491235300,5.9262353515625,-0.23126168549060822,-0.3142477571964264,0.2943212389945984
1772790107501301000,5.936301025390625,-0.2687544524669647,-0.32609084248542786,0.27032455801963806
1772790107511367200,5.9463671875,-0.29258742928504944,-0.3047610819339752,0.24422664940357208
1772790107521433000,5.95643310546875,-0.3035932183265686,-0.2720388174057007,0.19173122942447662
1772790107531499300,5.966499267578125,-0.31296324729919434,-0.2506204843521118,0.12100584805011749
1772790107541565200,5.976565185546875,-0.3196967840194702,-0.2529853880405426,0.0392763577401638
1772790107551631000,5.986631103515625,-0.3226812183856964,-0.2640542685985565,-0.04186967387795448
1772790107561698300,5.9966982421875,-0.32473689317703247,-0.2750357985496521,-0.09922217577695847
1772790107571764200,6.00676416015625,-0.32729339599609375,-0.2869764566421509,-0.13190516829490662
1772790107581830100,6.016830078125,-0.32420361042022705,-0.2796652913093567,-0.13657422363758087
1772790107591896000,6.02689599609375,-0.29940178990364075,-0.21667185425758362,-0.12228994816541672
1772790107601962000,6.0369619140625,-0.25653740763664246,-0.13324061036109924,-0.09593743085861206
1772790107612028200,6.047028076171875,-0.20546157658100128,-0.026655953377485275,-0.06756745278835297
1772790107622094000,6.057093994140625,-0.15322820842266083,0.07261950522661209,-0.04489756375551224
1772790107632160300,6.06716015625,-0.10286000370979309,0.146181121468544,-0.04322756826877594
1772790107642226200,6.07722607421875,-0.059434231370687485,0.2004488855600357,-0.0669720396399498
1772790107652292400,6.087292236328125,-0.028297191485762596,0.226627379655838,-0.09820249676704407
1772790107662358000,6.09735791015625,0.0002308548428118229,0.22232450544834137,-0.14276517927646637
1772790107672424200,6.107424072265625,0.02021011710166931,0.21089549362659454,-0.17684106528759003
1772790107682490000,6.117489990234375,0.030327197164297104,0.19040726125240326,-0.21661829948425293
1772790107692556000,6.12755615234375,0.026701344177126884,0.12986008822917938,-0.2509499490261078
1772790107702622200,6.137622314453125,0.014777572825551033,0.056071341037750244,-0.2723945379257202
1772790107712688000,6.147688232421875,-0.005489496048539877,0.014278785325586796,-0.28199270367622375
1772790107722754300,6.15775439453125,-0.019448721781373024,-0.0024469317868351936,-0.2769492268562317
1772790107732820200,6.1678203125,-0.019047077745199203,0.02157270535826683,-0.2751961052417755
1772790107742886100,6.17788623046875,-0.003948552068322897,0.04726075753569603,-0.27735620737075806
1772790107752953000,6.187953125,0.018813712522387505,0.05718470364809036,-0.2820558249950409
1772790107763019000,6.19801904296875,0.0504416823387146,0.06756171584129333,-0.27311134338378906
1772790107773085200,6.208085205078125,0.07871584594249725,0.09329260885715485,-0.24275077879428864
1772790107783151000,6.218151123046875,0.11903183907270432,0.12136445194482803,-0.19858385622501373
1772790107793217300,6.22821728515625,0.16224518418312073,0.12334481626749039,-0.1513279229402542
1772790107803283200,6.238283203125,0.21307240426540375,0.10690725594758987,-0.09905805438756943
1772790107813349000,6.24834912109375,0.24788066744804382,0.07761429250240326,-0.04653594270348549
1772790107823415000,6.2584150390625,0.2754116356372833,0.044314127415418625,-0.0020558275282382965
1772790107833481000,6.26848095703125,0.3009214699268341,0.02389620989561081,0.021400250494480133
1772790107843547100,6.278547119140625,0.32650378346443176,0.027245666831731796,0.03303373605012894
1772790107853613000,6.288613037109375,0.34509867429733276,0.029496140778064728,0.03468611091375351
1772790107863679200,6.29867919921875,0.3493858277797699,0.03334867209196091,0.04473395273089409
1772790107873745200,6.3087451171875,0.3370992839336395,0.032969001680612564,0.05225271359086037
1772790107883811300,6.318811279296875,0.3147790729999542,0.025674335658550262,0.06833101809024811
1772790107893877200,6.328877197265625,0.2984769642353058,0.029238183051347733,0.0756821557879448
1772790107903943200,6.338943115234375,0.2865827679634094,0.054939549416303635,0.07428453117609024
1772790107914009000,6.349009033203125,0.2718034088611603,0.076030433177948,0.053864505141973495
1772790107924075000,6.359074951171875,0.24327296018600464,0.07628582417964935,0.020704951137304306
1772790107934141200,6.36914111328125,0.21784313023090363,0.06834442168474197,-0.017109906300902367
1772790107944208100,6.3792080078125,0.1866316795349121,0.07334531098604202,-0.05217042192816734
1772790107954274300,6.3892744140625,0.16077008843421936,0.060941945761442184,-0.07731526345014572
1772790107964340200,6.39934033203125,0.15007509291172028,0.03577161580324173,-0.08060160279273987
1772790107974406100,6.40940625,0.15816274285316467,0.027557121589779854,-0.04852971062064171
1772790107984472300,6.419472412109375,0.16463743150234222,0.04764001816511154,0.009218009188771248
1772790107994538000,6.4295380859375,0.179550901055336,0.07389050722122192,0.06912293285131454
1772790108004604200,6.439604248046875,0.1925460547208786,0.09239628165960312,0.11446564644575119
1772790108014670000,6.449670166015625,0.19952459633350372,0.10827667266130447,0.12553878128528595
1772790108024736300,6.459736328125,0.20236805081367493,0.14105859398841858,0.11664994806051254
1772790108034802200,6.46980224609375,0.21094799041748047,0.17329834401607513,0.08861933648586273
1772790108044868400,6.479868408203125,0.21307213604450226,0.23054511845111847,0.052111126482486725
1772790108054934300,6.489934326171875,0.21612153947353363,0.2999641001224518,0.0173572339117527
1772790108065000000,6.5,0.21441605687141418,0.3644309639930725,-0.029441963881254196
1772790108075066000,6.510066162109375,0.20822717249393463,0.4164208471775055,-0.0699121356010437
1772790108085132000,6.520132080078125,0.17997528612613678,0.4359588623046875,-0.11614780128002167
1772790108095198200,6.5301982421875,0.13325686752796173,0.3956485986709595,-0.1435486227273941
1772790108105264000,6.54026416015625,0.05994376540184021,0.34086471796035767,-0.15688812732696533
1772790108115330300,6.550330322265625,-0.02184421941637993,0.3037258982658386,-0.17462293803691864
1772790108125396200,6.560396240234375,-0.09557703137397766,0.2576625347137451,-0.19551622867584229
1772790108135462100,6.570462158203125,-0.15141797065734863,0.1982225924730301,-0.2124786525964737
1772790108145529300,6.580529296875,-0.19332946836948395,0.13844580948352814,-0.18866892158985138
1772790108155595000,6.590594970703125,-0.2136201113462448,0.10389622300863266,-0.12213130295276642
1772790108165661200,6.6006611328125,-0.2168329507112503,0.1122329831123352,-0.022091520950198174
1772790108175727000,6.61072705078125,-0.21466487646102905,0.17350618541240692,0.10056835412979126
1772790108185793300,6.620793212890625,-0.2079576998949051,0.2470501959323883,0.19780676066875458
1772790108195859200,6.630859130859375,-0.20051853358745575,0.30479294061660767,0.2535236179828644
1772790108205925000,6.640925048828125,-0.19844792783260345,0.3204707205295563,0.2616071105003357
1772790108215991300,6.6509912109375,-0.1990632563829422,0.3084551692008972,0.2306070625782013
1772790108226057000,6.661056884765625,-0.19467490911483765,0.2834866940975189,0.1863490641117096
1772790108236123100,6.671123046875,-0.1840267777442932,0.2523806095123291,0.14707313477993011
1772790108246189000,6.68118896484375,-0.1616133451461792,0.21841786801815033,0.13110561668872833
1772790108256255200,6.691255126953125,-0.13751165568828583,0.17639029026031494,0.13643991947174072
1772790108266321200,6.701321044921875,-0.1104736402630806,0.13247263431549072,0.16693897545337677
1772790108276387300,6.71138720703125,-0.08770925551652908,0.10661609470844269,0.20016469061374664
1772790108286453200,6.721453369140625,-0.06200523301959038,0.06635682284832001,0.22474753856658936
1772790108296519200,6.731519287109375,-0.030054260045289993,-0.010254915803670883,0.23449182510375977
1772790108306585000,6.741585205078125,-0.004888454452157021,-0.10170120745897293,0.22813458740711212
1772790108316651000,6.751651123046875,0.00712989829480648,-0.2034517526626587,0.2120562493801117
1772790108326717200,6.76171728515625,0.013973156921565533,-0.2918388545513153,0.18568162620067596
1772790108336783000,6.771783203125,0.00763313053175807,-0.35561975836753845,0.1398250013589859
1772790108346849300,6.781849365234375,-0.00469996826723218,-0.39625000953674316,0.08854743093252182
1772790108356915200,6.791915283203125,-0.026227235794067383,-0.42224961519241333,0.023417819291353226
1772790108366982100,6.801982177734375,-0.05412944033741951,-0.45667868852615356,-0.038024503737688065
1772790108377048300,6.81204833984375,-0.09134017676115036,-0.5038541555404663,-0.10591591894626617
1772790108387114000,6.822114013671875,-0.1426137536764145,-0.570461630821228,-0.16949862241744995
1772790108397180200,6.83218017578125,-0.20356175303459167,-0.641913652420044,-0.22285351157188416
1772790108407246000,6.84224609375,-0.25764229893684387,-0.6677995920181274,-0.24892452359199524
1772790108417312300,6.852312255859375,-0.2946869730949402,-0.6343258619308472,-0.24905042350292206
1772790108427378200,6.862378173828125,-0.3109319806098938,-0.5692736506462097,-0.22065846621990204
1772790108437444000,6.872444091796875,-0.3079827129840851,-0.46090447902679443,-0.17578978836536407
1772790108447510300,6.88251025390625,-0.2900282144546509,-0.3108702600002289,-0.12630853056907654
1772790108457576200,6.892576171875,-0.26416367292404175,-0.179742693901062,-0.08986339718103409
1772790108467642000,6.90264208984375,-0.23052367568016052,-0.07873405516147614,-0.0792541652917862
1772790108477708000,6.9127080078125,-0.19743181765079498,-0.01856418140232563,-0.08259587734937668
1772790108487774200,6.922774169921875,-0.17937906086444855,0.007720685563981533,-0.09172705560922623
1772790108497840000,6.932840087890625,-0.17247143387794495,0.029228338971734047,-0.10821681469678879
1772790108507906300,6.94290625,-0.17512661218643188,0.057609379291534424,-0.12417181581258774
1772790108517972200,6.95297216796875,-0.19106832146644592,0.0858965516090393,-0.14430224895477295
1772790108528038100,6.9630380859375,-0.20710667967796326,0.11113452911376953,-0.16647279262542725
1772790108538104000,6.97310400390625,-0.22726570069789886,0.13519498705863953,-0.19984525442123413
1772790108548170000,6.983169921875,-0.2513955533504486,0.1432662308216095,-0.2383716106414795
1772790108558236200,6.993236083984375,-0.2758723795413971,0.11475100368261337,-0.2778353691101074
1772790108568302000,7.003302001953125,-0.30367445945739746,0.03837048262357712,-0.3050331771373749
1772790108578368300,7.0133681640625,-0.31935736536979675,-0.03918419033288956,-0.3045520484447479
1772790108588435200,7.023435302734375,-0.3289383351802826,-0.10035780072212219,-0.2855466604232788
1772790108598501000,7.033501220703125,-0.33009251952171326,-0.13332197070121765,-0.2564038336277008
1772790108608567300,7.0435673828125,-0.32770073413848877,-0.15033237636089325,-0.2223595678806305
1772790108618633200,7.05363330078125,-0.3268161714076996,-0.15693937242031097,-0.19514824450016022
1772790108628699100,7.06369921875,-0.34066247940063477,-0.17925798892974854,-0.1675717532634735
1772790108638765000,7.07376513671875,-0.35577741265296936,-0.22176027297973633,-0.15696771442890167
1772790108648831200,7.083831298828125,-0.3556136190891266,-0.2556580603122711,-0.1428292691707611
1772790108658897200,7.093897216796875,-0.3387576937675476,-0.2315567582845688,-0.1286330372095108
1772790108668963000,7.103963134765625,-0.31390029191970825,-0.17420531809329987,-0.12347263842821121
1772790108679029200,7.114029296875,-0.2923780381679535,-0.1521037369966507,-0.11509823799133301
1772790108689095200,7.12409521484375,-0.28864455223083496,-0.1345503181219101,-0.11286357790231705
1772790108699161000,7.1341611328125,-0.2838532030582428,-0.1122564747929573,-0.11872468143701553
1772790108709227000,7.14422705078125,-0.2830055058002472,-0.07082248479127884,-0.12817464768886566
1772790108719293200,7.154293212890625,-0.28555142879486084,-0.038869552314281464,-0.14077623188495636
1772790108729359000,7.164359130859375,-0.2892409861087799,-0.02032995969057083,-0.15020835399627686
1772790108739425300,7.17442529296875,-0.3037865161895752,-0.02171296440064907,-0.14437973499298096
1772790108749491200,7.1844912109375,-0.3147059977054596,-0.012788978405296803,-0.12547288835048676
1772790108759557000,7.19455712890625,-0.31744349002838135,-0.0037607895210385323,-0.08998449891805649
1772790108769623000,7.204623046875,-0.3154444992542267,-0.02501840889453888,-0.041713643819093704
1772790108779689000,7.21468896484375,-0.310534805059433,-0.059461914002895355,0.011726217344403267
1772790108789755100,7.224755126953125,-0.30724766850471497,-0.08964378386735916,0.06285598129034042
1772790108799821000,7.234821044921875,-0.3082231879234314,-0.12105397135019302,0.09882493317127228
1772790108809887200,7.24488720703125,-0.3212553560733795,-0.16656126081943512,0.10848607867956161
1772790108819954200,7.2549541015625,-0.33415326476097107,-0.22517967224121094,0.09073092043399811
1772790108830020000,7.26502001953125,-0.3365996479988098,-0.2632245123386383,0.06350116431713104
1772790108840086300,7.275086181640625,-0.33798521757125854,-0.2786436975002289,0.03407374769449234
1772790108850152200,7.285152099609375,-0.33611515164375305,-0.2877200245857239,0.005020525306463242
1772790108860218000,7.295218017578125,-0.32620882987976074,-0.3054458200931549,0.00012970005627721548
1772790108870284000,7.305283935546875,-0.30891796946525574,-0.29461926221847534,0.02992008626461029
1772790108880350700,7.315350830078125,-0.29896095395088196,-0.27810660004615784,0.08067034929990768
1772790108890417000,7.3254169921875,-0.28247520327568054,-0.2546098232269287,0.12150111794471741
1772790108900482800,7.33548291015625,-0.25284242630004883,-0.21753621101379395,0.13660797476768494
1772790108910549000,7.345549072265625,-0.23698382079601288,-0.2071213722229004,0.09806030243635178
1772790108920615000,7.355614990234375,-0.23248372972011566,-0.2168077975511551,0.0484948568046093
1772790108930680800,7.365680908203125,-0.2433539479970932,-0.22130082547664642,-0.016215164214372635
1772790108940746800,7.375746826171875,-0.25540727376937866,-0.2152424156665802,-0.08313458412885666
1772790108950813000,7.38581298828125,-0.26108938455581665,-0.2127278596162796,-0.14213505387306213
1772790108960878800,7.39587890625,-0.25187304615974426,-0.18726994097232819,-0.1738777607679367
1772790108970944800,7.40594482421875,-0.22784067690372467,-0.12359829992055893,-0.16489145159721375
1772790108981011000,7.416010986328125,-0.19247493147850037,-0.018513111397624016,-0.127221018075943
1772790108991076900,7.426076904296875,-0.13622444868087769,0.08642315864562988,-0.07569923996925354
1772790109001143000,7.43614306640625,-0.08192708343267441,0.18398819863796234,-0.03577440232038498
1772790109011208700,7.446208740234375,-0.03985179588198662,0.26365214586257935,-0.0002845865092240274
1772790109021275000,7.45627490234375,-0.00460800901055336,0.3296130299568176,0.032842785120010376
1772790109031340800,7.4663408203125,0.021520264446735382,0.3892132341861725,0.05421172454953194
1772790109041407000,7.476406982421875,0.039700448513031006,0.40521693229675293,0.05531962215900421
1772790109051473000,7.486472900390625,0.05077120661735535,0.37715867161750793,0.06099322438240051
1772790109061538800,7.496538818359375,0.05122628062963486,0.3340458273887634,0.06264760345220566
1772790109071605000,7.50660498046875,0.03546009957790375,0.2790382504463196,0.06948047131299973
1772790109081672000,7.516671875,0.008061191067099571,0.2193373143672943,0.0851268544793129
1772790109091737900,7.52673779296875,-0.025848839432001114,0.15715783834457397,0.11188630014657974
1772790109101803800,7.5368037109375,-0.06088212877511978,0.06056435406208038,0.14822420477867126
1772790109111869700,7.54686962890625,-0.09238572418689728,-0.0401793010532856,0.20132416486740112
1772790109121936000,7.556935791015625,-0.1306736022233963,-0.100882887840271,0.26664188504219055
1772790109132001800,7.567001708984375,-0.17999215424060822,-0.12242919206619263,0.32402315735816956
1772790109142068000,7.57706787109375,-0.24287794530391693,-0.1255849003791809,0.35432854294776917
1772790109152134000,7.5871337890625,-0.2896558344364166,-0.12097550183534622,0.3436814844608307
1772790109162200000,7.597199951171875,-0.32815155386924744,-0.12850718200206757,0.2953168451786041
1772790109172265700,7.607265625,-0.3549243211746216,-0.16757096350193024,0.2081611454486847
1772790109182332000,7.617331787109375,-0.3786030411720276,-0.20081453025341034,0.12367729842662811
1772790109192397800,7.627397705078125,-0.397285133600235,-0.18523956835269928,0.06530001014471054
1772790109202463700,7.637463623046875,-0.4120689630508423,-0.13019207119941711,0.0100141866132617
1772790109212530000,7.647530029296875,-0.4291081428527832,-0.08660251647233963,-0.05621809512376785
1772790109222595800,7.657595947265625,-0.4482063949108124,-0.06871753931045532,-0.14560365676879883
1772790109232662000,7.667662109375,-0.4495507478713989,-0.057062212377786636,-0.23531277477741241
1772790109242727700,7.677727783203125,-0.42656832933425903,-0.04885111749172211,-0.30742141604423523
1772790109252793900,7.6877939453125,-0.40545690059661865,-0.028978079557418823,-0.3463411033153534
1772790109262859800,7.69785986328125,-0.3852052092552185,-0.000919269397854805,-0.356947660446167
1772790109272926000,7.707926025390625,-0.3641510605812073,0.030226930975914,-0.3549577295780182
1772790109282991900,7.717991943359375,-0.33126598596572876,0.04978010058403015,-0.3412531018257141
1772790109293057800,7.728057861328125,-0.30158185958862305,0.061181895434856415,-0.30842459201812744
1772790109303124000,7.7381240234375,-0.2889007329940796,0.06429833173751831,-0.2505625784397125
1772790109313190000,7.74818994140625,-0.2834987938404083,0.07243721932172775,-0.18455135822296143
1772790109323255800,7.758255859375,-0.2827986180782318,0.08941519260406494,-0.12492135912179947
1772790109333321700,7.76832177734375,-0.2798219919204712,0.09521342068910599,-0.10265573114156723
1772790109343388700,7.778388671875,-0.2747451066970825,0.0706232488155365,-0.10201140493154526
1772790109353454800,7.788454833984375,-0.27474430203437805,0.033708635717630386,-0.11612403392791748
1772790109363520800,7.798520751953125,-0.2907009422779083,0.012374265119433403,-0.1347818225622177
1772790109373587000,7.8085869140625,-0.31391704082489014,-0.009919054806232452,-0.14922921359539032
1772790109383652900,7.81865283203125,-0.3412381708621979,-0.03742944821715355,-0.17791354656219482
1772790109393719000,7.828718994140625,-0.35857775807380676,-0.06410260498523712,-0.20439068973064423
1772790109403784700,7.83878466796875,-0.3592613637447357,-0.08322416990995407,-0.22890745103359222
1772790109413851000,7.848850830078125,-0.3627743422985077,-0.07582563906908035,-0.24652452766895294
1772790109423916800,7.858916748046875,-0.3662608861923218,-0.07828028500080109,-0.23141005635261536
1772790109433983000,7.86898291015625,-0.3705906569957733,-0.08408410847187042,-0.19154253602027893
1772790109444049000,7.879048828125,-0.37251198291778564,-0.06637147814035416,-0.12212450802326202
1772790109454114800,7.88911474609375,-0.3734017312526703,-0.03853478282690048,-0.05137762799859047
1772790109464181000,7.899180908203125,-0.3708842396736145,-0.019605441018939018,0.005137966945767403
1772790109474247000,7.909246826171875,-0.363380491733551,0.00017625372856855392,0.03412674367427826
1772790109484312800,7.919312744140625,-0.35914456844329834,0.025004595518112183,0.04538772255182266
1772790109494378800,7.929378662109375,-0.36083781719207764,0.06049387529492378,0.04237888380885124
1772790109504445000,7.93944482421875,-0.36919933557510376,0.09653791040182114,0.031144004315137863
1772790109514510800,7.9495107421875,-0.38870909810066223,0.1248430460691452,0.019583221524953842
1772790109524577000,7.959576904296875,-0.4052126109600067,0.1272614300251007,0.0036861062981188297
1772790109534643000,7.969642822265625,-0.4228123724460602,0.09595756977796555,0.00007645762525498867
1772790109544708900,7.979708984375,-0.44499045610427856,0.05896775797009468,0.013793366961181164
1772790109554774800,7.98977490234375,-0.4555104970932007,0.007197235710918903,0.046200040727853775
1772790109564840700,7.9998408203125,-0.46895408630371094,-0.03819902986288071,0.10621421784162521
1772790109574907000,8.009906982421874,-0.48167362809181213,-0.06296136975288391,0.17072264850139618
1772790109584972800,8.019972900390625,-0.49123960733413696,-0.10594114661216736,0.242031529545784
1772790109595039000,8.0300390625,-0.5015245079994202,-0.16331681609153748,0.3305121064186096
1772790109605105000,8.04010498046875,-0.5029582381248474,-0.169924795627594,0.4323451817035675
1772790109615171000,8.050171142578124,-0.49589577317237854,-0.09192295372486115,0.5190536975860596
1772790109625238000,8.060238037109375,-0.48798584938049316,0.027086568996310234,0.5665191411972046
1772790109635304000,8.070303955078124,-0.4898069202899933,0.11326513439416885,0.5602521896362305
1772790109645369900,8.080369873046875,-0.5088651776313782,0.12524700164794922,0.4938826858997345
1772790109655435800,8.090435791015626,-0.5411402583122253,0.05546819046139717,0.3918764293193817
1772790109665502000,8.100501953125,-0.5944893956184387,-0.04546738415956497,0.2699669599533081
1772790109675567900,8.11056787109375,-0.6695186495780945,-0.13917416334152222,0.15964367985725403
1772790109685633800,8.1206337890625,-0.7774993777275085,-0.22923830151557922,0.06650012731552124
1772790109695700000,8.130699951171875,-0.8961778283119202,-0.32524365186691284,-0.0004171205509919673
1772790109705766000,8.140765869140624,-1.0303990840911865,-0.42082563042640686,-0.037936482578516006
1772790109715831800,8.150831787109375,-1.1629022359848022,-0.5088508129119873,-0.044786933809518814
1772790109725897700,8.160897705078124,-1.2561701536178589,-0.5597289800643921,-0.04060458764433861
1772790109735964000,8.1709638671875,-1.3105649948120117,-0.5532966256141663,-0.05131875351071358
1772790109746029800,8.18102978515625,-1.3291233777999878,-0.5043630599975586,-0.058683887124061584
1772790109756096000,8.191095947265625,-1.318864107131958,-0.39481499791145325,-0.0650096908211708
1772790109766162000,8.201161865234376,-1.2994405031204224,-0.2013569474220276,-0.07324784249067307
1772790109776227800,8.211227783203125,-1.2381925582885742,0.015754330903291702,-0.07313039898872375
1772790109786294000,8.2212939453125,-1.1523704528808594,0.23212213814258575,-0.04802638664841652
1772790109796359700,8.231359619140624,-1.0606129169464111,0.4488658905029297,-0.0006764469435438514
1772790109806425900,8.24142578125,-1.0143022537231445,0.5843888521194458,0.05223042145371437
1772790109816491800,8.25149169921875,-0.9931381940841675,0.5994405150413513,0.12871135771274567
1772790109826558000,8.261557861328125,-0.9869306683540344,0.516394317150116,0.18770304322242737
1772790109836624000,8.271623779296876,-0.9790130853652954,0.37796616554260254,0.2476995438337326
1772790109846690000,8.28168994140625,-0.9735920429229736,0.21822233498096466,0.3025153577327728
1772790109856756000,8.291755859375,-0.9774349927902222,0.061658550053834915,0.35684090852737427
1772790109866822000,8.30182177734375,-1.0022636651992798,-0.08258223533630371,0.40783029794692993
1772790109876887300,8.31188720703125,-1.057988166809082,-0.19239768385887146,0.4365466237068176
1772790109886953500,8.321953369140624,-1.1405060291290283,-0.27795737981796265,0.43598687648773193
1772790109897019400,8.332019287109375,-1.2537598609924316,-0.3800179660320282,0.40206006169319153
1772790109907085000,8.3420849609375,-1.3975756168365479,-0.5373595356941223,0.34003540873527527
1772790109917151200,8.352151123046875,-1.5609687566757202,-0.745843768119812,0.26587995886802673
1772790109927218200,8.36221826171875,-1.73701012134552,-0.946513295173645,0.20220285654067993
1772790109937284400,8.372284423828125,-1.8895618915557861,-1.0679737329483032,0.1487923562526703
1772790109947350300,8.382350341796876,-1.9900773763656616,-1.0927999019622803,0.10671807080507278
1772790109957416200,8.392416259765625,-2.056122064590454,-1.0661402940750122,0.08230940252542496
1772790109967482400,8.402482421875,-2.078874349594116,-0.9995086789131165,0.0898536741733551
1772790109977548300,8.41254833984375,-2.059292793273926,-0.8713017106056213,0.12030159682035446
1772790109987614500,8.422614501953126,-2.005693197250366,-0.6768293976783752,0.17536407709121704
1772790109997680000,8.43268017578125,-1.9653384685516357,-0.41875556111335754,0.2062964290380478
1772790110007746300,8.442746337890625,-1.9331731796264648,-0.14058257639408112,0.2101585865020752
1772790110017812200,8.452812255859374,-1.868973970413208,0.12317530810832977,0.20069052278995514
1772790110027878400,8.46287841796875,-1.838530421257019,0.25533658266067505,0.15375657379627228
1772790110037944300,8.4729443359375,-1.8400747776031494,0.21522964537143707,0.10075275599956512
1772790110048010200,8.48301025390625,-1.8618459701538086,0.09680452197790146,0.06123166158795357
1772790110058076400,8.493076416015626,-1.90428626537323,-0.006537578068673611,0.0621054470539093
1772790110068142000,8.50314208984375,-1.9513224363327026,-0.10036380589008331,0.09378815442323685
1772790110078208300,8.513208251953126,-2.0070414543151855,-0.21160084009170532,0.13788184523582458
1772790110088274200,8.523274169921875,-2.0629279613494873,-0.35572725534439087,0.1669548898935318
1772790110098340400,8.53334033203125,-2.11197566986084,-0.5194395184516907,0.17682616412639618
1772790110108406300,8.54340625,-2.159243106842041,-0.6782021522521973,0.17577014863491058
1772790110118472400,8.553472412109375,-2.1947500705718994,-0.8250209093093872,0.17018362879753113
1772790110128538400,8.563538330078124,-2.2241504192352295,-0.9117361307144165,0.18193668127059937
1772790110138604300,8.573604248046875,-2.2580671310424805,-0.9426943063735962,0.19663414359092712
1772790110148670200,8.583670166015626,-2.3057944774627686,-0.9446444511413574,0.21002253890037537
1772790110158736100,8.593736083984375,-2.3520774841308594,-0.9326199889183044,0.2098531723022461
1772790110168802300,8.60380224609375,-2.3939735889434814,-0.8977190852165222,0.19492334127426147
1772790110178868200,8.6138681640625,-2.416092872619629,-0.8387985229492188,0.16865764558315277
1772790110188934400,8.623934326171875,-2.425055980682373,-0.7763190269470215,0.14320383965969086
1772790110199000300,8.634000244140625,-2.4200491905212402,-0.7011646032333374,0.13056741654872894
1772790110209066500,8.64406640625,-2.430781364440918,-0.5900511145591736,0.13519513607025146
1772790110219132200,8.654132080078124,-2.4520459175109863,-0.48050254583358765,0.1278219074010849
1772790110229198300,8.6641982421875,-2.4830851554870605,-0.4356140196323395,0.10996510088443756
1772790110239265300,8.674265380859374,-2.5271198749542236,-0.4603007137775421,0.08312283456325531
1772790110249331200,8.684331298828125,-2.581090211868286,-0.5016229748725891,0.059285689145326614
1772790110259397400,8.6943974609375,-2.64888072013855,-0.558265745639801,0.04402897134423256
1772790110269463300,8.70446337890625,-2.6974074840545654,-0.6460472345352173,0.05197236314415932
1772790110279529200,8.714529296875,-2.7147772312164307,-0.7146196365356445,0.07233063131570816
1772790110289595400,8.724595458984375,-2.721454620361328,-0.7383695244789124,0.11414876580238342
1772790110299661300,8.734661376953126,-2.720012903213501,-0.7288374900817871,0.163495272397995
1772790110309727200,8.744727294921875,-2.7231016159057617,-0.7109344005584717,0.18939420580863953
1772790110319793200,8.754793212890625,-2.7178783416748047,-0.7148116827011108,0.19841618835926056
1772790110329859300,8.764859375,-2.718362808227539,-0.7569596171379089,0.18471947312355042
1772790110339925200,8.77492529296875,-2.71867036819458,-0.803065299987793,0.1612011045217514
1772790110349991400,8.784991455078124,-2.7282416820526123,-0.813985288143158,0.12870270013809204
1772790110360057300,8.795057373046875,-2.7374820709228516,-0.8122291564941406,0.08019935339689255
1772790110370123300,8.805123291015626,-2.755148410797119,-0.7969413995742798,0.027822818607091904
1772790110380189200,8.815189208984375,-2.7703399658203125,-0.7632540464401245,-0.022000130265951157
1772790110390255000,8.825255126953126,-2.762230634689331,-0.704862117767334,-0.04646177962422371
1772790110400321300,8.8353212890625,-2.7349913120269775,-0.6115455031394958,-0.04966849088668823
1772790110410387200,8.84538720703125,-2.6939454078674316,-0.48560333251953125,-0.028947938233613968
1772790110420453400,8.855453369140625,-2.6469027996063232,-0.342773973941803,0.003338894806802273
1772790110430519300,8.865519287109375,-2.600055456161499,-0.21458880603313446,0.010084014385938644
1772790110440585500,8.87558544921875,-2.551516056060791,-0.13497121632099152,-0.019150037318468094
1772790110450651100,8.885651123046875,-2.501555919647217,-0.13030213117599487,-0.07382955402135849
1772790110460717300,8.89571728515625,-2.462336778640747,-0.13733874261379242,-0.1311969757080078
1772790110470783200,8.905783203125,-2.4397528171539307,-0.09922067821025848,-0.1818220019340515
1772790110480849200,8.91584912109375,-2.4208030700683594,-0.06141817942261696,-0.2252672165632248
1772790110490915300,8.925915283203125,-2.3963143825531006,-0.04636520519852638,-0.2742506265640259
1772790110500981200,8.935981201171876,-2.3694655895233154,-0.0815570130944252,-0.33124732971191406
1772790110511047400,8.94604736328125,-2.3389604091644287,-0.13864479959011078,-0.3686826229095459
1772790110521113300,8.95611328125,-2.301015853881836,-0.20292046666145325,-0.39463621377944946
1772790110531179300,8.96617919921875,-2.2505478858947754,-0.23024258017539978,-0.3946399986743927
1772790110541245200,8.9762451171875,-2.182382822036743,-0.23218508064746857,-0.3796733021736145
1772790110551311400,8.986311279296874,-2.0804836750030518,-0.232320174574852,-0.3402893841266632
1772790110561377300,8.996377197265625,-1.970406413078308,-0.22688227891921997,-0.2673690915107727
1772790110571444200,9.0064443359375,-1.8645700216293335,-0.21353855729103088,-0.1716986447572708
1772790110581510400,9.016510498046875,-1.7760076522827148,-0.2105979025363922,-0.06067945435643196
1772790110591576300,9.026576416015626,-1.7007206678390503,-0.2301483005285263,0.05055531486868858
1772790110601642500,9.036642578125,-1.6402431726455688,-0.2594444155693054,0.1504606008529663
1772790110611708200,9.046708251953126,-1.5962632894515991,-0.3069491982460022,0.23279845714569092
1772790110621774000,9.056774169921875,-1.5660215616226196,-0.39286568760871887,0.298738032579422
1772790110631840300,9.06684033203125,-1.551748514175415,-0.4967806339263916,0.35637158155441284
1772790110641906200,9.07690625,-1.55415940284729,-0.5946576595306396,0.4165339767932892
1772790110651972400,9.086972412109375,-1.580385684967041,-0.6714478135108948,0.4663585424423218
1772790110662038300,9.097038330078124,-1.6061216592788696,-0.731060266494751,0.5129667520523071
1772790110672104400,9.1071044921875,-1.6218693256378174,-0.7597182393074036,0.5411717891693115
1772790110682170400,9.11717041015625,-1.6350466012954712,-0.7472509145736694,0.565859317779541
1772790110692236300,9.127236328125,-1.6373900175094604,-0.6999379396438599,0.5764180421829224
1772790110702302200,9.13730224609375,-1.6386868953704834,-0.6437854766845703,0.5687894225120544
1772790110712368000,9.1473681640625,-1.6547800302505493,-0.5911823511123657,0.5275305509567261
1772790110722434300,9.157434326171876,-1.6811426877975464,-0.5631890296936035,0.4518890678882599
1772790110732500200,9.167500244140625,-1.7032743692398071,-0.5546262264251709,0.3631249666213989
1772790110742566400,9.17756640625,-1.7061535120010376,-0.5327939391136169,0.29098817706108093
1772790110752632300,9.18763232421875,-1.7013338804244995,-0.477265864610672,0.26641958951950073
1772790110762698200,9.1976982421875,-1.685005784034729,-0.39733535051345825,0.27601680159568787
1772790110772764200,9.20776416015625,-1.6715621948242188,-0.3208938241004944,0.3178183138370514
1772790110782830300,9.217830322265625,-1.6570944786071777,-0.26196685433387756,0.37646564841270447
1772790110792896300,9.227896240234376,-1.644391655921936,-0.2198130190372467,0.4252127408981323
1772790110802962200,9.237962158203125,-1.6229153871536255,-0.18823058903217316,0.44912126660346985
1772790110813028400,9.2480283203125,-1.6063272953033447,-0.18735969066619873,0.44475895166397095
1772790110823094300,9.25809423828125,-1.6039443016052246,-0.22557444870471954,0.41785651445388794
1772790110833160200,9.26816015625,-1.615759253501892,-0.31899595260620117,0.3864162564277649
1772790110843226000,9.27822607421875,-1.6334469318389893,-0.422297865152359,0.36293622851371765
1772790110853292300,9.288292236328125,-1.6510217189788818,-0.48515909910202026,0.3559071123600006
1772790110863358200,9.298358154296874,-1.6553901433944702,-0.5157380700111389,0.36456185579299927
1772790110873424400,9.30842431640625,-1.644039273262024,-0.5195260643959045,0.3745041489601135
1772790110883490300,9.318490234375,-1.612043023109436,-0.5281041264533997,0.3806169033050537
1772790110893556500,9.328556396484375,-1.5785787105560303,-0.5116299390792847,0.3903382420539856
1772790110903622400,9.338622314453126,-1.5524682998657227,-0.4559810161590576,0.3986755311489105
1772790110913689300,9.348689453125,-1.5245556831359863,-0.38934022188186646,0.39823243021965027
1772790110923755300,9.35875537109375,-1.4906322956085205,-0.338302880525589,0.38986000418663025
1772790110933821200,9.3688212890625,-1.4499661922454834,-0.2871139347553253,0.36914002895355225
1772790110943887400,9.378887451171876,-1.392473816871643,-0.22859416902065277,0.3409518003463745
1772790110953953300,9.388953369140625,-1.3405420780181885,-0.17941881716251373,0.3066847324371338
1772790110964019200,9.399019287109375,-1.2877247333526611,-0.14986412227153778,0.2706489861011505
1772790110974085400,9.40908544921875,-1.244856834411621,-0.139646515250206,0.24284709990024567
1772790110984151300,9.4191513671875,-1.203450083732605,-0.13796685636043549,0.24095918238162994
1772790110994217500,9.429217529296874,-1.1617741584777832,-0.1409754455089569,0.2540281116962433
1772790111004283100,9.439283203125,-1.1086803674697876,-0.14116239547729492,0.2780474126338959
1772790111014349300,9.449349365234376,-1.0635689496994019,-0.133971706032753,0.30055317282676697
1772790111024415200,9.459415283203125,-1.0278348922729492,-0.13558824360370636,0.30815914273262024
1772790111034481400,9.4694814453125,-1.0056039094924927,-0.1617145836353302,0.30628523230552673
1772790111044547300,9.47954736328125,-0.9891202449798584,-0.19951683282852173,0.29668667912483215
1772790111054613200,9.48961328125,-0.9719489216804504,-0.22473584115505219,0.29409563541412354
1772790111064679400,9.499679443359375,-0.9542402029037476,-0.2397715151309967,0.2977641224861145
1772790111074745000,9.5097451171875,-0.9310126900672913,-0.2364383041858673,0.3010563254356384
1772790111084811300,9.519811279296874,-0.9061840176582336,-0.2212476283311844,0.29738569259643555
1772790111094877200,9.529877197265625,-0.8770821690559387,-0.2033419907093048,0.29026058316230774
1772790111104943400,9.539943359375,-0.8457338213920593,-0.20449645817279816,0.266031414270401
1772790111115009300,9.55000927734375,-0.824120283126831,-0.19273103773593903,0.23359820246696472
1772790111125075500,9.560075439453126,-0.7988993525505066,-0.16456863284111023,0.18781714141368866
1772790111135141400,9.570141357421875,-0.7737101316452026,-0.15265978872776031,0.1380767524242401
1772790111145207000,9.58020703125,-0.7467474937438965,-0.16449300944805145,0.10506632924079895
1772790111155273200,9.590273193359375,-0.7177982926368713,-0.17871452867984772,0.10128488391637802
1772790111165339100,9.600339111328125,-0.6770465970039368,-0.16800595819950104,0.12169215083122253
1772790111175405300,9.6104052734375,-0.6319653391838074,-0.15636277198791504,0.1527908593416214
1772790111185471200,9.62047119140625,-0.5896053314208984,-0.15435367822647095,0.1880553662776947
1772790111195537400,9.630537353515624,-0.5597410798072815,-0.14789681136608124,0.20972736179828644
1772790111205603300,9.640603271484375,-0.5363955497741699,-0.1327223777770996,0.20444445312023163
1772790111215669500,9.65066943359375,-0.5157819390296936,-0.12183175981044769,0.1873774230480194
1772790111225735200,9.660735107421875,-0.49474644660949707,-0.09693893790245056,0.16700929403305054
1772790111235801300,9.67080126953125,-0.472751647233963,-0.06799503415822983,0.15325312316417694
1772790111245867300,9.6808671875,-0.4533979296684265,-0.03716388717293739,0.14632225036621094
1772790111255934200,9.690934326171876,-0.43769872188568115,-0.02836676687002182,0.136815145611763
1772790111266000400,9.70100048828125,-0.4315135180950165,-0.05620558559894562,0.12887945771217346
1772790111276066300,9.71106640625,-0.4308304190635681,-0.0899532362818718,0.12231053411960602
1772790111286132200,9.72113232421875,-0.42150989174842834,-0.10020560771226883,0.12936632335186005
1772790111296198400,9.731198486328125,-0.40150758624076843,-0.10609135031700134,0.13882337510585785
1772790111306264000,9.74126416015625,-0.3731646239757538,-0.13011012971401215,0.1453545093536377
1772790111316330200,9.751330322265625,-0.3443787693977356,-0.15362411737442017,0.13458433747291565
1772790111326396200,9.761396240234374,-0.3022765815258026,-0.16720597445964813,0.1090446263551712
1772790111336462300,9.77146240234375,-0.2547953128814697,-0.16881926357746124,0.08025100827217102
1772790111346528300,9.7815283203125,-0.20705921947956085,-0.14543351531028748,0.05879179388284683
1772790111356594400,9.791594482421875,-0.1765989512205124,-0.1098458468914032,0.04932229220867157
1772790111366660400,9.801660400390626,-0.14518962800502777,-0.08883030712604523,0.049703653901815414
1772790111376726300,9.811726318359375,-0.11361852288246155,-0.08304368704557419,0.056273289024829865
1772790111386792200,9.821792236328125,-0.06962016969919205,-0.060906700789928436,0.07874903827905655
1772790111396858000,9.831858154296874,-0.02308480627834797,-0.018250467255711555,0.11522885411977768
1772790111406924300,9.84192431640625,0.02082938887178898,0.03754222393035889,0.15526042878627777
1772790111416990200,9.851990234375,0.056929655373096466,0.05914497375488281,0.1660824865102768
1772790111427056400,9.862056396484375,0.09059680253267288,0.03940135985612869,0.15844213962554932
1772790111437122300,9.872122314453126,0.10742925852537155,-0.01045965775847435,0.13480475544929504
1772790111447188500,9.8821884765625,0.10626572370529175,-0.06635487824678421,0.11786758154630661
1772790111457254100,9.892254150390626,0.09080687165260315,-0.1003277599811554,0.10314908623695374
1772790111467320300,9.9023203125,0.05556951090693474,-0.12779712677001953,0.08706749975681305
1772790111477386200,9.91238623046875,0.014734070748090744,-0.15504543483257294,0.07175633311271667
1772790111487452200,9.9224521484375,-0.03431842848658562,-0.17336106300354004,0.060678377747535706
1772790111497518300,9.932518310546875,-0.08526802062988281,-0.18028810620307922,0.061767492443323135
1772790111507584300,9.942584228515624,-0.13904576003551483,-0.17442196607589722,0.06638194620609283
1772790111517650400,9.952650390625,-0.17394639551639557,-0.17234724760055542,0.06962712109088898
1772790111527716400,9.96271630859375,-0.1914295107126236,-0.16942016780376434,0.06216387450695038
1772790111537782300,9.9727822265625,-0.21064209938049316,-0.15907645225524902,0.04634742811322212
1772790111547848200,9.98284814453125,-0.21960869431495667,-0.14501042664051056,0.029027026146650314
1772790111557914400,9.992914306640625,-0.22095037996768951,-0.12128625810146332,0.005584046710282564
1772790111567981300,10.002981201171876,-0.19231340289115906,-0.08405393362045288,-0.0120889563113451
1772790111578047200,10.013047119140625,-0.16393950581550598,-0.026796184480190277,-0.02694385126233101
1772790111588113400,10.023113525390626,-0.1330801397562027,0.02371545508503914,-0.04026445373892784
1772790111598179300,10.033179443359375,-0.11947619169950485,0.02365827187895775,-0.042859792709350586
1772790111608245200,10.043245361328125,-0.1219654455780983,0.004984984174370766,-0.0347621850669384
1772790111618311200,10.053311279296874,-0.1506587117910385,-0.04156311973929405,-0.013553768396377563
1772790111628377000,10.063377197265625,-0.17598910629749298,-0.09584073722362518,0.025071920827031136
1772790111638443300,10.073443359375,-0.19353367388248444,-0.1196524128317833,0.059464119374752045
1772790111648509200,10.08350927734375,-0.19639284908771515,-0.12090356647968292,0.08168979734182358
1772790111658575400,10.093575439453126,-0.20656278729438782,-0.12196333706378937,0.08465075492858887
1772790111668641300,10.103641357421875,-0.22288690507411957,-0.13590764999389648,0.07042361795902252
1772790111678707500,10.11370751953125,-0.23133040964603424,-0.18287110328674316,0.04223134368658066
1772790111688773400,10.1237734375,-0.23410463333129883,-0.22164833545684814,0.028970932587981224
1772790111698839300,10.13383935546875,-0.2376386672258377,-0.2316148728132248,0.033738162368535995
1772790111708905200,10.1439052734375,-0.23131631314754486,-0.23872046172618866,0.059185996651649475
1772790111718971100,10.15397119140625,-0.23425540328025818,-0.22475284337997437,0.08275005966424942
1772790111729037300,10.164037353515624,-0.24133142828941345,-0.1984730362892151,0.09478568285703659
1772790111739103200,10.174103271484375,-0.2459162473678589,-0.17820405960083008,0.07165487110614777
1772790111749169400,10.18416943359375,-0.2533445954322815,-0.1558537483215332,0.03435676544904709
1772790111759235300,10.1942353515625,-0.2740200161933899,-0.14532114565372467,-0.01757838763296604
1772790111769301200,10.20430126953125,-0.29423609375953674,-0.13481764495372772,-0.06039402633905411
1772790111779367200,10.2143671875,-0.3176288306713104,-0.11433425545692444,-0.07501737773418427
1772790111789433300,10.224433349609376,-0.34646207094192505,-0.06629002839326859,-0.05800749734044075
1772790111799499300,10.234499267578125,-0.3745596408843994,-0.025835108011960983,-0.026025811210274696
1772790111809565200,10.244565185546875,-0.39288270473480225,0.005093513987958431,0.0007948840502649546
1772790111819631400,10.25463134765625,-0.40381819009780884,0.01732061617076397,0.016590425744652748
1772790111829697300,10.264697265625,-0.41184017062187195,0.018634088337421417,0.02448989264667034
1772790111839763200,10.27476318359375,-0.4002614915370941,-0.0009169904515147209,0.03130410239100456
1772790111849829000,10.2848291015625,-0.3876005709171295,-0.008753608912229538,0.03991170600056648
1772790111859895300,10.294895263671876,-0.36707237362861633,-0.00014927145093679428,0.052562348544597626
1772790111869961200,10.304961181640625,-0.3453516364097595,0.022075340151786804,0.06222349405288696
1772790111880027400,10.31502734375,-0.33245235681533813,0.03236779943108559,0.05976121500134468
1772790111890093300,10.32509326171875,-0.334105908870697,0.04658535122871399,0.04159552603960037
1772790111900160300,10.33516015625,-0.33080965280532837,0.06825613975524902,0.012297994457185268
1772790111910226400,10.345226318359375,-0.32924744486808777,0.06441133469343185,-0.022216040641069412
1772790111920292000,10.3552919921875,-0.3232266902923584,0.04717491567134857,-0.04930496960878372
1772790111930358300,10.365358154296874,-0.30321940779685974,0.015819126740098,-0.06041088327765465
1772790111940424200,10.375424072265625,-0.2712220251560211,-0.02693573571741581,-0.051245465874671936
1772790111950490000,10.385489990234374,-0.24698060750961304,-0.07496824115514755,-0.02533024176955223
1772790111960556300,10.395556396484375,-0.23290987312793732,-0.13051530718803406,0.019007651135325432
1772790111970622200,10.405622314453124,-0.22797556221485138,-0.17668627202510834,0.05117224529385567
1772790111980688400,10.4156884765625,-0.2253822237253189,-0.21903450787067413,0.06300296634435654
1772790111990754000,10.425754150390626,-0.22822807729244232,-0.2509181499481201,0.06285302340984344
1772790112000820200,10.4358203125,-0.23599953949451447,-0.25074735283851624,0.04695481061935425
1772790112010886100,10.44588623046875,-0.24370352923870087,-0.23584802448749542,0.029132936149835587
1772790112020952300,10.455952392578125,-0.24528038501739502,-0.21984030306339264,0.020646976307034492
1772790112031018200,10.466018310546875,-0.23965418338775635,-0.20143625140190125,0.024202296510338783
1772790112041084400,10.47608447265625,-0.21845358610153198,-0.18423663079738617,0.04213110730051994
1772790112051150300,10.486150390625,-0.18891221284866333,-0.1773558259010315,0.06580847501754761
1772790112061216300,10.49621630859375,-0.14960907399654388,-0.19972608983516693,0.09280356019735336
1772790112071282200,10.5062822265625,-0.12157104164361954,-0.22598646581172943,0.12504218518733978
1772790112081348000,10.51634814453125,-0.09639200568199158,-0.24513496458530426,0.15886762738227844
1772790112091414300,10.526414306640625,-0.0749700665473938,-0.2418358325958252,0.20580078661441803
1772790112101480200,10.536480224609376,-0.06108691543340683,-0.20884953439235687,0.2568526268005371
1772790112111546400,10.54654638671875,-0.048410799354314804,-0.17811745405197144,0.2795981466770172
1772790112121612300,10.5566123046875,-0.027669519186019897,-0.15854163467884064,0.2844741642475128
1772790112131678500,10.566678466796875,-0.015343345701694489,-0.1369370073080063,0.24914361536502838
1772790112141744000,10.576744140625,-0.021435948088765144,-0.1245771273970604,0.17552787065505981
1772790112151810000,10.58681005859375,-0.041165441274642944,-0.15390652418136597,0.058210305869579315
1772790112161876200,10.596876220703125,-0.06950251758098602,-0.2335413098335266,-0.09562966972589493
1772790112171942100,10.606942138671876,-0.09988385438919067,-0.33191555738449097,-0.25258415937423706
1772790112182008300,10.61700830078125,-0.11697106808423996,-0.39081963896751404,-0.35620105266571045
1772790112192074200,10.62707421875,-0.12411525845527649,-0.38734954595565796,-0.3737872242927551
1772790112202140400,10.637140380859375,-0.11255435645580292,-0.31562772393226624,-0.31397536396980286
1772790112212206000,10.6472060546875,-0.05662717670202255,-0.18612432479858398,-0.1937517523765564
1772790112222272300,10.657272216796875,0.019719773903489113,-0.013919468969106674,-0.05045613273978233
1772790112232338200,10.667338134765625,0.0964377224445343,0.1335674524307251,0.06581029295921326
1772790112242405000,10.677405029296875,0.14389224350452423,0.17507849633693695,0.10913372784852982
1772790112252471300,10.68747119140625,0.17226742208003998,0.11372379958629608,0.091637022793293
1772790112262537200,10.697537109375,0.1773955076932907,-0.003511792980134487,0.032341279089450836
1772790112272603400,10.707603271484375,0.15680421888828278,-0.08809378743171692,-0.02355208247900009
1772790112282669300,10.71766943359375,0.11814501881599426,-0.1169152557849884,-0.040360141545534134
1772790112292735200,10.7277353515625,0.07879681885242462,-0.11990039795637131,-0.009596103802323341
1772790112302801200,10.73780126953125,0.0509762316942215,-0.10454889386892319,0.04964820668101311
1772790112312867000,10.7478671875,0.012525510042905807,-0.08702023327350616,0.11002552509307861
1772790112322933200,10.757933349609376,-0.011324289254844189,-0.1068037673830986,0.13396506011486053
1772790112332999200,10.767999267578125,-0.034749455749988556,-0.16545537114143372,0.14760416746139526
1772790112343065300,10.7780654296875,-0.06548157334327698,-0.21134540438652039,0.1702551394701004
1772790112353131300,10.78813134765625,-0.1046750470995903,-0.19176825881004333,0.19712217152118683
1772790112363197400,10.798197509765625,-0.13429884612560272,-0.13727188110351562,0.2062639445066452
1772790112373263000,10.80826318359375,-0.1555846929550171,-0.08834961801767349,0.19253376126289368
1772790112383329300,10.818329345703125,-0.196459099650383,-0.007548794616013765,0.18141904473304749
1772790112393395200,10.828395263671876,-0.23803956806659698,0.11710019409656525,0.15982720255851746
1772790112403461000,10.838461181640625,-0.26414307951927185,0.2632388174533844,0.11342550814151764
1772790112413527300,10.84852734375,-0.2885397672653198,0.34006091952323914,0.04284881055355072
1772790112423593200,10.85859326171875,-0.2978300452232361,0.35971710085868835,-0.0521620512008667
1772790112433659400,10.868659423828126,-0.32471972703933716,0.40450188517570496,-0.09002554416656494
1772790112443725300,10.878725341796875,-0.3453521728515625,0.32018738985061646,-0.14317521452903748
1772790112453791200,10.888791259765625,-0.29624590277671814,0.13078685104846954,-0.2517823874950409
1772790112463857200,10.898857177734374,-0.20579907298088074,-0.02248619869351387,-0.3586535155773163
1772790112473923300,10.90892333984375,-0.11777839809656143,-0.06944944709539413,-0.42843180894851685
1772790112483989200,10.9189892578125,-0.05104774609208107,-0.05094895511865616,-0.4649703800678253
1772790112494055200,10.92905517578125,0.0010255735833197832,-0.05487019568681717,-0.4478294849395752
1772790112504121300,10.939121337890626,0.0561659038066864,-0.08241556584835052,-0.4094618260860443
