time,seconds_elapsed,z,y,x
1772797617892687600,0.0926875,0.834141731262207,0.6652984023094177,1.3183271884918213
1772797617902713600,0.102713623046875,0.7619381546974182,0.5471884608268738,1.1728062629699707
1772797617912740400,0.112740234375,0.695458710193634,0.4960157573223114,1.006218433380127
1772797617922766300,0.122766357421875,0.6433244347572327,0.4622950851917267,0.8346471786499023
1772797617932792300,0.132792236328125,0.604882001876831,0.35231080651283264,0.6476383805274963
1772797617942819300,0.1428193359375,0.5663133859634399,0.23655061423778534,0.4442299008369446
1772797617952845300,0.15284521484375,0.5449106097221375,0.09442277252674103,0.15694378316402435
1772797617962871600,0.16287158203125,0.5356495380401611,-0.020375285297632217,-0.09295689314603806
1772797617972898600,0.172898681640625,0.534476101398468,-0.06464660912752151,-0.29741814732551575
1772797617982924500,0.182924560546875,0.5354161858558655,-0.05874282121658325,-0.466383695602417
1772797617992951300,0.192951416015625,0.5491796731948853,0.01913120597600937,-0.6071507334709167
1772797618002977300,0.202977294921875,0.5593385100364685,0.14229710400104523,-0.7327736020088196
1772797618013003300,0.213003173828125,0.5659346580505371,0.27143457531929016,-0.8505071401596069
1772797618023030500,0.223030517578125,0.5913416147232056,0.3985294699668884,-0.9280514121055603
1772797618033056500,0.233056396484375,0.6225317716598511,0.5324063301086426,-0.9398596286773682
1772797618043082500,0.24308251953125,0.6382668614387512,0.6032609939575195,-0.878596842288971
1772797618053109500,0.253109619140625,0.6747028827667236,0.5963274836540222,-0.7938872575759888
1772797618063135500,0.263135498046875,0.7259045243263245,0.5670322179794312,-0.754486620426178
1772797618073161500,0.273161376953125,0.7648285031318665,0.5557902455329895,-0.7520037293434143
1772797618083188500,0.2831884765625,0.8088542819023132,0.5695332288742065,-0.7584214210510254
1772797618093214500,0.29321435546875,0.8444064259529114,0.5710017085075378,-0.7616968154907227
1772797618103241500,0.303241455078125,0.846601128578186,0.5613960027694702,-0.7678524851799011
1772797618113267500,0.313267333984375,0.8251832127571106,0.5325387716293335,-0.7865210175514221
1772797618123293400,0.32329345703125,0.8052688837051392,0.5013125538825989,-0.8240712881088257
1772797618133320400,0.333320556640625,0.8187066316604614,0.4661412239074707,-0.8470330834388733
1772797618143346400,0.343346435546875,0.8407794237136841,0.430198073387146,-0.8017914891242981
1772797618153372400,0.353372314453125,0.8745725154876709,0.47442519664764404,-0.6943191289901733
1772797618163399400,0.3633994140625,0.9149181246757507,0.5732510685920715,-0.5465166568756104
1772797618173425400,0.37342529296875,0.95890212059021,0.731255054473877,-0.407417356967926
1772797618183451400,0.383451416015625,1.0291956663131714,0.7581181526184082,-0.320761501789093
1772797618193478400,0.393478515625,1.1463942527770996,0.5337303280830383,-0.3716968595981598
1772797618203504600,0.403504638671875,1.4161208868026733,0.3259458839893341,-0.9493048191070557
1772797618213531400,0.413531494140625,1.8876372575759888,0.2000494748353958,-2.7125911712646484
1772797618223557400,0.423557373046875,2.1755542755126953,0.7884985208511353,-5.00967264175415
1772797618233583400,0.433583251953125,1.8916040658950806,2.105022430419922,-5.8788652420043945
1772797618243610400,0.4436103515625,1.688140869140625,2.6741671562194824,-4.214058876037598
1772797618253636400,0.45363623046875,1.884423851966858,0.8547760248184204,0.026412710547447205
1772797618263662300,0.463662353515625,2.0223817825317383,-1.3133528232574463,4.104728698730469
1772797618273689600,0.473689697265625,2.4074437618255615,-2.1946394443511963,5.748905658721924
1772797618283715600,0.483715576171875,2.5564768314361572,-1.560067892074585,5.3422746658325195
1772797618293741600,0.493741455078125,2.3128175735473633,-0.1881686896085739,3.956972599029541
1772797618303768300,0.503768310546875,2.0032308101654053,0.9497153759002686,2.671279191970825
1772797618313794300,0.513794189453125,1.6695330142974854,1.4550230503082275,2.0503005981445312
1772797618323821600,0.523821533203125,1.478003978729248,1.5199886560440063,2.010160207748413
1772797618333847600,0.53384765625,1.4091134071350098,1.3643996715545654,2.1611552238464355
1772797618343873500,0.54387353515625,1.3590013980865479,1.2036093473434448,2.2444422245025635
1772797618353900500,0.553900634765625,1.3128597736358643,1.2853894233703613,2.1445186138153076
1772797618363926500,0.563926513671875,1.2762632369995117,1.5386531352996826,1.9639323949813843
1772797618373952500,0.573952392578125,1.273177146911621,1.7010630369186401,1.7988896369934082
1772797618383979500,0.5839794921875,1.2349627017974854,1.7640281915664673,1.655444860458374
1772797618394005500,0.594005615234375,1.1748278141021729,1.725514531135559,1.5822888612747192
1772797618404031500,0.604031494140625,1.1245198249816895,1.648818850517273,1.6120083332061768
1772797618414058500,0.61405859375,1.025266170501709,1.7578516006469727,1.6286885738372803
1772797618424084500,0.62408447265625,0.8846650123596191,1.7388683557510376,1.518559217453003
1772797618434111200,0.634111328125,0.8650398850440979,1.4708459377288818,1.4986544847488403
1772797618444137200,0.64413720703125,0.8026469945907593,0.9263702630996704,1.4308922290802002
1772797618454163500,0.65416357421875,0.7535894513130188,0.3315679132938385,1.4280871152877808
1772797618464190500,0.6641904296875,0.5841233134269714,-0.027456965297460556,1.352009654045105
1772797618474216400,0.674216552734375,0.39839181303977966,-0.2812173366546631,1.0791336297988892
1772797618484242400,0.684242431640625,0.3549254238605499,-0.40971046686172485,0.6297736763954163
1772797618494269400,0.69426953125,0.35475313663482666,-0.42924368381500244,0.11210524290800095
1772797618504295400,0.70429541015625,0.32301023602485657,-0.33216455578804016,-0.3304898738861084
1772797618514322400,0.714322509765625,0.3060978055000305,-0.14141777157783508,-0.6420384049415588
1772797618524348400,0.724348388671875,0.30767813324928284,0.05170576274394989,-0.8421335816383362
1772797618534374400,0.73437451171875,0.3328503370285034,0.21935229003429413,-0.9718899726867676
1772797618544401400,0.7444013671875,0.40125957131385803,0.36969390511512756,-1.0695838928222656
1772797618554427400,0.754427490234375,0.47941988706588745,0.49454450607299805,-1.1348310708999634
1772797618564453400,0.764453369140625,0.5385280847549438,0.5872300267219543,-1.1631193161010742
1772797618574480600,0.774480712890625,0.5960308313369751,0.5947571992874146,-1.1752876043319702
1772797618584506600,0.784506591796875,0.6463107466697693,0.4942609369754791,-1.1854443550109863
1772797618594532600,0.79453271484375,0.6715846657752991,0.36670804023742676,-1.2147066593170166
1772797618604559400,0.804559326171875,0.6924323439598083,0.2752947211265564,-1.269014596939087
1772797618614585300,0.81458544921875,0.7031624913215637,0.20780782401561737,-1.3235777616500854
1772797618624612600,0.824612548828125,0.7083740234375,0.16381321847438812,-1.3648203611373901
1772797618634638600,0.834638671875,0.6999546885490417,0.14314548671245575,-1.4126273393630981
1772797618644665000,0.8446650390625,0.7171722054481506,0.1321934163570404,-1.4924893379211426
1772797618654692000,0.854692138671875,0.7737230658531189,0.06961312890052795,-1.6582311391830444
1772797618664718000,0.864718017578125,0.796680748462677,0.020787253975868225,-1.8797627687454224
1772797618674744000,0.874744140625,0.8663122653961182,0.0026892104651778936,-2.1174774169921875
1772797618684771000,0.88477099609375,0.956188440322876,0.039599042385816574,-2.2484805583953857
1772797618694797000,0.894797119140625,1.0691357851028442,0.13315296173095703,-2.307955741882324
1772797618704824000,0.904823974609375,1.1614383459091187,0.23144781589508057,-2.2768454551696777
1772797618714850300,0.914850341796875,1.2261651754379272,0.30586957931518555,-2.1736323833465576
1772797618724876300,0.924876220703125,1.3238580226898193,0.19242103397846222,-2.0477066040039062
1772797618734903000,0.934903076171875,1.4890743494033813,-0.25218918919563293,-1.8465101718902588
1772797618744929000,0.944928955078125,1.6956673860549927,-0.9904276132583618,-1.708019495010376
1772797618754955000,0.954955078125,1.9240995645523071,-1.5511034727096558,-2.0716423988342285
1772797618764982000,0.96498193359375,2.185594320297241,-1.3186466693878174,-3.0851433277130127
1772797618775008000,0.975008056640625,2.2832181453704834,-0.7438681125640869,-4.148575305938721
1772797618785035000,0.985034912109375,1.8853198289871216,0.5909357070922852,-3.9264235496520996
1772797618795061000,0.99506103515625,1.1717873811721802,1.8570938110351562,-2.3086462020874023
1772797618805087000,1.0050869140625,0.91375732421875,2.1401748657226562,0.2904502749443054
1772797618815114000,1.015114013671875,1.0990841388702393,1.331149697303772,3.056640625
1772797618825140000,1.025139892578125,1.7722111940383911,0.08182717859745026,4.973087787628174
1772797618835166000,1.035166015625,2.0431859493255615,-0.7252059578895569,5.542893409729004
1772797618845193200,1.045193115234375,1.7103272676467896,-0.6097254157066345,4.69850492477417
1772797618855219200,1.05521923828125,1.1773394346237183,0.22926858067512512,3.214029312133789
1772797618865246000,1.065245849609375,0.8329986333847046,1.045191764831543,2.0495002269744873
1772797618875272000,1.07527197265625,0.6721748113632202,1.1138502359390259,1.7585148811340332
1772797618885298000,1.0852978515625,0.4170389473438263,0.7960197925567627,1.9540252685546875
1772797618895325200,1.0953251953125,0.1605709344148636,0.5754637122154236,1.9684462547302246
1772797618905351200,1.10535107421875,-0.025043241679668427,0.6464288830757141,1.6655857563018799
1772797618915377200,1.115377197265625,-0.13348716497421265,0.8435619473457336,1.273988127708435
1772797618925404200,1.125404052734375,-0.17382781207561493,1.2884446382522583,0.9809733033180237
1772797618935430100,1.13543017578125,-0.20006901025772095,1.7277631759643555,0.9069174528121948
1772797618945457000,1.145456787109375,-0.15804961323738098,1.9546390771865845,1.064477562904358
1772797618955483100,1.155483154296875,-0.04458217695355415,1.8437259197235107,1.3871394395828247
1772797618965509000,1.165509033203125,0.1519920527935028,1.6468783617019653,1.7755900621414185
1772797618975536000,1.1755361328125,0.24279306828975677,1.166076898574829,2.033506155014038
1772797618985562000,1.18556201171875,0.24250875413417816,0.6468736529350281,2.1672141551971436
1772797618995588000,1.195588134765625,0.21265284717082977,0.20840466022491455,2.129758596420288
1772797619005615000,1.205614990234375,0.22117501497268677,-0.05555003136396408,1.877273678779602
1772797619015641000,1.21564111328125,0.24606624245643616,-0.18042698502540588,1.50233793258667
1772797619025668000,1.225668212890625,0.22585377097129822,-0.18923817574977875,1.1094646453857422
1772797619035694000,1.235694091796875,0.1384269893169403,-0.0758168175816536,0.724143922328949
1772797619045720000,1.245719970703125,0.058421630412340164,0.04044763743877411,0.3692678213119507
1772797619055747000,1.2557470703125,0.014899986796081066,0.10739365220069885,0.03933463990688324
1772797619065773000,1.26577294921875,-0.05314948409795761,0.06246199086308479,-0.2956012785434723
1772797619075799000,1.275799072265625,-0.18747054040431976,-0.06110308691859245,-0.5724677443504333
1772797619085826000,1.285825927734375,-0.3374477028846741,-0.14646248519420624,-0.8135421276092529
1772797619095852000,1.29585205078125,-0.4318098723888397,-0.21628230810165405,-1.0571156740188599
1772797619105879000,1.305879150390625,-0.4759587347507477,-0.2541406750679016,-1.234837532043457
1772797619115905000,1.315905029296875,-0.4407418966293335,-0.2514421045780182,-1.4098650217056274
1772797619125931000,1.325930908203125,-0.34786075353622437,-0.27345195412635803,-1.5590344667434692
1772797619135958300,1.335958251953125,-0.2208375483751297,-0.300130695104599,-1.6499431133270264
1772797619145984300,1.345984375,0.014389561489224434,-0.33347010612487793,-1.6271785497665405
1772797619156010200,1.35601025390625,0.06831111758947372,-0.4487372934818268,-1.5190560817718506
1772797619166037000,1.366037109375,0.059270039200782776,-0.5882293581962585,-1.3665759563446045
1772797619176063000,1.37606298828125,0.023171424865722656,-0.7145758271217346,-1.2113326787948608
1772797619186090000,1.386090087890625,-0.01065913587808609,-0.8426650166511536,-1.1017802953720093
1772797619196116000,1.396115966796875,-0.050829727202653885,-0.8831008672714233,-1.098650336265564
1772797619206142200,1.40614208984375,-0.08519238978624344,-0.8393981456756592,-1.2051870822906494
1772797619216169200,1.416169189453125,-0.08512847125530243,-0.7507724165916443,-1.3909070491790771
1772797619226195200,1.4261953125,-0.07039867341518402,-0.6849259734153748,-1.5638688802719116
1772797619236221200,1.43622119140625,-0.09244192391633987,-0.6506739854812622,-1.654684066772461
1772797619246248000,1.446248046875,-0.11790759861469269,-0.6751084923744202,-1.662401556968689
1772797619256274000,1.45627392578125,-0.15074357390403748,-0.6914525628089905,-1.5521283149719238
1772797619266301200,1.46630126953125,-0.23157820105552673,-0.6878678202629089,-1.2338351011276245
1772797619276327200,1.4763271484375,-0.2852882742881775,-0.5134957432746887,-0.7212614417076111
1772797619286353200,1.486353271484375,-0.1609780639410019,-0.11467777192592621,-0.10734933614730835
1772797619296380200,1.496380126953125,0.18764223158359528,-0.010508494451642036,0.2974189221858978
1772797619306406100,1.50640625,0.5132840871810913,-0.6313422918319702,0.28223180770874023
1772797619316433200,1.51643310546875,0.37453174591064453,-1.5699260234832764,-0.10133051127195358
1772797619326459100,1.526459228515625,-0.17495520412921906,-2.324272632598877,-0.9433717727661133
1772797619336485000,1.536485107421875,-0.01914963312447071,-2.446894645690918,-1.9855239391326904
1772797619346512100,1.54651220703125,0.008821096271276474,-1.7003703117370605,-2.507676124572754
1772797619356538000,1.5565380859375,-0.34655749797821045,-0.6553922891616821,-1.853452205657959
1772797619366564000,1.566564208984375,-0.7492719292640686,0.38587912917137146,-0.5072838664054871
1772797619376590800,1.5765908203125,-0.7044972777366638,0.9562509655952454,0.6589247584342957
1772797619386617000,1.5866171875,-0.24293820559978485,0.6184695363044739,1.2460997104644775
1772797619396644000,1.59664404296875,0.09069167822599411,-0.25897571444511414,1.484558343887329
1772797619406670000,1.606670166015625,0.13560935854911804,-1.149582862854004,1.5401239395141602
1772797619416696000,1.616696044921875,-0.04855755344033241,-1.6891249418258667,1.388245940208435
1772797619426723000,1.62672314453125,-0.4584942162036896,-1.720680832862854,1.0830283164978027
1772797619436749000,1.6367490234375,-0.8946928381919861,-1.3009296655654907,0.7258134484291077
1772797619446775300,1.646775390625,-1.2047983407974243,-0.7255646586418152,0.43634334206581116
1772797619456802000,1.656802001953125,-1.4076519012451172,-0.1652725785970688,0.28753867745399475
1772797619466828000,1.666828125,-1.5949167013168335,0.31099408864974976,0.23775196075439453
1772797619476855000,1.67685498046875,-1.745787262916565,0.744499146938324,0.3234191834926605
1772797619486881000,1.686881103515625,-1.8236749172210693,1.0915124416351318,0.5112397074699402
1772797619496907000,1.696906982421875,-1.8513792753219604,1.283522367477417,0.7673602104187012
1772797619506934300,1.706934326171875,-1.8466488122940063,1.3855146169662476,1.0486699342727661
1772797619516960300,1.716960205078125,-1.7863982915878296,1.3433599472045898,1.276340365409851
1772797619526986200,1.726986328125,-1.644059419631958,1.1099170446395874,1.3844547271728516
1772797619537013000,1.737012939453125,-1.4991188049316406,0.621796727180481,1.3179385662078857
1772797619547039000,1.7470390625,-1.4937704801559448,0.07317981123924255,1.015236496925354
1772797619557066000,1.75706591796875,-1.5098625421524048,-0.47149625420570374,0.6934755444526672
1772797619567092200,1.76709228515625,-1.4941295385360718,-0.9295627474784851,0.4958273768424988
1772797619577118200,1.7771181640625,-1.421637773513794,-1.1472148895263672,0.4417699873447418
1772797619587145200,1.787145263671875,-1.422080636024475,-1.2355165481567383,0.3738570213317871
1772797619597171000,1.7971708984375,-1.3984334468841553,-1.354507327079773,0.2228962779045105
1772797619607198000,1.807197998046875,-1.397782564163208,-1.466605305671692,-0.013101032935082912
1772797619617224000,1.817223876953125,-1.4201022386550903,-1.4811162948608398,-0.3578197956085205
1772797619627250200,1.827250244140625,-1.4444772005081177,-1.469239592552185,-0.7675997018814087
1772797619637277200,1.837277099609375,-1.4830656051635742,-1.477218747138977,-1.1062136888504028
1772797619647303400,1.847303466796875,-1.496405005455017,-1.3736443519592285,-1.3251030445098877
1772797619657329400,1.857329345703125,-1.5305432081222534,-1.2830393314361572,-1.4628944396972656
1772797619667356200,1.867356201171875,-1.5332303047180176,-1.231643557548523,-1.5531150102615356
1772797619677382100,1.877382080078125,-1.479087233543396,-1.1900502443313599,-1.6579159498214722
1772797619687409400,1.887409423828125,-1.4150390625,-1.084106206893921,-1.7200851440429688
1772797619697435400,1.897435302734375,-1.379838228225708,-0.8811949491500854,-1.7330206632614136
1772797619707461400,1.90746142578125,-1.3228256702423096,-0.6892389059066772,-1.749184012413025
1772797619717488400,1.91748828125,-1.2293827533721924,-0.5885823369026184,-1.7685641050338745
1772797619727514400,1.927514404296875,-1.127967357635498,-0.5549176931381226,-1.7900936603546143
1772797619737540400,1.937540283203125,-1.0491816997528076,-0.6049829721450806,-1.7807188034057617
1772797619747567400,1.9475673828125,-0.9818720817565918,-0.7188987731933594,-1.711575984954834
1772797619757593300,1.95759326171875,-0.9557230472564697,-0.8657377362251282,-1.6033365726470947
1772797619767620400,1.967620361328125,-0.9819865822792053,-0.8687574863433838,-1.5048209428787231
1772797619777646300,1.977646240234375,-1.0087625980377197,-0.6181809306144714,-1.4629230499267578
1772797619787672300,1.98767236328125,-0.985696017742157,-0.1522912234067917,-1.4948644638061523
1772797619797699300,1.99769921875,-1.0113426446914673,0.34478163719177246,-1.5713919401168823
1772797619807725300,2.007725341796875,-1.0416027307510376,0.5813782811164856,-1.5206691026687622
1772797619817751300,2.017751220703125,-1.0858404636383057,0.4686499238014221,-1.3276360034942627
1772797619827778300,2.0277783203125,-1.0972681045532227,0.06480050086975098,-1.0578837394714355
1772797619837804300,2.03780419921875,-1.2088979482650757,-0.19721725583076477,-0.7155485153198242
1772797619847831300,2.047831298828125,-1.509239912033081,-0.36358046531677246,-0.278123140335083
1772797619857857300,2.057857177734375,-1.6458160877227783,-0.3596363365650177,0.2947137653827667
1772797619867883500,2.067883544921875,-1.677734375,-0.42848166823387146,0.7306289672851562
1772797619877910300,2.07791015625,-1.796303391456604,-0.4309791922569275,0.7172135710716248
1772797619887936300,2.087936279296875,-1.884979486465454,-1.0371769666671753,0.06611140817403793
1772797619897962200,2.097962158203125,-1.545538067817688,-1.2265170812606812,-0.7157008051872253
1772797619907989200,2.1079892578125,-1.5643055438995361,-0.5562576651573181,-0.7137801647186279
1772797619918015200,2.11801513671875,-1.9131450653076172,0.27090126276016235,0.16377639770507812
1772797619928042500,2.12804248046875,-2.0941555500030518,0.9289445281028748,1.293768048286438
1772797619938068500,2.138068359375,-2.1553421020507812,1.2829444408416748,1.9425362348556519
1772797619948094500,2.148094482421875,-2.0071194171905518,1.2481449842453003,1.8674354553222656
1772797619958121200,2.158121337890625,-2.1145286560058594,0.7374466061592102,1.5287343263626099
1772797619968147200,2.168147216796875,-2.341066598892212,-0.2508372664451599,1.4100279808044434
1772797619978174500,2.178174560546875,-2.3285701274871826,-1.3572355508804321,1.5062267780303955
1772797619988200400,2.188200439453125,-2.364232063293457,-2.1484298706054688,1.6612519025802612
1772797619998226400,2.198226318359375,-2.3821613788604736,-2.580392360687256,1.762895941734314
1772797620008253400,2.20825341796875,-2.388366937637329,-2.6439919471740723,1.673890471458435
1772797620018279400,2.218279541015625,-2.3959903717041016,-2.1260228157043457,1.4704349040985107
1772797620028305400,2.228305419921875,-2.337453603744507,-1.3030619621276855,1.1884655952453613
1772797620038332200,2.238332275390625,-2.1701018810272217,-0.4927501678466797,0.857135534286499
1772797620048358400,2.2483583984375,-2.032423734664917,0.3183400630950928,0.7683326601982117
1772797620058385400,2.258385498046875,-1.886487364768982,0.6821497082710266,0.8278122544288635
1772797620068411400,2.268411376953125,-1.7660948038101196,1.0548806190490723,1.0535649061203003
1772797620078437400,2.278437255859375,-1.7056607007980347,1.115195870399475,1.2263009548187256
1772797620088464400,2.28846435546875,-1.6105774641036987,1.0498133897781372,1.270033359527588
1772797620098490000,2.298489990234375,-1.4926960468292236,0.883175253868103,1.120866060256958
1772797620108516000,2.30851611328125,-1.3380860090255737,0.660081148147583,0.8961244821548462
1772797620118543400,2.31854345703125,-1.2078608274459839,0.32318517565727234,0.6342989802360535
1772797620128569300,2.3285693359375,-1.1587910652160645,-0.07764213532209396,0.3868287205696106
1772797620138596400,2.338596435546875,-1.1287258863449097,-0.354401558637619,0.146135151386261
1772797620148622300,2.348622314453125,-1.0490880012512207,-0.44810250401496887,-0.04625906050205231
1772797620158648300,2.3586484375,-0.9151533246040344,-0.3521248400211334,-0.1188427209854126
1772797620168675300,2.36867529296875,-0.901889443397522,-0.26991844177246094,-0.1663350760936737
1772797620178701300,2.378701416015625,-0.9123924374580383,-0.33055195212364197,-0.28744739294052124
1772797620188727300,2.388727294921875,-0.9163721203804016,-0.47602561116218567,-0.41800838708877563
1772797620198754300,2.39875439453125,-0.9122162461280823,-0.5743777751922607,-0.5174127221107483
1772797620208780300,2.4087802734375,-0.8912895321846008,-0.759880006313324,-0.580501914024353
1772797620218807300,2.418807373046875,-0.8406223654747009,-0.9406790733337402,-0.6169659495353699
1772797620228833500,2.42883349609375,-0.7755193710327148,-1.0730093717575073,-0.6377319693565369
1772797620238859500,2.438859619140625,-0.7527749538421631,-1.127724051475525,-0.6748883724212646
1772797620248886300,2.44888623046875,-0.7686485052108765,-1.100051760673523,-0.7538007497787476
1772797620258912300,2.458912353515625,-0.8172879219055176,-1.0224862098693848,-0.857916533946991
1772797620268938200,2.468938232421875,-0.9151591062545776,-0.7705758810043335,-0.9829358458518982
1772797620278965200,2.47896533203125,-1.0451401472091675,-0.4705217480659485,-1.1483128070831299
1772797620288991200,2.4889912109375,-1.158825159072876,-0.291545569896698,-1.355821132659912
1772797620299018500,2.4990185546875,-1.2748249769210815,-0.18985649943351746,-1.5741947889328003
1772797620309044500,2.50904443359375,-1.3563870191574097,-0.18558433651924133,-1.7647103071212769
1772797620319070500,2.519070556640625,-1.4444881677627563,-0.28326165676116943,-1.8884024620056152
1772797620329097200,2.52909716796875,-1.5178788900375366,-0.4840247333049774,-1.9392820596694946
1772797620339123200,2.539123291015625,-1.5787736177444458,-0.7301015853881836,-1.9404128789901733
1772797620349150500,2.549150390625,-1.619313359260559,-0.9699538350105286,-1.8505200147628784
1772797620359176400,2.559176513671875,-1.6510409116744995,-1.171225666999817,-1.6564098596572876
1772797620369202400,2.569202392578125,-1.6647144556045532,-1.3362345695495605,-1.4243525266647339
1772797620379229200,2.579229248046875,-1.6219558715820312,-1.3691905736923218,-1.2067749500274658
1772797620389255200,2.589255126953125,-1.6254348754882812,-1.3306254148483276,-1.1310451030731201
1772797620399281200,2.59928125,-1.6603918075561523,-1.2690409421920776,-1.2061973810195923
1772797620409308400,2.609308349609375,-1.7015427350997925,-1.2084801197052002,-1.2918474674224854
1772797620419334400,2.61933447265625,-1.6655921936035156,-1.2185304164886475,-1.4784184694290161
1772797620429361400,2.629361328125,-1.5580552816390991,-1.7152197360992432,-1.5180855989456177
1772797620439387400,2.639387451171875,-1.392640471458435,-2.0328927040100098,-1.4941959381103516
1772797620449413400,2.649413330078125,-1.3523138761520386,-2.36462140083313,-1.6994789838790894
1772797620459440000,2.659440185546875,-1.5602151155471802,-2.2493538856506348,-1.6646413803100586
1772797620469466400,2.66946630859375,-1.7579569816589355,-1.1980183124542236,-0.7958792448043823
1772797620479492400,2.679492431640625,-2.036656379699707,0.22772882878780365,0.4994966387748718
1772797620489519400,2.689519287109375,-2.3477323055267334,1.006163477897644,1.348576307296753
1772797620499545300,2.69954541015625,-2.4822275638580322,1.138474941253662,1.592984914779663
1772797620509572400,2.709572265625,-2.481790065765381,1.036805510520935,1.596176266670227
1772797620519598300,2.719598388671875,-2.465721607208252,0.8739187121391296,1.701460838317871
1772797620529624300,2.729624267578125,-2.4226577281951904,0.1251828968524933,1.9285802841186523
1772797620539651300,2.7396513671875,-2.4384169578552246,-0.5223225951194763,2.097355842590332
1772797620549677300,2.74967724609375,-2.5213165283203125,-0.8833720684051514,2.0555272102355957
1772797620559703300,2.759703369140625,-2.6947951316833496,-1.084242820739746,1.8979145288467407
1772797620569730300,2.769730224609375,-2.9425745010375977,-0.9473119378089905,1.6303976774215698
1772797620579756300,2.77975634765625,-3.0927698612213135,-0.5724083781242371,1.2779672145843506
1772797620589783600,2.789783447265625,-3.1076042652130127,-0.23601952195167542,0.9732106924057007
1772797620599809500,2.7998095703125,-3.095226764678955,0.03869326785206795,0.8585493564605713
1772797620609835300,2.809835205078125,-3.060901403427124,0.2721015512943268,0.951241135597229
1772797620619862300,2.8198623046875,-2.948369264602661,0.43839067220687866,1.1415847539901733
1772797620629888300,2.82988818359375,-2.7734897136688232,0.5303115248680115,1.3512907028198242
1772797620639913700,2.839913818359375,-2.5769410133361816,0.503971517086029,1.525391936302185
1772797620649940700,2.849940673828125,-2.3972175121307373,0.38091692328453064,1.6483750343322754
1772797620659967000,2.859967041015625,-2.2507739067077637,0.19899557530879974,1.7480177879333496
1772797620669994000,2.869993896484375,-2.1572232246398926,0.024290472269058228,1.772065281867981
1772797620680020000,2.88002001953125,-2.1116063594818115,-0.08538568764925003,1.7159748077392578
1772797620690046000,2.8900458984375,-2.0606398582458496,-0.1572580486536026,1.5745644569396973
1772797620700072700,2.90007275390625,-1.9827018976211548,-0.2917620837688446,1.3707208633422852
1772797620710098700,2.9100986328125,-1.8869495391845703,-0.5005088448524475,1.1142061948776245
1772797620720124700,2.920124755859375,-1.7874248027801514,-0.7779156565666199,0.7889609932899475
1772797620730152000,2.93015185546875,-1.709786057472229,-1.0699083805084229,0.4639085531234741
1772797620740178000,2.940177978515625,-1.6742885112762451,-1.3870338201522827,0.18239431083202362
1772797620750205000,2.950204833984375,-1.682076334953308,-1.67026686668396,-0.08856119215488434
1772797620760230700,2.960230712890625,-1.6830377578735352,-1.890080451965332,-0.32785072922706604
1772797620770256600,2.970256591796875,-1.680195689201355,-2.037649631500244,-0.5499280095100403
1772797620780284000,2.980283935546875,-1.6735260486602783,-2.1253302097320557,-0.7572303414344788
1772797620790310000,2.990309814453125,-1.6615231037139893,-2.1501927375793457,-0.9629167914390564
1772797620800336000,3.0003359375,-1.6527222394943237,-2.1222333908081055,-1.1661827564239502
1772797620810363000,3.01036279296875,-1.6654508113861084,-2.0498266220092773,-1.3591337203979492
1772797620820388900,3.020388916015625,-1.6946969032287598,-1.9590290784835815,-1.5572729110717773
1772797620830415600,3.03041552734375,-1.7450652122497559,-1.8376996517181396,-1.753473162651062
1772797620840441900,3.04044189453125,-1.8317334651947021,-1.6227868795394897,-1.9476120471954346
1772797620850467800,3.0504677734375,-1.9402543306350708,-1.4039684534072876,-2.149169445037842
1772797620860494800,3.060494873046875,-2.0229804515838623,-1.2683321237564087,-2.330552816390991
1772797620870520800,3.070520751953125,-2.074241876602173,-1.1884546279907227,-2.4698004722595215
1772797620880546800,3.080546875,-2.1105804443359375,-1.1740999221801758,-2.574558734893799
1772797620890573800,3.09057373046875,-2.122838020324707,-1.2139122486114502,-2.6189358234405518
1772797620900599800,3.100599853515625,-2.12967848777771,-1.319918155670166,-2.5812368392944336
1772797620910626800,3.110626708984375,-2.1666324138641357,-1.4163413047790527,-2.4860384464263916
1772797620920652800,3.12065283203125,-2.2175517082214355,-1.4512335062026978,-2.3805596828460693
1772797620930678800,3.1306787109375,-2.3186678886413574,-1.4086769819259644,-2.303560256958008
1772797620940705800,3.140705810546875,-2.475623369216919,-1.2792994976043701,-2.303039073944092
1772797620950731800,3.150731689453125,-2.628288507461548,-1.0401945114135742,-2.4032208919525146
1772797620960757800,3.1607578125,-2.784846305847168,-0.65140300989151,-2.6321680545806885
1772797620970785000,3.170784912109375,-2.9303574562072754,-0.18707610666751862,-2.912013053894043
1772797620980811000,3.18081103515625,-2.9772047996520996,0.22073853015899658,-3.1872706413269043
1772797620990837800,3.190837646484375,-2.867753028869629,0.1265278160572052,-3.4487154483795166
1772797621000863700,3.20086376953125,-2.6212706565856934,-0.8817324042320251,-3.595428705215454
1772797621010889700,3.2108896484375,-2.5903444290161133,-2.158458709716797,-3.46240496635437
1772797621020917000,3.2209169921875,-2.6637136936187744,-2.7818756103515625,-2.864994764328003
1772797621030943000,3.23094287109375,-2.812633991241455,-1.9731618165969849,-1.8817064762115479
1772797621040969000,3.240968994140625,-2.9172375202178955,0.16777393221855164,-0.7979390025138855
1772797621050995700,3.25099560546875,-3.133406162261963,2.2150793075561523,0.1508244276046753
1772797621061021700,3.261021728515625,-3.2727580070495605,3.4049952030181885,0.7582430243492126
1772797621071048700,3.271048583984375,-3.226170301437378,3.3709945678710938,1.2569040060043335
1772797621081074700,3.28107470703125,-3.0470924377441406,2.5480151176452637,1.760630488395691
1772797621091101000,3.291100830078125,-2.758890151977539,1.5672218799591064,2.137929677963257
1772797621101128000,3.3011279296875,-2.523379325866699,0.5427583456039429,2.401385545730591
1772797621111154000,3.31115380859375,-2.446643590927124,-0.3163929581642151,2.5535600185394287
1772797621121180000,3.321179931640625,-2.42677903175354,-0.8943313956260681,2.5359253883361816
1772797621131206700,3.33120654296875,-2.45605206489563,-1.0888315439224243,2.286774158477783
1772797621141232600,3.341232666015625,-2.481928586959839,-0.8231042623519897,1.91205894947052
1772797621151260000,3.351260009765625,-2.5622291564941406,-0.42723149061203003,1.5628877878189087
1772797621161286000,3.361285888671875,-2.6626837253570557,-0.03456462174654007,1.3809020519256592
1772797621171311900,3.371311767578125,-2.7046611309051514,0.3271290957927704,1.2834079265594482
1772797621181339000,3.3813388671875,-2.686245918273926,0.5658474564552307,1.17328679561615
1772797621191364900,3.39136474609375,-2.6326632499694824,0.7058718204498291,1.108214020729065
1772797621201390800,3.401390869140625,-2.5395984649658203,0.7013651728630066,1.185988426208496
1772797621211417900,3.41141796875,-2.429718017578125,0.549437940120697,1.361196756362915
1772797621221443800,3.42144384765625,-2.2829549312591553,0.3110608160495758,1.5882261991500854
1772797621231469800,3.4314697265625,-2.1161160469055176,0.05949516221880913,1.8452532291412354
1772797621241496800,3.441496826171875,-1.9634300470352173,-0.17164139449596405,2.085780620574951
1772797621251522800,3.451522705078125,-1.8252737522125244,-0.3678821623325348,2.2462072372436523
1772797621261549800,3.4615498046875,-1.712633728981018,-0.4767042398452759,2.293832302093506
1772797621271575800,3.471575927734375,-1.654534101486206,-0.48966294527053833,2.1529765129089355
1772797621281601800,3.481601806640625,-1.6339657306671143,-0.4256932735443115,1.8286235332489014
1772797621291628800,3.49162890625,-1.5716661214828491,-0.35345888137817383,1.4540244340896606
1772797621301654800,3.50165478515625,-1.4941869974136353,-0.34809714555740356,1.1012139320373535
1772797621311680800,3.5116806640625,-1.4481217861175537,-0.3971129059791565,0.7640726566314697
1772797621321707800,3.521707763671875,-1.4500999450683594,-0.5561462044715881,0.4708532392978668
1772797621331734000,3.531734130859375,-1.485589623451233,-0.7741641402244568,0.19675412774085999
1772797621341760800,3.5417607421875,-1.539610743522644,-0.9699407815933228,-0.08949095010757446
1772797621351786800,3.551786865234375,-1.595575213432312,-1.0624090433120728,-0.35518959164619446
1772797621361812700,3.561812744140625,-1.6775214672088623,-1.0660415887832642,-0.6298299431800842
1772797621371839700,3.57183984375,-1.7728564739227295,-1.0264631509780884,-0.8965198993682861
1772797621381865700,3.58186572265625,-1.8425577878952026,-0.9254424571990967,-1.1210204362869263
1772797621391891700,3.5918916015625,-1.8903688192367554,-0.8214091062545776,-1.3031412363052368
1772797621401919000,3.6019189453125,-1.9161235094070435,-0.7649069428443909,-1.4035354852676392
1772797621411945000,3.611945068359375,-1.9320049285888672,-0.8023290038108826,-1.4295600652694702
1772797621421971700,3.6219716796875,-1.9600778818130493,-0.9388365149497986,-1.407313346862793
1772797621431997700,3.631997802734375,-2.005685806274414,-1.1313848495483398,-1.4054038524627686
1772797621442023700,3.642023681640625,-2.0342397689819336,-1.2498973608016968,-1.4505609273910522
1772797621452051000,3.652051025390625,-2.004314422607422,-1.2581770420074463,-1.5051573514938354
1772797621462077000,3.662076904296875,-1.9594568014144897,-1.2711901664733887,-1.5412216186523438
1772797621472103000,3.67210302734375,-1.89480459690094,-1.344167709350586,-1.5215857028961182
1772797621482130000,3.6821298828125,-1.828741431236267,-1.4239946603775024,-1.458635926246643
1772797621492156000,3.692156005859375,-1.8183796405792236,-1.4467447996139526,-1.393913745880127
1772797621502182000,3.702181884765625,-1.8406380414962769,-1.3713585138320923,-1.3454267978668213
1772797621512209000,3.712208984375,-1.8720144033432007,-1.2479828596115112,-1.3581279516220093
1772797621522235000,3.72223486328125,-1.8953378200531006,-1.1005748510360718,-1.372048020362854
1772797621532262000,3.732261962890625,-1.896974802017212,-0.9660531282424927,-1.3618204593658447
1772797621542288000,3.742287841796875,-1.900262475013733,-0.7913894057273865,-1.362617015838623
1772797621552313900,3.75231396484375,-1.8651260137557983,-0.6737512946128845,-1.3865606784820557
1772797621562340900,3.7623408203125,-1.7863105535507202,-0.4997459650039673,-1.35075843334198
1772797621572366600,3.77236669921875,-1.6627527475357056,-0.4028858244419098,-1.4808802604675293
1772797621582392800,3.782392822265625,-1.557655692100525,-0.42752698063850403,-2.0031676292419434
1772797621592419800,3.792419921875,-1.5267001390457153,-0.7290271520614624,-2.8134734630584717
1772797621602445800,3.80244580078125,-1.6122031211853027,-1.1905170679092407,-3.1051247119903564
1772797621612472800,3.812472900390625,-1.8516675233840942,-1.6858500242233276,-2.246306896209717
1772797621622498800,3.822498779296875,-1.7846307754516602,-1.788313865661621,-0.09859336912631989
1772797621632524800,3.83252490234375,-1.9298429489135742,-1.922730565071106,2.042536497116089
1772797621642552000,3.842552001953125,-1.9440232515335083,-1.9397395849227905,3.0639097690582275
1772797621652578000,3.852578125,-1.7840317487716675,-1.7133220434188843,3.260841131210327
1772797621662604000,3.86260400390625,-1.6955136060714722,-1.4210050106048584,3.086508274078369
1772797621672631000,3.872631103515625,-1.775399088859558,-1.211588978767395,2.77923583984375
1772797621682657000,3.882656982421875,-1.9360238313674927,-1.1354142427444458,2.39035964012146
1772797621692683000,3.89268310546875,-2.1137614250183105,-1.002564787864685,1.9310388565063477
1772797621702710300,3.902710205078125,-2.279719352722168,-0.6252463459968567,1.473415732383728
1772797621712736300,3.912736328125,-2.4028546810150146,-0.21603094041347504,1.055489182472229
1772797621722763000,3.922762939453125,-2.4515786170959473,0.1822298914194107,0.7261223793029785
1772797621732789000,3.9327890625,-2.4289815425872803,0.6337044835090637,0.5638402104377747
1772797621742815000,3.94281494140625,-2.307800769805908,1.0141681432724,0.5517971515655518
1772797621752842200,3.95284228515625,-2.1356914043426514,1.3578572273254395,0.6600165963172913
1772797621762868200,3.9628681640625,-1.7966910600662231,1.3068708181381226,0.8699669241905212
1772797621772894200,3.972894287109375,-1.4438902139663696,1.1487306356430054,1.1258939504623413
1772797621782921000,3.9829208984375,-1.168610692024231,1.1256135702133179,1.2413052320480347
1772797621792947000,3.992947021484375,-0.858177125453949,0.9874956011772156,1.2586852312088013
1772797621802974000,4.002973876953125,-0.6457532644271851,0.6256292462348938,1.2022507190704346
1772797621813000000,4.013,-0.5405595898628235,0.11914075165987015,1.0593384504318237
1772797621823026200,4.023026123046875,-0.45780661702156067,-0.3371173143386841,0.8834131360054016
1772797621833053200,4.03305322265625,-0.4193594753742218,-0.6711353659629822,0.6846188902854919
1772797621843079200,4.0430791015625,-0.4205230176448822,-0.8489588499069214,0.5144413113594055
1772797621853105200,4.053105224609375,-0.4440256953239441,-0.965147852897644,0.37078043818473816
1772797621863132000,4.0631318359375,-0.473884254693985,-1.059676170349121,0.2326073944568634
1772797621873158000,4.073157958984375,-0.5186842679977417,-1.1875522136688232,0.06992363929748535
1772797621883184000,4.08318408203125,-0.5593512654304504,-1.145564079284668,-0.18449851870536804
1772797621893211100,4.093211181640625,-0.5635254383087158,-0.8714516162872314,-0.5507816076278687
1772797621903237000,4.103237060546875,-0.5554099678993225,-0.6432123184204102,-0.9249395132064819
1772797621913264000,4.11326416015625,-0.5523445010185242,-0.46662434935569763,-1.246151089668274
1772797621923290000,4.1232900390625,-0.533833384513855,-0.35248473286628723,-1.493290662765503
1772797621933316000,4.133316162109375,-0.5195857286453247,-0.3192346692085266,-1.6548792123794556
1772797621943343000,4.143343017578125,-0.4980761706829071,-0.3261096179485321,-1.739279866218567
1772797621953369000,4.153369140625,-0.5138680934906006,-0.354037880897522,-1.7754707336425781
1772797621963395000,4.16339501953125,-0.6075890064239502,-0.4331457316875458,-1.7799512147903442
1772797621973422000,4.173422119140625,-0.7144673466682434,-0.5316073298454285,-1.7964637279510498
1772797621983448000,4.183447998046875,-0.8097112774848938,-0.6169967651367188,-1.840430498123169
1772797621993475000,4.19347509765625,-0.9107131361961365,-0.6488061547279358,-1.8534319400787354
1772797622003501000,4.2035009765625,-1.012439489364624,-0.6234486103057861,-1.8282525539398193
1772797622013527000,4.213527099609375,-1.1125959157943726,-0.5647693872451782,-1.7386220693588257
1772797622023554000,4.223553955078125,-1.2133287191390991,-0.4633219242095947,-1.6498773097991943
1772797622033580000,4.233580078125,-1.2870128154754639,-0.37234780192375183,-1.601809024810791
1772797622043606000,4.24360595703125,-1.355970859527588,-0.3097323477268219,-1.566470980644226
1772797622053633000,4.253633056640625,-1.4430941343307495,-0.3456668555736542,-1.5264812707901
1772797622063659300,4.2636591796875,-1.5110869407653809,-0.5053531527519226,-1.4463180303573608
1772797622073685200,4.273685302734375,-1.592032790184021,-0.7352882027626038,-1.3133249282836914
1772797622083712000,4.2837119140625,-1.6840742826461792,-0.921017050743103,-1.291076898574829
1772797622093738000,4.293738037109375,-1.727128028869629,-1.0288811922073364,-1.3509901762008667
1772797622103764000,4.303763916015625,-1.8087658882141113,-0.8869198560714722,-1.4979920387268066
1772797622113791000,4.313791015625,-1.9399219751358032,-0.6441659927368164,-1.800886631011963
1772797622123817000,4.32381689453125,-1.9511346817016602,-0.7522304058074951,-2.3968613147735596
1772797622133844200,4.33384423828125,-1.7247734069824219,-1.5345768928527832,-3.160954236984253
1772797622143870200,4.3438701171875,-1.536490797996521,-2.217628240585327,-3.377786874771118
1772797622153896200,4.353896240234375,-1.8946621417999268,-1.8508257865905762,-1.873100757598877
1772797622163923000,4.3639228515625,-2.1764159202575684,-0.0003779083490371704,0.4499117434024811
1772797622173949000,4.373948974609375,-1.9464668035507202,1.8470696210861206,1.7494807243347168
1772797622183975000,4.383974853515625,-1.752059817314148,2.943127155303955,2.055281162261963
1772797622194002200,4.394002197265625,-1.4718564748764038,2.927450180053711,2.0121021270751953
1772797622204028200,4.404028076171875,-1.162947177886963,1.6393245458602905,2.311310291290283
1772797622214055200,4.41405517578125,-1.0354156494140625,-0.1377021223306656,3.173401355743408
1772797622224081200,4.4240810546875,-1.0666600465774536,-1.4904072284698486,3.8742153644561768
1772797622234107100,4.434107177734375,-1.2802112102508545,-1.8066929578781128,3.85551381111145
1772797622244134100,4.444134033203125,-1.6310945749282837,-1.2576366662979126,3.235478639602661
1772797622254160100,4.45416015625,-2.0025393962860107,-0.4099506735801697,2.486646890640259
1772797622264186000,4.46418603515625,-2.2793407440185547,0.3083941638469696,1.9822587966918945
1772797622274213000,4.474213134765625,-2.4433887004852295,0.8747789859771729,1.7704799175262451
1772797622284239000,4.484239013671875,-2.4099857807159424,1.377892017364502,1.6500575542449951
1772797622294265000,4.49426513671875,-2.2662644386291504,1.840267300605774,1.6189053058624268
1772797622304291800,4.504291748046875,-1.980009913444519,2.0476772785186768,1.615090012550354
1772797622314318000,4.514318115234375,-1.6529046297073364,2.0077595710754395,1.6527291536331177
1772797622324345000,4.524344970703125,-1.361856460571289,1.8140791654586792,1.7067090272903442
1772797622334371000,4.53437109375,-1.1216598749160767,1.4627388715744019,1.7379623651504517
1772797622344397000,4.54439697265625,-0.9793453216552734,1.190895676612854,1.6831321716308594
1772797622354424000,4.554424072265625,-0.8706409335136414,1.0368356704711914,1.5693331956863403
1772797622364450000,4.564449951171875,-0.8279517889022827,0.9564968943595886,1.4120572805404663
1772797622374476300,4.574476318359375,-0.8481472134590149,0.8319762349128723,1.1849868297576904
1772797622384503000,4.5845029296875,-0.8719292879104614,0.5330550670623779,0.9062340259552002
1772797622394529000,4.594529052734375,-0.8989942073822021,0.13064509630203247,0.6406891345977783
1772797622404555000,4.604554931640625,-0.9187157154083252,-0.3324146866798401,0.4550076723098755
1772797622414582000,4.61458203125,-0.9505440592765808,-0.7826181650161743,0.3537481427192688
1772797622424608000,4.62460791015625,-0.9859734177589417,-1.1043299436569214,0.25905945897102356
1772797622434634000,4.634634033203125,-0.9976562261581421,-1.2742552757263184,0.12234611064195633
1772797622444661200,4.6446611328125,-1.0111881494522095,-1.3163399696350098,-0.07099752128124237
1772797622454687200,4.654687255859375,-1.012096881866455,-1.2359575033187866,-0.30262359976768494
1772797622464714000,4.6647138671875,-1.034887433052063,-1.1104203462600708,-0.5729618668556213
1772797622474740000,4.674739990234375,-1.0939624309539795,-0.9871211647987366,-0.8431605696678162
1772797622484766000,4.684765869140625,-1.1807801723480225,-0.9466980695724487,-1.0830367803573608
1772797622494793200,4.694793212890625,-1.2799679040908813,-0.9764807224273682,-1.272334337234497
1772797622504819200,4.704819091796875,-1.3476483821868896,-1.0391885042190552,-1.4003772735595703
1772797622514845200,4.71484521484375,-1.3953311443328857,-1.1272077560424805,-1.4623709917068481
1772797622524872200,4.7248720703125,-1.4323527812957764,-1.234861969947815,-1.493005394935608
1772797622534898000,4.73489794921875,-1.4240059852600098,-1.3168938159942627,-1.5128872394561768
1772797622544924000,4.744923828125,-1.4209707975387573,-1.3424323797225952,-1.4945578575134277
1772797622554951200,4.754951171875,-1.4236276149749756,-1.3613361120224,-1.401288628578186
1772797622564977200,4.76497705078125,-1.4501957893371582,-1.3761265277862549,-1.23513662815094
1772797622575004200,4.775004150390625,-1.498860239982605,-1.3142352104187012,-1.0765310525894165
1772797622585030100,4.785030029296875,-1.6008586883544922,-1.0556334257125854,-1.0939792394638062
1772797622595056000,4.79505615234375,-1.7669726610183716,-0.6713651418685913,-1.3241897821426392
1772797622605083000,4.805082763671875,-1.9763331413269043,-0.2530094087123871,-1.7184945344924927
1772797622615108900,4.81510888671875,-2.1782138347625732,0.012089887633919716,-2.1796860694885254
1772797622625135000,4.825135009765625,-2.294729232788086,0.1307598054409027,-2.5441977977752686
1772797622635162000,4.835162109375,-2.338378667831421,-0.04002147540450096,-2.695782423019409
1772797622645187600,4.8451875,-2.226083755493164,-0.6761156320571899,-2.576199531555176
1772797622655213600,4.855213623046875,-1.9704806804656982,-1.462890386581421,-2.313469409942627
1772797622665240600,4.865240478515625,-1.5688233375549316,-1.979040265083313,-2.3605499267578125
1772797622675266600,4.8752666015625,-1.043101191520691,-2.0495660305023193,-2.7775189876556396
1772797622685293600,4.88529345703125,-0.6824951171875,-2.3904459476470947,-2.4998116493225098
1772797622695319600,4.895319580078125,-0.723861038684845,-2.256612777709961,-1.4365071058273315
1772797622705345500,4.905345458984375,-0.8978296518325806,-1.2995808124542236,-0.23163308203220367
1772797622715372500,4.91537255859375,-1.15385103225708,-0.025281764566898346,0.5494590997695923
1772797622725398500,4.9253984375,-1.3277958631515503,0.5638678073883057,0.8673797845840454
1772797622735424500,4.935424560546875,-1.4064104557037354,0.4512481987476349,1.050399661064148
1772797622745451800,4.94545166015625,-1.3759644031524658,0.1473969668149948,1.1751192808151245
1772797622755477800,4.955477783203125,-1.380628228187561,-0.28439024090766907,1.1692249774932861
1772797622765503700,4.965503662109375,-1.4948480129241943,-0.6985027194023132,1.0183840990066528
1772797622775530500,4.975530517578125,-1.584778070449829,-0.7939708232879639,0.8703516721725464
1772797622785556500,4.985556396484375,-1.628932237625122,-0.6549556255340576,0.8161904215812683
1772797622795582500,4.99558251953125,-1.6639378070831299,-0.39537057280540466,0.8798398971557617
1772797622805609500,5.005609375,-1.6851218938827515,-0.1115119457244873,1.0467718839645386
1772797622815635700,5.0156357421875,-1.710074543952942,0.19468335807323456,1.2784274816513062
1772797622825662700,5.025662841796875,-1.7194116115570068,0.5397017002105713,1.530981183052063
1772797622835688700,5.035688720703125,-1.6793216466903687,0.8700776100158691,1.7561246156692505
1772797622845714700,5.045714599609375,-1.56364107131958,1.0085241794586182,1.995788335800171
1772797622855741400,5.055741455078125,-1.4432685375213623,0.8523043990135193,2.2197048664093018
1772797622865767400,5.065767333984375,-1.3227757215499878,0.5046579837799072,2.399902105331421
1772797622875793700,5.075793701171875,-1.2331743240356445,0.11932654678821564,2.483048439025879
1772797622885820700,5.085820556640625,-1.1643673181533813,-0.19248487055301666,2.4222195148468018
1772797622895846700,5.0958466796875,-1.0753237009048462,-0.3512393832206726,2.241776704788208
1772797622905872600,5.10587255859375,-0.9810517430305481,-0.3611053228378296,2.0302135944366455
1772797622915899400,5.1158994140625,-0.9471554160118103,-0.3349069654941559,1.8865197896957397
1772797622925925400,5.12592529296875,-1.0362123250961304,-0.3856883943080902,1.626983880996704
1772797622935951400,5.135951416015625,-1.1310954093933105,-0.3712562918663025,1.3209457397460938
1772797622945978600,5.145978515625,-1.1943632364273071,-0.28271764516830444,0.9467163681983948
1772797622956004600,5.156004638671875,-1.2981224060058594,-0.16031308472156525,0.529373288154602
1772797622966031600,5.166031494140625,-1.3952977657318115,-0.0717102438211441,0.1507287472486496
1772797622976057600,5.1760576171875,-1.466351866722107,-0.010672392323613167,-0.17884096503257751
1772797622986083600,5.18608349609375,-1.490330696105957,-0.005056851543486118,-0.4870789349079132
1772797622996110600,5.196110595703125,-1.5081363916397095,-0.12173966318368912,-0.7455688118934631
1772797623006136600,5.206136474609375,-1.5827648639678955,-0.37844017148017883,-0.9276792407035828
1772797623016162600,5.21616259765625,-1.5647368431091309,-0.6385138630867004,-1.0213441848754883
1772797623026189600,5.226189453125,-1.4775111675262451,-0.8789211511611938,-1.0441416501998901
1772797623036215600,5.236215576171875,-1.423340082168579,-1.1119682788848877,-0.9635820984840393
1772797623046241500,5.246241455078125,-1.3553186655044556,-1.2811628580093384,-0.8378960490226746
1772797623056268800,5.256268798828125,-1.2992651462554932,-1.3369601964950562,-0.6979088187217712
1772797623066294800,5.266294677734375,-1.2292485237121582,-1.315506100654602,-0.6199682354927063
1772797623076321500,5.276321533203125,-1.1961711645126343,-1.1913626194000244,-0.6437774300575256
1772797623086347500,5.286347412109375,-1.2203328609466553,-0.9655861258506775,-0.7583702802658081
1772797623096373500,5.29637353515625,-1.347353458404541,-0.6792934536933899,-0.9820828437805176
1772797623106400500,5.306400390625,-1.3943520784378052,-0.34781941771507263,-1.2375154495239258
1772797623116426500,5.316426513671875,-1.4141908884048462,-0.0700613334774971,-1.3722013235092163
1772797623126452700,5.32645263671875,-1.3673815727233887,0.06707441806793213,-1.396348476409912
1772797623136479700,5.336479736328125,-1.3128395080566406,0.038079243153333664,-1.3014919757843018
1772797623146505500,5.34650537109375,-1.2602790594100952,-0.12414854019880295,-1.086830735206604
1772797623156531500,5.356531494140625,-1.1506741046905518,-0.44266530871391296,-0.7883280515670776
1772797623166558500,5.366558349609375,-1.092460036277771,-0.7899731397628784,-0.5733805894851685
1772797623176584400,5.37658447265625,-1.0233582258224487,-1.0005275011062622,-0.5061293244361877
1772797623186610400,5.3866103515625,-0.9794403314590454,-1.0031781196594238,-0.5371679663658142
1772797623196637700,5.3966376953125,-0.9387340545654297,-0.821406900882721,-0.5937095284461975
1772797623206663700,5.40666357421875,-0.876346230506897,-0.5771457552909851,-0.6629820466041565
1772797623216689700,5.416689697265625,-0.7564373016357422,-0.07260122895240784,-0.693443238735199
1772797623226716400,5.42671630859375,-0.7576178908348083,0.6850616931915283,-0.811124861240387
1772797623236742400,5.436742431640625,-0.7737491726875305,1.0842671394348145,-1.074778437614441
1772797623246769700,5.446769775390625,-0.8176183700561523,0.5304484367370605,-1.6440768241882324
1772797623256795600,5.456795654296875,-0.8706097602844238,-0.4894993007183075,-2.4983811378479004
1772797623266821600,5.466821533203125,-0.9539645910263062,-1.3326808214187622,-3.019643783569336
1772797623276848600,5.4768486328125,-0.7724754214286804,-1.8717926740646362,-2.1888952255249023
1772797623286874600,5.48687451171875,-0.5145238041877747,-1.558164119720459,-0.06866785138845444
1772797623296900600,5.496900634765625,-0.3804222047328949,-0.9215700626373291,2.1068873405456543
1772797623306927600,5.506927734375,-0.17059575021266937,-0.49520251154899597,3.2168383598327637
1772797623316953600,5.51695361328125,0.2254950851202011,-0.24643126130104065,3.384885787963867
1772797623326979600,5.5269794921875,0.27373746037483215,-0.09508168697357178,2.9622178077697754
1772797623337006600,5.537006591796875,0.1028338074684143,-0.018943388015031815,2.4580485820770264
1772797623347032600,5.547032470703125,-0.04609255492687225,0.06736193597316742,2.1598122119903564
1772797623357058600,5.55705859375,-0.10819891840219498,0.05660262703895569,2.043701648712158
1772797623367085600,5.56708544921875,-0.12419385462999344,-0.06889057904481888,1.9691572189331055
1772797623377111600,5.577111572265625,-0.18205370008945465,-0.17106550931930542,1.9085487127304077
1772797623387137500,5.587137451171875,-0.3045346140861511,-0.1766994297504425,1.8663280010223389
1772797623397164500,5.59716455078125,-0.445224404335022,-0.03326369449496269,1.766791820526123
1772797623407190500,5.6071904296875,-0.5617281198501587,0.2664306163787842,1.593063473701477
1772797623417217500,5.617217529296875,-0.647314190864563,0.6205219626426697,1.386946678161621
1772797623427243500,5.627243408203125,-0.6543982028961182,0.8967477083206177,1.2684913873672485
1772797623437269800,5.637269775390625,-0.5744674205780029,0.9620971083641052,1.2261335849761963
1772797623447296500,5.647296630859375,-0.4275352656841278,0.8171721696853638,1.2080731391906738
1772797623457322500,5.657322509765625,-0.16602668166160583,0.5948420763015747,1.2554219961166382
1772797623467348500,5.667348388671875,-0.054719600826501846,0.22251594066619873,1.3256109952926636
1772797623477375500,5.67737548828125,0.012886492535471916,-0.10972366482019424,1.3295586109161377
1772797623487401500,5.6874013671875,0.04372909292578697,-0.3297351002693176,1.1770800352096558
1772797623497427500,5.697427490234375,-0.005272689275443554,-0.4246937036514282,0.925611674785614
1772797623507454700,5.707454833984375,-0.111452117562294,-0.4239083528518677,0.6419548988342285
1772797623517480700,5.717480712890625,-0.23739901185035706,-0.35069531202316284,0.3568093776702881
1772797623527506700,5.727506591796875,-0.3362393081188202,-0.2292759269475937,0.04887179285287857
1772797623537533400,5.737533447265625,-0.3784153461456299,-0.1093890368938446,-0.29109981656074524
1772797623547559400,5.747559326171875,-0.4346109628677368,-0.06584955006837845,-0.5781326293945312
1772797623557586700,5.757586669921875,-0.5615962743759155,-0.1785452663898468,-0.8828459978103638
1772797623567612700,5.76761279296875,-0.5499047040939331,-0.13262225687503815,-1.2293243408203125
1772797623577638700,5.777638671875,-0.5649200677871704,-0.11920744925737381,-1.5894792079925537
1772797623587665700,5.787665771484375,-0.577122688293457,-0.15061330795288086,-1.8985249996185303
1772797623597691600,5.797691650390625,-0.5964986085891724,-0.1688036173582077,-2.1297895908355713
1772797623607717600,5.807717529296875,-0.6274935603141785,-0.22268415987491608,-2.2678964138031006
1772797623617744600,5.81774462890625,-0.6775676012039185,-0.2565024495124817,-2.3166086673736572
1772797623627770600,5.8277705078125,-0.7386882305145264,-0.29080742597579956,-2.2943179607391357
1772797623637796600,5.837796630859375,-0.7984846234321594,-0.3509882390499115,-2.2345638275146484
1772797623647824100,5.84782421875,-0.7715933322906494,-0.4561990797519684,-2.1484673023223877
1772797623657850000,5.85785009765625,-0.5872423052787781,-0.5435650944709778,-1.9697736501693726
1772797623667876000,5.8678759765625,-0.5487814545631409,-0.7105005979537964,-1.80991530418396
1772797623677902800,5.87790283203125,-0.5640078783035278,-0.7355150580406189,-1.630318522453308
1772797623687928800,5.8879287109375,-0.5954150557518005,-0.624093234539032,-1.5992985963821411
1772797623697954800,5.897954833984375,-0.5967484712600708,-0.4354110062122345,-1.7276041507720947
1772797623707982000,5.907982177734375,-0.5589068531990051,-0.20036762952804565,-1.905852198600769
1772797623718008000,5.918008056640625,-0.48289042711257935,0.0322202667593956,-2.025444507598877
1772797623728034000,5.928033935546875,-0.42142146825790405,0.1724519431591034,-2.0101840496063232
1772797623738061000,5.93806103515625,-0.40985384583473206,0.19686941802501678,-1.7987425327301025
1772797623748087000,5.948087158203125,-0.4216463267803192,0.16131383180618286,-1.4431051015853882
1772797623758113800,5.95811376953125,-0.3799353837966919,0.072482168674469,-1.1149400472640991
1772797623768139800,5.968139892578125,-0.24267368018627167,-0.1950741857290268,-0.9034625887870789
1772797623778166000,5.978166015625,-0.058699313551187515,-0.6131406426429749,-0.8469652533531189
1772797623788193000,5.988193115234375,0.19816575944423676,-0.9461074471473694,-0.9160878658294678
1772797623798219000,5.998218994140625,0.4433300197124481,-1.0602567195892334,-1.1079683303833008
1772797623808245000,6.008244873046875,0.6855930089950562,-1.3176195621490479,-1.4852285385131836
1772797623818272000,6.01827197265625,0.8818962574005127,-2.020550012588501,-1.8114711046218872
1772797623828297700,6.028297607421875,0.6983442306518555,-2.080279588699341,-1.466901421546936
1772797623838324000,6.038323974609375,0.36506387591362,-1.4081460237503052,-0.5932141542434692
1772797623848351000,6.04835107421875,0.1911754161119461,-0.040353719145059586,0.25229498744010925
1772797623858377000,6.058376953125,0.1544027328491211,1.5023778676986694,0.848742663860321
1772797623868403000,6.06840283203125,0.5831828117370605,2.32441782951355,1.2548203468322754
1772797623878430000,6.078429931640625,1.0517537593841553,1.932628870010376,1.514082908630371
1772797623888456000,6.0884560546875,1.3100143671035767,0.8029168844223022,1.7537676095962524
1772797623898482000,6.09848193359375,1.3047374486923218,-0.21834418177604675,1.9265385866165161
1772797623908509000,6.108509033203125,1.1900001764297485,-0.7709556818008423,1.9505653381347656
1772797623918535000,6.118534912109375,1.1500742435455322,-0.8251227736473083,1.7771307229995728
1772797623928561000,6.128560791015625,1.1885236501693726,-0.5373285412788391,1.5587949752807617
1772797623938588000,6.138587890625,1.1864317655563354,-0.05137175694108009,1.478639841079712
1772797623948614000,6.14861376953125,1.1741095781326294,0.4123215973377228,1.5256118774414062
1772797623958641200,6.15864111328125,1.1829744577407837,0.805336594581604,1.6270911693572998
1772797623968667100,6.168667236328125,1.2285258769989014,1.1360762119293213,1.7101356983184814
1772797623978693000,6.178693115234375,1.2798174619674683,1.3836355209350586,1.732130765914917
1772797623988719900,6.188719970703125,1.3101234436035156,1.5598747730255127,1.715106725692749
1772797623998745900,6.198745849609375,1.3233232498168945,1.5949599742889404,1.667513132095337
1772797624008771800,6.208771728515625,1.336888074874878,1.5030055046081543,1.6055829524993896
1772797624018799000,6.218799072265625,1.3566240072250366,1.3201348781585693,1.5511962175369263
1772797624028825000,6.2288251953125,1.3790640830993652,1.051481008529663,1.493330717086792
1772797624038851000,6.23885107421875,1.4142400026321411,0.751101553440094,1.457712173461914
1772797624048878000,6.248878173828125,1.4338003396987915,0.4984573423862457,1.4307208061218262
1772797624058903800,6.25890380859375,1.371460199356079,0.31769758462905884,1.3571219444274902
1772797624068929800,6.2689296875,1.24271559715271,0.28935837745666504,1.225321888923645
1772797624078956800,6.278956787109375,1.099301815032959,0.3913206160068512,1.015596866607666
1772797624088983000,6.288983154296875,0.9757674336433411,0.5093364715576172,0.7682960033416748
1772797624099009000,6.299009033203125,0.8531779050827026,0.6117300987243652,0.48650291562080383
1772797624109036000,6.3090361328125,0.7655439376831055,0.6607024073600769,0.23629388213157654
1772797624119062000,6.31906201171875,0.6916024088859558,0.6705315113067627,0.05985332280397415
1772797624129088000,6.329087890625,0.6240896582603455,0.622096061706543,-0.07279979437589645
1772797624139114800,6.33911474609375,0.5560052990913391,0.5580230951309204,-0.2027479112148285
1772797624149141000,6.34914111328125,0.5080074071884155,0.5146481394767761,-0.3213491439819336
1772797624159167000,6.3591669921875,0.45269882678985596,0.4495062828063965,-0.45505285263061523
1772797624169194000,6.369194091796875,0.4176332652568817,0.39209356904029846,-0.6260773539543152
1772797624179220000,6.379219970703125,0.3812791705131531,0.38302960991859436,-0.8269188404083252
1772797624189246000,6.389245849609375,0.3783997595310211,0.3686820864677429,-1.0105143785476685
1772797624199273000,6.39927294921875,0.38235196471214294,0.3427280783653259,-1.1361826658248901
1772797624209299000,6.409298828125,0.409694641828537,0.28659793734550476,-1.187808632850647
1772797624219326000,6.419325927734375,0.4663797914981842,0.18502332270145416,-1.1655956506729126
1772797624229352000,6.42935205078125,0.5196124315261841,0.06187129765748978,-1.092501163482666
1772797624239378000,6.4393779296875,0.5545193552970886,-0.07013127207756042,-1.0033013820648193
1772797624249405000,6.449405029296875,0.5945194959640503,-0.13531853258609772,-0.9282944798469543
1772797624259431000,6.459430908203125,0.5891432762145996,-0.14539165794849396,-0.9350285530090332
1772797624269457000,6.469456787109375,0.526200532913208,-0.09737993031740189,-1.0287995338439941
1772797624279484200,6.479484130859375,0.4132380187511444,-0.03304337337613106,-1.1469874382019043
1772797624289510000,6.489510009765625,0.2576971650123596,-0.07868222892284393,-1.2039496898651123
1772797624299536000,6.499535888671875,0.1870184987783432,-0.2693459391593933,-1.2294498682022095
1772797624309563000,6.50956298828125,0.23550666868686676,-0.49484723806381226,-1.1620210409164429
1772797624319588900,6.5195888671875,0.3455110192298889,-0.693527102470398,-0.982725203037262
1772797624329614800,6.52961474609375,0.522819995880127,-0.804549515247345,-0.7557666301727295
1772797624339642000,6.53964208984375,0.6754182577133179,-0.7997534871101379,-0.6103535294532776
1772797624349668000,6.549668212890625,0.8693315386772156,-0.6317679286003113,-0.5623226165771484
1772797624359694000,6.559694091796875,1.0739669799804688,-0.06282489001750946,-0.6290534138679504
1772797624369720800,6.569720947265625,1.364669919013977,0.537415623664856,-1.0624685287475586
1772797624379746800,6.579746826171875,1.8309051990509033,0.9044947028160095,-1.937330961227417
1772797624389772800,6.589772705078125,2.5139641761779785,0.9995735883712769,-2.4574999809265137
1772797624399800000,6.599800048828125,2.8306527137756348,0.09652762860059738,-1.9369362592697144
1772797624409826000,6.609825927734375,2.6930148601531982,-0.06527671962976456,0.06611975282430649
1772797624419852000,6.61985205078125,2.55977201461792,0.3505875766277313,2.061434507369995
1772797624429879000,6.629879150390625,2.4670848846435547,1.0999785661697388,2.5321385860443115
1772797624439905000,6.639905029296875,2.6006500720977783,1.6621778011322021,1.8787015676498413
1772797624449931000,6.649930908203125,2.6346936225891113,1.739285945892334,1.0216784477233887
1772797624459957800,6.659957763671875,2.599897623062134,1.2841259241104126,0.7247098684310913
1772797624469984000,6.66998388671875,2.544840097427368,0.5849592685699463,0.9764872789382935
1772797624480010000,6.680010009765625,2.508333921432495,-0.025655515491962433,1.338444471359253
1772797624490037000,6.690037109375,2.4422099590301514,-0.28337839245796204,1.5359042882919312
1772797624500063000,6.70006298828125,2.342289686203003,-0.11993032693862915,1.5775221586227417
1772797624510089000,6.7100888671875,2.2096688747406006,0.3424628973007202,1.5285261869430542
1772797624520116000,6.720115966796875,2.060382604598999,0.838716983795166,1.5280590057373047
1772797624530142000,6.730141845703125,1.9175785779953003,1.214259386062622,1.6040257215499878
1772797624540168000,6.74016796875,1.8091793060302734,1.3982956409454346,1.7182087898254395
1772797624550195000,6.75019482421875,1.724642276763916,1.377854347229004,1.7899303436279297
1772797624560221000,6.760220947265625,1.6874659061431885,1.2442535161972046,1.7623679637908936
1772797624570248000,6.770248046875,1.6660642623901367,1.0452773571014404,1.6449244022369385
1772797624580274000,6.78027392578125,1.6318237781524658,0.8117263913154602,1.477108359336853
1772797624590300000,6.7902998046875,1.597581148147583,0.6199960708618164,1.2549328804016113
1772797624600327000,6.800326904296875,1.5453386306762695,0.44080987572669983,1.020606279373169
1772797624610353000,6.810352783203125,1.4865115880966187,0.27837303280830383,0.8118064403533936
1772797624620379000,6.82037890625,1.4116709232330322,0.21199390292167664,0.5875900983810425
1772797624630406000,6.830406005859375,1.3499873876571655,0.1813363879919052,0.3759220838546753
1772797624640431900,6.840431884765625,1.2595549821853638,0.2263869345188141,0.2253056913614273
1772797624650457900,6.850457763671875,1.1418251991271973,0.29609915614128113,0.08160364627838135
1772797624660485000,6.860485107421875,1.0519533157348633,0.29204487800598145,-0.09107144922018051
1772797624670511000,6.870510986328125,0.983444333076477,0.3651811480522156,-0.3524058163166046
1772797624680537000,6.880537109375,0.8652674555778503,0.35270026326179504,-0.6490578055381775
1772797624690563800,6.890563720703125,0.7903481721878052,0.321361780166626,-0.9454596042633057
1772797624700589800,6.90058984375,0.7324504852294922,0.3229484260082245,-1.2447283267974854
1772797624710615800,6.91061572265625,0.6829881072044373,0.3249753713607788,-1.476980209350586
1772797624720643000,6.92064306640625,0.6645064353942871,0.34940847754478455,-1.6416797637939453
1772797624730669000,6.9306689453125,0.6906080842018127,0.3630414605140686,-1.7578423023223877
1772797624740695000,6.940695068359375,0.7402821183204651,0.32459577918052673,-1.8017425537109375
1772797624750722000,6.95072216796875,0.7842849493026733,0.2276569902896881,-1.766636610031128
1772797624760748000,6.960748046875,0.8245026469230652,0.11457151174545288,-1.6828088760375977
1772797624770773800,6.970773681640625,0.8668178915977478,0.010713823139667511,-1.553914189338684
1772797624780801000,6.980801025390625,0.8937978148460388,-0.07910190522670746,-1.398811936378479
1772797624790827000,6.990826904296875,0.8970351219177246,-0.13866855204105377,-1.2447397708892822
1772797624800853000,7.00085302734375,0.8708603978157043,-0.11638390272855759,-1.1320571899414062
1772797624810880000,7.0108798828125,0.8294863700866699,-0.012365885078907013,-1.112581729888916
1772797624820906000,7.020906005859375,0.7823718786239624,0.11556223779916763,-1.1532498598098755
1772797624830932000,7.030931884765625,0.7226121425628662,0.23467770218849182,-1.2104483842849731
1772797624840959000,7.040958984375,0.6841065287590027,0.3278845250606537,-1.2673447132110596
1772797624850985000,7.05098486328125,0.635967493057251,0.36987751722335815,-1.281808853149414
1772797624861011000,7.061010986328125,0.6163154244422913,0.2992980182170868,-1.2498055696487427
1772797624871038000,7.071037841796875,0.6515418291091919,0.12231981009244919,-1.1966222524642944
1772797624881064000,7.08106396484375,0.7853311896324158,-0.16200891137123108,-1.0428837537765503
1772797624891090000,7.09108984375,1.0172168016433716,-0.5027981996536255,-0.8316654562950134
1772797624901117000,7.101116943359375,1.1782166957855225,-0.740912914276123,-0.7749345302581787
1772797624911143200,7.11114306640625,1.1808713674545288,-0.5620110630989075,-0.9628067016601562
1772797624921169200,7.121169189453125,1.2341920137405396,-0.02144092693924904,-1.662493348121643
1772797624931196000,7.13119580078125,1.3529587984085083,0.6501424908638,-2.684866428375244
1772797624941222000,7.141221923828125,1.3926160335540771,1.2217652797698975,-3.1706228256225586
1772797624951248000,7.151247802734375,1.1223211288452148,1.3147029876708984,-2.5246455669403076
1772797624961275000,7.16127490234375,1.2216147184371948,1.2524874210357666,-0.837977945804596
1772797624971300900,7.17130078125,1.477135181427002,1.1446810960769653,1.158686637878418
1772797624981327000,7.1813271484375,1.6335842609405518,0.8604682683944702,2.4596760272979736
1772797624991354000,7.19135400390625,1.9057976007461548,0.6385641098022461,2.8168187141418457
1772797625001379800,7.2013798828125,2.21478271484375,0.5390862822532654,2.587031364440918
1772797625011405800,7.21140576171875,2.4234797954559326,0.43366050720214844,2.2843945026397705
1772797625021432800,7.221432861328125,2.5213141441345215,0.20135203003883362,2.130511999130249
1772797625031458800,7.231458740234375,2.5130112171173096,-0.05518760904669762,2.103574514389038
1772797625041485000,7.241485107421875,2.3944509029388428,-0.2733713686466217,2.1290011405944824
1772797625051512000,7.251511962890625,2.2252540588378906,-0.43123796582221985,2.12315034866333
1772797625061538000,7.2615380859375,2.0507633686065674,-0.44787144660949707,2.039632797241211
1772797625071564000,7.27156396484375,1.8641412258148193,-0.3081686496734619,1.8566126823425293
1772797625081590800,7.2815908203125,1.6416159868240356,-0.012238338589668274,1.6589707136154175
1772797625091616800,7.29161669921875,1.395762324333191,0.3291192650794983,1.4648545980453491
1772797625101642800,7.301642822265625,1.2273141145706177,0.6588677763938904,1.2470287084579468
1772797625111670000,7.311669921875,1.1175707578659058,0.9755831360816956,1.0305144786834717
1772797625121696000,7.321696044921875,1.0630638599395752,1.1873416900634766,0.8666046857833862
1772797625131722000,7.331721923828125,1.0623750686645508,1.2729116678237915,0.806930422782898
1772797625141749000,7.3417490234375,1.1296274662017822,1.2738555669784546,0.8198683261871338
1772797625151775000,7.35177490234375,1.0877902507781982,1.1251918077468872,0.8673170208930969
1772797625161801000,7.361801025390625,0.9519344568252563,0.9475138783454895,0.8913257718086243
1772797625171828000,7.371827880859375,0.8390984535217285,0.8629710078239441,0.8096612691879272
1772797625181854000,7.38185400390625,0.7743656039237976,0.8581806421279907,0.63629150390625
1772797625191880000,7.3918798828125,0.7023966312408447,0.836656928062439,0.39496922492980957
1772797625201907000,7.401906982421875,0.6242928504943848,0.8440266847610474,0.13782157003879547
1772797625211933000,7.411932861328125,0.5694202780723572,0.7904558181762695,-0.12398926168680191
1772797625221959000,7.421958984375,0.49700236320495605,0.6474916338920593,-0.35453060269355774
1772797625231986000,7.43198583984375,0.42047858238220215,0.4748660922050476,-0.544780969619751
1772797625242012000,7.442011962890625,0.3402498662471771,0.3515181541442871,-0.6776093244552612
1772797625252038000,7.452037841796875,0.28228190541267395,0.2615959644317627,-0.7506433129310608
1772797625262065000,7.46206494140625,0.23058927059173584,0.13699869811534882,-0.8462877869606018
1772797625272091000,7.4720908203125,0.2185501754283905,-0.05993621423840523,-0.9393445253372192
1772797625282116900,7.482116943359375,0.2732528746128082,-0.3470619320869446,-1.0015469789505005
1772797625292144000,7.49214404296875,0.3848912715911865,-0.6633370518684387,-1.0483672618865967
1772797625302170000,7.502170166015625,0.5347378849983215,-0.917205810546875,-1.0968977212905884
1772797625312196000,7.512196044921875,0.639910876750946,-1.0738084316253662,-1.1628668308258057
1772797625322222800,7.522222900390625,0.7039637565612793,-1.104776382446289,-1.2380262613296509
1772797625332248800,7.532248779296875,0.6901403665542603,-1.021606683731079,-1.2997652292251587
1772797625342274800,7.54227490234375,0.5886581540107727,-0.783965528011322,-1.3287633657455444
1772797625352301800,7.5523017578125,0.47426682710647583,-0.49480748176574707,-1.387389898300171
1772797625362328000,7.562328125,0.36594241857528687,-0.1783965826034546,-1.533231258392334
1772797625372354000,7.57235400390625,0.30120229721069336,0.062357183545827866,-1.7217800617218018
1772797625382381000,7.582381103515625,0.24500267207622528,0.19922055304050446,-1.8508177995681763
1772797625392407000,7.592406982421875,0.1693827509880066,0.28635281324386597,-1.8691954612731934
1772797625402433000,7.60243310546875,0.10519427806138992,0.30101582407951355,-1.7617193460464478
1772797625412459800,7.612459716796875,0.06498028337955475,0.2250414341688156,-1.583588719367981
1772797625422486000,7.622486083984375,0.07226197421550751,0.04835157468914986,-1.3912767171859741
1772797625432512000,7.632511962890625,0.12906241416931152,-0.1942829042673111,-1.1908293962478638
1772797625442539000,7.6425390625,0.18081584572792053,-0.43940624594688416,-1.0413949489593506
1772797625452565000,7.65256494140625,0.2882418930530548,-0.5925174951553345,-0.9726729393005371
1772797625462591000,7.662591064453125,0.4787850081920624,-0.6097233295440674,-1.0570365190505981
1772797625472618000,7.672617919921875,0.6650462746620178,-0.32967808842658997,-1.255079746246338
1772797625482644000,7.68264404296875,0.9441463351249695,0.20525208115577698,-1.2421786785125732
1772797625492670000,7.692669921875,1.2393457889556885,0.41596856713294983,-0.955046534538269
1772797625502697000,7.702697021484375,1.418647289276123,0.08457602560520172,-0.6858187913894653
1772797625512723000,7.712722900390625,1.6015188694000244,-0.12668295204639435,-0.13084399700164795
1772797625522749000,7.7227490234375,1.55315363407135,-0.47072187066078186,1.0174177885055542
1772797625532776000,7.73277587890625,1.0980830192565918,-0.5287029147148132,2.4960525035858154
1772797625542802000,7.742802001953125,0.661443829536438,-0.1799541413784027,3.302431106567383
1772797625552828000,7.752827880859375,0.534569501876831,0.383172869682312,3.066042423248291
1772797625562855000,7.76285498046875,0.7358717322349548,0.7391770482063293,2.410104274749756
1772797625572881000,7.772880859375,1.0425524711608887,0.680766224861145,2.030364990234375
1772797625582907000,7.782906982421875,1.1773159503936768,0.2174507975578308,2.245910406112671
1772797625592934000,7.792933837890625,1.1313337087631226,-0.51568204164505,2.6083688735961914
1772797625602960000,7.8029599609375,1.0078529119491577,-0.9611380100250244,2.7211124897003174
1772797625612985900,7.81298583984375,0.7846124172210693,-0.7063208818435669,2.4303643703460693
1772797625623013000,7.82301318359375,0.5247486233711243,0.07630644738674164,1.7742416858673096
1772797625633039000,7.8330390625,0.22837978601455688,0.8633096814155579,1.1479674577713013
1772797625643065000,7.843065185546875,0.008292882703244686,1.3935898542404175,0.8642109632492065
1772797625653092400,7.85309228515625,-0.08324795216321945,1.6434217691421509,0.8512701392173767
1772797625663118300,7.863118408203125,-0.03612807020545006,1.5891399383544922,0.9854381084442139
1772797625673144300,7.873144287109375,0.041339289397001266,1.29578697681427,1.1430296897888184
1772797625683171300,7.88317138671875,0.11701822280883789,0.9387336373329163,1.2703256607055664
1772797625693197300,7.893197265625,0.19654394686222076,0.6280471682548523,1.361962914466858
1772797625703223300,7.903223388671875,0.2777309715747833,0.3572736084461212,1.4546685218811035
1772797625713250300,7.913250244140625,0.383219838142395,0.09248298406600952,1.5356158018112183
1772797625723276300,7.9232763671875,0.43863797187805176,-0.12470471113920212,1.590739130973816
1772797625733302300,7.93330224609375,0.5061951875686646,-0.31644511222839355,1.6057496070861816
1772797625743329300,7.943329345703125,0.5574470162391663,-0.47002366185188293,1.5609087944030762
1772797625753355300,7.953355224609375,0.5587972402572632,-0.5359525680541992,1.380379319190979
1772797625763381200,7.96338134765625,0.5597004890441895,-0.5080249905586243,1.0639063119888306
1772797625773408500,7.973408447265625,0.5361837148666382,-0.3628847897052765,0.6767090559005737
1772797625783434500,7.9834345703125,0.4866108000278473,-0.2040669322013855,0.2563430964946747
1772797625793460500,7.99346044921875,0.4211446940898895,-0.04978734999895096,-0.14531856775283813
1772797625803487200,8.0034873046875,0.34762105345726013,0.04139739274978638,-0.4945729672908783
1772797625813513200,8.01351318359375,0.2872354984283447,0.05629671365022659,-0.7467268705368042
1772797625823539200,8.023539306640625,0.23424170911312103,-0.04808586463332176,-0.9272317290306091
1772797625833566500,8.03356640625,0.21460488438606262,-0.19486919045448303,-1.096264123916626
1772797625843592400,8.043592529296875,0.2332104593515396,-0.3241177499294281,-1.2792991399765015
1772797625853618400,8.053618408203125,0.27688148617744446,-0.4199944734573364,-1.4151005744934082
1772797625863644400,8.06364453125,0.34266161918640137,-0.4629970192909241,-1.4917325973510742
1772797625873671200,8.073671142578124,0.3859899044036865,-0.4708693325519562,-1.5167852640151978
1772797625883697200,8.083697265625,0.3896508812904358,-0.40996235609054565,-1.4620410203933716
1772797625893723100,8.09372314453125,0.3426218628883362,-0.35100236535072327,-1.3913143873214722
1772797625903750400,8.10375048828125,0.3661310374736786,-0.2094459980726242,-1.3321837186813354
1772797625913776400,8.1137763671875,0.4061431586742401,-0.0796768069267273,-1.3598017692565918
1772797625923802400,8.12380224609375,0.4334395229816437,0.03744574263691902,-1.4766247272491455
1772797625933829400,8.133829345703125,0.4658968150615692,0.15467196702957153,-1.6680461168289185
1772797625943855400,8.14385546875,0.4918254613876343,0.23180361092090607,-1.9123435020446777
1772797625953881300,8.15388134765625,0.44380441308021545,0.27156299352645874,-2.123671770095825
1772797625963908400,8.163908447265625,0.36233294010162354,0.25106385350227356,-2.207509756088257
1772797625973934300,8.173934326171874,0.28262293338775635,0.05586214363574982,-2.1353580951690674
1772797625983960300,8.183960205078124,0.22944551706314087,-0.23502659797668457,-1.9614343643188477
1772797625993987300,8.1939873046875,0.2583935558795929,-0.4782826602458954,-1.7782485485076904
1772797626004013300,8.204013427734376,0.39603549242019653,-0.6911736130714417,-1.6130616664886475
1772797626014039300,8.214039306640625,0.6271938681602478,-0.7580794095993042,-1.4818919897079468
1772797626024066600,8.224066650390625,0.9123113751411438,-0.4329140782356262,-1.6114649772644043
1772797626034092500,8.234092529296875,1.1132007837295532,0.21525482833385468,-2.1527342796325684
1772797626044118500,8.244118408203125,1.1363341808319092,1.0258831977844238,-2.7343692779541016
1772797626054145300,8.254145263671875,1.0633587837219238,1.138677716255188,-2.6512715816497803
1772797626064171300,8.264171142578125,0.9368692636489868,0.17697717249393463,-2.5055651664733887
1772797626074197200,8.274197265625,1.0942472219467163,-0.8716794848442078,-2.2084853649139404
1772797626084224300,8.284224365234374,1.4535020589828491,-1.413158655166626,-1.2583414316177368
1772797626094250500,8.29425048828125,1.4191973209381104,-1.0431289672851562,0.7812984585762024
1772797626104276500,8.3042763671875,1.3430861234664917,-0.19234195351600647,2.86315655708313
1772797626114303200,8.31430322265625,1.6044132709503174,0.6646257042884827,3.7877840995788574
1772797626124329200,8.3243291015625,1.904006004333496,0.9933661818504333,3.8304600715637207
1772797626134355200,8.334355224609375,2.03468918800354,0.8031174540519714,3.679447650909424
1772797626144382200,8.34438232421875,2.087275266647339,0.48800262808799744,3.8093743324279785
1772797626154408200,8.354408203125,1.9643553495407104,0.3530280292034149,3.8494315147399902
1772797626164434400,8.364434326171875,1.765151023864746,0.531475305557251,3.5783865451812744
1772797626174461400,8.37446142578125,1.5180840492248535,0.8737946152687073,3.129659414291382
1772797626184487400,8.3844873046875,1.2551264762878418,1.179654598236084,2.710603713989258
1772797626194513400,8.394513427734376,1.0560822486877441,1.3729844093322754,2.3765525817871094
1772797626204540200,8.4045400390625,0.9144354462623596,1.4349616765975952,2.054216146469116
1772797626214566100,8.414566162109375,0.846498429775238,1.3669490814208984,1.8048458099365234
1772797626224592400,8.42459228515625,0.8426375389099121,1.239344596862793,1.6390533447265625
1772797626234618400,8.434618408203125,0.9111825227737427,1.100760817527771,1.4218864440917969
1772797626244645400,8.444645263671875,1.0176544189453125,0.8726462125778198,1.233246088027954
1772797626254671400,8.45467138671875,1.1447745561599731,0.5948798656463623,1.1618142127990723
1772797626264697300,8.464697265625,1.2204890251159668,0.31920331716537476,1.1271111965179443
1772797626274724400,8.474724365234374,1.192841649055481,0.06527890264987946,1.0224391222000122
1772797626284750300,8.484750244140624,1.0798280239105225,-0.08137471228837967,0.9011556506156921
1772797626294776300,8.4947763671875,0.9603548049926758,-0.20152083039283752,0.7630918025970459
1772797626304803300,8.50480322265625,0.8542692065238953,-0.2319163978099823,0.513014018535614
1772797626314829300,8.514829345703125,0.828060507774353,-0.27267077565193176,0.1761191040277481
1772797626324855300,8.524855224609375,0.8029210567474365,-0.2595618665218353,-0.20421011745929718
1772797626334882300,8.53488232421875,0.7788929343223572,-0.1775500774383545,-0.6633923649787903
1772797626344908300,8.544908203125,0.7903282046318054,-0.018269773572683334,-1.1171324253082275
1772797626354934300,8.554934326171875,0.8227173089981079,-0.00410628505051136,-1.4637547731399536
1772797626364961300,8.564961181640625,0.8444438576698303,-0.06867390125989914,-1.6575088500976562
1772797626374987300,8.5749873046875,0.8465477228164673,-0.14205704629421234,-1.6872113943099976
1772797626385013200,8.58501318359375,0.798982560634613,-0.1734326034784317,-1.5526968240737915
1772797626395040300,8.595040283203126,0.7147795557975769,-0.14449283480644226,-1.3630529642105103
1772797626405066200,8.605066162109376,0.7888066172599792,-0.03413483127951622,-1.1500868797302246
1772797626415092200,8.61509228515625,0.8913300633430481,-0.028924621641635895,-0.9604203104972839
1772797626425119500,8.625119384765625,0.9154757857322693,-0.10237330198287964,-0.8073979616165161
1772797626435145500,8.6351455078125,0.8992148041725159,-0.14635807275772095,-0.7420375943183899
1772797626445171500,8.64517138671875,0.8185913562774658,-0.05201943591237068,-0.7410756945610046
1772797626455198200,8.6551982421875,0.7464165091514587,0.11342944949865341,-0.7565335035324097
1772797626465224200,8.66522412109375,0.6974957585334778,0.2813878357410431,-0.7479344010353088
1772797626475250200,8.675250244140624,0.5832014083862305,0.3961106836795807,-0.6598095893859863
1772797626485276200,8.685276123046876,0.490930438041687,0.5099620223045349,-0.5147626996040344
1772797626495303400,8.695303466796876,0.4447008967399597,0.6014330983161926,-0.38397565484046936
1772797626505329400,8.705329345703126,0.42466431856155396,0.6303990483283997,-0.24330076575279236
1772797626515355400,8.71535546875,0.4560137391090393,0.6041309237480164,-0.07735733687877655
1772797626525382400,8.72538232421875,0.5199059247970581,0.6069418787956238,0.09483519196510315
1772797626535408400,8.735408447265625,0.6198540925979614,0.6219967007637024,0.23636142909526825
1772797626545434000,8.74543408203125,0.7339380383491516,0.5749887824058533,0.34887030720710754
1772797626555461400,8.75546142578125,0.832529604434967,0.49177828431129456,0.41625866293907166
1772797626565487400,8.7654873046875,0.8432597517967224,0.5132129788398743,0.41215991973876953
1772797626575513300,8.775513427734374,0.795545756816864,0.6381336450576782,0.3207745850086212
1772797626585540400,8.785540283203124,0.7319653034210205,0.844942569732666,0.14310073852539062
1772797626595566300,8.79556640625,0.6778187155723572,1.0494983196258545,-0.006960142403841019
1772797626605592300,8.80559228515625,0.6833291053771973,1.0614426136016846,-0.20760752260684967
1772797626615619300,8.815619384765625,0.677819013595581,1.0035806894302368,-0.4406391680240631
1772797626625645300,8.825645263671875,0.6793743371963501,0.8966591954231262,-0.39708825945854187
1772797626635671300,8.83567138671875,0.7706174254417419,0.7173205614089966,-0.08693359792232513
1772797626645698300,8.8456982421875,0.9399646520614624,0.6133446097373962,0.38568615913391113
1772797626655724300,8.855724365234375,1.0710805654525757,0.692556619644165,0.7493762373924255
1772797626665750300,8.865750244140624,1.1719224452972412,0.7871988415718079,0.9500137567520142
1772797626675777500,8.875777587890624,1.2558048963546753,0.7248454689979553,1.0489035844802856
1772797626685803500,8.885803466796874,1.2938456535339355,0.520433783531189,1.0632944107055664
1772797626695829500,8.89582958984375,1.2916815280914307,0.39180973172187805,0.95863276720047
1772797626705855500,8.90585546875,1.209972620010376,0.32010912895202637,0.7723335027694702
1772797626715882200,8.91588232421875,1.0785688161849976,0.31620147824287415,0.5362096428871155
1772797626725908200,8.925908203125,0.9648374915122986,0.3088046610355377,0.3499734699726105
1772797626735934200,8.935934326171875,0.8907536864280701,0.24628961086273193,0.2916712760925293
1772797626745961500,8.94596142578125,0.854090690612793,0.1846437305212021,0.33586397767066956
1772797626755987500,8.955987548828125,0.8079245090484619,0.1667667180299759,0.33541685342788696
1772797626766013400,8.966013427734374,0.8042685985565186,0.2722499668598175,0.2957056760787964
1772797626776040200,8.976040283203124,0.7786173224449158,0.4214264154434204,0.2894861400127411
1772797626786066200,8.986066162109376,0.717856228351593,0.5312173366546631,0.36238744854927063
1772797626796092200,8.996092041015626,0.6382303237915039,0.5392102599143982,0.47784826159477234
1772797626806119400,9.006119384765626,0.5428725481033325,0.4955669939517975,0.5962390899658203
1772797626816145400,9.0161455078125,0.4700784981250763,0.35428738594055176,0.6709024310112
1772797626826171400,9.02617138671875,0.43527260422706604,0.13168443739414215,0.7342761754989624
1772797626836198400,9.036198486328125,0.42802026867866516,-0.11815683543682098,0.7845649123191833
1772797626846224400,9.046224365234375,0.44997766613960266,-0.3458467125892639,0.7734981179237366
1772797626856250400,9.05625048828125,0.5066574215888977,-0.5534499883651733,0.9602581262588501
1772797626866277000,9.066277099609374,0.4922327995300293,-0.6035217642784119,0.8432464599609375
1772797626876303400,9.076303466796874,0.5386549234390259,-0.5516114830970764,0.6096592545509338
1772797626886329300,9.086329345703126,0.5553130507469177,-0.3854690194129944,0.39387616515159607
1772797626896355300,9.096355224609376,0.5048823952674866,-0.2545088827610016,0.11489593982696533
1772797626906382300,9.10638232421875,0.46748143434524536,-0.1909242868423462,-0.11076036095619202
1772797626916408300,9.116408203125,0.4414075016975403,-0.12175668030977249,-0.3301670253276825
1772797626926434300,9.126434326171875,0.41944238543510437,-0.0974803939461708,-0.45419999957084656
1772797626936461300,9.13646142578125,0.4375329613685608,-0.17419221997261047,-0.4662976861000061
1772797626946487600,9.146487548828125,0.4916897416114807,-0.26036691665649414,-0.3913497030735016
