time,seconds_elapsed,z,y,x
1772797800636175600,0.086175537109375,-0.001957423286512494,0.012749616988003254,0.010132528841495514
1772797800646201900,0.096201904296875,-0.0021497036796063185,-0.02346697635948658,-0.019108712673187256
1772797800656228900,0.106228759765625,-0.00030892668291926384,-0.046841006726026535,-0.03903688117861748
1772797800666254800,0.1162548828125,-0.0014418354257941246,-0.041064612567424774,-0.03648211061954498
1772797800676280800,0.12628076171875,-0.0008197209681384265,-0.0153752276673913,-0.015306784771382809
1772797800686307600,0.1363076171875,-0.0041524008847773075,0.008463259786367416,0.00959883164614439
1772797800696333600,0.14633349609375,-0.003373958868905902,0.020797956734895706,0.028243355453014374
1772797800706359600,0.156359619140625,-0.0030184267088770866,0.0251021571457386,0.02099902555346489
1772797800716385800,0.1663857421875,-0.0013313142117112875,0.0034325483720749617,0.003067961661145091
1772797800726412800,0.176412841796875,-0.001981924520805478,-0.021582257002592087,-0.015839416533708572
1772797800736438800,0.186438720703125,-0.001127316034398973,-0.033702302724123,-0.027185548096895218
1772797800746464800,0.19646484375,-0.0007107976707629859,-0.02472558617591858,-0.02261662855744362
1772797800756490800,0.20649072265625,-0.0007813714328221977,-0.009680856950581074,-0.0075852153822779655
1772797800766517800,0.216517822265625,-0.004746019374579191,0.007707454264163971,0.006160424090921879
1772797800776543700,0.226543701171875,-0.004518318921327591,0.01459039468318224,0.016979515552520752
1772797800786569700,0.23656982421875,-0.0007752461824566126,0.005476790945976973,0.010201238095760345
1772797800796596700,0.2465966796875,-0.0031787490006536245,-0.0028005801141262054,-0.0019462381023913622
1772797800806622700,0.256622802734375,-0.0028013791888952255,-0.017602961510419846,-0.011447065509855747
1772797800816648700,0.266648681640625,-0.003525492735207081,-0.025001490488648415,-0.014134727418422699
1772797800826674400,0.27667431640625,-0.0006921555614098907,-0.018547318875789642,-0.012821256183087826
1772797800836701400,0.286701416015625,-0.0023094932548701763,-0.006841660942882299,-0.004540689755231142
1772797800846727400,0.2967275390625,-0.003784085623919964,0.00256382510997355,0.005151885095983744
1772797800856753700,0.306753662109375,-0.004291683901101351,0.007464307826012373,0.009731722995638847
1772797800866779600,0.316779541015625,-0.003614708548411727,0.0010697918478399515,0.007522897329181433
1772797800876806400,0.326806396484375,-0.004156928043812513,-0.00529676117002964,-0.0035081820096820593
1772797800886832400,0.336832275390625,-0.002225603675469756,-0.013569870963692665,-0.010328005068004131
1772797800896858400,0.3468583984375,-0.002299639629200101,-0.015383750200271606,-0.010777546092867851
1772797800906885400,0.356885498046875,0.000182959163794294,-0.009403621777892113,-0.008744489401578903
1772797800916911400,0.366911376953125,-0.0035811527632176876,-0.005334045272320509,-0.0035489285364747047
1772797800926937600,0.3769375,-0.0026112294290214777,0.0005976133397780359,0.0006056028068996966
1772797800936963600,0.386963623046875,-0.0027196200098842382,0.002029062481597066,0.0032716933637857437
1772797800946990600,0.396990478515625,0.000699079770129174,-0.0035087147261947393,0.0004801679460797459
1772797800957016600,0.4070166015625,-0.002168612089008093,-0.00809281412512064,-0.0029489181470125914
1772797800967042600,0.41704248046875,-0.003974767867475748,-0.01341727189719677,-0.007212106604129076
1772797800977069300,0.4270693359375,-0.00008841694943839684,-0.010468353517353535,-0.006707703694701195
1772797800987095600,0.437095458984375,-0.000853809411637485,-0.00914609432220459,-0.005537510849535465
1772797800997121500,0.44712158203125,0.0001597896625753492,-0.0036432044580578804,-0.0010543455136939883
1772797801007147500,0.4571474609375,0.0005331648280844092,-0.004459196701645851,0.0012154667638242245
1772797801017174500,0.467174560546875,-0.0012634035665541887,-0.00555162550881505,0.00011904330312972888
1772797801027200500,0.477200439453125,-0.00205276464112103,-0.006045109126716852,-0.002679938916116953
1772797801037226500,0.4872265625,-0.0024146882351487875,-0.00890614278614521,-0.0040887510403990746
1772797801047253200,0.497253173828125,0.0004524710529949516,-0.00939270295202732,-0.005269064102321863
1772797801057279500,0.507279541015625,-0.0010610034223645926,-0.005402488633990288,-0.005465605296194553
1772797801067305500,0.517305419921875,-0.005372927524149418,-0.004966795444488525,-0.001600293442606926
1772797801077331500,0.52733154296875,-0.0034027209039777517,-0.0034884747583419085,-0.00006072007090551779
1772797801087358500,0.5373583984375,-0.001957956003025174,-0.0009145294898189604,-0.0005054679932072759
1772797801097384400,0.547384521484375,-0.0034173682797700167,-0.005507417023181915,-0.0021427792962640524
1772797801107410400,0.557410400390625,-0.0009840379934757948,-0.0073111760430037975,0.0003438140847720206
1772797801117436400,0.5674365234375,-0.000011451592399680521,-0.009919209405779839,-0.005167864263057709
1772797801127463700,0.577463623046875,-0.004867726005613804,-0.006335127633064985,-0.00276089902035892
1772797801137489700,0.58748974609375,-0.0026786073576658964,-0.0049614692106842995,-0.003522563260048628
1772797801147515600,0.597515625,-0.0020453077740967274,-0.0044077979400753975,-0.003397128311917186
1772797801157542400,0.60754248046875,-0.002731071785092354,-0.004540956113487482,-0.0009882990270853043
1772797801167568400,0.617568359375,-0.0007036071619950235,-0.005957757588475943,-0.0015552861150354147
1772797801177594400,0.627594482421875,-0.003206978552043438,-0.005397162400186062,-0.0022208099253475666
1772797801187621600,0.63762158203125,-0.002108957152813673,-0.010351707227528095,-0.0027326694689691067
1772797801197647600,0.647647705078125,-0.0019891150295734406,-0.007322094868868589,-0.00657667638733983
1772797801207673600,0.657673583984375,-0.002935868687927723,-0.009604956954717636,-0.0019172097090631723
1772797801217699600,0.667699462890625,-0.0032202943693846464,-0.0073774890042841434,-0.0021877868566662073
1772797801227726300,0.677726318359375,-0.0014889733865857124,-0.006158027332276106,-0.0004724447790067643
1772797801237752300,0.68775244140625,-0.0017678063595667481,-0.001716939965263009,0.00042796999332495034
1772797801247778300,0.6977783203125,-0.002377670258283615,-0.005371063016355038,-0.0010953581659123302
1772797801257805600,0.7078056640625,-0.001255414099432528,-0.005847502965480089,-0.00436119269579649
1772797801267831600,0.71783154296875,-0.0003145193331874907,-0.010066482238471508,-0.004267183132469654
1772797801277857500,0.727857421875,-0.0024170849937945604,-0.007272560149431229,-0.0018106831703335047
1772797801287883500,0.737883544921875,-0.0031153657473623753,-0.005163336638361216,-0.00509968725964427
1772797801297910500,0.74791064453125,-0.0005145227187313139,-0.0018836538074538112,-0.0036551884841173887
1772797801307936500,0.7579365234375,-0.00315957423299551,-0.005786516238003969,-0.004062652122229338
1772797801317962500,0.76796240234375,-0.0012980246683582664,-0.005336974747478962,-0.003525758860632777
1772797801327989500,0.777989501953125,-0.001714010490104556,-0.006962568499147892,-0.0031638352666050196
1772797801338015500,0.788015380859375,-0.00126713200006634,-0.005858155433088541,-0.0033896714448928833
1772797801348041500,0.79804150390625,-0.0035270904190838337,-0.0028397287242114544,-0.0025180187076330185
1772797801358068500,0.808068359375,-0.0011209244839847088,-0.005242432467639446,-0.001097755040973425
1772797801368094500,0.818094482421875,0.0006002765148878098,-0.0057279267348349094,-0.0004540689697023481
1772797801378120400,0.828120361328125,-0.002270344877615571,-0.00361790438182652,-0.003153448924422264
1772797801388146400,0.838146484375,-0.0026908579748123884,-0.0057471017353236675,-0.004221909213811159
1772797801398173700,0.848173583984375,-0.0038725025951862335,-0.006457632873207331,-0.004249606281518936
1772797801408199400,0.858199462890625,-0.0012042814632877707,-0.007090133614838123,-0.0033965955954045057
1772797801418225400,0.868225341796875,-0.0035113778430968523,-0.007989216595888138,-0.00321896281093359
1772797801428252400,0.87825244140625,-0.0018152105621993542,-0.006982542108744383,-0.0028474517166614532
1772797801438278400,0.8882783203125,-0.004175570327788591,-0.005256813485175371,-0.0013574132462963462
1772797801448304400,0.898304443359375,-0.0028104339726269245,-0.007676561828702688,-0.003582750679925084
1772797801458330400,0.908330322265625,-0.0032051142770797014,-0.004005128052085638,-0.005614209920167923
1772797801468357600,0.918357666015625,-0.002347576431930065,-0.005308745428919792,-0.003820304526016116
1772797801478383600,0.928383544921875,-0.0017749968683347106,-0.007895207032561302,-0.002210689941421151
1772797801488409600,0.93840966796875,-0.002222674200311303,-0.006048837676644325,-0.005212072748690844
1772797801498436400,0.948436279296875,0.00027510453946888447,-0.005872802808880806,-0.002995789982378483
1772797801508462300,0.95846240234375,-0.003320695599541068,-0.0067899953573942184,-0.0035262915771454573
1772797801518488300,0.96848828125,-0.0007632619817741215,-0.0068267472088336945,-0.0019358517602086067
1772797801528515600,0.978515625,-0.0026136261876672506,-0.006360693834722042,0.0012950951931998134
1772797801538541600,0.98854150390625,-0.0013523531379178166,-0.0057015614584088326,-0.003204315435141325
1772797801548567600,0.998567626953125,-0.0021204089280217886,-0.0065473816357553005,-0.001927595934830606
1772797801558593500,1.008593505859375,-0.001193362521007657,-0.006988667417317629,-0.004113784991204739
1772797801568620500,1.01862060546875,-0.00247540813870728,-0.006713296286761761,-0.004056793171912432
1772797801578646500,1.028646484375,-0.0008977515972219408,-0.005941512528806925,-0.004366518929600716
1772797801588672500,1.038672607421875,-0.0033816818613559008,-0.0038991342298686504,-0.00028762139845639467
1772797801598699500,1.048699462890625,-0.0008149272762238979,-0.005830192007124424,-0.000571248063351959
1772797801608725500,1.0587255859375,-0.002239984693005681,-0.007442736066877842,0.00023515711654908955
1772797801618751500,1.06875146484375,-0.001576857641339302,-0.004741758108139038,-0.00415373221039772
1772797801628778500,1.078778564453125,-0.002502838848158717,-0.008776181377470493,-0.003029079409316182
1772797801638804500,1.088804443359375,-0.0035273567773401737,-0.00484295841306448,-0.004224305972456932
1772797801648830500,1.09883056640625,0.00043649208964779973,-0.0018991001415997744,-0.0016114787431433797
1772797801658857500,1.108857421875,-0.0026724820490926504,-0.0033593112602829933,-0.003568103304132819
1772797801668883500,1.118883544921875,-0.0024285365361720324,-0.004658401478081942,-0.0023928501177579165
1772797801678909400,1.128909423828125,-0.0028583707753568888,-0.003933755215257406,-0.0020218719728291035
1772797801688935400,1.138935302734375,-0.002953711897134781,-0.005111671518534422,-0.004637628793716431
1772797801698962400,1.14896240234375,-0.0022272015921771526,-0.006674414500594139,-0.005278118886053562
1772797801708988400,1.158988525390625,-0.0021552962716668844,-0.0034914042335003614,-0.0031878037843853235
1772797801719014400,1.169014404296875,-0.0034940673504024744,-0.00384374032728374,-0.0007808388327248394
1772797801729041700,1.179041748046875,-0.000666322885081172,-0.003355316584929824,-0.0024458470288664103
1772797801739067600,1.189067626953125,-0.000901480030734092,-0.00640889722853899,-0.0019542276859283447
1772797801749093600,1.19909375,0.0003635214816313237,-0.005081844050437212,-0.00199337606318295
1772797801759120400,1.209120361328125,-0.0021086910273879766,-0.007092264015227556,-0.0035569178871810436
1772797801769146400,1.219146484375,-0.0019534286111593246,-0.005537510849535465,-0.0027590349782258272
1772797801779172400,1.22917236328125,-0.0007182545377872884,-0.004388622939586639,-0.0024860608391463757
1772797801789198300,1.2391982421875,-0.0018335863715037704,-0.00794660672545433,-0.0035049861762672663
1772797801799225600,1.2492255859375,-0.0022679478861391544,-0.004174771253019571,-0.0031755531672388315
1772797801809251600,1.25925146484375,-0.0035931370221078396,-0.006922620814293623,-0.0015704660909250379
1772797801819278000,1.269278076171875,-0.002959304489195347,-0.004494084510952234,-0.0031678301747888327
1772797801829304800,1.279304931640625,-0.002668221015483141,-0.006833404768258333,-0.0016021577175706625
1772797801839330800,1.289330810546875,-0.002028796123340726,-0.003910585772246122,-0.002540922025218606
1772797801849356800,1.299356689453125,-0.002775280037894845,-0.005263471510261297,-0.0023033679462969303
1772797801859384000,1.309384033203125,-0.004559065215289593,-0.003801928833127022,-0.001910285442136228
1772797801869410000,1.31941015625,-0.0031156321056187153,-0.006714095361530781,-0.005934588145464659
1772797801879436000,1.32943603515625,-0.003585413796827197,-0.006638994440436363,-0.004399808589369059
1772797801889463000,1.339463134765625,0.000291616132017225,-0.0057066213339567184,-0.003715375903993845
1772797801899489000,1.349489013671875,-0.0025031049735844135,-0.011210576631128788,-0.004430701024830341
1772797801909515000,1.359514892578125,-0.002721750643104315,-0.007771902717649937,-0.0035779569298028946
1772797801919542000,1.3695419921875,-0.0024381240364164114,-0.0062248725444078445,-0.0033718282356858253
1772797801929568000,1.379568115234375,-0.0018607506062835455,-0.005064000841230154,-0.0017124125733971596
1772797801939594000,1.389593994140625,-0.0022160164080560207,-0.00893863383680582,-0.001904160133562982
1772797801949620000,1.399619873046875,-0.0013422331539914012,-0.00823982059955597,-0.005620068870484829
1772797801959647000,1.40964697265625,-0.0018807243322953582,-0.003358778776600957,-0.003209908027201891
1772797801969673000,1.4196728515625,-0.00336144189350307,-0.006549512036144733,-0.0018543590558692813
1772797801979699000,1.429698974609375,-0.0012141350889578462,-0.00418435875326395,0.0005539375124499202
1772797801989726000,1.439725830078125,-0.005815012380480766,-0.013216735795140266,-0.0019592875614762306
1772797801999752000,1.449751953125,-0.00398755120113492,-0.010522682219743729,-0.008464325219392776
1772797802009778000,1.45977783203125,-0.005919674411416054,-0.007257113698869944,-0.004095941781997681
1772797802019805000,1.469804931640625,-0.003662378992885351,0.001029311795718968,0.004436027258634567
1772797802029831000,1.479830810546875,-0.0041305627673864365,0.0028628981672227383,0.008431834168732166
1772797802039857000,1.48985693359375,-0.0018753979820758104,0.0027118970174342394,0.00564137427136302
1772797802049884200,1.49988427734375,-0.0017249294323846698,0.003346261801198125,0.0012745888670906425
1772797802059910100,1.50991015625,-0.0026106967125087976,-0.011891813017427921,-0.010326140560209751
1772797802069936000,1.51993603515625,-0.0019315907265990973,-0.015898272395133972,-0.012908874079585075
1772797802079962000,1.529962158203125,-0.0036221654154360294,-0.014257499016821384,-0.009847038425505161
1772797802089988900,1.53998876953125,-0.003404052462428808,-0.011907259002327919,-0.008498946204781532
1772797802100014800,1.550014892578125,-0.0021606225054711103,-0.008962602354586124,-0.004573978949338198
1772797802110040800,1.560040771484375,-0.0010128001449629664,-0.008057127706706524,-0.0067849354818463326
1772797802120068000,1.570068115234375,-0.0026794064324349165,-0.008268049918115139,-0.003605121048167348
1772797802130094000,1.580093994140625,-0.0020058928057551384,0.0020756677258759737,0.003117496380582452
1772797802140120000,1.5901201171875,-0.0007547398563474417,0.009225988760590553,0.010541857220232487
1772797802150147000,1.60014697265625,-0.0027177559677511454,0.0099623529240489,0.013013802468776703
1772797802160173000,1.610173095703125,-0.0019491675775498152,0.0017808558186516166,0.006499710958451033
1772797802170199000,1.620198974609375,-0.001961151836439967,-0.006375607568770647,-0.004493818152695894
1772797802180226000,1.63022607421875,-0.002799781272187829,-0.014629010111093521,-0.010000968351960182
1772797802190252000,1.640251953125,-0.0026106967125087976,-0.015173892490565777,-0.011934157460927963
1772797802200278000,1.650278076171875,-0.0016000272007659078,-0.008051002398133278,-0.00418249424546957
1772797802210304000,1.660303955078125,-0.0014239922165870667,0.002798982197418809,0.003890878288075328
1772797802220331000,1.6703310546875,-0.002511094557121396,0.00577879324555397,0.005274923052638769
1772797802230357000,1.68035693359375,-0.0032924660481512547,-0.005313272587954998,0.0014346449170261621
1772797802240383000,1.690383056640625,-0.00012729909212794155,-0.009828396141529083,-0.00583631731569767
1772797802250410000,1.700409912109375,-0.0016623451374471188,-0.013275858014822006,-0.009323992766439915
1772797802260436000,1.71043603515625,-0.0012801815755665302,-0.011418037116527557,-0.007623564917594194
1772797802270462000,1.7204619140625,-0.00070520507870242,-0.012491556815803051,-0.004582767374813557
1772797802280489000,1.730489013671875,-0.0022804648615419865,-0.007900799624621868,-0.0006143912323750556
1772797802290515000,1.740514892578125,-0.0031491878908127546,-0.0032139027025550604,-0.0012492889072746038
1772797802300541000,1.750541015625,-0.0007238471880555153,-0.006562827620655298,-0.0016551546286791563
1772797802310568200,1.760568115234375,-0.004234958905726671,-0.010441189631819725,-0.0036597158759832382
1772797802320594200,1.77059423828125,-0.0011779161868616939,-0.008420116268098354,-0.003961185924708843
1772797802330620200,1.7806201171875,-0.0023574302904307842,-0.007273891940712929,-0.0041643851436674595
1772797802340647000,1.79064697265625,-0.002954244613647461,-0.0044469465501606464,-0.0024517059791833162
1772797802350673000,1.8006728515625,-0.0023451796732842922,-0.005830991081893444,0.00021651499264407903
1772797802360699000,1.810698974609375,-0.0006849650526419282,-0.006490656174719334,-0.0028783443849533796
1772797802370724900,1.820724853515625,-0.0018825886072590947,-0.012030829675495625,-0.008801747113466263
1772797802380752100,1.830752197265625,-0.0009259810904040933,-0.01447001937776804,-0.012683038599789143
1772797802390778000,1.840778076171875,-0.001320927869528532,-0.012170379981398582,-0.011092864908277988
1772797802400804000,1.85080419921875,-0.001948634977452457,-0.010158894583582878,-0.006898918654769659
1772797802410830800,1.860830810546875,-0.00202240445651114,-0.004200870171189308,0.00011851066665258259
1772797802420856800,1.87085693359375,-0.0013126720441505313,-0.0001280980504816398,0.0018221348291262984
1772797802430882800,1.8808828125,-0.0029169602785259485,-0.0011675298446789384,-0.0002378202771069482
1772797802440909800,1.890909912109375,-0.0019326560432091355,-0.003226952161639929,-0.0011566109023988247
1772797802450936000,1.90093603515625,0.00022796659322921187,-0.009676063433289528,-0.0037774275988340378
1772797802460962000,1.910962158203125,-0.0027302727103233337,-0.013282249681651592,-0.009534116834402084
1772797802470989000,1.920989013671875,-0.003695402294397354,-0.012294483371078968,-0.008131429553031921
1772797802481015000,1.93101513671875,-0.000993625377304852,-0.008732771500945091,-0.005155347287654877
1772797802491041000,1.941041015625,0.00008255799184553325,-0.00509862182661891,-0.0020817930344492197
1772797802501067000,1.95106689453125,0.0009496832499280572,-0.0024623586796224117,0.0002769687562249601
1772797802511094000,1.961093994140625,-0.002532133599743247,-0.005709018558263779,0.0015456987312063575
1772797802521120000,1.9711201171875,-0.0020447750575840473,-0.0030834078788757324,-0.0017584852175787091
1772797802531146000,1.98114599609375,-0.0034080471377819777,-0.005137237720191479,-0.003406449221074581
1772797802541173000,1.991173095703125,0.00016058860637713224,-0.008553008548915386,-0.00449807895347476
1772797802551199000,2.001198974609375,-0.002240251051262021,-0.008563394658267498,-0.007311708759516478
1772797802561225000,2.011224853515625,-0.0010580739472061396,-0.006360161118209362,-0.00230816169641912
1772797802571252000,2.021251953125,-0.0015009575290605426,-0.0043896883726119995,-0.00011211907985853031
1772797802581278200,2.0312783203125,-0.003233610186725855,-0.004190750420093536,-0.0007571366732008755
1772797802591304000,2.041303955078125,-0.0011776498286053538,-0.0020546286832541227,-0.0014183996245265007
1772797802601331000,2.0513310546875,-0.0008844357798807323,-0.008293616585433483,-0.005130579695105553
1772797802611357000,2.06135693359375,-0.0031816784758120775,-0.011004980653524399,-0.00646642129868269
1772797802621383000,2.0713828125,-0.0023334617726504803,-0.009428123012185097,-0.005828061606734991
1772797802631409000,2.081408935546875,-0.0018639464396983385,-0.009873935952782631,-0.005025651305913925
1772797802641436000,2.091435791015625,-0.0020988371688872576,-0.002796585438773036,-0.00210682675242424
1772797802651462100,2.101462158203125,-0.0020509003661572933,-0.001076982356607914,0.0021694109309464693
1772797802661488000,2.111488037109375,-0.0036703685764223337,0.00010599380766507238,0.0006673881434835494
1772797802671515000,2.121514892578125,-0.003748931922018528,-0.0030304109677672386,0.0008524778531864285
1772797802681540900,2.131540771484375,-0.0023941819090396166,-0.007704524789005518,-0.0011137339752167463
1772797802691566800,2.14156689453125,-0.001002413802780211,-0.008359928615391254,-0.005603556986898184
1772797802701593900,2.15159375,-0.0012362393317744136,-0.009802563115954399,-0.004580636974424124
1772797802711620000,2.1616201171875,-0.0025939189363271,-0.008480303920805454,-0.0043502734042704105
1772797802721646000,2.17164599609375,-0.000630636524874717,-0.005572930909693241,-0.0008609999786131084
1772797802731673000,2.181673095703125,-0.0034796863328665495,-0.005330849438905716,-0.0023012375459074974
1772797802741699000,2.191698974609375,-0.0024791366886347532,-0.0026051041204482317,-0.0021409152541309595
1772797802751725000,2.20172509765625,-0.001332912128418684,-0.00632021389901638,-0.0024919197894632816
1772797802761751000,2.2117509765625,-0.0022367890924215317,-0.008087754249572754,-0.0028160265646874905
1772797802771777800,2.22177783203125,-0.002764094853773713,-0.0065529742278158665,-0.004241084214299917
1772797802781804000,2.231803955078125,-0.0004980111261829734,-0.010145844891667366,-0.006130064371973276
1772797802791830000,2.241830078125,-0.003294063964858651,-0.0070523167960345745,-0.002665824256837368
1772797802801857000,2.25185693359375,-0.0011851066956296563,-0.005952431354671717,-0.0014705975772812963
1772797802811883000,2.261883056640625,-0.001782187377102673,-0.001913214917294681,0.0010069411946460605
1772797802821908500,2.271908447265625,-0.0008705873624421656,-0.004707936197519302,-0.0024732777383178473
1772797802831935500,2.281935546875,-0.0014516890514642,-0.006699714343994856,0.0003685815026983619
1772797802841961500,2.29196142578125,-0.004327636677771807,-0.005949235521256924,-0.00436145905405283
1772797802851987500,2.301987548828125,-0.0031995216850191355,-0.008931975811719894,-0.003073820611461997
1772797802862014500,2.312014404296875,-0.004766792058944702,-0.007509581744670868,-0.0038128476589918137
1772797802872040400,2.32204052734375,-0.002410160843282938,-0.0067694890312850475,-0.004309527110308409
1772797802882066400,2.33206640625,-0.002398442942649126,-0.007541006896644831,0.0003531351685523987
1772797802892092400,2.342092529296875,0.00007190534961409867,-0.003290868131443858,-0.00010466222738614306
1772797802902119400,2.352119384765625,-0.0020189424976706505,-0.005478388629853725,-0.00021518341964110732
1772797802912145400,2.3621455078125,-0.0036490634083747864,-0.006174538750201464,-0.001549693406559527
1772797802922171600,2.372171630859375,-0.0013214604696258903,-0.006318349856883287,-0.0031257520895451307
1772797802932198400,2.382198486328125,-0.0022157500497996807,-0.00920574925839901,-0.0022240057587623596
1772797802942224400,2.392224365234375,-0.0030466562602669,-0.008737565018236637,-0.0042706448584795
1772797802952250400,2.40225048828125,-0.0017654094845056534,-0.004652808886021376,-0.0030133668333292007
1772797802962277400,2.41227734375,-0.0026703516487032175,-0.006044310517609119,0.0006202502408996224
1772797802972303400,2.422303466796875,-0.002270611235871911,-0.002454369328916073,-0.0013246563030406833
1772797802982329300,2.432329345703125,-0.0034916705917567015,-0.004516721237450838,-0.002855707658454776
1772797802992356600,2.442356689453125,-0.001680720946751535,-0.005613410845398903,0.00007616640505148098
1772797803002382600,2.452382568359375,-0.002049568807706237,-0.006929278839379549,-0.0017787253018468618
1772797803012408600,2.46240869140625,-0.0009933591354638338,-0.00520647969096899,-0.004625111818313599
1772797803022434600,2.4724345703125,-0.0025750105269253254,-0.007680822629481554,-0.004173972178250551
1772797803032461300,2.48246142578125,-0.0025955168530344963,-0.004988367203623056,-0.0025486452504992485
1772797803042487300,2.4924873046875,-0.0008641957538202405,-0.004080761689692736,-0.0017917747609317303
1772797803052513500,2.502513427734375,-0.003751595038920641,-0.004765992984175682,-0.0031135017052292824
1772797803062540500,2.51254052734375,-0.001671932521276176,-0.005830192007124424,-0.003424026072025299
1772797803072566500,2.52256640625,-0.0041555967181921005,-0.004427771549671888,-0.0017680726014077663
1772797803082592500,2.532592529296875,-0.004119910299777985,-0.007016896735876799,-0.0029643645975738764
1772797803092619500,2.54261962890625,-0.0031129689887166023,-0.007888549007475376,-0.004509530495852232
1772797803102645500,2.5526455078125,-0.0019712718203663826,-0.005604622419923544,-0.002644785214215517
1772797803112671500,2.56267138671875,-0.0037404096219688654,-0.004509264137595892,-0.0033899378031492233
1772797803122697500,2.572697509765625,-0.0007363640470430255,-0.0070523167960345745,-0.0011757856700569391
1772797803132724500,2.582724365234375,-0.0002031991898547858,-0.006363889668136835,-0.0007123955874703825
1772797803142750500,2.59275048828125,-0.0027601001784205437,-0.0076304893009364605,-0.0019238675013184547
1772797803152776400,2.6027763671875,-0.003923634998500347,-0.008446215651929379,-0.005274923052638769
1772797803162803500,2.612803466796875,-0.002481267089024186,-0.007899735122919083,-0.003662112867459655
1772797803172829400,2.622829345703125,-0.0025955168530344963,-0.010976484976708889,-0.003882356220856309
1772797803182855400,2.63285546875,-0.003350256709381938,-0.011291802860796452,-0.006400641519576311
1772797803192882400,2.64288232421875,-0.0017496967921033502,-0.012025503441691399,-0.004384628497064114
1772797803202908400,2.652908447265625,0.00028096348978579044,-0.006733270362019539,-0.002688727341592312
1772797803212934400,2.662934326171875,-0.0035478631034493446,-0.0073447320610284805,-0.0013395700370892882
1772797803222961400,2.67296142578125,-0.0021339908707886934,-0.004414722323417664,-0.0007352987886406481
1772797803232987400,2.6829873046875,-0.002528937766328454,-0.003994208760559559,-0.002552639925852418
1772797803243013400,2.693013427734375,-0.002008556155487895,-0.005577724426984787,-0.0041702440939843655
1772797803253039600,2.70303955078125,-0.002438656520098448,-0.00444055488333106,-0.002916427794843912
1772797803263066600,2.713066650390625,-0.003224555402994156,-0.003197923768311739,-0.004151335451751947
1772797803273092600,2.723092529296875,-0.0034786208998411894,-0.00580755528062582,-0.0036546560004353523
1772797803283118600,2.73311865234375,-0.003328951308503747,-0.005182511638849974,-0.0032442628871649504
1772797803293145300,2.743145263671875,-0.0006506102508865297,-0.006717291194945574,-0.0041731735691428185
1772797803303171300,2.75317138671875,-0.001315068919211626,-0.00529622845351696,-0.002510828198865056
1772797803313197300,2.763197265625,-0.0022543659433722496,-0.005242965184152126,-0.0024804682470858097
1772797803323224600,2.773224609375,-0.0013528858544304967,-0.006045908201485872,-0.0016945693641901016
1772797803333250600,2.78325048828125,0.0001525991247035563,-0.005991313606500626,-0.003879693103954196
1772797803343276500,2.793276611328125,-0.00264798104763031,-0.003994208760559559,-0.0038003309164196253
1772797803353302500,2.803302490234375,-0.0010958907660096884,-0.008705873973667622,-0.0028570392169058323
1772797803363329500,2.81332958984375,-0.003213636577129364,-0.006052832584828138,-0.004548412747681141
1772797803373355300,2.823355224609375,-0.0006647250265814364,-0.006569485645741224,-0.004493551794439554
1772797803383381200,2.83338134765625,-0.0012314456980675459,-0.004508199170231819,-0.00256435782648623
1772797803393408500,2.843408447265625,-0.002231462625786662,-0.0031382690649479628,-0.0013949638232588768
1772797803403434500,2.8534345703125,-0.003578755771741271,-0.002058357233181596,0.00028815402765758336
1772797803413460500,2.86346044921875,-0.0009454221581108868,-0.003972104750573635,0.0006767092272639275
1772797803423487500,2.873487548828125,-0.002176867797970772,-0.0072959959506988525,-0.002359294332563877
1772797803433513500,2.883513427734375,-0.0017779263434931636,-0.0065042381174862385,-0.005561479367315769
1772797803443539500,2.89353955078125,-0.0023214775137603283,-0.009976468048989773,-0.0049319081008434296
1772797803453566500,2.90356640625,-0.0023065637797117233,-0.006166549399495125,-0.0023222763556987047
1772797803463592400,2.913592529296875,-0.0019710054621100426,-0.004960137419402599,-0.0007925567333586514
1772797803473618400,2.923618408203125,-0.0025622271932661533,-0.0034551850985735655,-0.0032226911280304193
1772797803483644400,2.93364453125,-0.0025632926262915134,-0.004370513837784529,-0.0021457087714225054
1772797803493671400,2.94367138671875,-0.004602475091814995,-0.005948702804744244,-0.003567570587620139
1772797803503697400,2.953697509765625,-0.002909769769757986,-0.00788695178925991,-0.004218180663883686
1772797803513723400,2.963723388671875,-0.0019478360190987587,-0.005935919936746359,-0.004846686962991953
1772797803523750700,2.973750732421875,-0.0003478088474366814,-0.00580782163888216,-0.003838414093479514
1772797803533776600,2.983776611328125,-0.0026961842086166143,-0.005275722127407789,-0.001886050682514906
1772797803543802600,2.993802734375,-0.0007603325066156685,-0.004339088220149279,-0.004114317707717419
1772797803553829400,3.003829345703125,-0.004548945464193821,-0.004594485275447369,-0.0014895059866830707
1772797803563855400,3.01385546875,-0.0019054916920140386,-0.0013616742799058557,-0.0023811322171241045
1772797803573881300,3.02388134765625,-0.0034179009962826967,-0.005429386626929045,-0.0013755226973444223
1772797803583907300,3.0339072265625,-0.0004689826746471226,-0.007624896243214607,-0.0035694348625838757
1772797803593934600,3.0439345703125,-0.0020271982066333294,-0.007414773106575012,-0.0036943370942026377
1772797803603960600,3.053960693359375,-0.0034320156555622816,-0.008049936965107918,-0.004277835600078106
1772797803613986600,3.063986572265625,-0.0035369442775845528,-0.005861084908246994,-0.0016050871927291155
1772797803624013300,3.074013427734375,-0.00012916330888401717,-0.00643686018884182,-0.0027981833554804325
1772797803634039300,3.084039306640625,-0.0032738239970058203,-0.002600044244900346,-0.0035119105596095324
1772797803644065300,3.094065185546875,-0.0008964200387708843,-0.0048919604159891605,-0.002383262850344181
1772797803654092500,3.104092529296875,-0.001597363967448473,-0.005253351293504238,-0.0017291904659941792
1772797803664118500,3.114118408203125,-0.0029169602785259485,-0.007474694401025772,-0.0029923277907073498
1772797803674144500,3.12414453125,-0.0013230583863332868,-0.00777669670060277,-0.0037864823825657368
1772797803684170500,3.13417041015625,-0.0015611450653523207,-0.008641159161925316,-0.0035329493694007397
1772797803694197500,3.144197509765625,-0.0029172266367822886,-0.006140450481325388,-0.0033212280832231045
1772797803704223500,3.154223388671875,-0.0008945558220148087,-0.004192081745713949,-0.0026559706311672926
1772797803714249500,3.16424951171875,-0.004396612755954266,-0.0051596080884337425,-0.001035436987876892
1772797803724276500,3.1742763671875,-0.0011528824688866735,-0.005820072256028652,-0.0037025928031653166
1772797803734302500,3.184302490234375,-0.001008272753097117,-0.006295712664723396,-0.003948668949306011
1772797803744328400,3.194328369140625,-0.004879443906247616,-0.006373477168381214,-0.004670385736972094
1772797803754355500,3.20435546875,-0.0020663465838879347,-0.00785392802208662,-0.00370179396122694
1772797803764381400,3.21438134765625,-0.00213558878749609,-0.007496265694499016,-0.004905809182673693
1772797803774407400,3.224407470703125,0.0003145193331874907,-0.0021603561472147703,-0.006700513418763876
1772797803784433400,3.234433349609375,-0.0032642364967614412,-0.004568919073790312,-0.0024317323695868254
1772797803794460400,3.24446044921875,-0.0010788465151563287,-0.007516505662351847,-0.001832521171309054
1772797803804486400,3.254486328125,-0.0034437335561960936,-0.008593754842877388,-0.004644020460546017
1772797803814512400,3.264512451171875,-0.0028482507914304733,-0.003154247999191284,-0.0030418625101447105
1772797803824540200,3.2745400390625,-0.001927595934830606,-0.0036695697344839573,-0.0037209687288850546
1772797803834566100,3.284566162109375,-0.0004743089957628399,-0.007081611547619104,-0.0016951019642874599
1772797803844592000,3.294592041015625,-0.0037502634804695845,-0.0064989118836820126,-0.002457298804074526
1772797803854619400,3.304619384765625,-0.0027377295773476362,-0.007890413515269756,-0.002475142013281584
1772797803864645000,3.31464501953125,-0.003311907174065709,-0.007189469411969185,-0.005529787857085466
1772797803874671000,3.324671142578125,-0.002549177734181285,-0.00896766223013401,-0.0030487868934869766
1772797803884697000,3.334697021484375,-0.00336144189350307,-0.005906092468649149,-0.005222725216299295
1772797803894724000,3.34472412109375,-0.001285241567529738,-0.0067844027653336525,-0.0035401401109993458
1772797803904750000,3.35475,-0.002109489869326353,-0.005783320404589176,-0.0003043993201572448
1772797803914776000,3.364776123046875,-0.002517486223950982,-0.006490123458206654,-0.002600044244900346
1772797803924803300,3.37480322265625,-0.000669252360239625,-0.0023366576060652733,-0.0030146983917802572
1772797803934829300,3.384829345703125,-0.0024772724136710167,-0.0043806335888803005,-0.0021310613956302404
1772797803944855300,3.394855224609375,-0.0020415792241692543,-0.004983839578926563,-0.0005544701125472784
1772797803954881300,3.40488134765625,-0.003736148588359356,-0.0054419031366705894,-0.004658934194594622
1772797803964908000,3.414907958984375,-0.0005720470217056572,-0.005152950529009104,-0.0028780782595276833
1772797803974934000,3.42493408203125,-0.003850398352369666,-0.0025094966404139996,-0.0020122844725847244
1772797803984960000,3.4349599609375,-0.0030357372015714645,-0.007281348574906588,-0.0028727517928928137
1772797803994987300,3.4449873046875,-0.0026106967125087976,-0.004449609667062759,-0.002537193475291133
1772797804005013200,3.45501318359375,-0.003981159534305334,-0.00455746753141284,-0.0006993460701778531
1772797804015039200,3.465039306640625,0.00019254654762335122,-0.004956675227731466,-0.0020130835473537445
1772797804025066200,3.475066162109375,-0.003288205014541745,-0.004858138505369425,-0.0008383630774915218
1772797804035092200,3.48509228515625,-0.0009813748765736818,-0.006660299375653267,-0.0014745922526344657
1772797804045118200,3.4951181640625,-0.0025979136116802692,-0.0012362393317744136,-0.004339620936661959
1772797804055144200,3.505144287109375,0.0014596786350011826,-0.0031345405150204897,-0.001431182725355029
1772797804065171200,3.515171142578125,-0.002038117265328765,-0.005906358826905489,-0.0029403960797935724
1772797804075197200,3.525197265625,-0.003038134193047881,-0.0057289921678602695,-0.002638659905642271
1772797804085223200,3.53522314453125,-0.0008873652550391853,-0.0036458675749599934,-0.004507666453719139
1772797804095250200,3.545250244140625,-0.0014378406340256333,-0.004462925251573324,-0.005654689855873585
1772797804105276200,3.555276123046875,-0.0016519587952643633,-0.00404507527127862,-0.0018628811230883002
1772797804115302100,3.56530224609375,-0.0020426444243639708,-0.004898884799331427,-0.0006479470757767558
1772797804125328100,3.575328125,-0.0013028184184804559,-0.005615008994936943,-0.005673864856362343
1772797804135355100,3.585355224609375,-0.0015028218040242791,-0.005664277356117964,-0.004506867378950119
1772797804145381000,3.595381103515625,-0.0023819312918931246,-0.0073593794368207455,-0.004354801028966904
1772797804155407000,3.605406982421875,-0.003349457634612918,-0.008108526468276978,-0.0054640076123178005
1772797804165434000,3.61543408203125,-0.0008807073463685811,-0.009797503240406513,-0.005420864559710026
1772797804175460000,3.625460205078125,0.0004599279200192541,-0.0073625752702355385,-0.003795803524553776
1772797804185486000,3.635486083984375,-0.004733502399176359,-0.007813980802893639,-0.006587861571460962
1772797804195513300,3.645513427734375,-0.0015813850332051516,-0.006103432737290859,-0.005053347907960415
1772797804205539300,3.655539306640625,-0.0020101540721952915,-0.007250189781188965,-0.003433347214013338
1772797804215565300,3.6655654296875,-0.00404534162953496,-0.003584881080314517,-0.0036067189648747444
1772797804225591300,3.67559130859375,-0.0007355650886893272,-0.0035537220537662506,-0.00341523764654994
1772797804235618000,3.6856181640625,0.0002460760879330337,-0.002317482838407159,-0.0039017973467707634
1772797804245644000,3.69564404296875,-0.0022082931827753782,-0.004837099462747574,-0.0038956720381975174
1772797804255670000,3.705669921875,-0.0014146711910143495,-0.003963316325098276,-0.004204598721116781
1772797804265697300,3.715697265625,-0.001689775730483234,-0.0024232103023678064,-0.0038655782118439674
1772797804275723300,3.72572314453125,-0.002290318487212062,-0.0014647386269643903,-0.0016343819443136454
1772797804285749200,3.735749267578125,-0.0007427555974572897,-0.0018138790037482977,-0.005348426289856434
1772797804295775200,3.745775146484375,-0.0010029464028775692,-0.0033300165086984634,-0.0008756473544053733
1772797804305802000,3.755802001953125,-0.0022562299855053425,-0.003644003299996257,-0.004387291613966227
1772797804315828000,3.765827880859375,-0.00018136126163881272,-0.005392102058976889,-0.0034149715211242437
1772797804325854000,3.77585400390625,-0.0009480853332206607,-0.004789961501955986,-0.0018964370246976614
1772797804335881200,3.785881103515625,-0.00296303303912282,-0.0031252196058630943,-0.0034325483720749617
1772797804345907200,3.7959072265625,-0.00019441076437942684,-0.004443484358489513,-0.0067481836304068565
1772797804355933200,3.80593310546875,-0.0015214639715850353,-0.010306699201464653,-0.006116481963545084
1772797804365959200,3.815959228515625,-0.0010018812026828527,-0.006503705866634846,-0.0073047843761742115
1772797804375986200,3.825986083984375,-0.0025355955585837364,-0.004850415047258139,-0.0044322991743683815
1772797804386012200,3.83601220703125,-0.0026794064324349165,-0.002606435678899288,-0.002573146251961589
1772797804396038100,3.8460380859375,-0.002740659052506089,-0.0037736992817372084,0.0024868599139153957
1772797804406065200,3.856065185546875,-0.0037180392537266016,-0.0043505397625267506,0.0014559502014890313
1772797804416091100,3.866091064453125,0.0003909520455636084,-0.0017230651574209332,-0.0000327568814100232
1772797804426117000,3.8761171875,-0.0019177423091605306,-0.007676029112190008,-0.004888232331722975
1772797804436144000,3.88614404296875,-0.0032746228389441967,-0.008595085702836514,-0.003569967346265912
1772797804446170000,3.896170166015625,-0.0033963292371481657,-0.008815063163638115,-0.004776645917445421
1772797804456196000,3.906196044921875,-0.0023278691805899143,-0.007719704881310463,-0.005155347287654877
1772797804466222000,3.91622216796875,-0.0027627632953226566,-0.004837365821003914,-0.0016852483386173844
1772797804476249300,3.926249267578125,-0.00376011710613966,-0.005647765472531319,-0.0008932242053560913
1772797804486275000,3.936275146484375,-0.002031192881986499,-0.003998470026999712,-0.003418966196477413
1772797804496301000,3.946301025390625,-0.0041401502676308155,-0.0073569826781749725,-0.000565389113035053
1772797804506328000,3.956328125,-0.0011768508702516556,-0.0065282066352665424,-0.003457582090049982
1772797804516354000,3.96635400390625,-0.0008436894277110696,-0.007937817834317684,-0.004211256746202707
1772797804526380000,3.976380126953125,-0.0038394792936742306,-0.007818774320185184,-0.0019478360190987587
1772797804536406000,3.986406005859375,-0.0006777744856663048,-0.0054754591546952724,-0.0025723471771925688
1772797804546433300,3.996433349609375,-0.0017986990278586745,-0.004298608284443617,-0.00033209618413820863
1772797804556459300,4.006459228515625,-0.004263720940798521,-0.0028391960076987743,-0.0003105245705228299
1772797804566485200,4.0164853515625,-0.0024381240364164114,-0.005688512232154608,0.00026764770154841244
1772797804576512000,4.026511962890625,-0.00016431703988928348,-0.0039041941054165363,-0.004522580187767744
1772797804586538000,4.0365380859375,-0.002926813904196024,-0.006308762356638908,-0.004197940696030855
1772797804596564000,4.04656396484375,-0.0033625070936977863,-0.006363090593367815,-0.003163302782922983
1772797804606590000,4.05658984375,-0.002525475574657321,-0.005362540949136019,-0.005233910400420427
1772797804616617200,4.0666171875,-0.0006828344776295125,-0.00637800432741642,-0.004502340219914913
1772797804626643200,4.076643310546875,-0.00044314999831840396,-0.003057841444388032,-0.001606152392923832
1772797804636669200,4.086669189453125,-0.003434146288782358,-0.0030605047941207886,-0.003091397462412715
1772797804646696200,4.0966962890625,-0.0017145430902019143,-0.0020485036075115204,-0.0002633866388350725
1772797804656722200,4.10672216796875,-0.0024642229545861483,-0.004350806120783091,-0.0008732505375519395
1772797804666748200,4.116748046875,-0.004551874939352274,-0.002269545802846551,-0.0022173479665070772
1772797804676774100,4.126774169921875,-0.002403502818197012,-0.006060821935534477,-0.0036597158759832382
1772797804686801200,4.13680126953125,-0.0007094661123119295,-0.006477872841060162,-0.0019326560432091355
1772797804696827100,4.1468271484375,-0.0037316211964935064,-0.004811266902834177,-0.001651159836910665
1772797804706853000,4.15685302734375,-0.001876995898783207,-0.0027798074297606945,-0.0024434502702206373
1772797804716880100,4.166880126953125,-0.002701244316995144,-0.005810218397527933,-0.0022445120848715305
1772797804726906000,4.176906005859375,-0.0012865731259807944,-0.005851231049746275,-0.00007616640505148098
1772797804736932000,4.18693212890625,-0.002921487670391798,-0.005092762876302004,-0.0008655273704789579
1772797804746959000,4.196958984375,-0.001603222917765379,-0.004914863966405392,-0.004957474302500486
1772797804756985000,4.206985107421875,-0.00015765913121867925,-0.008612928912043571,-0.0022985744290053844
1772797804767011000,4.217010986328125,0.0015547533985227346,-0.009958624839782715,-0.0062882560305297375
1772797804777037000,4.227037109375,-0.0007459514308720827,-0.004983573220670223,-0.0027076357509940863
1772797804787064000,4.23706396484375,-0.003078347770497203,-0.005730057135224342,-0.006747385021299124
1772797804797090000,4.247090087890625,-0.0019747340120375156,-0.006725014187395573,-0.0019560917280614376
1772797804807116000,4.257115966796875,-0.0020010992884635925,-0.005637645721435547,-0.0031273500062525272
1772797804817142300,4.267142333984375,-0.000990962260402739,-0.005591306835412979,-0.0003888215287588537
1772797804827168500,4.27716845703125,-0.0025331987999379635,-0.002916161436587572,-0.0015699334908276796
1772797804837194500,4.287194580078125,-0.0031092404387891293,-0.004884237423539162,-0.004733768757432699
1772797804847220500,4.297220458984375,-0.004664260428398848,-0.007516772020608187,-0.0026343988720327616
1772797804857247500,4.30724755859375,-0.0021696772892028093,-0.006963100749999285,-0.0024285365361720324
1772797804867273500,4.3172734375,-0.0032373385038226843,-0.006485329940915108,-0.0022948458790779114
1772797804877299500,4.327299560546875,-0.00010412959818495438,-0.005001682788133621,-0.0014761901693418622
1772797804887326500,4.337326416015625,0.00008894957863958552,-0.006155097857117653,-0.004717523697763681
1772797804897352400,4.3473525390625,-0.0032048479188233614,-0.005016596522182226,-0.003043194068595767
1772797804907378400,4.35737841796875,-0.0019382486352697015,-0.003736681304872036,-0.0039145806804299355
1772797804917404400,4.367404296875,-0.002472478663548827,-0.004679440520703793,-0.00401551416143775
1772797804927431700,4.377431640625,-0.001972070662304759,-0.0030959248542785645,-0.0034171019215136766
1772797804937457700,4.387457763671875,-0.002695651724934578,-0.005161738954484463,-0.0051862397231161594
1772797804947483600,4.397483642578125,-0.0017217335989698768,-0.005890646018087864,-0.00173771264962852
1772797804957510400,4.407510498046875,-0.0025004418566823006,-0.004470914602279663,-0.003162770066410303
1772797804967536400,4.417536376953125,-0.00009161273919744417,-0.004089550115168095,-0.0025244103744626045
1772797804977562400,4.427562255859375,-0.0015816513914614916,-0.006078398786485195,-0.0011086739832535386
1772797804987588400,4.43758837890625,-0.0025989788118749857,-0.0033875408116728067,-0.0033190976828336716
1772797804997615600,4.44761572265625,-0.001374723738990724,-0.005636580288410187,-0.0007579356315545738
1772797805007641600,4.4576416015625,-0.002255697501823306,-0.006779609248042107,-0.0019089538836851716
1772797805017667600,4.46766748046875,-0.0009155947482213378,-0.0027718180790543556,-0.0034232272300869226
1772797805027693600,4.477693603515625,-0.004598480183631182,-0.008736499585211277,-0.002520415699109435
1772797805037720300,4.48772021484375,-0.004732969682663679,-0.005088235717266798,-0.0014833806781098247
1772797805047746300,4.497746337890625,-0.0015044197207316756,-0.004220843780785799,-0.003528422210365534
1772797805057772500,4.5077724609375,-0.001255946815945208,-0.005405684467405081,-0.0017124125733971596
1772797805067799600,4.517799560546875,-0.001999767730012536,-0.005592638161033392,-0.003991812001913786
1772797805077825500,4.527825439453125,-0.0019299928098917007,-0.0059902481734752655,-0.002481267089024186
1772797805087851500,4.5378515625,-0.0036914076190441847,-0.006308229640126228,-0.004700479097664356
1772797805097877500,4.54787744140625,-0.001882854849100113,-0.007614243775606155,-0.0026879284996539354
1772797805107904500,4.557904541015625,-0.001812014845199883,-0.006195844151079655,-0.00045087316539138556
1772797805117930500,4.567930419921875,-0.003492469433695078,-0.006508765742182732,0.0000774979853304103
1772797805127956700,4.577956787109375,-0.001056209672242403,-0.004863997455686331,-0.0031457259319722652
1772797805137983500,4.5879833984375,-0.0007291734800674021,-0.008742624893784523,-0.0034149715211242437
1772797805148009500,4.598009521484375,-0.001008272753097117,-0.007725830189883709,-0.006168147549033165
1772797805158035500,4.608035400390625,0.0006183860241435468,-0.01013652328401804,-0.005904760677367449
1772797805168061400,4.6180615234375,-0.0014002900570631027,-0.010099239647388458,-0.005338838789612055
1772797805178088400,4.62808837890625,-0.0006301039247773588,-0.007476824801415205,-0.0031734227668493986
1772797805188114400,4.638114501953125,-0.002237055217847228,-0.004790227860212326,-0.001014664419926703
1772797805198140700,4.648140625,-0.003309244057163596,-0.0036732980515807867,-0.0021901836153119802
1772797805208167700,4.658167724609375,-0.0008604673203080893,-0.00247540813870728,-0.0022948458790779114
1772797805218193400,4.668193359375,-0.002013882389292121,-0.006284261122345924,-0.0026075011119246483
1772797805228219400,4.678219482421875,-0.00205223192460835,-0.01423353049904108,-0.008348477073013783
1772797805238245400,4.688245361328125,-0.002919090911746025,-0.01375043299049139,-0.008046475239098072
1772797805248272400,4.6982724609375,-0.00350472005084157,-0.010492055676877499,-0.006448045372962952
1772797805258298600,4.708298583984375,0.00013528858835343271,-0.012750416062772274,-0.008586031384766102
1772797805268324600,4.71832470703125,-0.0012815131340175867,-0.01128088403493166,-0.005358013790100813
1772797805278351600,4.7283515625,-0.0007070692372508347,-0.008349009789526463,-0.002630936913192272
1772797805288377600,4.738377685546875,-0.0016559535870328546,-0.011448662728071213,-0.0054213968105614185
1772797805298403600,4.748403564453125,0.00014620754518546164,-0.01549240667372942,-0.0010956244077533484
1772797805308429600,4.7584296875,-0.004162786994129419,-0.0073473951779305935,-0.007850466296076775
1772797805318456300,4.768456298828125,-0.0022626216523349285,-0.029983464628458023,-0.0021345235873013735
1772797805328482600,4.778482666015625,-0.0037406759802252054,-0.03898628056049347,-0.00780572509393096
1772797805338508500,4.788508544921875,-0.0041151163168251514,-0.001597630325704813,-0.014092649333178997
1772797805348534500,4.798534423828125,-0.0023366576060652733,0.0030357372015714645,-0.009229717776179314
1772797805358561500,4.8085615234375,-0.002600576728582382,-0.016817862167954445,0.005775863770395517
1772797805368587500,4.81858740234375,-0.0032237565610557795,-0.005518335849046707,0.008292817510664463
1772797805378613500,4.828613525390625,-0.004403004422783852,0.007075219880789518,0.0025065671652555466
1772797805388640500,4.838640625,-0.0021140172611922026,0.0006325007416307926,-0.0027776770293712616
1772797805398666500,4.84866650390625,-0.0017627463676035404,-0.019213907420635223,-0.007394533138722181
1772797805408692500,4.8586923828125,-0.00012117382721044123,-0.016885239630937576,-0.007096791639924049
1772797805418718500,4.868718505859375,-0.0002463423879817128,-0.00893863383680582,-0.00881133507937193
1772797805428745500,4.878745361328125,-0.002525475574657321,-0.005001949146389961,-0.0041193775832653046
1772797805438771500,4.888771484375,-0.004064516630023718,-0.005657352972775698,0.002257561543956399
1772797805448797400,4.89879736328125,-0.0009856359101831913,-0.002258893335238099,0.0013568805297836661
1772797805458824700,4.90882470703125,-0.002579271560534835,-0.002511627273634076,-0.004780640359967947
1772797805468850700,4.9188505859375,-0.002382730133831501,-0.0059870523400604725,-0.0073292856104671955
1772797805478876700,4.928876708984375,-0.0007158577209338546,-0.010975419543683529,-0.006391054019331932
1772797805488902700,4.938902587890625,-0.0032229574862867594,-0.010945059359073639,-0.00546240946277976
1772797805498929400,4.948929443359375,0.0009653958841226995,-0.005872802808880806,-0.004844822455197573
1772797805508955400,4.958955322265625,-0.0011598066193982959,-0.002855441300198436,-0.0014096111990511417
1772797805518981400,4.9689814453125,-0.0011467571603134274,-0.0006700513185933232,-0.0002671150432433933
1772797805529008600,4.979008544921875,-0.0031166973058134317,-0.0021840583067387342,0.002320145955309272
1772797805539034600,4.98903466796875,-0.003138535423204303,-0.0027454528026282787,0.0004106594424229115
1772797805549060600,4.999060546875,-0.000987766426987946,-0.007874701172113419,-0.0027052389923483133
1772797805559086600,5.009086669921875,-0.0012434299569576979,-0.009517605416476727,-0.004354534670710564
1772797805569113600,5.019113525390625,-0.002071140334010124,-0.009455286897718906,-0.007661914452910423
1772797805579139600,5.0291396484375,-0.0024607607629150152,-0.007781223859637976,-0.004758269991725683
1772797805589165600,5.03916552734375,-0.0027859327383339405,-0.005679723806679249,-0.0023403859231621027
1772797805599191600,5.049191650390625,-0.002132925670593977,-0.0049281795509159565,-0.0000804274677648209
1772797805609218600,5.059218505859375,-0.0008532768115401268,-0.004595017991960049,-0.002781938062980771
1772797805619244500,5.06924462890625,-0.0029843382071703672,-0.005849367007613182,-0.005565207917243242
1772797805629270500,5.0792705078125,-0.0020530307665467262,-0.007965780794620514,-0.002642122097313404
1772797805639297500,5.089297607421875,-0.003721767570823431,-0.006956443190574646,-0.0030951257795095444
1772797805649323500,5.099323486328125,-0.0019558256026357412,-0.008046475239098072,-0.005715143866837025
1772797805659349500,5.109349609375,-0.0016106797847896814,-0.0070792147889733315,-0.003931624814867973
1772797805669375500,5.11937548828125,-0.0022383867762982845,-0.004025634378194809,-0.003162770066410303
1772797805679402500,5.129402587890625,-0.003034405643120408,-0.004600610584020615,-0.0008673915872350335
1772797805689428500,5.139428466796875,-0.0028493159916251898,-0.005590774118900299,0.0005017395596951246
1772797805699454500,5.149454345703125,-0.00040559942135587335,-0.004006992094218731,-0.0016538230702280998
1772797805709481500,5.1594814453125,-0.001996039180085063,-0.006387325469404459,-0.0057380469515919685
1772797805719507500,5.169507568359375,-0.0021438447292894125,-0.006677343975752592,-0.004216849338263273
1772797805729533400,5.179533447265625,-0.0030301446095108986,-0.006281065288931131,-0.0019089538836851716
1772797805739559400,5.189559326171875,-0.0026501116808503866,-0.0054123420268297195,-0.0007629956235177815
1772797805749586700,5.199586669921875,-0.004156661685556173,-0.0016487629618495703,0.0002748382103163749
1772797805759612700,5.20961279296875,-0.004551874939352274,-0.0018306568963453174,0.0010431602131575346
1772797805769638700,5.219638671875,-0.0006301039247773588,-0.0019097528420388699,-0.0031273500062525272
1772797805779664600,5.22966455078125,-0.0017214673571288586,-0.009184976108372211,-0.0016530241118744016
1772797805789691400,5.23969140625,-0.00230789533816278,-0.006268282420933247,-0.005411809775978327
1772797805799717400,5.24971728515625,-0.0023702133912593126,-0.007330084685236216,-0.0037297571543604136
1772797805809743400,5.259743408203125,-0.00096086849225685,-0.006903446279466152,-0.002368349116295576
1772797805819770600,5.2697705078125,-0.004126301966607571,-0.004963865969330072,-0.0008436894277110696
1772797805829797000,5.279797119140625,-0.0023148194886744022,-0.0037910097744315863,-0.0019270633347332478
1772797805839823000,5.289822998046875,-0.0024714134633541107,-0.0023848607670515776,-0.00358834327198565
1772797805849849000,5.29984912109375,-0.0024650217965245247,-0.003575826296582818,-0.0022708773612976074
1772797805859875800,5.309875732421875,-0.002242914168164134,-0.010005230084061623,-0.0038008634001016617
1772797805869901800,5.31990185546875,-0.00333241350017488,-0.008221977390348911,-0.005142031237483025
1772797805879927800,5.329927734375,-0.002636795863509178,-0.006715427152812481,-0.005404619034379721
1772797805889954000,5.3399541015625,-0.0014327806420624256,-0.00686083547770977,-0.0022828616201877594
1772797805899981000,5.34998095703125,-0.0015217302134260535,-0.006762298755347729,-0.0025449167005717754
1772797805910007000,5.360007080078125,-0.0006567355012521148,-0.004546548705548048,-0.0005510080372914672
1772797805920033000,5.370032958984375,-0.0016237293602898717,-0.003174487967044115,-0.002865028567612171
1772797805930060000,5.38006005859375,-0.003148389048874378,-0.004795287735760212,-0.004351605195552111
1772797805940085800,5.390085693359375,0.0002146507758880034,-0.006756439805030823,-0.0034903388004750013
1772797805950111700,5.40011181640625,-0.000743554555810988,-0.00669252360239625,-0.004698881413787603
1772797805960138000,5.410137939453125,-0.00293347192928195,-0.007764978799968958,-0.0023616913240402937
1772797805970165000,5.4201650390625,-0.001270594191737473,-0.004866660572588444,-0.004177434369921684
1772797805980191000,5.43019091796875,-0.001748897833749652,-0.005811816547065973,-0.0029648973140865564
1772797805990217000,5.440217041015625,-0.0033598439767956734,-0.008086156100034714,-0.00501206936314702
1772797806000243000,5.450242919921875,-0.0017499631503596902,-0.005862948950380087,-0.0023699470330029726
1772797806010270000,5.46027001953125,-0.0022330605424940586,-0.0031033814884722233,-0.004324973560869694
1772797806020296200,5.470296142578125,-0.003914314322173595,-0.003090332029387355,-0.002364886924624443
1772797806030322200,5.480322265625,-0.0033598439767956734,-0.0063002402894198895,-0.0029033781029284
1772797806040349000,5.490348876953125,-0.0012535499408841133,-0.003978496417403221,-0.003629355924203992
1772797806050375000,5.500375,-0.0025952504947781563,-0.00458836043253541,-0.0034285534638911486
1772797806060401000,5.51040087890625,0.0010665960144251585,-0.007427023723721504,-0.002657035831362009
1772797806070427000,5.520427001953125,-0.002091646660119295,-0.00833596009761095,-0.0021576930303126574
1772797806080454000,5.530453857421875,-0.0022453111596405506,-0.00842863880097866,-0.003168895374983549
1772797806090480000,5.540480224609375,-0.0026959178503602743,-0.006448045372962952,-0.0032900692895054817
1772797806100506000,5.550506103515625,0.0015190670965239406,-0.0057042245753109455,-0.0033571808598935604
1772797806110532000,5.560531982421875,-0.0027233485598117113,-0.00637960247695446,-0.004536694847047329
1772797806120559000,5.57055908203125,-0.00162426196038723,-0.004004062619060278,-0.001543834456242621
1772797806130584800,5.580584716796875,-0.0010950918076559901,-0.003634682158008218,-0.0009824400767683983
1772797806140610800,5.59061083984375,-0.0025957829784601927,-0.0018695390317589045,-0.002498843939974904
1772797806150637800,5.600637939453125,-0.002353701740503311,-0.008220911957323551,-0.004240018781274557
1772797806160664000,5.6106640625,-0.0001525991247035563,-0.004604605492204428,-0.002040780382230878
1772797806170690000,5.62068994140625,-0.002633333671838045,-0.006472013890743256,-0.004517520312219858
1772797806180716000,5.630716064453125,-0.0017054883064702153,-0.00446798512712121,-0.0006972155533730984
1772797806190743000,5.640742919921875,-0.0028735508676618338,-0.006852313410490751,-0.005391569808125496
1772797806200769000,5.65076904296875,-0.002071140334010124,-0.005477056838572025,-0.0024074974935501814
1772797806210795000,5.660794921875,-0.0036993969697505236,-0.0051809134893119335,-0.0028506475500762463
1772797806220821000,5.670821044921875,-0.004188087303191423,-0.005024852231144905,-0.003885552054271102
1772797806230848000,5.680847900390625,-0.0022397185675799847,-0.006086121778935194,0.0000804274677648209
1772797806240874000,5.6908740234375,-0.001976065570488572,-0.006304501090198755,-0.0013904364313930273
1772797806250900000,5.70089990234375,0.0009113337146118283,-0.006554039195179939,-0.004721251782029867
1772797806260927000,5.710927001953125,0.00267780851572752,-0.004560397006571293,-0.004012051969766617
1772797806270953000,5.720952880859375,-0.003326288191601634,-0.006176669616252184,-0.0008713863207958639
1772797806280979000,5.73097900390625,-0.0028876655269414186,-0.00863103847950697,-0.00199284334667027
1772797806291005000,5.7410048828125,-0.003070092061534524,-0.006925283931195736,-0.0025806031189858913
1772797806301032200,5.7510322265625,0.0022796657867729664,-0.003847468877211213,0.00042344260145910084
1772797806311058000,5.761057861328125,-0.004487692844122648,0.0003861583536490798,-0.0017188041238114238
1772797806321084000,5.771083984375,-0.001755289500579238,-0.006415821146219969,0.0007044061203487217
1772797806331110000,5.78110986328125,-0.0019558256026357412,-0.003061836352571845,-0.001184041379019618
1772797806341137000,5.791136962890625,-0.0017382452497258782,-0.008098939433693886,-0.0035236284602433443
1772797806351163000,5.801162841796875,-0.002041046740487218,-0.008324242196977139,-0.005483714863657951
1772797806361188900,5.81118896484375,-0.004608067683875561,-0.011098723858594894,-0.006953247357159853
1772797806371216100,5.821216064453125,-0.004428570624440908,-0.0046549392864108086,-0.005161206237971783
1772797806381242000,5.8312421875,-0.003305515507236123,-0.00621155695989728,-0.0006119944155216217
1772797806391268000,5.84126806640625,-0.0020623519085347652,-0.006479204632341862,-0.00002609897819638718
1772797806401294000,5.851294189453125,-0.0009784454014152288,-0.00821771565824747,-0.0016056197928264737
1772797806411320800,5.86132080078125,-0.0032799490727484226,-0.00683100800961256,-0.0027180220931768417
1772797806421346800,5.871346923828125,-0.0023699470330029726,-0.0065465825609862804,-0.004560397006571293
1772797806431372800,5.881372802734375,-0.0028666264843195677,-0.012478507123887539,-0.005634183529764414
1772797806441399000,5.89139892578125,-0.0024194817524403334,-0.004942294210195541,-0.0033273533917963505
1772797806451426000,5.901426025390625,-0.003562244353815913,-0.0003073287953156978,-0.0033545177429914474
1772797806461452000,5.9114521484375,-0.0006687197601422668,-0.002814428647980094,-0.0007403587806038558
1772797806471478000,5.92147802734375,-0.002502039773389697,-0.006930876523256302,-0.0019174759509041905
1772797806481504000,5.93150390625,-0.0028240159153938293,-0.005131911486387253,-0.0023182816803455353
1772797806491531000,5.941531005859375,-0.002347842790186405,-0.004281830508261919,-0.005283178761601448
1772797806501557000,5.951556884765625,-0.003430684097111225,-0.00407490273937583,-0.004366252571344376
1772797806511583000,5.9615830078125,-0.0009408948244526982,-0.006171342916786671,-0.0033427998423576355
1772797806521610000,5.97160986328125,-0.0019590212032198906,-0.007214237004518509,-0.0011760519118979573
1772797806531636000,5.981635986328125,-0.0006317017832770944,-0.003963049966841936,-0.003930026665329933
1772797806541662000,5.991661865234375,-0.0037670412566512823,-0.002909503411501646,-0.002034388715401292
1772797806551688000,6.00168798828125,-0.0029023129027336836,-0.005844040773808956,-0.003357979701831937
1772797806561715000,6.01171484375,-0.0021758025977760553,-0.006589192897081375,-0.004454136826097965
1772797806571741000,6.021740966796875,-0.0035835495218634605,-0.008769523352384567,-0.0036788906436413527
1772797806581767200,6.03176708984375,-0.0019068233668804169,-0.008726912550628185,-0.0037790255155414343
1772797806591793200,6.041793212890625,-0.002119077369570732,-0.009622800163924694,-0.001585646066814661
1772797806601820000,6.05181982421875,-0.0004993426846340299,-0.0054299188777804375,-0.0034993935842067003
1772797806611846000,6.061845947265625,-0.0020751350093632936,-0.003328951308503747,-0.00347435986623168
1772797806621871900,6.071871826171875,-0.001764077926054597,-0.005789445713162422,-0.0034413367975503206
1772797806631897900,6.08189794921875,-0.001692705205641687,-0.005110606085509062,-0.0017784589435905218
1772797806641925000,6.091925048828125,-0.004080228973180056,-0.005823534447699785,-0.0041002025827765465
1772797806651951000,6.101951171875,-0.003994741477072239,-0.008085090667009354,-0.005045891273766756
1772797806661977000,6.11197705078125,-0.0017467673169448972,-0.006046973634511232,-0.003510046284645796
1772797806672004000,6.122004150390625,-0.003937483765184879,-0.007390005514025688,-0.0027023095171898603
1772797806682030000,6.132030029296875,-0.0035888757556676865,-0.008686698973178864,-0.002154231071472168
1772797806692056000,6.14205615234375,-0.0024650217965245247,-0.004203266929835081,-0.0029257487040013075
1772797806702081800,6.152081787109375,-0.0007041397620923817,-0.003922836389392614,-0.001306280493736267
1772797806712109000,6.162109130859375,-0.0008223841432482004,-0.006413690745830536,-0.0030780816450715065
1772797806722135000,6.172135009765625,-0.002168345730751753,-0.007253918331116438,-0.0036751623265445232
1772797806732161000,6.1821611328125,-0.0027454528026282787,-0.00461632339283824,0.0011768508702516556
1772797806742187000,6.19218701171875,-0.0017177389236167073,0.0014394385507330298,0.0013946974650025368
1772797806752214000,6.202214111328125,-0.00036911413189955056,-0.0029755497816950083,0.003049852093681693
1772797806762240000,6.212239990234375,-0.000988032785244286,-0.005397162400186062,-0.001148355077020824
1772797806772266000,6.222265869140625,-0.001478587044402957,-0.0016913736471906304,-0.004734301473945379
1772797806782292000,6.2322919921875,-0.004087952431291342,-0.009802296757698059,-0.0035156388767063618
1772797806792319000,6.242319091796875,-0.0035364115610718727,-0.012345349416136742,-0.005001682788133621
1772797806802345000,6.252344970703125,-0.002371278591454029,-0.009283779188990593,-0.0068118334747850895
1772797806812371000,6.262370849609375,-0.0012154667638242245,-0.004433630499988794,-0.004050667863339186
1772797806822398000,6.27239794921875,-0.002561428351327777,-0.008696552366018295,-0.002603506203740835
1772797806832423700,6.282423583984375,-0.0021904499735683203,-0.006573214195668697,-0.004058657679706812
1772797806842449700,6.29244970703125,-0.0031310785561800003,-0.006223274860531092,-0.005513275973498821
1772797806852475600,6.3024755859375,-0.0018514295807108283,-0.008861135691404343,-0.006777212489396334
1772797806862503000,6.3125029296875,-0.001350222621113062,-0.005260542035102844,-0.003925233148038387
1772797806872529000,6.32252880859375,-0.003966245800256729,-0.004738562274724245,-0.0022064289078116417
1772797806882555000,6.332554931640625,-0.0009094694978557527,-0.0022591594606637955,-0.0007866977830417454
1772797806892580900,6.342580810546875,-0.002545981900766492,-0.005733785685151815,-0.002320412313565612
1772797806902607600,6.352607666015625,-0.003599528456106782,-0.005761216394603252,0.0010420948965474963
1772797806912633600,6.362633544921875,-0.0024402544368058443,-0.006983607076108456,-0.003462375607341528
1772797806922659600,6.37265966796875,-0.002002164488658309,-0.00765765318647027,-0.002386458683758974
1772797806932685600,6.382685546875,-0.0033566481433808804,-0.007041397970169783,-0.0036160401068627834
1772797806942712800,6.392712890625,-0.003704190719872713,-0.008718390017747879,-0.00236302288249135
1772797806952738800,6.40273876953125,-0.0020042951218783855,-0.0059721386060118675,-0.0016503608785569668
1772797806962764800,6.412764892578125,-0.0010705908061936498,-0.006887200754135847,-0.002014681464061141
1772797806972790800,6.422790771484375,-0.0033417344093322754,-0.005323925521224737,-0.0010966897243633866
1772797806982817500,6.432817626953125,-0.0018221348291262984,-0.00654631620272994,-0.0027840686962008476
1772797806992843500,6.442843505859375,0.0013944311067461967,-0.007937285117805004,-0.0023787354584783316
1772797807002869800,6.452869873046875,-0.0033936661202460527,-0.005020857788622379,-0.0030538467690348625
1772797807012895700,6.462895751953125,-0.002484995638951659,-0.009108277037739754,-0.004263454582542181
1772797807022922800,6.4729228515625,-0.0035198999103158712,-0.007837150245904922,-0.0029646309558302164
1772797807032948700,6.48294873046875,-0.003002181416377425,-0.003935352899134159,-0.002918291836977005
1772797807042974700,6.492974609375,-0.002432531211525202,-0.005467736162245274,-0.00119602563790977
1772797807053001700,6.503001708984375,-0.0021635519806295633,-0.005994243081659079,-0.002685797866433859
1772797807063027700,6.51302783203125,-0.0018277274211868644,-0.006262689363211393,-0.0009992180857807398
1772797807073054000,6.523053955078125,-0.003008040366694331,-0.003918575122952461,-0.0024825986474752426
1772797807083080000,6.533079833984375,-0.003744937013834715,-0.0033987262286245823,-0.00276089902035892
1772797807093106700,6.543106689453125,-0.0018218684708699584,-0.004776645917445421,-0.0031039142049849033
1772797807103132700,6.553132568359375,-0.0037553233560174704,-0.004245877731591463,-0.0032751555554568768
1772797807113158700,6.56315869140625,-0.0035324168857187033,-0.003581685246899724,-0.002764094853773713
1772797807123184600,6.5731845703125,-0.0023529028985649347,-0.006059490609914064,-0.0013438310706987977
1772797807133211600,6.583211669921875,-0.0022956449538469315,-0.006250439211726189,-0.00021944446780253202
1772797807143238000,6.59323779296875,-0.001258876291103661,-0.00443895673379302,-0.0022924491204321384
1772797807153263900,6.603263916015625,-0.0023672839161008596,-0.0081487400457263,-0.002109223511070013
1772797807163289900,6.613289794921875,-0.003862116253003478,-0.006106362212449312,-0.0006410228670574725
1772797807173316600,6.623316650390625,-0.0028122980147600174,-0.008183893747627735,-0.005584915168583393
1772797807183342600,6.633342529296875,-0.0018210695125162601,-0.007520766928792,-0.004307130351662636
1772797807193368600,6.64336865234375,-0.001561677665449679,-0.008323177695274353,-0.004810734186321497
1772797807203394600,6.65339453125,-0.003591539105400443,-0.006836866959929466,-0.0016753945965319872
1772797807213421800,6.663421875,-0.0015395734226331115,-0.0038549257442355156,-0.0010109359864145517
1772797807223447800,6.67344775390625,-0.0021574266720563173,-0.004515655804425478,-0.001290834159590304
1772797807233473800,6.683473876953125,-0.005402754992246628,-0.005858421791344881,0.00039974047103896737
1772797807243499800,6.693499755859375,-0.0012777847005054355,-0.005539374891668558,-0.001597630325704813
1772797807253526800,6.70352685546875,-0.000589091214351356,-0.006924751214683056,-0.0028594359755516052
1772797807263552800,6.713552734375,-0.003977164626121521,-0.005329518113285303,-0.0028626318089663982
1772797807273578800,6.723578857421875,-0.0026900589000433683,-0.0056978329084813595,-0.0030597057193517685
1772797807283605800,6.733605712890625,-0.0013283847365528345,-0.007250722497701645,-0.002432797569781542
1772797807293631700,6.7436318359375,-0.0009542105835862458,-0.004080495331436396,-0.0006599313346669078
1772797807303657700,6.75365771484375,-0.0013590110465884209,-0.004209658596664667,-0.002041046740487218
1772797807313683700,6.76368359375,-0.003650128608569503,-0.0033332123421132565,-0.00007297061529243365
1772797807323710700,6.773710693359375,-0.0007933556917123497,-0.0054581486620008945,-0.0016772588714957237
1772797807333736700,6.78373681640625,-0.0037907434161752462,-0.008946357294917107,-0.002239984693005681
1772797807343762700,6.7937626953125,-0.0024343954864889383,-0.005380384158343077,-0.0032237565610557795
1772797807353788700,6.80378857421875,-0.0019560917280614376,-0.00498144282028079,-0.0020453077740967274
1772797807363815700,6.813815673828125,-0.0023848607670515776,-0.004999552387744188,-0.002231995342299342
1772797807373841700,6.823841552734375,-0.003728425595909357,-0.005020325072109699,-0.00310497940517962
1772797807383867600,6.83386767578125,-0.002204298507422209,-0.004032026045024395,-0.001933454885147512
1772797807393893600,6.8438935546875,-0.00152359448838979,-0.004530569538474083,-0.0034993935842067003
1772797807403920600,6.853920654296875,-0.0044083306565880775,-0.005044825840741396,-0.0017773937433958054
1772797807413946600,6.863946533203125,-0.0010735202813521028,-0.0009012137306854129,-0.0010993528412654996
1772797807423972900,6.873972900390625,-0.0012202603975310922,-0.004324440844357014,-0.0019105518003925681
1772797807433998800,6.883998779296875,-0.00002103897168126423,-0.005997172556817532,-0.00410552928224206
1772797807444025900,6.89402587890625,-0.0004990763845853508,-0.004525243304669857,-0.0010998855577781796
1772797807454051800,6.9040517578125,-0.0013028184184804559,-0.004956408869475126,-0.0017651431262493134
1772797807464077800,6.914077880859375,-0.0036706349346786737,-0.0054850466549396515,-0.002998719457536936
1772797807474103800,6.924103759765625,-0.0022714100778102875,-0.004939098376780748,-0.0005155879771336913
1772797807484130600,6.934130615234375,0.001589108258485794,-0.002895388752222061,-0.00035979304811917245
1772797807494156800,6.94415673828125,0.0025244103744626045,0.001773132593370974,-0.0009763148264028132
1772797807504182800,6.954182861328125,-0.0012066783383488655,-0.0028032432310283184,0.0005667206714861095
1772797807514208800,6.964208740234375,0.00011265171633567661,-0.0026410568971186876,0.000990429543890059
1772797807524235800,6.97423583984375,-0.0032794165890663862,-0.003716707695275545,-0.0021931130904704332
1772797807534261800,6.98426171875,-0.0018791264155879617,-0.004412325099110603,-0.002368349116295576
1772797807544287700,6.994287841796875,-0.0020935109350830317,-0.010040117427706718,-0.004887433256953955
1772797807554313700,7.004313720703125,-0.001886317040771246,-0.007622233126312494,-0.005086371209472418
1772797807564340700,7.0143408203125,-0.002129463478922844,-0.005108475685119629,-0.004712996073067188
1772797807574366700,7.02436669921875,-0.0015686018159613013,-0.008502407930791378,-0.004668254870921373
1772797807584392700,7.034392822265625,-0.0019006980583071709,-0.010086189955472946,-0.0041010016575455666
1772797807594419700,7.044419677734375,-0.0026937874499708414,-0.004233627114444971,-0.004449076950550079
1772797807604445700,7.05444580078125,-0.004034955520182848,-0.005675196181982756,-0.0016929714474827051
1772797807614471700,7.0644716796875,-0.002620816696435213,-0.005008607171475887,-0.004747617058455944
1772797807624497700,7.07449755859375,-0.0010607370641082525,-0.004950284026563168,-0.0028999161440879107
1772797807634525000,7.08452490234375,-0.0023928501177579165,-0.006656571291387081,-0.005105546209961176
1772797807644551000,7.094551025390625,-0.00267674308270216,-0.006481335032731295,-0.0027885958552360535
1772797807654577000,7.104576904296875,-0.0010852381819859147,-0.006127667147666216,-0.0028248149901628494
1772797807664603000,7.114602783203125,-0.0020511667244136333,-0.005663744639605284,-0.0023177489638328552
1772797807674629600,7.124629638671875,-0.0023129554465413094,-0.007005977910012007,-0.002543318783864379
1772797807684655600,7.134655517578125,-0.0037385455798357725,-0.005771336145699024,-0.0018559569725766778
1772797807694681600,7.144681640625,-0.0018399780383333564,-0.00791251752525568,-0.0015102786710485816
1772797807704707600,7.15470751953125,-0.0019001654582098126,-0.006660299375653267,-0.0030133668333292007
1772797807714734800,7.16473486328125,-0.0037468012887984514,-0.00452817277982831,-0.0037286917213350534
1772797807724760800,7.1747607421875,-0.00219551008194685,-0.004485296085476875,-0.004529770463705063
1772797807734786800,7.184786865234375,0.000021837920940015465,-0.003481017891317606,-0.0016266588354483247
1772797807744812800,7.194812744140625,-0.0021257351618260145,-0.007346596103161573,-0.0027475832030177116
1772797807754839600,7.204839599609375,-0.002624545246362686,-0.002472745021805167,-0.0016170714516192675
1772797807764865500,7.214865478515625,-0.0035665053874254227,-0.00472444761544466,-0.004354534670710564
1772797807774891500,7.2248916015625,-0.0019518306944519281,-0.007928763516247272,-0.0015664712991565466
1772797807784917800,7.234917724609375,-0.0007757788407616317,-0.007384146563708782,-0.002579005202278495
1772797807794944800,7.24494482421875,-0.002588059986010194,-0.005339637864381075,-0.004150536376982927
1772797807804970800,7.254970703125,-0.0024442493449896574,-0.004446680191904306,-0.002388589084148407
1772797807814996700,7.264996826171875,-0.003994741477072239,-0.00555322365835309,-0.0030189594253897667
1772797807825022500,7.2750224609375,-0.0020780644845217466,-0.002871420234441757,-0.0024802018888294697
1772797807835049500,7.285049560546875,0.00014327807002700865,-0.005751895252615213,-0.002243979601189494
1772797807845075500,7.295075439453125,-0.005239502992480993,-0.0037979339249432087,-0.0007952199084684253
1772797807855101400,7.305101318359375,-0.005944708362221718,-0.004230963997542858,-0.0031851406674832106
1772797807865127400,7.31512744140625,0.00027510453946888447,-0.004890629090368748,-0.00216488353908062
1772797807875154400,7.325154541015625,-0.0010990865994244814,-0.0025100293569266796,-0.003153981640934944
1772797807885180400,7.335180419921875,-0.0037380128633230925,-0.005016862880438566,-0.0016801883466541767
1772797807895206400,7.345206298828125,-0.0027739484794437885,-0.004027498420327902,-0.0035244273021817207
1772797807905232400,7.355232421875,-0.0005259743193164468,-0.004358795937150717,-0.002463690238073468
1772797807915259400,7.36525927734375,-0.0023611586075276136,-0.007484547793865204,-0.0021819279063493013
1772797807925285400,7.375285400390625,-0.0010793792316690087,-0.00520647969096899,-0.003510312642902136
1772797807935311400,7.385311279296875,-0.0003462109307292849,-0.005309011787176132,0.000050600061513250694
1772797807945337300,7.39533740234375,-0.0025001754984259605,-0.005565740168094635,-0.0027254789602011442
1772797807955364400,7.4053642578125,-0.0008399609941989183,-0.0070576430298388,-0.0014016216155141592
1772797807965390300,7.415390380859375,-0.0007771103992126882,-0.0059785302728414536,-0.004350007511675358
1772797807975416300,7.425416259765625,-0.002098304685205221,-0.006925017572939396,-0.001915878034196794
1772797807985442300,7.4354423828125,-0.00247540813870728,-0.004448544234037399,-0.003855724586173892
1772797807995469300,7.44546923828125,-0.002424541860818863,-0.009072856977581978,-0.0020881847012788057
1772797808005495300,7.455495361328125,-0.00063383235828951,-0.005902097560465336,-0.0016381103778257966
1772797808015521300,7.465521240234375,-0.004090615548193455,-0.006355633959174156,-0.0034751589410007
1772797808025547500,7.475547607421875,-0.001442900625988841,-0.006185458041727543,-0.0026498453225940466
1772797808035574500,7.485574462890625,-0.000395745737478137,-0.005252819042652845,-0.0031302794814109802
1772797808045600500,7.4956005859375,-0.0032205607276409864,-0.005662146955728531,-0.003572896821424365
1772797808055626500,7.50562646484375,-0.001933721243403852,-0.003934287931770086,-0.0011459582019597292
1772797808065652500,7.515652587890625,-0.0006082659820094705,-0.006393184419721365,-0.0043713124468922615
1772797808075679200,7.52567919921875,-0.004524177871644497,-0.008228102698922157,-0.004021905828267336
1772797808085705200,7.535705322265625,-0.0014857775531709194,-0.007619570009410381,-0.004047738388180733
1772797808095731500,7.5457314453125,-0.002042910782620311,-0.007867776788771152,-0.002425074577331543
1772797808105757400,7.55575732421875,-0.0026077672373503447,-0.004024036228656769,-0.00373002327978611
1772797808115784400,7.565784423828125,-0.0017584852175787091,-0.0051476238295435905,-0.0020764668006449938
1772797808125810400,7.575810546875,-0.0018745990237221122,-0.004095675423741341,-0.003367300843819976
1772797808135836400,7.58583642578125,-0.000526506919413805,-0.005723399575799704,-0.0017536915838718414
1772797808145863200,7.59586328125,-0.0013422331539914012,-0.0028964539524167776,-0.0029345371294766665
1772797808155889400,7.605889404296875,-0.0017193368403241038,-0.0065196845680475235,-0.0028937908355146646
1772797808165915400,7.615915283203125,-0.0030362699180841446,-0.006936203222721815,-0.0018548916559666395
1772797808175941400,7.62594140625,-0.0032461269292980433,-0.00567013630643487,-0.00458649592474103
1772797808185967400,7.63596728515625,0.00023462448734790087,-0.005553755909204483,-0.0028565065003931522
1772797808195994400,7.645994384765625,-0.0029473204631358385,-0.0070856064558029175,-0.004345213528722525
1772797808206020400,7.656020263671875,-0.0033302828669548035,-0.005370530765503645,-0.0003531351685523987
1772797808216046300,7.66604638671875,-0.0038951393216848373,-0.0046908920630812645,-0.0017547567840665579
1772797808226072300,7.676072265625,-0.0032344090286642313,-0.008125836960971355,-0.0007888282998465002
1772797808236099600,7.686099609375,-0.0026586337480694056,-0.005775597412139177,-0.003175020683556795
1772797808246125600,7.69612548828125,-0.0024658208712935448,-0.006816094275563955,-0.0039020637050271034
1772797808256151600,7.706151611328125,-0.0022240057587623596,-0.007541805971413851,-0.004247741773724556
1772797808266178300,7.71617822265625,-0.0019172097090631723,-0.006245112512260675,-0.0029856697656214237
1772797808276204300,7.726204345703125,-0.0005829659639857709,-0.0020301276817917824,-0.00475320965051651
1772797808286230300,7.736230224609375,-0.0020098877139389515,-0.006907174363732338,-0.004349741153419018
1772797808296256300,7.74625634765625,-0.0011438276851549745,-0.008130097761750221,-0.0038575888611376286
1772797808306282200,7.7562822265625,-0.002348109148442745,-0.004969192203134298,-0.0049526807852089405
1772797808316309500,7.7663095703125,-0.000811997801065445,-0.007904794998466969,-0.007897071540355682
1772797808326335500,7.77633544921875,-0.0030567762441933155,-0.010820689611136913,-0.0054333810694515705
1772797808336361500,7.786361572265625,0.00044075315236113966,-0.006572947837412357,-0.0054546864703297615
1772797808346387500,7.796387451171875,-0.0003866909828502685,-0.005019792355597019,-0.003576891729608178
1772797808356414200,7.806414306640625,-0.0032615733798593283,-0.0009627327090129256,0.0009275790071114898
1772797808366440200,7.816440185546875,-0.002947586588561535,-0.005304484162479639,0.002240251051262021
1772797808376466400,7.826466552734375,-0.0012149340473115444,-0.000901480030734092,0.0012807141756638885
1772797808386492400,7.836492431640625,-0.002293780678883195,-0.007588943932205439,-0.0017065536230802536
1772797808396519400,7.84651953125,-0.001270327833481133,-0.010772219859063625,-0.004595550708472729
1772797808406545400,7.85654541015625,-0.002287655370309949,-0.007809453643858433,-0.005943110212683678
1772797808416571400,7.8665712890625,-0.0007089334540069103,-0.008143147453665733,-0.006347378250211477
1772797808426597400,7.876597412109375,-0.0018330537714064121,-0.0070464578457176685,-0.0034226945135742426
1772797808436624400,7.886624267578125,-0.0010844392236322165,-0.007899735122919083,-0.0007225155713967979
1772797808446650600,7.896650634765625,-0.0025153555907309055,-0.004958007019013166,-0.0012796488590538502
1772797808456676600,7.906676513671875,-0.0014245248166844249,-0.00811971165239811,-0.0025997778866440058
1772797808466702300,7.916702392578125,-0.0024493092205375433,-0.006840062793344259,-0.004887166898697615
1772797808476729300,7.926729248046875,-0.0008117315010167658,-0.013516341336071491,-0.002749447477981448
1772797808486755300,7.93675537109375,-0.0030152308754622936,-0.00996421743184328,-0.004504470620304346
1772797808496781300,7.94678125,-0.0033390712924301624,-0.00723367789760232,-0.005364938173443079
1772797808506807300,7.956807373046875,-0.004472246393561363,-0.007983624003827572,-0.0021939121652394533
1772797808516834600,7.96683447265625,-0.003222425002604723,-0.0052296495996415615,-0.002168878447264433
1772797808526860500,7.976860595703125,-0.0024413196370005608,-0.005298625212162733,0.00012729909212794155
1772797808536886500,7.986886474609375,-0.0025774072855710983,-0.0035052525345236063,-0.0012460930738598108
1772797808546912500,7.99691259765625,-0.0037465349305421114,-0.006039782892912626,-0.0017132115317508578
1772797808556939300,8.006939208984376,-0.0026194851379841566,-0.010630539618432522,-0.004559331573545933
1772797808566965200,8.01696533203125,-0.002323341788724065,-0.011813515797257423,-0.0033808830194175243
1772797808576991200,8.0269912109375,-0.0011864382540807128,-0.006444850005209446,-0.002147839404642582
1772797808587017200,8.037017333984375,-0.004839762579649687,-0.008745821192860603,-0.0010556770721450448
1772797808597044500,8.04704443359375,-0.00242161238566041,-0.005520733073353767,0.001261805766262114
1772797808607070500,8.057070556640625,-0.003920173272490501,-0.004009921569377184,-0.0011795139871537685
1772797808617096400,8.067096435546874,-0.001910019083879888,-0.005314870737493038,-0.0010902981739491224
1772797808627122400,8.077122314453124,-0.00236222380772233,-0.008576709777116776,-0.0036389431916177273
1772797808637149400,8.0871494140625,-0.003522030543535948,-0.006185191683471203,-0.0012229235144332051
1772797808647175400,8.097175537109376,-0.0057319216430187225,-0.009042496792972088,-0.003200853243470192
1772797808657201400,8.107201416015625,-0.001999767730012536,-0.007833954878151417,-0.0017606157343834639
1772797808667227400,8.117227294921875,-0.004108725115656853,-0.007032875902950764,-0.002368615474551916
1772797808677254400,8.12725439453125,-0.0005629922379739583,-0.0073449984192848206,-0.00024314661277458072
1772797808687280400,8.1372802734375,-0.0008258462767116725,-0.005033640656620264,0.0025933862198144197
1772797808697306400,8.147306396484375,-0.0015928366919979453,-0.005073321983218193,-0.0032671659719198942
1772797808707332400,8.157332275390624,-0.001719869440421462,-0.008570052683353424,-0.0022501046769320965
1772797808717359400,8.167359375,-0.0038535939529538155,-0.006292250473052263,-0.004766792058944702
1772797808727385300,8.17738525390625,-0.0011550129856914282,-0.011710718274116516,-0.0018423747969791293
1772797808737411600,8.18741162109375,-0.0030242856591939926,-0.00920601561665535,-0.0034591800067573786
1772797808747437600,8.1974375,-0.002871153876185417,-0.005438175052404404,-0.0004961469094268978
1772797808757464300,8.20746435546875,-0.0017928400775417686,-0.004418983124196529,0.0008586031035520136
1772797808767490300,8.217490234375,-0.0008974852971732616,-0.003861050819978118,-0.0036482643336057663
1772797808777516300,8.227516357421875,-0.0001448759576305747,-0.005368932615965605,0.000010652644050423987
1772797808787542300,8.237542236328125,-0.0005760417552664876,-0.00376064982265234,-0.0011994877131655812
1772797808797569500,8.247569580078125,-0.0028221518732607365,-0.0073079802095890045,-0.004442951641976833
1772797808807595500,8.257595458984374,-0.003093527862802148,-0.004969192203134298,-0.006384662352502346
1772797808817621500,8.26762158203125,-0.001796834752894938,-0.006131395697593689,-0.007648332044482231
1772797808827647500,8.2776474609375,-0.0009901633020490408,-0.006420615129172802,-0.0036756948102265596
1772797808837674500,8.287674560546876,-0.0037004624027758837,-0.004288222175091505,0.00012756542128045112
1772797808847700500,8.297700439453125,-0.0016740630380809307,-0.0019678096286952496,-0.001407480682246387
1772797808857726500,8.3077265625,-0.002329200739040971,-0.003108441596850753,0.0015925703337416053
1772797808867752400,8.31775244140625,-0.0021470405627042055,-0.006672549992799759,-0.0024772724136710167
1772797808877779500,8.327779541015625,-0.0020040287636220455,-0.005330316722393036,-0.0022237394005060196
1772797808887805400,8.337805419921875,-0.001136104459874332,-0.004456799943000078,-0.004067978356033564
1772797808897831400,8.34783154296875,-0.003102582646533847,-0.005244562868028879,-0.0031489215325564146
1772797808907857400,8.357857421875,-0.001793905277736485,-0.005470931995660067,-0.0007784419576637447
1772797808917884700,8.367884765625,-0.002005093963816762,-0.0036519928835332394,-0.005369998048990965
1772797808927910700,8.37791064453125,-0.0031281490810215473,-0.007934356108307838,-0.0017739315517246723
1772797808937936600,8.3879365234375,-0.0014982944121584296,-0.005661880597472191,-0.001427987008355558
1772797808947962600,8.397962646484375,-0.0006072007236070931,-0.005872536450624466,-0.0031643679831176996
1772797808957988600,8.407988525390625,-0.0012519520241767168,-0.00387356779538095,-0.005004079546779394
1772797808968015400,8.418015380859375,-0.0025531724095344543,-0.006044842768460512,-0.005828061606734991
1772797808978041300,8.428041259765624,0.0001512675517005846,-0.009063003584742546,-0.004603540059179068
1772797808988067300,8.4380673828125,-0.0021174794528633356,-0.004089550115168095,-0.004164917394518852
1772797808998093300,8.44809326171875,-0.002627474721521139,-0.0059630838222801685,-0.0036852823104709387
1772797809008120600,8.45812060546875,-0.0025630262680351734,-0.0062552327290177345,-0.003628556849434972
1772797809018146600,8.468146484375,-0.0029518476221710443,-0.002746251644566655,-0.0002596582053229213
1772797809028172500,8.478172607421875,-0.000264718197286129,-0.006278668530285358,-0.0029822078067809343
1772797809038198500,8.488198486328125,-0.00001704423084447626,-0.003610979998484254,-0.0035124430432915688
1772797809048225300,8.498225341796875,-0.0034328147303313017,-0.0054759918712079525,-0.003117762738838792
1772797809058251300,8.508251220703125,-0.003194994293153286,-0.006352438125759363,-0.005095692351460457
1772797809068277500,8.518277587890625,-0.002674346324056387,-0.0037377465050667524,-0.0025561018846929073
1772797809078303500,8.528303466796874,0.0009805759182199836,-0.00284984870813787,-0.00026072346372529864
1772797809088330500,8.53833056640625,-0.002177933230996132,-0.00811811350286007,-0.002412823960185051
1772797809098356500,8.5483564453125,-0.0046847667545080185,-0.006393184419721365,-0.0025829998776316643
1772797809108382500,8.558382568359375,-0.0018213358707726002,-0.005589708685874939,-0.0010165285784751177
1772797809118408400,8.568408447265625,-0.0025385250337421894,-0.005440838169306517,-0.001038366463035345
1772797809128435500,8.578435546875,-0.0022807312197983265,-0.00657507823780179,-0.003762513864785433
1772797809138461700,8.588461669921875,-0.004346545320004225,-0.006628341507166624,-0.003379018744453788
1772797809148487700,8.59848779296875,-0.0025337315164506435,-0.005733785685151815,-0.0029294772539287806
1772797809158513700,8.608513671875,-0.0006375607335940003,-0.007384679280221462,-0.002201369032263756
1772797809168540400,8.61854052734375,-0.003940413240343332,-0.00580728892236948,-0.0034461303148418665
1772797809178566400,8.62856640625,-0.0031638352666050196,-0.0041374871507287025,-0.0010138654615730047
1772797809188592400,8.63859228515625,-0.0025592977181077003,-0.0033875408116728067,-0.003922836389392614
1772797809198618400,8.648618408203125,-0.0019118833588436246,-0.005519134923815727,-0.0002767024270724505
1772797809208645600,8.658645751953125,-0.0024200144689530134,-0.006639260333031416,-0.00418409239500761
1772797809218671600,8.668671630859375,-0.001933454885147512,-0.006055762059986591,-0.0033627734519541264
1772797809228697600,8.678697509765625,-0.0028724854346364737,-0.006716758478432894,-0.00216488353908062
1772797809238723600,8.6887236328125,-0.0010894992155954242,-0.0048799761570990086,-0.0004450142150744796
1772797809248750300,8.698750244140625,-0.0036301547661423683,-0.005416603293269873,-0.0038506644777953625
1772797809258776300,8.7087763671875,0.0003531351685523987,-0.0037936728913336992,-0.00044022052315995097
1772797809268802300,8.71880224609375,-0.0015808524331077933,-0.0036629117093980312,-0.001880191732198
1772797809278828300,8.728828369140626,-0.005545500200241804,-0.00538464542478323,-0.004545216914266348
1772797809288855600,8.73885546875,-0.000663393409922719,-0.005862948950380087,-0.0028008464723825455
1772797809298881500,8.748881591796875,-0.0017648768844082952,-0.009212139993906021,-0.003925233148038387
1772797809308907500,8.758907470703125,-0.003318032482638955,-0.0036221654154360294,-0.003576625371351838
1772797809318933500,8.76893359375,-0.0022980417124927044,-0.0032807481475174427,0.0009203884401358664
1772797809328959500,8.77895947265625,-0.002546780975535512,-0.005626460537314415,-0.000707868195604533
1772797809338986500,8.788986572265625,-0.002103364560753107,0.029462018981575966,0.023514647036790848
1772797809349012500,8.799012451171874,-0.006960703991353512,0.3382209241390228,0.2711723744869232
1772797809359038500,8.80903857421875,-0.006899717729538679,0.44316598773002625,0.3998773694038391
1772797809369064400,8.819064453125,-0.006878145970404148,0.4151838719844818,0.3486860692501068
1772797809379091500,8.829091552734376,-0.004608600400388241,0.24271143972873688,0.16758421063423157
1772797809389117400,8.839117431640625,-0.0029824741650372744,-0.05218890309333801,-0.05810804292559624
1772797809399143400,8.849143310546875,0.001561677665449679,-0.34181860089302063,-0.26872387528419495
1772797809409169400,8.85916943359375,0.0015257250051945448,-0.488129198551178,-0.3761312961578369
1772797809419196400,8.869196533203125,0.0017467673169448972,-0.4339298605918884,-0.36082929372787476
1772797809429222700,8.87922265625,-0.0015073491958901286,-0.2680269181728363,-0.2512599229812622
1772797809439248600,8.88924853515625,-0.00282082031480968,-0.126591756939888,-0.1060824915766716
1772797809449274600,8.899274658203124,-0.0022857910953462124,0.01028432883322239,0.04055861011147499
1772797809459301400,8.90930126953125,-0.005112736485898495,0.14968296885490417,0.1374441385269165
1772797809469327400,8.919327392578126,-0.003079146845266223,0.18111999332904816,0.145883709192276
1772797809479353300,8.929353271484375,-0.00495081627741456,0.08571463823318481,0.0792815089225769
1772797809489379300,8.93937939453125,-0.0025923210196197033,-0.04699520394206047,-0.026936275884509087
1772797809499406600,8.949406494140625,0.00004500742215896025,-0.13229891657829285,-0.11293108016252518
1772797809509432600,8.9594326171875,-0.0023310647811740637,-0.13951395452022552,-0.1338272988796234
1772797809519458600,8.96945849609375,-0.0012420982820913196,-0.08544113487005234,-0.07838721573352814
1772797809529484500,8.979484619140624,0.0004463458026293665,0.0013781858142465353,0.012516058050096035
1772797809539510500,8.989510498046876,-0.004771052859723568,0.08311938494443893,0.08065436780452728
1772797809549537500,8.99953759765625,-0.00148151651956141,0.10629155486822128,0.09585222601890564
1772797809559563500,9.0095634765625,-0.0030682277865707874,0.06016480177640915,0.054783087223768234
1772797809569589500,9.019589599609375,-0.0005368932615965605,-0.02105814777314663,-0.012633503414690495
1772797809579615500,9.029615478515625,-0.002377936616539955,-0.08235159516334534,-0.0687526986002922
1772797809589642500,9.039642578125,-0.002787264296784997,-0.08911789208650589,-0.08251991122961044
1772797809599668500,9.04966845703125,-0.00011158645065734163,-0.0537140928208828,-0.04914863780140877
1772797809609694500,9.059694580078125,-0.005231247283518314,0.0007757788407616317,0.007267233915627003
1772797809619720400,9.069720458984374,-0.0031180288642644882,0.04778323322534561,0.05017049238085747
1772797809629747500,9.07974755859375,-0.0013976269401609898,0.06344901025295258,0.062013301998376846
1772797809639773400,9.0897734375,-0.004239486064761877,0.032952889800071716,0.03338565304875374
1772797809649799700,9.099799560546876,-0.000993891735561192,-0.0162466149777174,-0.01025503408163786
1772797809659825700,9.10982568359375,-0.0024919197894632816,-0.055453937500715256,-0.044017259031534195
1772797809669852400,9.119852294921875,-0.0025627599097788334,-0.0600082091987133,-0.05380464345216751
1772797809679878400,9.12987841796875,-0.003344397759065032,-0.03574361652135849,-0.032054606825113297
1772797809689904400,9.139904296875,-0.0028871328104287386,0.0014295848086476326,0.0036581179592758417
1772797809699930400,9.149930419921875,-0.003888215171173215,0.03184288367629051,0.030187729746103287
1772797809709957400,9.159957275390624,-0.00213612150400877,0.034626685082912445,0.03646160289645195
1772797809719983600,9.169983642578124,-0.0036722328513860703,0.019097261130809784,0.01714170165359974
1772797809730009600,9.180009521484376,-0.002109223511070013,-0.009635050781071186,-0.010046775452792645
1772797809740035600,9.19003564453125,-0.0027294738683849573,-0.03490632027387619,-0.03021249733865261
1772797809750061600,9.2000615234375,0.00007323692989302799,-0.03676094487309456,-0.03085991181433201
1772797809760088300,9.21008837890625,-0.002130528911948204,-0.022395320236682892,-0.01889565959572792
1772797809770114300,9.2201142578125,-0.0019883159548044205,0.00245143985375762,0.002344913315027952
1772797809780140300,9.230140380859375,-0.003111903788521886,0.021644042804837227,0.018152905628085136
1772797809790166300,9.240166259765624,-0.0008913599886000156,0.019450129941105843,0.020791830494999886
1772797809800193500,9.250193603515624,-0.0024764735717326403,0.00890854001045227,0.010407366789877415
1772797809810219500,9.260219482421874,-0.0011973571963608265,-0.011322695761919022,-0.008685633540153503
1772797809820245500,9.27024560546875,-0.0007952199084684253,-0.02768888510763645,-0.018392322584986687
1772797809830272000,9.28027197265625,-0.003561977995559573,-0.02629445493221283,-0.023138875141739845
1772797809840299000,9.290299072265626,-0.003762513864785433,-0.015851933509111404,-0.010915231890976429
1772797809850325000,9.300324951171875,-0.0073388731107115746,0.09018901735544205,0.08700866997241974
1772797809860350700,9.310350830078125,-0.01007926557213068,0.4642361104488373,0.489546537399292
1772797809870376700,9.320376708984375,-0.010143181309103966,0.6387407779693604,0.5533763766288757
1772797809880403700,9.33040380859375,-0.007552724797278643,0.6153968572616577,0.4267699718475342
1772797809890430000,9.340429931640625,-0.0065284729935228825,0.254748672246933,0.21960479021072388
1772797809900456000,9.3504560546875,-0.0008950884221121669,-0.1616126000881195,-0.08290926367044449
1772797809910482000,9.36048193359375,0.002388855442404747,-0.4361796975135803,-0.4026995003223419
1772797809920508000,9.3705078125,0.0031071100383996964,-0.5989004373550415,-0.5796540379524231
1772797809930535000,9.380534912109376,0.00535481795668602,-0.6571751832962036,-0.536390483379364
1772797809940561000,9.390560791015625,0.0013020194601267576,-0.47536465525627136,-0.36811864376068115
1772797809950587000,9.4005869140625,0.0005877596559002995,-0.17629992961883545,-0.16405285894870758
1772797809960612900,9.41061279296875,-0.0015883093001320958,0.0784468725323677,0.05408986657857895
1772797809970640000,9.420639892578125,-0.00484349112957716,0.24765826761722565,0.23013946413993835
1772797809980665900,9.430665771484374,-0.005341502372175455,0.27478042244911194,0.2712938189506531
1772797809990691800,9.44069189453125,-0.0031260184478014708,0.17569352686405182,0.1550700068473816
1772797810000717800,9.4507177734375,-0.00005406216951087117,-0.00506852800026536,-0.02436099946498871
1772797810010744800,9.460744873046876,-0.00148151651956141,-0.19733969867229462,-0.1724623143672943
1772797810020770800,9.470770751953125,0.0008439557277597487,-0.27141526341438293,-0.21967430412769318
1772797810030796800,9.480796875,0.00015419702685903758,-0.17792978882789612,-0.15962187945842743
1772797810040822800,9.49082275390625,-0.002776079112663865,-0.012939500622451305,-0.022672289982438087
1772797810050849800,9.500849853515625,-0.0024791366886347532,0.1167503148317337,0.10823486000299454
1772797810060875800,9.510875732421875,-0.003368099918588996,0.17306339740753174,0.17136003077030182
1772797810070901800,9.52090185546875,-0.005066131241619587,0.14033713936805725,0.127765953540802
1772797810080927700,9.530927734375,-0.00267780851572752,0.03309164196252823,0.0190780870616436
1772797810090953700,9.54095361328125,-0.0024919197894632816,-0.09576301276683807,-0.08465656638145447
1772797810100980700,9.550980712890626,-0.0019864519126713276,-0.16640734672546387,-0.13202621042728424
1772797810111006700,9.5610068359375,-0.001787779969163239,-0.1322360634803772,-0.11421898007392883
1772797810121033000,9.571032958984375,-0.003078880487009883,-0.03181598708033562,-0.03675934672355652
1772797810131059000,9.581058837890625,-0.001315335277467966,0.057685934007167816,0.052446961402893066
1772797810141086000,9.5910859375,-0.004234159830957651,0.10111170262098312,0.10518021136522293
1772797810151112000,9.60111181640625,-0.002689260058104992,0.08982549607753754,0.085364431142807
1772797810161138000,9.611137939453124,-0.002936135046184063,0.03213716298341751,0.022159097716212273
1772797810171164000,9.621163818359374,-0.0014689996605738997,-0.04813610389828682,-0.04743382707238197
1772797810181191000,9.63119091796875,-0.0011622034944593906,-0.10454797744750977,-0.08311166614294052
1772797810191217000,9.641216796875,-0.002350772265344858,-0.08928380906581879,-0.07318180054426193
1772797810201243000,9.651242919921875,-0.003497795667499304,-0.024235831573605537,-0.0280902236700058
1772797810211268900,9.661268798828125,-0.0019084211671724916,0.031624503433704376,0.029151493683457375
1772797810221294800,9.671294921875,-0.0013965616235509515,0.06065482646226883,0.06139731407165527
1772797810231321900,9.68132177734375,-0.001466336427256465,0.05335696414113045,0.05506298691034317
1772797810241347800,9.691347900390625,-0.0015683355741202831,0.01828446425497532,0.01587776653468609
1772797810251373800,9.701373779296874,-0.002124669961631298,-0.03251266852021217,-0.028724322095513344
1772797810261399800,9.71139990234375,-0.001549693406559527,-0.0679689273238182,-0.05072922259569168
1772797810271426800,9.7214267578125,-0.003910053055733442,-0.059180766344070435,-0.04785327613353729
1772797810281452800,9.731452880859376,-0.0015568839153274894,-0.019336413592100143,-0.01823626086115837
1772797810291478800,9.741478759765625,-0.0034461303148418665,0.016709471121430397,0.016410132870078087
1772797810301504800,9.7515048828125,-0.0023438481148332357,0.03778626024723053,0.03544294461607933
1772797810311531800,9.76153173828125,-0.00070520507870242,0.030231937766075134,0.030302511528134346
1772797810321557800,9.771557861328125,-0.005784119479358196,0.008066714741289616,0.008510397747159004
1772797810331583700,9.781583740234375,-0.0022892532870173454,-0.023024626076221466,-0.020774254575371742
1772797810341610000,9.79160986328125,-0.00044048685231246054,-0.0427091158926487,-0.03429858386516571
1772797810351636000,9.801635986328124,-0.0036221654154360294,-0.03798706457018852,-0.028418324887752533
1772797810361663000,9.8116630859375,-0.002373675350099802,-0.016646355390548706,-0.01121989730745554
1772797810371689000,9.82168896484375,-0.0027321369852870703,0.008026767522096634,0.009108010679483414
1772797810381715000,9.83171484375,-0.003448260948061943,0.02063843235373497,0.021381987258791924
1772797810391740700,9.84174072265625,-0.0020453077740967274,0.016565926373004913,0.018013620749115944
1772797810401768000,9.851767822265625,-0.003066629869863391,0.024519724771380424,0.023680828511714935
1772797810411794000,9.8617939453125,-0.009975935332477093,0.47414785623550415,0.5269956588745117
1772797810421820000,9.87181982421875,-0.012153602205216885,0.8124905228614807,0.7304896116256714
1772797810431846000,9.881845947265624,-0.011154117062687874,0.90812087059021,0.6221098899841309
1772797810441873000,9.891872802734374,-0.010847588069736958,0.49130579829216003,0.46253302693367004
1772797810451899000,9.90189892578125,-0.002700977958738804,0.016926519572734833,0.13501933217048645
1772797810461924900,9.9119248046875,0.0018394453218206763,-0.26990631222724915,-0.28721553087234497
1772797810471950800,9.921950927734375,0.005148689262568951,-0.5056290626525879,-0.5884432792663574
1772797810481976800,9.931976806640625,0.006135656964033842,-0.7338013052940369,-0.6436636447906494
1772797810492003800,9.94200390625,0.009417470544576645,-0.7192068696022034,-0.4905412197113037
1772797810502029800,9.95202978515625,0.002883670851588249,-0.3736739754676819,-0.31922459602355957
1772797810512055800,9.962055908203125,-0.0005430185701698065,-0.07523802667856216,-0.18282254040241241
1772797810522081800,9.972081787109374,-0.004297542851418257,-0.06167295202612877,-0.04440554603934288
1772797810532108800,9.98210888671875,-0.005093295592814684,-0.06679500639438629,0.05777648091316223
