time,seconds_elapsed,z,y,x
1772789527239806700,0.065806640625,-1.0066375732421875,-0.031585693359375,0.0104217529296875
1772789527249872600,0.07587255859375,-1.0099639892578125,-0.0318145751953125,0.01190185546875
1772789527259938800,0.085938720703125,-1.0135498046875,-0.0316925048828125,0.0133514404296875
1772789527270004700,0.096004638671875,-1.011199951171875,-0.0323333740234375,0.0150146484375
1772789527280070700,0.106070556640625,-1.0092926025390625,-0.032440185546875,0.0167083740234375
1772789527290135600,0.116135498046875,-1.0096893310546875,-0.0316619873046875,0.0173797607421875
1772789527300201700,0.12620166015625,-1.01239013671875,-0.0319976806640625,0.017120361328125
1772789527310267600,0.136267578125,-1.0127410888671875,-0.03173828125,0.0172882080078125
1772789527320337400,0.14633740234375,-1.009674072265625,-0.0313262939453125,0.0181884765625
1772789527330402300,0.15640234375,-1.0087432861328125,-0.031890869140625,0.017730712890625
1772789527340468500,0.166468505859375,-1.009490966796875,-0.0323333740234375,0.0167236328125
1772789527350534400,0.176534423828125,-1.01239013671875,-0.032440185546875,0.0155181884765625
1772789527360600300,0.186600341796875,-1.013641357421875,-0.0333709716796875,0.012939453125
1772789527370666200,0.196666259765625,-1.0105438232421875,-0.03350830078125,0.011566162109375
1772789527380731400,0.2067314453125,-1.0079345703125,-0.0331573486328125,0.01141357421875
1772789527390797300,0.21679736328125,-1.010498046875,-0.0324554443359375,0.0095672607421875
1772789527400863500,0.226863525390625,-1.0119781494140625,-0.0323944091796875,0.00860595703125
1772789527410929400,0.236929443359375,-1.01202392578125,-0.033172607421875,0.0078277587890625
1772789527420995300,0.246995361328125,-1.0093536376953125,-0.033966064453125,0.0077056884765625
1772789527431060200,0.257060302734375,-1.009674072265625,-0.0335693359375,0.008941650390625
1772789527441126400,0.26712646484375,-1.0112457275390625,-0.0323944091796875,0.0096282958984375
1772789527451192300,0.2771923828125,-1.0117340087890625,-0.03265380859375,0.0110626220703125
1772789527461258500,0.287258544921875,-1.0097808837890625,-0.0317840576171875,0.0123748779296875
1772789527471323100,0.2973232421875,-1.0103607177734375,-0.031890869140625,0.0131683349609375
1772789527481389300,0.307389404296875,-1.0103607177734375,-0.0313568115234375,0.0147552490234375
1772789527491455200,0.317455322265625,-1.01104736328125,-0.0317230224609375,0.0170135498046875
1772789527501521400,0.327521484375,-1.011077880859375,-0.0319061279296875,0.0174102783203125
1772789527511587300,0.33758740234375,-1.0097198486328125,-0.0318603515625,0.0179595947265625
1772789527521652200,0.34765234375,-1.0104522705078125,-0.031890869140625,0.0185546875
1772789527531718100,0.35771826171875,-1.011077880859375,-0.031402587890625,0.016937255859375
1772789527541784300,0.367784423828125,-1.010955810546875,-0.0316009521484375,0.0168914794921875
1772789527551850200,0.377850341796875,-1.0112762451171875,-0.031951904296875,0.01568603515625
1772789527561916400,0.38791650390625,-1.010467529296875,-0.03192138671875,0.0138702392578125
1772789527571981300,0.397981201171875,-1.00958251953125,-0.0319671630859375,0.0125732421875
1772789527582047200,0.408047119140625,-1.0119476318359375,-0.0334930419921875,0.0116424560546875
1772789527592113200,0.418113037109375,-1.011260986328125,-0.032562255859375,0.0109405517578125
1772789527602179300,0.428179443359375,-1.0124053955078125,-0.0334320068359375,0.009674072265625
1772789527612244500,0.438244384765625,-1.0099334716796875,-0.0333099365234375,0.009033203125
1772789527622310400,0.448310302734375,-1.008880615234375,-0.0332794189453125,0.00836181640625
1772789527632376300,0.458376220703125,-1.010467529296875,-0.03277587890625,0.008392333984375
1772789527642442200,0.468442138671875,-1.0101470947265625,-0.0329132080078125,0.0099945068359375
1772789527652508200,0.478508056640625,-1.0109405517578125,-0.0328521728515625,0.0108489990234375
1772789527662573300,0.4885732421875,-1.01129150390625,-0.0328826904296875,0.011871337890625
1772789527672639500,0.498639404296875,-1.0107269287109375,-0.0328826904296875,0.013092041015625
1772789527682705400,0.508705322265625,-1.0107574462890625,-0.031768798828125,0.013702392578125
1772789527692771300,0.518771240234375,-1.0110321044921875,-0.03167724609375,0.01556396484375
1772789527702837200,0.528837158203125,-1.0097503662109375,-0.03192138671875,0.0169677734375
1772789527712902400,0.53890234375,-1.0101318359375,-0.0322113037109375,0.016693115234375
1772789527722968300,0.54896826171875,-1.01220703125,-0.031768798828125,0.016632080078125
1772789527733034500,0.559034423828125,-1.01116943359375,-0.0323486328125,0.0171356201171875
1772789527743100400,0.569100341796875,-1.01025390625,-0.0320892333984375,0.0162811279296875
1772789527753165300,0.579165283203125,-1.00970458984375,-0.031768798828125,0.0165252685546875
1772789527763231200,0.589231201171875,-1.01007080078125,-0.0314483642578125,0.0151824951171875
1772789527773297400,0.59929736328125,-1.010009765625,-0.031829833984375,0.0141448974609375
1772789527783363300,0.60936328125,-1.010406494140625,-0.032623291015625,0.0135040283203125
1772789527793429200,0.61942919921875,-1.0111236572265625,-0.032989501953125,0.0123291015625
1772789527803494100,0.629494140625,-1.010650634765625,-0.0337066650390625,0.011077880859375
1772789527813560300,0.639560302734375,-1.0111236572265625,-0.0337066650390625,0.0094146728515625
1772789527823626200,0.649626220703125,-1.0109710693359375,-0.0323944091796875,0.0090179443359375
1772789527833692400,0.6596923828125,-1.011322021484375,-0.0327911376953125,0.00946044921875
1772789527843758300,0.66975830078125,-1.011077880859375,-0.032196044921875,0.0092010498046875
1772789527853823500,0.679823486328125,-1.0113372802734375,-0.0321502685546875,0.01007080078125
1772789527863889200,0.68988916015625,-1.0112457275390625,-0.032806396484375,0.0103302001953125
1772789527873955300,0.699955322265625,-1.011505126953125,-0.032501220703125,0.0120391845703125
1772789527884021200,0.710021240234375,-1.009979248046875,-0.032257080078125,0.0140380859375
1772789527894087400,0.72008740234375,-1.0094146728515625,-0.0327911376953125,0.01568603515625
1772789527904152300,0.73015234375,-1.010589599609375,-0.0316925048828125,0.01611328125
1772789527914218500,0.740218505859375,-1.011077880859375,-0.031951904296875,0.01593017578125
1772789527924284200,0.7502841796875,-1.0105438232421875,-0.0324554443359375,0.017242431640625
1772789527934350300,0.760350341796875,-1.010467529296875,-0.0317535400390625,0.0171661376953125
1772789527944416300,0.770416259765625,-1.0098876953125,-0.0323944091796875,0.0161590576171875
1772789527954481400,0.7804814453125,-1.009979248046875,-0.0326690673828125,0.0154266357421875
1772789527964547300,0.79054736328125,-1.010009765625,-0.0322265625,0.0154571533203125
1772789527974613500,0.800613525390625,-1.0104522705078125,-0.0315399169921875,0.014007568359375
1772789527984679200,0.81067919921875,-1.0101165771484375,-0.0314483642578125,0.013641357421875
1772789527994744300,0.820744384765625,-1.011199951171875,-0.0318450927734375,0.011962890625
1772789528004810200,0.830810302734375,-1.010711669921875,-0.033111572265625,0.0103607177734375
1772789528014876400,0.84087646484375,-1.0114593505859375,-0.03277587890625,0.009857177734375
1772789528024942300,0.8509423828125,-1.0127105712890625,-0.032989501953125,0.0105133056640625
1772789528035008500,0.861008544921875,-1.010711669921875,-0.0334014892578125,0.009033203125
1772789528045073200,0.8710732421875,-1.010498046875,-0.033905029296875,0.009674072265625
1772789528055139300,0.881139404296875,-1.010101318359375,-0.0323486328125,0.01025390625
1772789528065205200,0.891205322265625,-1.00970458984375,-0.031951904296875,0.0105438232421875
1772789528075271400,0.901271484375,-1.01141357421875,-0.031707763671875,0.0108642578125
1772789528085337300,0.91133740234375,-1.0106964111328125,-0.0327911376953125,0.0125732421875
1772789528095402200,0.92140234375,-1.0102996826171875,-0.0332489013671875,0.0142059326171875
1772789528105468200,0.93146826171875,-1.0098114013671875,-0.032440185546875,0.016021728515625
1772789528115534300,0.941534423828125,-1.0106201171875,-0.0322265625,0.01513671875
1772789528125600300,0.951600341796875,-1.009918212890625,-0.0325469970703125,0.016021728515625
1772789528135666400,0.96166650390625,-1.009765625,-0.0315704345703125,0.0163421630859375
1772789528145731300,0.9717314453125,-1.0100555419921875,-0.0319366455078125,0.0165557861328125
1772789528155797200,0.98179736328125,-1.0109710693359375,-0.0320587158203125,0.01580810546875
1772789528165863200,0.99186328125,-1.010467529296875,-0.0318145751953125,0.0150299072265625
1772789528175929300,1.001929443359375,-1.0109100341796875,-0.0321044921875,0.0151824951171875
1772789528185995300,1.011995361328125,-1.0105133056640625,-0.0322113037109375,0.01361083984375
1772789528196060400,1.022060302734375,-1.0106048583984375,-0.0323486328125,0.0121917724609375
1772789528206126300,1.032126220703125,-1.011627197265625,-0.032623291015625,0.011749267578125
1772789528216192300,1.042192138671875,-1.009857177734375,-0.0329742431640625,0.01019287109375
1772789528226258200,1.052258056640625,-1.011199951171875,-0.03302001953125,0.01055908203125
1772789528236324400,1.062324462890625,-1.01080322265625,-0.0328521728515625,0.0094451904296875
1772789528246389500,1.072389404296875,-1.01068115234375,-0.0329437255859375,0.009246826171875
1772789528256455400,1.082455322265625,-1.0115814208984375,-0.0324859619140625,0.0099334716796875
1772789528266521000,1.09252099609375,-1.010406494140625,-0.0330047607421875,0.0111236572265625
1772789528276587300,1.102587158203125,-1.01116943359375,-0.03271484375,0.011474609375
1772789528286653200,1.112653076171875,-1.0102691650390625,-0.0323638916015625,0.0130767822265625
1772789528296718300,1.12271826171875,-1.0092620849609375,-0.0325927734375,0.0135650634765625
1772789528306784500,1.132784423828125,-1.0108795166015625,-0.032135009765625,0.015106201171875
1772789528316846300,1.142846435546875,-1.010101318359375,-0.032470703125,0.016143798828125
1772789528326912500,1.15291259765625,-1.0096435546875,-0.0318756103515625,0.0162506103515625
1772789528336978400,1.162978515625,-1.0107879638671875,-0.03228759765625,0.016387939453125
1772789528347043600,1.173043701171875,-1.0105133056640625,-0.031219482421875,0.0167236328125
1772789528357109500,1.183109619140625,-1.0123748779296875,-0.0312042236328125,0.0152587890625
1772789528367175700,1.19317578125,-1.009552001953125,-0.0317840576171875,0.01568603515625
1772789528377241300,1.203241455078125,-1.00927734375,-0.0330047607421875,0.0146636962890625
1772789528387307500,1.2133076171875,-1.01043701171875,-0.0324554443359375,0.012969970703125
1772789528397372400,1.223372314453125,-1.01080322265625,-0.032562255859375,0.0128936767578125
1772789528407438600,1.2334384765625,-1.01068115234375,-0.03314208984375,0.0120849609375
1772789528417504500,1.24350439453125,-1.0103759765625,-0.0329132080078125,0.011138916015625
1772789528427570700,1.25357080078125,-1.01123046875,-0.03173828125,0.00994873046875
1772789528437636400,1.26363623046875,-1.0107574462890625,-0.0323028564453125,0.0100555419921875
1772789528447702500,1.27370263671875,-1.011444091796875,-0.032135009765625,0.0096893310546875
1772789528457767400,1.283767333984375,-1.010009765625,-0.032196044921875,0.0098724365234375
1772789528467833600,1.29383349609375,-1.0107269287109375,-0.0328521728515625,0.01055908203125
1772789528477899500,1.3038994140625,-1.011932373046875,-0.03338623046875,0.0112457275390625
1772789528487965700,1.313965576171875,-1.0108184814453125,-0.0325469970703125,0.0133056640625
1772789528498031400,1.32403125,-1.0111541748046875,-0.0319976806640625,0.0147552490234375
1772789528508096500,1.334096435546875,-1.0117950439453125,-0.032379150390625,0.0142669677734375
1772789528518162400,1.344162353515625,-1.0108489990234375,-0.03216552734375,0.015167236328125
1772789528528228600,1.354228515625,-1.011993408203125,-0.0315399169921875,0.015411376953125
1772789528538294500,1.36429443359375,-1.01055908203125,-0.0318603515625,0.0157470703125
1772789528548360700,1.374360595703125,-1.01092529296875,-0.0323638916015625,0.016082763671875
1772789528558425300,1.38442529296875,-1.0102386474609375,-0.0322723388671875,0.0158843994140625
1772789528568491500,1.394491455078125,-1.0100250244140625,-0.032806396484375,0.01483154296875
1772789528578557400,1.404557373046875,-1.0107269287109375,-0.0321502685546875,0.0148162841796875
1772789528588623600,1.41462353515625,-1.010498046875,-0.032196044921875,0.014678955078125
1772789528598689500,1.424689453125,-1.01043701171875,-0.03204345703125,0.013671875
1772789528608754400,1.43475439453125,-1.0106201171875,-0.032928466796875,0.0123291015625
1772789528618820400,1.4448203125,-1.011260986328125,-0.0327301025390625,0.0123138427734375
1772789528628886500,1.454886474609375,-1.01129150390625,-0.033660888671875,0.0101165771484375
1772789528638952400,1.464952392578125,-1.01123046875,-0.032958984375,0.0110015869140625
1772789528649018600,1.4750185546875,-1.011077880859375,-0.0322265625,0.0105438232421875
1772789528659084500,1.48508447265625,-1.0107269287109375,-0.032989501953125,0.0097503662109375
1772789528669149400,1.4951494140625,-1.011627197265625,-0.0326690673828125,0.010467529296875
1772789528679215400,1.50521533203125,-1.011871337890625,-0.0318603515625,0.0113983154296875
1772789528689281500,1.515281494140625,-1.0115203857421875,-0.0318145751953125,0.0125732421875
1772789528699347500,1.525347412109375,-1.0116729736328125,-0.0318145751953125,0.0135498046875
1772789528709413600,1.53541357421875,-1.010162353515625,-0.032257080078125,0.0141754150390625
1772789528719478500,1.545478515625,-1.00970458984375,-0.032745361328125,0.015289306640625
1772789528729544400,1.55554443359375,-1.010498046875,-0.031707763671875,0.0161285400390625
1772789528739610400,1.5656103515625,-1.0107879638671875,-0.0315399169921875,0.0159912109375
1772789528749676500,1.575676513671875,-1.0103759765625,-0.031524658203125,0.01568603515625
1772789528759742500,1.585742431640625,-1.0102996826171875,-0.0320281982421875,0.0160675048828125
1772789528769807600,1.5958076171875,-1.0102386474609375,-0.031982421875,0.015594482421875
1772789528779873300,1.605873291015625,-1.01116943359375,-0.03179931640625,0.01446533203125
1772789528789939500,1.615939453125,-1.0106201171875,-0.0323638916015625,0.0133819580078125
1772789528800005400,1.62600537109375,-1.0106353759765625,-0.032379150390625,0.013153076171875
1772789528810071600,1.636071533203125,-1.0101318359375,-0.0330047607421875,0.012298583984375
1772789528820137500,1.646137451171875,-1.01123046875,-0.0318603515625,0.011199951171875
1772789528830202600,1.65620263671875,-1.0106964111328125,-0.03271484375,0.011138916015625
1772789528840268300,1.666268310546875,-1.0109710693359375,-0.032684326171875,0.011566162109375
1772789528850334500,1.67633447265625,-1.0108489990234375,-0.0326690673828125,0.011077880859375
1772789528860400400,1.686400390625,-1.010223388671875,-0.0330810546875,0.0107574462890625
1772789528870466600,1.696466552734375,-1.00897216796875,-0.0330657958984375,0.010986328125
1772789528880531500,1.706531494140625,-1.0106964111328125,-0.033233642578125,0.010467529296875
1772789528890597600,1.71659765625,-1.01025390625,-0.0327301025390625,0.012054443359375
1772789528900663300,1.726663330078125,-1.0108642578125,-0.0319976806640625,0.01239013671875
1772789528910729500,1.7367294921875,-1.0110931396484375,-0.0321044921875,0.0139923095703125
1772789528920795400,1.74679541015625,-1.010772705078125,-0.0319976806640625,0.0147857666015625
1772789528930861600,1.756861572265625,-1.011199951171875,-0.0324554443359375,0.0152435302734375
1772789528940926500,1.766926513671875,-1.0111846923828125,-0.03253173828125,0.0158843994140625
1772789528950992600,1.77699267578125,-1.009979248046875,-0.0321044921875,0.0163116455078125
1772789528961058300,1.787058349609375,-1.0112152099609375,-0.031982421875,0.01593017578125
1772789528971124500,1.79712451171875,-1.0104522705078125,-0.03204345703125,0.0151519775390625
1772789528981190400,1.8071904296875,-1.0103607177734375,-0.031707763671875,0.014251708984375
1772789528991255600,1.817255615234375,-1.011199951171875,-0.0321044921875,0.01470947265625
1772789529001321500,1.827321533203125,-1.0102691650390625,-0.03192138671875,0.01336669921875
1772789529011387600,1.8373876953125,-1.0102996826171875,-0.032562255859375,0.0123291015625
1772789529021453300,1.847453369140625,-1.0101776123046875,-0.0328369140625,0.012359619140625
1772789529031519500,1.85751953125,-1.0107421875,-0.0330963134765625,0.0115203857421875
1772789529041585400,1.86758544921875,-1.0096893310546875,-0.0324859619140625,0.011383056640625
1772789529051650600,1.877650634765625,-1.011016845703125,-0.0317840576171875,0.0108795166015625
1772789529061716500,1.887716552734375,-1.01190185546875,-0.0321502685546875,0.009796142578125
1772789529071782700,1.89778271484375,-1.0107879638671875,-0.0323028564453125,0.010589599609375
1772789529081848300,1.907848388671875,-1.0102996826171875,-0.0330352783203125,0.0114898681640625
1772789529091914500,1.91791455078125,-1.0114593505859375,-0.034149169921875,0.012298583984375
1772789529101980400,1.92798046875,-1.0113372802734375,-0.032989501953125,0.0122833251953125
1772789529112045600,1.938045654296875,-1.0117645263671875,-0.0316162109375,0.013153076171875
1772789529122111500,1.948111572265625,-1.009857177734375,-0.0314788818359375,0.014068603515625
1772789529132177700,1.958177734375,-1.0105743408203125,-0.03179931640625,0.014862060546875
1772789529142243300,1.968243408203125,-1.0106048583984375,-0.032623291015625,0.0151824951171875
1772789529152309500,1.9783095703125,-1.010467529296875,-0.0326995849609375,0.0155487060546875
1772789529162375400,1.98837548828125,-1.010986328125,-0.0325469970703125,0.0157623291015625
1772789529172440600,1.998440673828125,-1.0099029541015625,-0.0313720703125,0.0156402587890625
1772789529182506500,2.008506591796875,-1.01019287109375,-0.032440185546875,0.014892578125
1772789529192572700,2.01857275390625,-1.0106964111328125,-0.0310211181640625,0.0146636962890625
1772789529202638300,2.028638427734375,-1.0107879638671875,-0.031646728515625,0.0144805908203125
1772789529212704500,2.03870458984375,-1.01031494140625,-0.03240966796875,0.0131378173828125
1772789529222770400,2.0487705078125,-1.010345458984375,-0.033203125,0.0125732421875
1772789529232835600,2.058835693359375,-1.0104217529296875,-0.032867431640625,0.01171875
1772789529242901500,2.068901611328125,-1.010040283203125,-0.0334625244140625,0.0119476318359375
1772789529252967700,2.0789677734375,-1.0118560791015625,-0.032989501953125,0.01129150390625
1772789529263033300,2.089033447265625,-1.0111236572265625,-0.03277587890625,0.0101165771484375
1772789529273099500,2.099099609375,-1.0097198486328125,-0.0331268310546875,0.0103912353515625
1772789529283164400,2.109164306640625,-1.0116424560546875,-0.0322265625,0.0112457275390625
1772789529293230600,2.119230712890625,-1.011749267578125,-0.03240966796875,0.0117950439453125
1772789529303296500,2.129296630859375,-1.010894775390625,-0.0324859619140625,0.012115478515625
1772789529313362700,2.13936279296875,-1.0103302001953125,-0.0327606201171875,0.013031005859375
1772789529323428600,2.1494287109375,-1.010009765625,-0.032196044921875,0.0131378173828125
1772789529333494800,2.159494873046875,-1.010650634765625,-0.03155517578125,0.0145263671875
1772789529343559400,2.169559326171875,-1.0110626220703125,-0.0318756103515625,0.0154571533203125
1772789529353625600,2.17962548828125,-1.009674072265625,-0.0325469970703125,0.0148468017578125
1772789529363691500,2.18969140625,-1.00970458984375,-0.0320281982421875,0.0158233642578125
1772789529373757700,2.1997578125,-1.010284423828125,-0.032073974609375,0.0152130126953125
1772789529383823600,2.20982373046875,-1.010406494140625,-0.032623291015625,0.01605224609375
1772789529393889800,2.219889892578125,-1.0104522705078125,-0.0325164794921875,0.0143280029296875
1772789529403954400,2.229954345703125,-1.01055908203125,-0.0323486328125,0.014801025390625
1772789529414020600,2.2400205078125,-1.0103759765625,-0.0322723388671875,0.0138092041015625
1772789529424086500,2.25008642578125,-1.0109405517578125,-0.0323486328125,0.01239013671875
1772789529434152700,2.260152587890625,-1.0110321044921875,-0.031829833984375,0.012725830078125
1772789529444218600,2.270218505859375,-1.01153564453125,-0.0330352783203125,0.0117034912109375
1772789529454284500,2.280284423828125,-1.0108489990234375,-0.032928466796875,0.01123046875
1772789529464349400,2.290349365234375,-1.009857177734375,-0.03240966796875,0.0107269287109375
1772789529474415600,2.30041552734375,-1.010101318359375,-0.0326690673828125,0.0100860595703125
1772789529484481500,2.3104814453125,-1.01043701171875,-0.031890869140625,0.0110015869140625
1772789529494547700,2.320547607421875,-1.011138916015625,-0.0322418212890625,0.011749267578125
1772789529504613600,2.330613525390625,-1.0096588134765625,-0.0323486328125,0.012054443359375
1772789529514679600,2.340679443359375,-1.0117340087890625,-0.0319061279296875,0.0129852294921875
1772789529524744400,2.350744384765625,-1.0104217529296875,-0.0323486328125,0.0128936767578125
1772789529534810600,2.360810546875,-1.010894775390625,-0.03228759765625,0.0142059326171875
1772789529544876500,2.37087646484375,-1.01019287109375,-0.032806396484375,0.0142822265625
1772789529554942700,2.380942626953125,-1.0096282958984375,-0.0316009521484375,0.0153961181640625
1772789529565008600,2.391008544921875,-1.010345458984375,-0.0326385498046875,0.0160064697265625
1772789529575074600,2.401074462890625,-1.0106048583984375,-0.0323486328125,0.014892578125
1772789529585139500,2.411139404296875,-1.010955810546875,-0.0317535400390625,0.015289306640625
1772789529595205600,2.42120556640625,-1.0098724365234375,-0.032562255859375,0.0147857666015625
1772789529605271600,2.431271484375,-1.00946044921875,-0.033111572265625,0.013702392578125
1772789529615337700,2.441337646484375,-1.0099029541015625,-0.033050537109375,0.013641357421875
1772789529625403600,2.451403564453125,-1.010711669921875,-0.032196044921875,0.01312255859375
1772789529635469600,2.461469482421875,-1.0102386474609375,-0.0322723388671875,0.0123748779296875
1772789529645534500,2.471534423828125,-1.0104217529296875,-0.032135009765625,0.010833740234375
1772789529655600600,2.4816005859375,-1.011627197265625,-0.03228759765625,0.0112152099609375
1772789529665666600,2.49166650390625,-1.01080322265625,-0.032806396484375,0.0114288330078125
1772789529675732700,2.501732666015625,-1.0108795166015625,-0.03271484375,0.0101165771484375
1772789529685798700,2.511798583984375,-1.010986328125,-0.0333404541015625,0.010986328125
1772789529695864600,2.521864501953125,-1.010833740234375,-0.032440185546875,0.0118865966796875
1772789529705930800,2.5319306640625,-1.0102691650390625,-0.032135009765625,0.013092041015625
1772789529715995600,2.54199560546875,-1.0107421875,-0.032745361328125,0.0124359130859375
1772789529726061600,2.5520615234375,-1.01226806640625,-0.0311279296875,0.0136566162109375
1772789529736127500,2.56212744140625,-1.011199951171875,-0.0304412841796875,0.0137939453125
1772789529746193700,2.572193603515625,-1.0107421875,-0.031982421875,0.0146026611328125
1772789529756259600,2.582259521484375,-1.01007080078125,-0.032257080078125,0.015411376953125
1772789529766325800,2.59232568359375,-1.0117950439453125,-0.0322418212890625,0.0149383544921875
1772789529776390700,2.602390625,-1.01025390625,-0.03216552734375,0.0143280029296875
1772789529786456600,2.61245654296875,-1.0098876953125,-0.0331573486328125,0.014312744140625
1772789529796522500,2.6225224609375,-1.0106201171875,-0.031982421875,0.014892578125
1772789529806588700,2.632588623046875,-1.010772705078125,-0.0319366455078125,0.015228271484375
1772789529816654600,2.642654541015625,-1.0098419189453125,-0.031494140625,0.0148162841796875
1772789529826720800,2.652720703125,-1.0103302001953125,-0.0324249267578125,0.0126495361328125
1772789529836785700,2.66278564453125,-1.011138916015625,-0.0328216552734375,0.0128631591796875
1772789529846851600,2.6728515625,-1.0127716064453125,-0.0319061279296875,0.0117950439453125
1772789529856917500,2.68291748046875,-1.0114593505859375,-0.03179931640625,0.0112152099609375
1772789529866983700,2.692983642578125,-1.0098876953125,-0.0333404541015625,0.0113067626953125
1772789529877049600,2.703049560546875,-1.0110626220703125,-0.032562255859375,0.01129150390625
1772789529887115800,2.71311572265625,-1.0110626220703125,-0.032928466796875,0.0111541748046875
1772789529897181400,2.723181396484375,-1.0113983154296875,-0.03277587890625,0.0124053955078125
1772789529907246600,2.73324658203125,-1.010528564453125,-0.0330963134765625,0.011871337890625
1772789529917312500,2.7433125,-1.0084991455078125,-0.03179931640625,0.0130462646484375
1772789529927378700,2.753378662109375,-1.0107574462890625,-0.0322265625,0.0133209228515625
1772789529937444600,2.763444580078125,-1.0121307373046875,-0.0317840576171875,0.0131988525390625
1772789529947510800,2.7735107421875,-1.0102691650390625,-0.0326385498046875,0.01434326171875
1772789529957576400,2.783576416015625,-1.0110321044921875,-0.0330657958984375,0.0150299072265625
1772789529967641600,2.7936416015625,-1.01025390625,-0.031494140625,0.0142822265625
1772789529977707500,2.80370751953125,-1.0110626220703125,-0.0328216552734375,0.015045166015625
1772789529987773700,2.813773681640625,-1.0104522705078125,-0.03314208984375,0.0146484375
1772789529997839600,2.823839599609375,-1.0102996826171875,-0.0318756103515625,0.01483154296875
1772789530007905800,2.83390576171875,-1.011810302734375,-0.0319366455078125,0.0147247314453125
1772789530017971500,2.843971435546875,-1.0102691650390625,-0.032440185546875,0.013824462890625
1772789530028036600,2.85403662109375,-1.010406494140625,-0.0315093994140625,0.0141448974609375
1772789530038102500,2.8641025390625,-1.011444091796875,-0.032318115234375,0.0126953125
1772789530048168700,2.874168701171875,-1.01202392578125,-0.032501220703125,0.0124664306640625
1772789530058234600,2.884234619140625,-1.0106048583984375,-0.033416748046875,0.0124359130859375
1772789530068300800,2.89430078125,-1.009429931640625,-0.03204345703125,0.0107574462890625
1772789530078366500,2.904366455078125,-1.010772705078125,-0.032318115234375,0.011444091796875
1772789530088432600,2.9144326171875,-1.011444091796875,-0.0322113037109375,0.011871337890625
1772789530098497500,2.92449755859375,-1.0105743408203125,-0.0324859619140625,0.011077880859375
1772789530108563700,2.934563720703125,-1.0108489990234375,-0.0327911376953125,0.0117340087890625
1772789530118629600,2.944629638671875,-1.0103912353515625,-0.03277587890625,0.012420654296875
1772789530128695800,2.95469580078125,-1.0110626220703125,-0.03204345703125,0.013031005859375
1772789530138761500,2.964761474609375,-1.01104736328125,-0.0321807861328125,0.013427734375
1772789530148827600,2.97482763671875,-1.010650634765625,-0.0318145751953125,0.01422119140625
1772789530158893600,2.9848935546875,-1.0114288330078125,-0.031951904296875,0.0142974853515625
1772789530168958700,2.994958740234375,-1.0108184814453125,-0.032470703125,0.014617919921875
1772789530179024600,3.005024658203125,-1.010467529296875,-0.0321807861328125,0.0149688720703125
1772789530189090800,3.0150908203125,-1.0118255615234375,-0.0323333740234375,0.01531982421875
1772789530199156500,3.025156494140625,-1.00958251953125,-0.0322113037109375,0.0151214599609375
1772789530209222700,3.03522265625,-1.01055908203125,-0.032440185546875,0.0150604248046875
1772789530219288600,3.04528857421875,-1.0109100341796875,-0.0325164794921875,0.0142669677734375
1772789530229353700,3.055353759765625,-1.01092529296875,-0.03271484375,0.013702392578125
1772789530239419600,3.065419677734375,-1.0104522705078125,-0.0323486328125,0.0131072998046875
1772789530249485800,3.07548583984375,-1.00994873046875,-0.0324249267578125,0.012786865234375
1772789530259551500,3.085551513671875,-1.0116424560546875,-0.0325469970703125,0.0117645263671875
1772789530269617700,3.09561767578125,-1.01123046875,-0.0333709716796875,0.0123443603515625
1772789530279683600,3.10568359375,-1.01141357421875,-0.0323944091796875,0.0113525390625
1772789530289749500,3.11574951171875,-1.011322021484375,-0.0326690673828125,0.01177978515625
1772789530299814700,3.125814697265625,-1.0094757080078125,-0.0326690673828125,0.01129150390625
1772789530309880800,3.135880859375,-1.0103302001953125,-0.03216552734375,0.011383056640625
1772789530319947300,3.145947265625,-1.010833740234375,-0.032684326171875,0.0126190185546875
1772789530330013200,3.15601318359375,-1.0099639892578125,-0.03314208984375,0.01251220703125
1772789530340079400,3.166079345703125,-1.0098876953125,-0.032073974609375,0.012969970703125
1772789530350145000,3.17614501953125,-1.01055908203125,-0.0337066650390625,0.013153076171875
1772789530360211200,3.186211181640625,-1.0101470947265625,-0.0323944091796875,0.01397705078125
1772789530370276000,3.196276123046875,-1.0110931396484375,-0.0314788818359375,0.0145416259765625
1772789530380342300,3.20634228515625,-1.0113372802734375,-0.032257080078125,0.014801025390625
1772789530390408200,3.216408203125,-1.0107421875,-0.031097412109375,0.0146942138671875
1772789530400474400,3.226474365234375,-1.010986328125,-0.0317230224609375,0.014984130859375
1772789530410540000,3.2365400390625,-1.01104736328125,-0.0323028564453125,0.01422119140625
1772789530420606200,3.246606201171875,-1.011016845703125,-0.0323486328125,0.0142974853515625
1772789530430671000,3.256671142578125,-1.0113067626953125,-0.032501220703125,0.01422119140625
1772789530440737300,3.2667373046875,-1.01116943359375,-0.032257080078125,0.012786865234375
1772789530450803200,3.27680322265625,-1.010650634765625,-0.03253173828125,0.013336181640625
1772789530460869400,3.286869384765625,-1.0103302001953125,-0.03173828125,0.011688232421875
1772789530470935000,3.29693505859375,-1.0101318359375,-0.032318115234375,0.0115203857421875
1772789530481001200,3.307001220703125,-1.010833740234375,-0.0323486328125,0.0115509033203125
1772789530491067100,3.317067138671875,-1.0115203857421875,-0.0326690673828125,0.01239013671875
1772789530501132300,3.32713232421875,-1.0105133056640625,-0.032470703125,0.0120849609375
1772789530511198200,3.3371982421875,-1.0103302001953125,-0.032806396484375,0.0125885009765625
1772789530521264400,3.347264404296875,-1.010284423828125,-0.0323028564453125,0.0131378173828125
1772789530531330000,3.357330078125,-1.01043701171875,-0.03179931640625,0.0126190185546875
1772789530541396200,3.367396240234375,-1.01153564453125,-0.031219482421875,0.0131683349609375
1772789530551462100,3.377462158203125,-1.0105743408203125,-0.0319061279296875,0.0134735107421875
1772789530561528300,3.3875283203125,-1.0103302001953125,-0.0323638916015625,0.0145721435546875
1772789530571593200,3.39759326171875,-1.0106048583984375,-0.0324859619140625,0.01519775390625
1772789530581659400,3.407659423828125,-1.0105743408203125,-0.032623291015625,0.0149078369140625
1772789530591725000,3.41772509765625,-1.0106201171875,-0.0313720703125,0.0138702392578125
1772789530601791200,3.427791259765625,-1.010986328125,-0.0316162109375,0.0140228271484375
1772789530611857200,3.437857177734375,-1.0105743408203125,-0.032196044921875,0.014190673828125
1772789530621923300,3.44792333984375,-1.0102386474609375,-0.031951904296875,0.0137939453125
1772789530631989200,3.4579892578125,-1.010650634765625,-0.0324554443359375,0.0142669677734375
1772789530642054100,3.46805419921875,-1.0110015869140625,-0.032623291015625,0.013153076171875
1772789530652120000,3.4781201171875,-1.010986328125,-0.0333099365234375,0.0125732421875
1772789530662186200,3.488186279296875,-1.0118255615234375,-0.032989501953125,0.0115509033203125
1772789530672252200,3.498252197265625,-1.0100250244140625,-0.0331573486328125,0.0117034912109375
1772789530682318300,3.508318359375,-1.0099639892578125,-0.0318145751953125,0.011993408203125
1772789530692384300,3.51838427734375,-1.0103302001953125,-0.03167724609375,0.0120697021484375
1772789530702450200,3.5284501953125,-1.0106964111328125,-0.032379150390625,0.0117645263671875
1772789530712515000,3.53851513671875,-1.0111083984375,-0.0323486328125,0.010772705078125
1772789530722581200,3.548581298828125,-1.0100555419921875,-0.03326416015625,0.0128936767578125
1772789530732647200,3.558647216796875,-1.0106353759765625,-0.0334014892578125,0.013092041015625
1772789530742713000,3.568713134765625,-1.010467529296875,-0.0326080322265625,0.0130615234375
1772789530752779300,3.578779296875,-1.0105133056640625,-0.03240966796875,0.013397216796875
1772789530762845200,3.58884521484375,-1.0117950439453125,-0.031463623046875,0.0138702392578125
1772789530772911400,3.598911376953125,-1.0115203857421875,-0.03143310546875,0.014678955078125
1772789530782976300,3.608976318359375,-1.0108642578125,-0.0325164794921875,0.0138702392578125
1772789530793042200,3.619042236328125,-1.01104736328125,-0.0318603515625,0.0142059326171875
1772789530803108000,3.629108154296875,-1.0106658935546875,-0.0322418212890625,0.0144805908203125
1772789530813174300,3.63917431640625,-1.0106964111328125,-0.033050537109375,0.0138702392578125
1772789530823240200,3.649240234375,-1.0102081298828125,-0.0318756103515625,0.014251708984375
1772789530833306400,3.659306396484375,-1.0111846923828125,-0.03131103515625,0.013336181640625
1772789530843372000,3.6693720703125,-1.011322021484375,-0.032073974609375,0.012908935546875
1772789530853437200,3.679437255859375,-1.0113677978515625,-0.0317840576171875,0.0131683349609375
1772789530863503000,3.689503173828125,-1.0109710693359375,-0.03363037109375,0.012725830078125
1772789530873569300,3.6995693359375,-1.0096893310546875,-0.03302001953125,0.0126495361328125
1772789530883635200,3.70963525390625,-1.0113372802734375,-0.0323944091796875,0.01190185546875
1772789530893701400,3.719701416015625,-1.01092529296875,-0.03253173828125,0.01214599609375
1772789530903767000,3.72976708984375,-1.011383056640625,-0.032318115234375,0.0123138427734375
1772789530913833200,3.739833251953125,-1.0107574462890625,-0.0316925048828125,0.01177978515625
1772789530923898000,3.749898193359375,-1.01043701171875,-0.03192138671875,0.0119476318359375
1772789530933964300,3.75996435546875,-1.0107269287109375,-0.032623291015625,0.0128631591796875
1772789530944030200,3.7700302734375,-1.0111846923828125,-0.0331268310546875,0.0131072998046875
1772789530954096400,3.780096435546875,-1.01019287109375,-0.0325164794921875,0.014312744140625
1772789530964162000,3.790162109375,-1.0103302001953125,-0.03265380859375,0.014129638671875
1772789530974228200,3.800228271484375,-1.0103607177734375,-0.0322418212890625,0.0144195556640625
1772789530984294100,3.810294189453125,-1.010162353515625,-0.030975341796875,0.0146484375
1772789530994359300,3.820359375,-1.0107879638671875,-0.031097412109375,0.0151824951171875
1772789531004425200,3.83042529296875,-1.0110015869140625,-0.032135009765625,0.014373779296875
1772789531014491100,3.8404912109375,-1.011383056640625,-0.0325775146484375,0.013580322265625
1772789531024557000,3.85055712890625,-1.0111236572265625,-0.0335845947265625,0.01409912109375
1772789531034623200,3.860623291015625,-1.01025390625,-0.0326385498046875,0.0142364501953125
1772789531044689200,3.870689208984375,-1.0104827880859375,-0.0322418212890625,0.01348876953125
1772789531054755300,3.88075537109375,-1.0109100341796875,-0.0321807861328125,0.012603759765625
1772789531064821200,3.8908212890625,-1.0109405517578125,-0.0318450927734375,0.0121612548828125
1772789531074886100,3.90088623046875,-1.0114593505859375,-0.0315704345703125,0.0119171142578125
1772789531084952000,3.9109521484375,-1.01123046875,-0.0326690673828125,0.0116424560546875
1772789531095018200,3.921018310546875,-1.0106201171875,-0.033538818359375,0.0122222900390625
1772789531105084200,3.931084228515625,-1.011444091796875,-0.0330047607421875,0.01220703125
1772789531115150300,3.941150390625,-1.0106964111328125,-0.0324554443359375,0.011077880859375
1772789531125216300,3.95121630859375,-1.01031494140625,-0.032012939453125,0.01226806640625
1772789531135282200,3.9612822265625,-1.010833740234375,-0.032470703125,0.0131378173828125
1772789531145347000,3.97134716796875,-1.0108184814453125,-0.031646728515625,0.0125732421875
1772789531155413200,3.981413330078125,-1.0106048583984375,-0.0321197509765625,0.013336181640625
1772789531165479200,3.991479248046875,-1.009857177734375,-0.0331573486328125,0.01385498046875
1772789531175544300,4.00154443359375,-1.010955810546875,-0.033050537109375,0.014923095703125
1772789531185610200,4.0116103515625,-1.0117645263671875,-0.03271484375,0.0143890380859375
1772789531195676200,4.02167626953125,-1.0106658935546875,-0.0319976806640625,0.0140228271484375
1772789531205742000,4.0317421875,-1.01104736328125,-0.031341552734375,0.0147705078125
1772789531215808300,4.041808349609375,-1.0101470947265625,-0.0319366455078125,0.0150604248046875
1772789531225874200,4.051874267578125,-1.0117645263671875,-0.0317535400390625,0.0138092041015625
1772789531235939300,4.061939208984375,-1.0109100341796875,-0.03326416015625,0.0136260986328125
1772789531246005200,4.072005126953125,-1.010498046875,-0.03302001953125,0.01416015625
1772789531256071200,4.0820712890625,-1.010223388671875,-0.03338623046875,0.0122528076171875
1772789531266137000,4.09213720703125,-1.0102081298828125,-0.0326080322265625,0.0129547119140625
1772789531276203300,4.102203369140625,-1.010284423828125,-0.032257080078125,0.0127410888671875
1772789531286269200,4.112269287109375,-1.0105438232421875,-0.0324859619140625,0.012237548828125
1772789531296335000,4.122335205078125,-1.010467529296875,-0.03216552734375,0.0115509033203125
1772789531306401300,4.1324013671875,-1.011138916015625,-0.0327911376953125,0.0127716064453125
1772789531316466200,4.142466064453125,-1.0115814208984375,-0.0326080322265625,0.0127105712890625
1772789531326535200,4.15253515625,-1.0105133056640625,-0.032470703125,0.0126953125
1772789531336601300,4.162601318359375,-1.0097198486328125,-0.0325775146484375,0.0132904052734375
1772789531346667300,4.172667236328125,-1.0102081298828125,-0.0322723388671875,0.0125274658203125
1772789531356733200,4.182733154296875,-1.0110015869140625,-0.0322418212890625,0.012969970703125
1772789531366799000,4.192799072265625,-1.0110626220703125,-0.0325469970703125,0.0140228271484375
1772789531376865000,4.202864990234375,-1.01165771484375,-0.031768798828125,0.0140533447265625
1772789531386930200,4.21293017578125,-1.011627197265625,-0.031982421875,0.0135955810546875
1772789531396996400,4.222996337890625,-1.0113677978515625,-0.032073974609375,0.013214111328125
1772789531407062300,4.233062255859375,-1.0104827880859375,-0.0319976806640625,0.0134429931640625
1772789531417128200,4.243128173828125,-1.010650634765625,-0.0326995849609375,0.013031005859375
1772789531427194000,4.253194091796875,-1.0108489990234375,-0.0324859619140625,0.01373291015625
1772789531437260000,4.263260009765625,-1.01055908203125,-0.0327911376953125,0.0136260986328125
1772789531447326200,4.273326171875,-1.010772705078125,-0.0326385498046875,0.01495361328125
1772789531457392000,4.28339208984375,-1.0103302001953125,-0.0324249267578125,0.01373291015625
1772789531467457300,4.293457275390625,-1.010986328125,-0.032806396484375,0.0128631591796875
1772789531477523200,4.303523193359375,-1.01104736328125,-0.03179931640625,0.0116119384765625
1772789531487589000,4.313589111328125,-1.0102081298828125,-0.03265380859375,0.0127716064453125
1772789531497655000,4.323655029296875,-1.010894775390625,-0.032684326171875,0.0119171142578125
1772789531507721200,4.33372119140625,-1.0107421875,-0.032440185546875,0.011993408203125
1772789531517787100,4.343787109375,-1.011138916015625,-0.03314208984375,0.0116119384765625
1772789531527853300,4.353853271484375,-1.010894775390625,-0.0331878662109375,0.0123443603515625
1772789531537918200,4.363918212890625,-1.0105133056640625,-0.032379150390625,0.01287841796875
1772789531547984100,4.373984130859375,-1.0113677978515625,-0.0329742431640625,0.0133056640625
1772789531558050000,4.384050048828125,-1.00970458984375,-0.0322418212890625,0.0137786865234375
1772789531568116200,4.3941162109375,-1.011016845703125,-0.032318115234375,0.0125274658203125
1772789531578182100,4.40418212890625,-1.011749267578125,-0.0317535400390625,0.01422119140625
1772789531588248300,4.414248291015625,-1.011260986328125,-0.0331268310546875,0.0130767822265625
1772789531598314200,4.424314208984375,-1.01141357421875,-0.0324249267578125,0.0134735107421875
1772789531608380200,4.434380126953125,-1.01104736328125,-0.0321807861328125,0.013275146484375
1772789531618445000,4.444445068359375,-1.0117034912109375,-0.0314178466796875,0.0137481689453125
1772789531628511200,4.45451123046875,-1.011688232421875,-0.0322265625,0.014495849609375
1772789531638577200,4.4645771484375,-1.010589599609375,-0.0323028564453125,0.0151214599609375
1772789531648643300,4.474643310546875,-1.0107879638671875,-0.0323028564453125,0.01446533203125
1772789531658709200,4.484709228515625,-1.0102996826171875,-0.03277587890625,0.01324462890625
1772789531668775200,4.494775146484375,-1.0109100341796875,-0.033233642578125,0.0137481689453125
1772789531678841000,4.504841064453125,-1.010528564453125,-0.032562255859375,0.012359619140625
1772789531688907300,4.5149072265625,-1.0109405517578125,-0.0319061279296875,0.0130462646484375
1772789531698972200,4.52497216796875,-1.0108184814453125,-0.0328826904296875,0.013519287109375
1772789531709038300,4.535038330078125,-1.009613037109375,-0.032989501953125,0.012603759765625
1772789531719104300,4.545104248046875,-1.0108642578125,-0.032440185546875,0.0122222900390625
1772789531729170200,4.555170166015625,-1.0107421875,-0.0324554443359375,0.0120849609375
1772789531739236000,4.565236083984375,-1.0097198486328125,-0.0323333740234375,0.012786865234375
1772789531749302300,4.57530224609375,-1.0109710693359375,-0.0325164794921875,0.0128173828125
1772789531759368200,4.5853681640625,-1.011566162109375,-0.0319061279296875,0.013397216796875
1772789531769434000,4.59543408203125,-1.011077880859375,-0.03179931640625,0.012939453125
1772789531779499300,4.605499267578125,-1.0102386474609375,-0.031707763671875,0.0130767822265625
1772789531789565200,4.615565185546875,-1.010406494140625,-0.0323944091796875,0.0133514404296875
1772789531799631000,4.625631103515625,-1.0099945068359375,-0.032012939453125,0.0142669677734375
1772789531809698000,4.635697998046875,-1.0107879638671875,-0.0316314697265625,0.014190673828125
1772789531819764200,4.64576416015625,-1.0115814208984375,-0.0323638916015625,0.0143890380859375
1772789531829829000,4.6558291015625,-1.0107879638671875,-0.03216552734375,0.0142669677734375
1772789531839895300,4.665895263671875,-1.0111236572265625,-0.032196044921875,0.0145721435546875
1772789531849961200,4.675961181640625,-1.0110321044921875,-0.0321502685546875,0.0133819580078125
1772789531860027400,4.68602734375,-1.0111541748046875,-0.0319061279296875,0.013214111328125
1772789531870093000,4.696093017578125,-1.0118255615234375,-0.032867431640625,0.012969970703125
1772789531880159200,4.7061591796875,-1.0108184814453125,-0.0326690673828125,0.011993408203125
1772789531890225200,4.71622509765625,-1.009033203125,-0.032012939453125,0.0126190185546875
1772789531900291300,4.726291259765625,-1.0100250244140625,-0.0316009521484375,0.0126800537109375
1772789531910356200,4.736356201171875,-1.0105133056640625,-0.0325775146484375,0.0115814208984375
1772789531920422400,4.74642236328125,-1.0104827880859375,-0.03271484375,0.0115966796875
1772789531930488000,4.756488037109375,-1.0107269287109375,-0.032318115234375,0.01214599609375
1772789531940554200,4.76655419921875,-1.0100860595703125,-0.032012939453125,0.0127105712890625
1772789531950620200,4.7766201171875,-1.0107879638671875,-0.03204345703125,0.0120391845703125
1772789531960686000,4.78668603515625,-1.0112457275390625,-0.0330047607421875,0.0119171142578125
1772789531970752300,4.796752197265625,-1.0102691650390625,-0.0315093994140625,0.012969970703125
1772789531980818200,4.806818115234375,-1.01031494140625,-0.0318756103515625,0.0142059326171875
1772789531990883000,4.816883056640625,-1.011077880859375,-0.031951904296875,0.014007568359375
1772789532000949200,4.82694921875,-1.01123046875,-0.0317230224609375,0.014495849609375
1772789532011015200,4.83701513671875,-1.01141357421875,-0.03253173828125,0.0137939453125
1772789532021081000,4.8470810546875,-1.011077880859375,-0.0320892333984375,0.0141448974609375
1772789532031147300,4.857147216796875,-1.010894775390625,-0.0319976806640625,0.0133056640625
1772789532041213200,4.867213134765625,-1.0108489990234375,-0.032318115234375,0.0145721435546875
1772789532051279400,4.877279296875,-1.0109100341796875,-0.0326080322265625,0.01324462890625
1772789532061345000,4.887344970703125,-1.01092529296875,-0.0321044921875,0.0135955810546875
1772789532071410200,4.89741015625,-1.01043701171875,-0.03240966796875,0.013092041015625
1772789532081476000,4.90747607421875,-1.010223388671875,-0.0328521728515625,0.0128631591796875
1772789532091542300,4.917542236328125,-1.01092529296875,-0.03240966796875,0.01251220703125
1772789532101608200,4.927608154296875,-1.0104522705078125,-0.0325469970703125,0.0124053955078125
1772789532111674400,4.93767431640625,-1.011016845703125,-0.032440185546875,0.0118865966796875
1772789532121740000,4.947739990234375,-1.010833740234375,-0.032684326171875,0.0118865966796875
1772789532131806200,4.95780615234375,-1.01123046875,-0.0320892333984375,0.0123138427734375
1772789532141872000,4.9678720703125,-1.011505126953125,-0.03228759765625,0.012298583984375
1772789532151937300,4.977937255859375,-1.011322021484375,-0.03192138671875,0.0134429931640625
1772789532162003200,4.988003173828125,-1.0116119384765625,-0.0330657958984375,0.0125885009765625
1772789532172069400,4.9980693359375,-1.010650634765625,-0.0324859619140625,0.0129852294921875
1772789532182135000,5.008135009765625,-1.011962890625,-0.0323333740234375,0.0135650634765625
1772789532192201200,5.018201171875,-1.010955810546875,-0.0328369140625,0.014190673828125
1772789532202267100,5.02826708984375,-1.0103912353515625,-0.032257080078125,0.0135650634765625
1772789532212333300,5.038333251953125,-1.0113067626953125,-0.0313568115234375,0.0132293701171875
1772789532222399200,5.048399169921875,-1.0093841552734375,-0.0320587158203125,0.0134429931640625
1772789532232464400,5.05846435546875,-1.0102996826171875,-0.0319061279296875,0.015350341796875
1772789532242530000,5.068530029296875,-1.0104217529296875,-0.0326080322265625,0.014984130859375
1772789532252596200,5.07859619140625,-1.0111083984375,-0.032958984375,0.0141754150390625
1772789532262662100,5.088662109375,-1.011993408203125,-0.0320892333984375,0.01348876953125
1772789532272728300,5.098728271484375,-1.009918212890625,-0.03173828125,0.01409912109375
1772789532282794200,5.108794189453125,-1.0113677978515625,-0.0324859619140625,0.0125885009765625
1772789532292860200,5.118860107421875,-1.011322021484375,-0.0319671630859375,0.01214599609375
1772789532302926300,5.12892626953125,-1.01080322265625,-0.032623291015625,0.0118255615234375
1772789532312991200,5.1389912109375,-1.010040283203125,-0.03271484375,0.0126190185546875
1772789532323053800,5.1490537109375,-1.0102996826171875,-0.03326416015625,0.0123138427734375
1772789532333119700,5.15911962890625,-1.011322021484375,-0.0330657958984375,0.0119476318359375
1772789532343185700,5.169185546875,-1.0121002197265625,-0.0322113037109375,0.0118408203125
1772789532353251600,5.17925146484375,-1.01190185546875,-0.0324859619140625,0.012115478515625
1772789532363317800,5.18931787109375,-1.0104522705078125,-0.0322418212890625,0.0118560791015625
1772789532373383700,5.1993837890625,-1.011444091796875,-0.0326385498046875,0.0131378173828125
1772789532383449900,5.209449951171875,-1.0120849609375,-0.032806396484375,0.0134429931640625
1772789532393514800,5.2195146484375,-1.0110015869140625,-0.0327301025390625,0.0131378173828125
1772789532403580700,5.22958056640625,-1.01043701171875,-0.033355712890625,0.01385498046875
1772789532413646600,5.239646484375,-1.009735107421875,-0.03314208984375,0.01416015625
1772789532423712800,5.249712646484375,-1.0100250244140625,-0.0320587158203125,0.014068603515625
1772789532433778700,5.25977880859375,-1.0117950439453125,-0.0310211181640625,0.0147705078125
1772789532443844900,5.269844970703125,-1.0106658935546875,-0.0331878662109375,0.0137939453125
1772789532453910800,5.279910888671875,-1.0109100341796875,-0.032318115234375,0.0135650634765625
1772789532463976700,5.289976806640625,-1.009674072265625,-0.0331573486328125,0.013458251953125
1772789532474042600,5.300042724609375,-1.009796142578125,-0.0331878662109375,0.01373291015625
1772789532484107800,5.310107666015625,-1.0102691650390625,-0.0327606201171875,0.0133209228515625
1772789532494173700,5.320173583984375,-1.009765625,-0.032135009765625,0.012725830078125
1772789532504239900,5.330239990234375,-1.0117645263671875,-0.032135009765625,0.0123138427734375
1772789532514305800,5.340305908203125,-1.010498046875,-0.0322265625,0.0119781494140625
1772789532524371700,5.350371826171875,-1.011474609375,-0.0319671630859375,0.01214599609375
1772789532534437600,5.360437744140625,-1.0109710693359375,-0.0319976806640625,0.011627197265625
1772789532544503800,5.37050390625,-1.01025390625,-0.0325927734375,0.01287841796875
1772789532554569700,5.38056982421875,-1.011199951171875,-0.032806396484375,0.0117950439453125
1772789532564635000,5.390634765625,-1.0111541748046875,-0.032379150390625,0.0128173828125
1772789532574700800,5.40070068359375,-1.009765625,-0.0317535400390625,0.01318359375
1772789532584766700,5.4107666015625,-1.0104217529296875,-0.03216552734375,0.0134124755859375
1772789532594832600,5.42083251953125,-1.011260986328125,-0.0318603515625,0.0135955810546875
1772789532604898800,5.43089892578125,-1.0108489990234375,-0.03240966796875,0.013671875
1772789532614964700,5.44096484375,-1.0091552734375,-0.0325927734375,0.013916015625
1772789532625030700,5.45103076171875,-1.011749267578125,-0.032470703125,0.014373779296875
1772789532635096800,5.461096923828125,-1.0117340087890625,-0.0321197509765625,0.0136566162109375
1772789532645161700,5.47116162109375,-1.0114593505859375,-0.03204345703125,0.0145111083984375
1772789532655227600,5.4812275390625,-1.011566162109375,-0.0317535400390625,0.0139007568359375
1772789532665293600,5.49129345703125,-1.0115814208984375,-0.0312042236328125,0.0142974853515625
1772789532675359700,5.50135986328125,-1.0109710693359375,-0.032562255859375,0.0129547119140625
1772789532685425700,5.51142578125,-1.0117645263671875,-0.0325164794921875,0.0135650634765625
1772789532695491800,5.521491943359375,-1.0106964111328125,-0.03265380859375,0.0130767822265625
1772789532705557800,5.531557861328125,-1.0111541748046875,-0.0331573486328125,0.012481689453125
1772789532715624000,5.5416240234375,-1.010955810546875,-0.0323333740234375,0.0118560791015625
1772789532725689600,5.551689697265625,-1.0106658935546875,-0.0321502685546875,0.0127410888671875
1772789532735754800,5.561754638671875,-1.010345458984375,-0.0321044921875,0.01312255859375
1772789532745820700,5.571820556640625,-1.0099945068359375,-0.0325927734375,0.01275634765625
1772789532755886800,5.581886962890625,-1.010650634765625,-0.03277587890625,0.0131683349609375
1772789532765952800,5.591952880859375,-1.011505126953125,-0.03302001953125,0.0130615234375
1772789532776019000,5.60201904296875,-1.0106201171875,-0.0325775146484375,0.0123748779296875
1772789532786084600,5.612084716796875,-1.0112152099609375,-0.031829833984375,0.01239013671875
1772789532796150800,5.62215087890625,-1.0113983154296875,-0.032440185546875,0.01324462890625
1772789532806216700,5.632216796875,-1.010986328125,-0.0320587158203125,0.0134735107421875
1772789532816282600,5.64228271484375,-1.010894775390625,-0.0321044921875,0.0132904052734375
1772789532826347800,5.65234765625,-1.0098876953125,-0.032501220703125,0.0141754150390625
1772789532836413700,5.66241357421875,-1.0114288330078125,-0.0323028564453125,0.013275146484375
1772789532846479600,5.672479736328125,-1.0093994140625,-0.0327606201171875,0.0134735107421875
1772789532856545800,5.6825458984375,-1.0102386474609375,-0.032196044921875,0.01361083984375
1772789532866611700,5.69261181640625,-1.011138916015625,-0.03265380859375,0.0133209228515625
1772789532876677600,5.702677734375,-1.011444091796875,-0.0317535400390625,0.0135345458984375
1772789532886743800,5.712743896484375,-1.0110626220703125,-0.0312347412109375,0.0131378173828125
1772789532896809700,5.722809814453125,-1.010467529296875,-0.0318756103515625,0.0125579833984375
1772789532906874600,5.73287451171875,-1.01165771484375,-0.0328216552734375,0.013153076171875
1772789532916940800,5.74294091796875,-1.010833740234375,-0.0326385498046875,0.0126190185546875
1772789532927006700,5.7530068359375,-1.010955810546875,-0.0332183837890625,0.0123443603515625
1772789532937072600,5.76307275390625,-1.0105438232421875,-0.0326690673828125,0.0132904052734375
1772789532947138800,5.773138916015625,-1.0102996826171875,-0.031646728515625,0.0124969482421875
1772789532957204700,5.783204833984375,-1.0105438232421875,-0.0327301025390625,0.012451171875
1772789532967271000,5.79327099609375,-1.010467529296875,-0.03192138671875,0.01312255859375
1772789532977336600,5.803336669921875,-1.0103759765625,-0.0316009521484375,0.0123748779296875
1772789532987402800,5.81340283203125,-1.010894775390625,-0.0320587158203125,0.012939453125
1772789532997467600,5.823467529296875,-1.0109710693359375,-0.0321807861328125,0.013214111328125
1772789533007533800,5.833533935546875,-1.010498046875,-0.0315704345703125,0.0133056640625
1772789533017599700,5.843599853515625,-1.0113525390625,-0.03204345703125,0.014190673828125
1772789533027666000,5.853666015625,-1.0112152099609375,-0.0318603515625,0.0136871337890625
1772789533037731600,5.863731689453125,-1.010711669921875,-0.0325927734375,0.0138702392578125
1772789533047797800,5.8737978515625,-1.0103607177734375,-0.03204345703125,0.0146942138671875
1772789533057863700,5.88386376953125,-1.0110931396484375,-0.0327911376953125,0.014129638671875
1772789533067929900,5.893929931640625,-1.0100555419921875,-0.0319976806640625,0.013031005859375
1772789533077994800,5.903994873046875,-1.01043701171875,-0.0325775146484375,0.01385498046875
1772789533088061000,5.91406103515625,-1.010284423828125,-0.0326995849609375,0.0133056640625
1772789533098126600,5.924126708984375,-1.0108642578125,-0.032470703125,0.013153076171875
1772789533108192800,5.93419287109375,-1.010955810546875,-0.0316619873046875,0.013885498046875
1772789533118258700,5.9442587890625,-1.0110626220703125,-0.03179931640625,0.0123748779296875
1772789533128324900,5.954324951171875,-1.0106658935546875,-0.0322418212890625,0.0127716064453125
1772789533138390800,5.964390869140625,-1.0115509033203125,-0.0329132080078125,0.01318359375
1772789533148456700,5.974456787109375,-1.0123138427734375,-0.033111572265625,0.012451171875
1772789533158523000,5.98452294921875,-1.0111236572265625,-0.0328521728515625,0.012359619140625
1772789533168587800,5.994587890625,-1.0107269287109375,-0.0327301025390625,0.0124359130859375
1772789533178653700,6.00465380859375,-1.0105133056640625,-0.0328826904296875,0.0122833251953125
1772789533188719900,6.014719970703125,-1.0099639892578125,-0.0330657958984375,0.0124664306640625
1772789533198785800,6.024785888671875,-1.0102996826171875,-0.0327911376953125,0.0126800537109375
1772789533208851700,6.034851806640625,-1.010955810546875,-0.032470703125,0.01397705078125
1772789533218918000,6.04491796875,-1.0115203857421875,-0.03228759765625,0.013519287109375
1772789533228983600,6.054983642578125,-1.010040283203125,-0.0324859619140625,0.0131072998046875
1772789533239049700,6.0650498046875,-1.011260986328125,-0.031707763671875,0.013458251953125
1772789533249115600,6.07511572265625,-1.0106201171875,-0.0323638916015625,0.0139923095703125
1772789533259180800,6.085180908203125,-1.0107421875,-0.0325164794921875,0.0132598876953125
1772789533269246700,6.095246826171875,-1.011016845703125,-0.03143310546875,0.01318359375
1772789533279313000,6.10531298828125,-1.010711669921875,-0.031951904296875,0.01409912109375
1772789533289378600,6.115378662109375,-1.0122222900390625,-0.0316619873046875,0.0132293701171875
1772789533299444700,6.12544482421875,-1.0119171142578125,-0.032073974609375,0.013458251953125
1772789533309510700,6.1355107421875,-1.0107269287109375,-0.032806396484375,0.01318359375
1772789533319576600,6.14557666015625,-1.011474609375,-0.03253173828125,0.0130462646484375
1772789533329642500,6.155642578125,-1.0108184814453125,-0.0327301025390625,0.0128631591796875
1772789533339708700,6.165708740234375,-1.011138916015625,-0.0320587158203125,0.0123138427734375
1772789533349773600,6.175773681640625,-1.010772705078125,-0.0323944091796875,0.013427734375
1772789533359839700,6.18583984375,-1.0103759765625,-0.0320892333984375,0.012420654296875
1772789533369905700,6.19590576171875,-1.01129150390625,-0.0317840576171875,0.012420654296875
1772789533379971600,6.2059716796875,-1.010498046875,-0.0318145751953125,0.0131988525390625
1772789533390037500,6.21603759765625,-1.0108795166015625,-0.0322723388671875,0.013336181640625
1772789533400103700,6.226103759765625,-1.0115814208984375,-0.0322113037109375,0.0126190185546875
1772789533410169600,6.236169677734375,-1.00970458984375,-0.03179931640625,0.012908935546875
1772789533420235500,6.246235595703125,-1.0113525390625,-0.0323486328125,0.013702392578125
1772789533430301700,6.2563017578125,-1.01251220703125,-0.0315399169921875,0.0129241943359375
1772789533440366600,6.26636669921875,-1.0107879638671875,-0.032012939453125,0.0133056640625
1772789533450432500,6.2764326171875,-1.0093994140625,-0.031463623046875,0.01287841796875
1772789533460498700,6.286498779296875,-1.009490966796875,-0.0325164794921875,0.01416015625
1772789533470564600,6.296564697265625,-1.011322021484375,-0.0322723388671875,0.014923095703125
1772789533480630500,6.306630615234375,-1.011474609375,-0.0315704345703125,0.013519287109375
1772789533490696700,6.31669677734375,-1.0106964111328125,-0.0321197509765625,0.0133209228515625
1772789533500762600,6.3267626953125,-1.0108184814453125,-0.0323638916015625,0.0136566162109375
1772789533510828800,6.336828857421875,-1.0118255615234375,-0.0317230224609375,0.013458251953125
1772789533520894500,6.34689453125,-1.0118408203125,-0.032867431640625,0.01324462890625
1772789533530959600,6.356959716796875,-1.010589599609375,-0.03277587890625,0.0126190185546875
1772789533541025500,6.367025634765625,-1.0100860595703125,-0.0316925048828125,0.0121612548828125
1772789533551091700,6.377091796875,-1.0105743408203125,-0.03277587890625,0.0130615234375
1772789533561157600,6.38715771484375,-1.0117645263671875,-0.032501220703125,0.0128021240234375
1772789533571223600,6.3972236328125,-1.011932373046875,-0.0323333740234375,0.0118560791015625
1772789533581289500,6.40728955078125,-1.0105438232421875,-0.0330352783203125,0.013275146484375
1772789533591355600,6.417355712890625,-1.0095062255859375,-0.032135009765625,0.0130767822265625
1772789533601421600,6.427421630859375,-1.010589599609375,-0.0316925048828125,0.0137481689453125
1772789533611487700,6.43748779296875,-1.0119781494140625,-0.032867431640625,0.0131378173828125
1772789533621552600,6.447552734375,-1.0114898681640625,-0.0327911376953125,0.012969970703125
1772789533631618600,6.45761865234375,-1.0108489990234375,-0.0316925048828125,0.014129638671875
1772789533641684500,6.4676845703125,-1.009765625,-0.03155517578125,0.0146942138671875
1772789533651750700,6.477750732421875,-1.0101318359375,-0.0323028564453125,0.013824462890625
1772789533661816600,6.487816650390625,-1.0120086669921875,-0.032135009765625,0.0143585205078125
1772789533671882800,6.4978828125,-1.010833740234375,-0.0321197509765625,0.014923095703125
1772789533681948700,6.50794873046875,-1.00909423828125,-0.032012939453125,0.0137176513671875
1772789533692014600,6.5180146484375,-1.011810302734375,-0.031768798828125,0.0135955810546875
1772789533702080800,6.528080810546875,-1.0116119384765625,-0.032501220703125,0.0129852294921875
1772789533712145700,6.538145751953125,-1.011383056640625,-0.031829833984375,0.0125885009765625
1772789533722211600,6.548211669921875,-1.011505126953125,-0.0319671630859375,0.0119171142578125
1772789533732277500,6.558277587890625,-1.0109710693359375,-0.0331573486328125,0.0135040283203125
1772789533742343700,6.56834375,-1.009765625,-0.03277587890625,0.0124664306640625
1772789533752409600,6.57840966796875,-1.0116119384765625,-0.0321197509765625,0.0131072998046875
1772789533762475800,6.588475830078125,-1.0113983154296875,-0.031829833984375,0.0124969482421875
1772789533772541400,6.59854150390625,-1.010650634765625,-0.032501220703125,0.012969970703125
1772789533782607600,6.608607666015625,-1.009674072265625,-0.032501220703125,0.0122833251953125
1772789533792673500,6.618673583984375,-1.0112152099609375,-0.0326385498046875,0.01318359375
1772789533802738700,6.62873876953125,-1.01226806640625,-0.032562255859375,0.01300048828125
1772789533812804600,6.6388046875,-1.01263427734375,-0.0324249267578125,0.01214599609375
1772789533822870800,6.648870849609375,-1.0113525390625,-0.032928466796875,0.0125274658203125
1772789533832936400,6.6589365234375,-1.0112152099609375,-0.0327301025390625,0.01348876953125
1772789533843002600,6.669002685546875,-1.0125579833984375,-0.032379150390625,0.012969970703125
1772789533853068500,6.679068603515625,-1.011566162109375,-0.0324554443359375,0.0140533447265625
1772789533863134700,6.689134765625,-1.0098114013671875,-0.031982421875,0.0143890380859375
1772789533873200600,6.69920068359375,-1.010040283203125,-0.0317535400390625,0.0131988525390625
1772789533883266600,6.7092666015625,-1.0111541748046875,-0.0315704345703125,0.012847900390625
1772789533893331500,6.71933154296875,-1.010589599609375,-0.0321197509765625,0.0141754150390625
1772789533903397600,6.729397705078125,-1.0100250244140625,-0.0322113037109375,0.013671875
1772789533913463600,6.739463623046875,-1.0123291015625,-0.0325469970703125,0.0131683349609375
1772789533923529700,6.74952978515625,-1.011260986328125,-0.0308837890625,0.01312255859375
1772789533933595600,6.759595703125,-1.0129852294921875,-0.0316925048828125,0.0141754150390625
1772789533943661600,6.76966162109375,-1.009521484375,-0.03253173828125,0.01275634765625
1772789533953727700,6.779727783203125,-1.00927734375,-0.0322723388671875,0.013885498046875
1772789533963793400,6.78979345703125,-1.0125579833984375,-0.03240966796875,0.0126800537109375
1772789533973859600,6.799859619140625,-1.011199951171875,-0.032806396484375,0.0118255615234375
1772789533983924700,6.8099248046875,-1.0102386474609375,-0.032806396484375,0.01202392578125
1772789533993990700,6.81999072265625,-1.009979248046875,-0.0330810546875,0.0119781494140625
1772789534004056600,6.830056640625,-1.0115203857421875,-0.032470703125,0.01202392578125
1772789534014122800,6.840122802734375,-1.013458251953125,-0.03277587890625,0.011871337890625
1772789534024188400,6.8501884765625,-1.011383056640625,-0.0323944091796875,0.0116119384765625
1772789534034254600,6.860254638671875,-1.0084991455078125,-0.032684326171875,0.011871337890625
1772789534044320500,6.870320556640625,-1.0106201171875,-0.0329132080078125,0.0123748779296875
1772789534054386700,6.88038671875,-1.0110321044921875,-0.032562255859375,0.0130462646484375
1772789534064451600,6.89045166015625,-1.01361083984375,-0.0320892333984375,0.0137786865234375
1772789534074517800,6.900517822265625,-1.0110321044921875,-0.0319671630859375,0.0149993896484375
1772789534084583400,6.91058349609375,-1.007476806640625,-0.032012939453125,0.01434326171875
1772789534094649600,6.920649658203125,-1.0123748779296875,-0.0323028564453125,0.0158843994140625
1772789534104715500,6.930715576171875,-1.010650634765625,-0.031524658203125,0.0153961181640625
1772789534114781700,6.94078173828125,-1.0131378173828125,-0.0327911376953125,0.01458740234375
1772789534124847600,6.95084765625,-1.0110321044921875,-0.0320892333984375,0.0143585205078125
1772789534134913800,6.960913818359375,-1.0068511962890625,-0.0315399169921875,0.014739990234375
1772789534144978400,6.970978515625,-1.0112152099609375,-0.0318756103515625,0.0141448974609375
1772789534155044600,6.981044677734375,-1.01214599609375,-0.031524658203125,0.012908935546875
1772789534165110500,6.991110595703125,-1.0113983154296875,-0.0324859619140625,0.0123443603515625
1772789534175176700,7.0011767578125,-1.010528564453125,-0.0329132080078125,0.0117950439453125
1772789534185242600,7.01124267578125,-1.008758544921875,-0.0327606201171875,0.01043701171875
1772789534195308800,7.021308837890625,-1.01080322265625,-0.0325775146484375,0.011260986328125
1772789534205374700,7.031374755859375,-1.0128936767578125,-0.0322265625,0.011016845703125
1772789534215440400,7.0414404296875,-1.0115203857421875,-0.0325927734375,0.0115509033203125
1772789534225506600,7.051506591796875,-1.0106658935546875,-0.033111572265625,0.0107879638671875
1772789534235571700,7.06157177734375,-1.0098876953125,-0.031982421875,0.0113372802734375
1772789534245637600,7.0716376953125,-1.0111541748046875,-0.0329437255859375,0.012420654296875
1772789534255703800,7.081703857421875,-1.012786865234375,-0.032440185546875,0.01263427734375
1772789534265769700,7.091769775390625,-1.0107574462890625,-0.0321044921875,0.01483154296875
1772789534275835400,7.10183544921875,-1.009918212890625,-0.03173828125,0.0151824951171875
1772789534285901600,7.111901611328125,-1.0103912353515625,-0.031585693359375,0.0154571533203125
1772789534295967500,7.121967529296875,-1.0117340087890625,-0.031280517578125,0.0158538818359375
1772789534306033700,7.13203369140625,-1.0142364501953125,-0.0323333740234375,0.0163116455078125
1772789534316098800,7.142098876953125,-1.0107879638671875,-0.032257080078125,0.0168304443359375
1772789534326164700,7.152164794921875,-1.0104217529296875,-0.032012939453125,0.0161285400390625
1772789534336230700,7.162230712890625,-1.0106658935546875,-0.0323333740234375,0.0154571533203125
1772789534346296800,7.172296875,-1.011871337890625,-0.0319366455078125,0.01385498046875
1772789534356362500,7.182362548828125,-1.0132904052734375,-0.03228759765625,0.0125885009765625
1772789534366428700,7.1924287109375,-1.009765625,-0.0325775146484375,0.01239013671875
1772789534376494600,7.20249462890625,-1.0098419189453125,-0.0324859619140625,0.011627197265625
1772789534386560800,7.212560791015625,-1.0110931396484375,-0.0328826904296875,0.010986328125
1772789534396626700,7.222626708984375,-1.0120086669921875,-0.03350830078125,0.010589599609375
1772789534406691800,7.23269189453125,-1.011810302734375,-0.03289794921875,0.010894775390625
1772789534416757500,7.242757568359375,-1.0116729736328125,-0.0322723388671875,0.01068115234375
1772789534426823700,7.25282373046875,-1.0112762451171875,-0.0319976806640625,0.01055908203125
1772789534436889600,7.2628896484375,-1.0117034912109375,-0.031829833984375,0.0110931396484375
1772789534446955800,7.272955810546875,-1.0125885009765625,-0.0333099365234375,0.011505126953125
1772789534457021700,7.283021728515625,-1.0100250244140625,-0.0327606201171875,0.0132293701171875
1772789534467088000,7.293087890625,-1.0102691650390625,-0.0323333740234375,0.013641357421875
1772789534477153800,7.30315380859375,-1.010833740234375,-0.03265380859375,0.0153656005859375
1772789534487218700,7.31321875,-1.010345458984375,-0.0317535400390625,0.0156097412109375
1772789534497284600,7.32328466796875,-1.011688232421875,-0.0320281982421875,0.017059326171875
1772789534507350800,7.333350830078125,-1.011749267578125,-0.03143310546875,0.0162506103515625
1772789534517416700,7.343416748046875,-1.01092529296875,-0.031524658203125,0.0164794921875
1772789534527482600,7.353482666015625,-1.0124359130859375,-0.0323486328125,0.0147247314453125
1772789534537548800,7.363548828125,-1.0116424560546875,-0.0328826904296875,0.015350341796875
1772789534547614700,7.37361474609375,-1.0102996826171875,-0.0322418212890625,0.0137786865234375
1772789534557680600,7.3836806640625,-1.0105133056640625,-0.0322113037109375,0.0124359130859375
1772789534567745800,7.393745849609375,-1.01116943359375,-0.0319976806640625,0.0121917724609375
1772789534577811700,7.403811767578125,-1.0121917724609375,-0.032196044921875,0.01092529296875
1772789534587877600,7.413877685546875,-1.0105438232421875,-0.0327301025390625,0.0106353759765625
1772789534597943800,7.42394384765625,-1.0117340087890625,-0.0330657958984375,0.0104827880859375
1772789534608009700,7.434009765625,-1.0113372802734375,-0.0338134765625,0.0104522705078125
1772789534618075600,7.44407568359375,-1.010833740234375,-0.033477783203125,0.010986328125
1772789534628141600,7.4541416015625,-1.012176513671875,-0.033233642578125,0.01092529296875
1772789534638207700,7.464207763671875,-1.0117950439453125,-0.0323486328125,0.01190185546875
1772789534648272600,7.474272705078125,-1.0103759765625,-0.0315704345703125,0.0123748779296875
1772789534658338800,7.4843388671875,-1.0108642578125,-0.0328521728515625,0.013427734375
1772789534668404500,7.494404541015625,-1.01165771484375,-0.032379150390625,0.0138397216796875
1772789534678470700,7.504470703125,-1.0112457275390625,-0.032745361328125,0.015594482421875
1772789534688536600,7.51453662109375,-1.00970458984375,-0.0318756103515625,0.015167236328125
1772789534698602800,7.524602783203125,-1.011322021484375,-0.03240966796875,0.0155792236328125
1772789534708668700,7.534668701171875,-1.0119781494140625,-0.0321807861328125,0.0163726806640625
1772789534718733800,7.54473388671875,-1.0084075927734375,-0.032196044921875,0.0150604248046875
1772789534728799500,7.554799560546875,-1.0128326416015625,-0.0325469970703125,0.0158843994140625
1772789534738865700,7.56486572265625,-1.0125579833984375,-0.0317230224609375,0.01483154296875
1772789534748931600,7.574931640625,-1.0122528076171875,-0.032196044921875,0.0142822265625
1772789534758997800,7.584997802734375,-1.0126800537109375,-0.03253173828125,0.0132904052734375
1772789534769063700,7.595063720703125,-1.0082855224609375,-0.0313262939453125,0.0125579833984375
1772789534779129900,7.6051298828125,-1.0130767822265625,-0.0326690673828125,0.0115203857421875
1772789534789195800,7.61519580078125,-1.012420654296875,-0.032958984375,0.0107269287109375
1772789534799260700,7.6252607421875,-1.009490966796875,-0.0324554443359375,0.010650634765625
1772789534809326600,7.63532666015625,-1.0116424560546875,-0.032379150390625,0.0103759765625
1772789534819392800,7.645392822265625,-1.01068115234375,-0.0327606201171875,0.0094451904296875
1772789534829458700,7.655458740234375,-1.010772705078125,-0.0322265625,0.0112762451171875
1772789534839524900,7.66552490234375,-1.011932373046875,-0.03289794921875,0.01092529296875
1772789534849590800,7.6755908203125,-1.01202392578125,-0.033172607421875,0.0119781494140625
1772789534859656700,7.68565673828125,-1.0105438232421875,-0.032135009765625,0.013946533203125
1772789534869722600,7.69572265625,-1.012725830078125,-0.03289794921875,0.013885498046875
1772789534879787800,7.705787841796875,-1.00897216796875,-0.0317840576171875,0.0137939453125
1772789534889853700,7.715853759765625,-1.012359619140625,-0.0314788818359375,0.0144195556640625
1772789534899920000,7.725919921875,-1.0124053955078125,-0.0321044921875,0.0162200927734375
1772789534909985800,7.73598583984375,-1.0087738037109375,-0.031402587890625,0.016510009765625
1772789534920051700,7.7460517578125,-1.0103912353515625,-0.031585693359375,0.0157623291015625
1772789534930117600,7.75611767578125,-1.009979248046875,-0.0319671630859375,0.0164642333984375
1772789534940183600,7.76618359375,-1.0108184814453125,-0.032379150390625,0.015777587890625
1772789534950248700,7.776248779296875,-1.013763427734375,-0.032501220703125,0.014404296875
1772789534960314600,7.786314697265625,-1.009307861328125,-0.0324554443359375,0.01446533203125
1772789534970380800,7.796380859375,-1.009979248046875,-0.03253173828125,0.01214599609375
1772789534980446700,7.80644677734375,-1.011383056640625,-0.031951904296875,0.0124359130859375
1772789534990512600,7.8165126953125,-1.011962890625,-0.0328216552734375,0.011871337890625
1772789535000578600,7.82657861328125,-1.0128173828125,-0.03314208984375,0.0105743408203125
1772789535010644700,7.836644775390625,-1.0105133056640625,-0.0327911376953125,0.0104827880859375
1772789535020709600,7.846709716796875,-1.010650634765625,-0.0325927734375,0.0104827880859375
1772789535030775800,7.85677587890625,-1.011383056640625,-0.031951904296875,0.0115203857421875
1772789535040841500,7.866841552734375,-1.01129150390625,-0.0330352783203125,0.0114898681640625
1772789535050907600,7.87690771484375,-1.0101776123046875,-0.0326690673828125,0.011871337890625
1772789535060973600,7.8869736328125,-1.0103607177734375,-0.0325469970703125,0.0128021240234375
1772789535071039700,7.897039794921875,-1.0108489990234375,-0.032440185546875,0.01348876953125
1772789535081105700,7.907105712890625,-1.0108642578125,-0.03228759765625,0.0149993896484375
1772789535091171800,7.917171875,-1.009674072265625,-0.0321502685546875,0.014373779296875
1772789535101236500,7.927236572265625,-1.009552001953125,-0.032623291015625,0.0155029296875
1772789535111302700,7.937302734375,-1.010955810546875,-0.03179931640625,0.01544189453125
1772789535121368600,7.94736865234375,-1.01177978515625,-0.032135009765625,0.0158843994140625
1772789535131434800,7.957434814453125,-1.0123291015625,-0.03253173828125,0.015777587890625
1772789535141500700,7.967500732421875,-1.011199951171875,-0.0322418212890625,0.0151519775390625
1772789535151566800,7.97756689453125,-1.00946044921875,-0.0318603515625,0.0147552490234375
1772789535161632800,7.9876328125,-1.0110626220703125,-0.03192138671875,0.012939453125
1772789535171697700,7.99769775390625,-1.0110015869140625,-0.0323944091796875,0.012237548828125
1772789535181763600,8.007763671875,-1.0115509033203125,-0.0325775146484375,0.01220703125
1772789535191828700,8.017828857421875,-1.0106658935546875,-0.0340576171875,0.0110931396484375
1772789535201894700,8.027894775390624,-1.0104522705078125,-0.033203125,0.0116424560546875
1772789535211960800,8.0379609375,-1.0106353759765625,-0.0328521728515625,0.0116119384765625
1772789535222026500,8.048026611328124,-1.01239013671875,-0.032745361328125,0.0102081298828125
1772789535232092700,8.0580927734375,-1.0120086669921875,-0.0333251953125,0.012176513671875
1772789535242158600,8.06815869140625,-1.0101318359375,-0.0327606201171875,0.011077880859375
1772789535252224800,8.078224853515625,-1.0105438232421875,-0.03228759765625,0.0118865966796875
1772789535262289700,8.08828955078125,-1.0121612548828125,-0.03216552734375,0.01220703125
1772789535272355800,8.09835595703125,-1.012176513671875,-0.0319671630859375,0.0132293701171875
1772789535282421500,8.10842138671875,-1.0105743408203125,-0.03155517578125,0.0144195556640625
1772789535292487700,8.11848779296875,-1.0100555419921875,-0.0317535400390625,0.0145111083984375
1772789535302553600,8.1285537109375,-1.010223388671875,-0.0321502685546875,0.0150146484375
1772789535312619800,8.138619873046874,-1.0113067626953125,-0.03265380859375,0.0149688720703125
1772789535322685700,8.148685791015625,-1.011962890625,-0.031890869140625,0.01409912109375
1772789535332750300,8.158750244140625,-1.01141357421875,-0.0324249267578125,0.01544189453125
1772789535342816300,8.168816162109374,-1.010986328125,-0.0322265625,0.0150146484375
1772789535352882400,8.17888232421875,-1.011474609375,-0.03131103515625,0.0143280029296875
1772789535362948400,8.1889482421875,-1.0113983154296875,-0.0318450927734375,0.0132904052734375
1772789535373014500,8.1990146484375,-1.01019287109375,-0.031829833984375,0.012054443359375
1772789535383080400,8.20908056640625,-1.009979248046875,-0.032012939453125,0.0126190185546875
1772789535393146400,8.219146484375,-1.0094757080078125,-0.0328369140625,0.0117340087890625
1772789535403211300,8.229211181640625,-1.01104736328125,-0.0328826904296875,0.0106964111328125
1772789535413277400,8.23927734375,-1.0117340087890625,-0.0329437255859375,0.0113525390625
1772789535423343400,8.24934326171875,-1.0108489990234375,-0.0324249267578125,0.011199951171875
1772789535433409500,8.259409423828124,-1.0110931396484375,-0.0332183837890625,0.011138916015625
1772789535443475200,8.26947509765625,-1.0108489990234375,-0.03314208984375,0.011474609375
1772789535453541400,8.279541259765624,-1.012481689453125,-0.0327606201171875,0.011688232421875
1772789535463607300,8.289607177734375,-1.01226806640625,-0.032958984375,0.0115509033203125
1772789535473672400,8.29967236328125,-1.0108795166015625,-0.0322723388671875,0.01239013671875
1772789535483738400,8.30973828125,-1.01080322265625,-0.03265380859375,0.0137176513671875
1772789535493804500,8.319804443359375,-1.00982666015625,-0.0323944091796875,0.0144195556640625
1772789535503870200,8.3298701171875,-1.0115966796875,-0.0318450927734375,0.0148773193359375
1772789535513936400,8.339936279296875,-1.0111846923828125,-0.03167724609375,0.0154876708984375
1772789535524002300,8.350002197265624,-1.010955810546875,-0.0312347412109375,0.0157470703125
1772789535534067500,8.3600673828125,-1.01123046875,-0.031829833984375,0.0154266357421875
1772789535544133400,8.37013330078125,-1.01123046875,-0.0328216552734375,0.014892578125
1772789535554199600,8.380199462890625,-1.0115814208984375,-0.0323486328125,0.0150909423828125
1772789535564265200,8.39026513671875,-1.011627197265625,-0.032745361328125,0.013916015625
1772789535574331400,8.400331298828124,-1.011688232421875,-0.03265380859375,0.0135345458984375
1772789535584397300,8.410397216796875,-1.01275634765625,-0.0319976806640625,0.0126190185546875
1772789535594463200,8.420463134765624,-1.0113677978515625,-0.032867431640625,0.0126190185546875
1772789535604528400,8.4305283203125,-1.01116943359375,-0.0328521728515625,0.0111846923828125
1772789535614594600,8.440594482421876,-1.0105743408203125,-0.032867431640625,0.0117340087890625
1772789535624660200,8.45066015625,-1.00994873046875,-0.0328216552734375,0.010528564453125
1772789535634726400,8.460726318359375,-1.01116943359375,-0.0327911376953125,0.0113067626953125
1772789535644792300,8.470792236328125,-1.011199951171875,-0.0317535400390625,0.0115814208984375
1772789535654858200,8.480858154296875,-1.010528564453125,-0.03253173828125,0.011627197265625
1772789535664923400,8.49092333984375,-1.01190185546875,-0.032623291015625,0.0121307373046875
1772789535674989600,8.500989501953125,-1.0109100341796875,-0.0327911376953125,0.0133819580078125
1772789535685055200,8.51105517578125,-1.01165771484375,-0.032562255859375,0.0130615234375
1772789535695121400,8.521121337890625,-1.011688232421875,-0.0318145751953125,0.0137786865234375
1772789535705187300,8.531187255859376,-1.0098876953125,-0.0315399169921875,0.01318359375
1772789535715253200,8.541253173828125,-1.0103912353515625,-0.031890869140625,0.015350341796875
1772789535725319400,8.5513193359375,-1.0110321044921875,-0.0312957763671875,0.01568603515625
1772789535735384600,8.561384521484374,-1.010528564453125,-0.03216552734375,0.015655517578125
1772789535745450200,8.5714501953125,-1.012115478515625,-0.031158447265625,0.0155029296875
1772789535755516400,8.581516357421876,-1.010650634765625,-0.032501220703125,0.01446533203125
1772789535765582300,8.591582275390625,-1.0108489990234375,-0.0320587158203125,0.0150146484375
1772789535775648300,8.601648193359376,-1.0110931396484375,-0.0327911376953125,0.0137481689453125
1772789535785714400,8.61171435546875,-1.0106964111328125,-0.0322265625,0.0127105712890625
1772789535795780400,8.6217802734375,-1.010711669921875,-0.0324249267578125,0.0135498046875
1772789535805846500,8.631846435546874,-1.0115509033203125,-0.0329132080078125,0.0121612548828125
1772789535815912200,8.641912109375,-1.0117034912109375,-0.0330963134765625,0.011138916015625
1772789535825978400,8.651978271484374,-1.012115478515625,-0.0322418212890625,0.011566162109375
1772789535836044300,8.662044189453125,-1.0111541748046875,-0.032867431640625,0.010711669921875
1772789535846109400,8.672109375,-1.01080322265625,-0.0328369140625,0.010650634765625
1772789535856175400,8.68217529296875,-1.01104736328125,-0.032470703125,0.011993408203125
1772789535866241500,8.692241455078126,-1.010986328125,-0.0327606201171875,0.0123291015625
1772789535876307200,8.70230712890625,-1.011505126953125,-0.0328216552734375,0.0124969482421875
1772789535886373400,8.712373291015625,-1.01043701171875,-0.0328216552734375,0.012542724609375
1772789535896439300,8.722439208984374,-1.010650634765625,-0.0320281982421875,0.013763427734375
1772789535906504400,8.73250439453125,-1.0105743408203125,-0.0320281982421875,0.0142822265625
1772789535916570400,8.7425703125,-1.01092529296875,-0.0317840576171875,0.01483154296875
1772789535926636500,8.752636474609375,-1.0115203857421875,-0.032806396484375,0.0145721435546875
1772789535936702200,8.7627021484375,-1.0116729736328125,-0.0327911376953125,0.0145721435546875
1772789535946768400,8.772768310546875,-1.0105743408203125,-0.0320892333984375,0.0146636962890625
1772789535956834300,8.782834228515625,-1.0116119384765625,-0.03240966796875,0.0148773193359375
1772789535966900200,8.792900146484374,-1.0103302001953125,-0.03192138671875,0.0139007568359375
1772789535976965400,8.80296533203125,-1.012054443359375,-0.0329132080078125,0.014862060546875
1772789535987031600,8.813031494140626,-1.0116424560546875,-0.03192138671875,0.013092041015625
1772789535997097200,8.82309716796875,-1.0095062255859375,-0.0331878662109375,0.012786865234375
1772789536007163400,8.833163330078126,-1.0107879638671875,-0.0326690673828125,0.0118865966796875
1772789536017229300,8.843229248046875,-1.0111541748046875,-0.032958984375,0.012359619140625
1772789536027295200,8.853295166015625,-1.011077880859375,-0.0325775146484375,0.010528564453125
1772789536037360400,8.8633603515625,-1.01214599609375,-0.0321807861328125,0.01153564453125
1772789536047426600,8.873426513671875,-1.0116424560546875,-0.0329742431640625,0.0117340087890625
1772789536057492200,8.8834921875,-1.011383056640625,-0.033416748046875,0.0117645263671875
1772789536067558400,8.893558349609375,-1.0114288330078125,-0.032379150390625,0.0118408203125
1772789536077624300,8.903624267578126,-1.0113983154296875,-0.033111572265625,0.0123138427734375
1772789536087690200,8.913690185546875,-1.0102386474609375,-0.0328521728515625,0.011962890625
1772789536097755400,8.92375537109375,-1.0101470947265625,-0.0319976806640625,0.01409912109375
1772789536107821600,8.933821533203124,-1.010467529296875,-0.0330963134765625,0.014190673828125
1772789536117887200,8.94388720703125,-1.01141357421875,-0.0320892333984375,0.0142669677734375
1772789536127953400,8.953953369140624,-1.0109710693359375,-0.032073974609375,0.0155029296875
1772789536138019300,8.964019287109375,-1.0107574462890625,-0.0327911376953125,0.0150299072265625
1772789536148085200,8.974085205078126,-1.0107879638671875,-0.0318603515625,0.0142364501953125
1772789536158150400,8.984150390625,-1.0106201171875,-0.0325775146484375,0.0147247314453125
1772789536168216600,8.994216552734375,-1.01123046875,-0.032470703125,0.0148162841796875
1772789536178282200,9.0042822265625,-1.01171875,-0.0318145751953125,0.0133819580078125
1772789536188348400,9.014348388671875,-1.0093994140625,-0.0326995849609375,0.014373779296875
1772789536198414300,9.024414306640624,-1.0110321044921875,-0.0322113037109375,0.0133209228515625
1772789536208480300,9.034480224609375,-1.011322021484375,-0.032135009765625,0.0128326416015625
1772789536218545400,9.04454541015625,-1.0113677978515625,-0.032073974609375,0.0110931396484375
1772789536228611600,9.054611572265625,-1.0103302001953125,-0.0336151123046875,0.011383056640625
1772789536238677200,9.06467724609375,-1.0100555419921875,-0.0330657958984375,0.011993408203125
1772789536248743200,9.0747431640625,-1.011444091796875,-0.0333404541015625,0.012054443359375
1772789536258809300,9.084809326171875,-1.011383056640625,-0.032867431640625,0.0117950439453125
1772789536268875300,9.094875244140624,-1.01153564453125,-0.03192138671875,0.0123748779296875
1772789536278940400,9.1049404296875,-1.0096282958984375,-0.0319976806640625,0.012298583984375
1772789536289006600,9.115006591796876,-1.0103759765625,-0.032501220703125,0.0135650634765625
1772789536299072300,9.125072265625,-1.009918212890625,-0.0325164794921875,0.0130462646484375
1772789536309138200,9.13513818359375,-1.0102386474609375,-0.03173828125,0.01348876953125
1772789536319204400,9.145204345703124,-1.011444091796875,-0.0322265625,0.0136871337890625
1772789536329271300,9.155271240234375,-1.011444091796875,-0.0323028564453125,0.0141754150390625
1772789536339336200,9.165336181640624,-1.0117950439453125,-0.032073974609375,0.0140838623046875
1772789536349402000,9.175402099609375,-1.011810302734375,-0.0331268310546875,0.01556396484375
1772789536359468300,9.18546826171875,-1.010955810546875,-0.0318450927734375,0.01434326171875
1772789536369534200,9.1955341796875,-1.01129150390625,-0.0321197509765625,0.015045166015625
1772789536379600400,9.205600341796876,-1.01025390625,-0.0321044921875,0.0130767822265625
1772789536389666000,9.215666015625,-1.0099945068359375,-0.0322265625,0.0131683349609375
1772789536399731200,9.225731201171875,-1.0108795166015625,-0.032684326171875,0.0130767822265625
1772789536409797000,9.235797119140624,-1.0107269287109375,-0.0331573486328125,0.01251220703125
1772789536419863300,9.24586328125,-1.010101318359375,-0.033477783203125,0.0116729736328125
1772789536429929200,9.25592919921875,-1.0108642578125,-0.0326995849609375,0.0117340087890625
1772789536439995400,9.265995361328125,-1.0110931396484375,-0.0321197509765625,0.0128021240234375
1772789536450061000,9.27606103515625,-1.011077880859375,-0.032012939453125,0.0114898681640625
1772789536460126200,9.286126220703125,-1.010833740234375,-0.033050537109375,0.0119781494140625
1772789536470192000,9.296192138671875,-1.01055908203125,-0.0330352783203125,0.0128021240234375
1772789536480258300,9.30625830078125,-1.0111846923828125,-0.0326690673828125,0.0123291015625
1772789536490324200,9.31632421875,-1.0117950439453125,-0.03216552734375,0.0128021240234375
1772789536500390400,9.326390380859374,-1.0117340087890625,-0.0328826904296875,0.0128173828125
1772789536510456000,9.3364560546875,-1.01025390625,-0.032135009765625,0.01336669921875
1772789536520521200,9.346521240234376,-1.011444091796875,-0.0322265625,0.01409912109375
1772789536530587100,9.356587158203125,-1.012054443359375,-0.031829833984375,0.0146636962890625
1772789536540653300,9.3666533203125,-1.010833740234375,-0.032440185546875,0.014801025390625
1772789536550719200,9.37671923828125,-1.0116424560546875,-0.033233642578125,0.0139312744140625
1772789536560785400,9.386785400390625,-1.0116424560546875,-0.032684326171875,0.0148773193359375
1772789536570851000,9.39685107421875,-1.0107269287109375,-0.032012939453125,0.0136566162109375
1772789536580916200,9.406916259765625,-1.0108184814453125,-0.0324249267578125,0.0140838623046875
1772789536590982100,9.416982177734376,-1.01116943359375,-0.03167724609375,0.0138397216796875
1772789536601048300,9.42704833984375,-1.010955810546875,-0.031890869140625,0.0138397216796875
1772789536611114200,9.4371142578125,-1.0102386474609375,-0.0323028564453125,0.0132293701171875
1772789536621180400,9.447180419921875,-1.0102996826171875,-0.032196044921875,0.0128021240234375
1772789536631246000,9.45724609375,-1.0099639892578125,-0.0320587158203125,0.0120391845703125
1772789536641311200,9.467311279296876,-1.0108642578125,-0.031768798828125,0.0122833251953125
1772789536651377200,9.477377197265625,-1.010833740234375,-0.032928466796875,0.011505126953125
1772789536661443300,9.487443359375,-1.00958251953125,-0.0325469970703125,0.011260986328125
1772789536671509200,9.49750927734375,-1.0106353759765625,-0.0322723388671875,0.0118560791015625
1772789536681575400,9.507575439453126,-1.011505126953125,-0.0333251953125,0.012603759765625
1772789536691640000,9.51764013671875,-1.01202392578125,-0.0326385498046875,0.01263427734375
1772789536701706200,9.527706298828125,-1.0110321044921875,-0.0330657958984375,0.01312255859375
1772789536711772200,9.537772216796874,-1.0112457275390625,-0.032379150390625,0.0140228271484375
1772789536721838300,9.54783837890625,-1.011566162109375,-0.0313720703125,0.014404296875
1772789536731904300,9.557904296875,-1.0113067626953125,-0.0320587158203125,0.0135040283203125
1772789536741970200,9.56797021484375,-1.011016845703125,-0.0321807861328125,0.014312744140625
1772789536752035000,9.57803515625,-1.0097808837890625,-0.0325164794921875,0.0153350830078125
1772789536762101200,9.588101318359374,-1.0099029541015625,-0.0326385498046875,0.013946533203125
1772789536772167200,9.598167236328125,-1.01220703125,-0.0321197509765625,0.0150604248046875
1772789536782233300,9.6082333984375,-1.012420654296875,-0.0318603515625,0.014801025390625
1772789536792299300,9.61829931640625,-1.0099029541015625,-0.031768798828125,0.0141143798828125
1772789536802365200,9.628365234375,-1.0094451904296875,-0.0321197509765625,0.0133056640625
1772789536812430000,9.63843017578125,-1.010284423828125,-0.031890869140625,0.014007568359375
1772789536822496300,9.648496337890625,-1.0118255615234375,-0.0320587158203125,0.012603759765625
1772789536832562200,9.658562255859374,-1.010040283203125,-0.033447265625,0.0128173828125
1772789536842628400,9.66862841796875,-1.0104522705078125,-0.0328369140625,0.0108642578125
1772789536852694300,9.6786943359375,-1.0113372802734375,-0.0323333740234375,0.011688232421875
1772789536862759200,9.68875927734375,-1.0129241943359375,-0.032623291015625,0.0119476318359375
1772789536872825000,9.6988251953125,-1.012115478515625,-0.0328216552734375,0.0118255615234375
1772789536882891300,9.708891357421875,-1.010284423828125,-0.0326690673828125,0.0123443603515625
1772789536892957200,9.718957275390625,-1.009979248046875,-0.0320281982421875,0.01361083984375
1772789536903023400,9.7290234375,-1.0114288330078125,-0.0322723388671875,0.012115478515625
1772789536913089300,9.73908935546875,-1.0110321044921875,-0.032135009765625,0.013519287109375
1772789536923154200,9.749154296875,-1.010986328125,-0.0320587158203125,0.01470947265625
1772789536933220000,9.75922021484375,-1.0115814208984375,-0.0319061279296875,0.0149383544921875
1772789536943286300,9.769286376953126,-1.0108795166015625,-0.032440185546875,0.0146331787109375
1772789536953352200,9.779352294921875,-1.0113525390625,-0.0323944091796875,0.0146636962890625
1772789536963418400,9.78941845703125,-1.011688232421875,-0.031829833984375,0.0147705078125
1772789536973484300,9.799484375,-1.0105743408203125,-0.0317840576171875,0.0137786865234375
1772789536983549200,9.809549072265625,-1.0113525390625,-0.031707763671875,0.014404296875
1772789536993615000,9.819614990234374,-1.01068115234375,-0.0316619873046875,0.013702392578125
1772789537003681300,9.829681396484375,-1.0111083984375,-0.0326385498046875,0.0132904052734375
1772789537013747200,9.839747314453126,-1.0117340087890625,-0.032135009765625,0.013458251953125
1772789537023813000,9.849813232421875,-1.0106048583984375,-0.031768798828125,0.012969970703125
1772789537033878000,9.8598779296875,-1.0111236572265625,-0.032989501953125,0.0125885009765625
1772789537043944200,9.869944091796874,-1.0103912353515625,-0.0333404541015625,0.0112457275390625
1772789537054010000,9.880010009765625,-1.0102386474609375,-0.032501220703125,0.012420654296875
1772789537064076300,9.890076171875,-1.011199951171875,-0.032501220703125,0.0113067626953125
1772789537074142200,9.90014208984375,-1.0113067626953125,-0.0323028564453125,0.0127105712890625
1772789537084207400,9.910207275390626,-1.0116424560546875,-0.032470703125,0.0119781494140625
1772789537094273000,9.92027294921875,-1.01092529296875,-0.0328369140625,0.012298583984375
1772789537104339200,9.930339111328125,-1.0113983154296875,-0.0322265625,0.0137939453125
1772789537114405000,9.940405029296874,-1.0098419189453125,-0.03192138671875,0.0138702392578125
1772789537124471300,9.95047119140625,-1.010162353515625,-0.0324249267578125,0.0140380859375
1772789537134537200,9.960537109375,-1.0104217529296875,-0.0322723388671875,0.0150146484375
1772789537144602400,9.970602294921875,-1.01153564453125,-0.0320587158203125,0.0135040283203125
1772789537154668000,9.98066796875,-1.0106353759765625,-0.0324249267578125,0.013763427734375
1772789537164734200,9.990734130859375,-1.011016845703125,-0.0323486328125,0.0133056640625
1772789537174800100,10.000800048828125,-1.011322021484375,-0.03240966796875,0.0146331787109375
1772789537184866300,10.0108662109375,-1.0105133056640625,-0.0322113037109375,0.0138702392578125
1772789537194931200,10.02093115234375,-1.0115814208984375,-0.0327606201171875,0.012847900390625
1772789537204997400,10.030997314453124,-1.0107269287109375,-0.03271484375,0.0129547119140625
1772789537215063000,10.04106298828125,-1.0091552734375,-0.032440185546875,0.0123291015625
1772789537225129200,10.051129150390626,-1.0116729736328125,-0.0323944091796875,0.01275634765625
1772789537235195100,10.061195068359375,-1.01239013671875,-0.0320587158203125,0.0124053955078125
1772789537245261300,10.07126123046875,-1.0116729736328125,-0.0319671630859375,0.0117950439453125
1772789537255326200,10.081326171875,-1.01129150390625,-0.0334014892578125,0.011962890625
1772789537265392400,10.091392333984375,-1.010162353515625,-0.033050537109375,0.012786865234375
1772789537275458000,10.1014580078125,-1.0110931396484375,-0.03265380859375,0.0129547119140625
1772789537285524200,10.111524169921875,-1.00970458984375,-0.03277587890625,0.0137481689453125
1772789537295590100,10.121590087890626,-1.0102691650390625,-0.0326995849609375,0.013458251953125
1772789537305655300,10.1316552734375,-1.0106658935546875,-0.0320587158203125,0.0131683349609375
1772789537315721200,10.14172119140625,-1.0110626220703125,-0.0322723388671875,0.0146331787109375
1772789537325787000,10.151786865234374,-1.010955810546875,-0.0323333740234375,0.0136566162109375
1772789537335852800,10.161852783203125,-1.011199951171875,-0.03216552734375,0.0141448974609375
1772789537345919000,10.1719189453125,-1.010711669921875,-0.031463623046875,0.0144500732421875
1772789537355985000,10.18198486328125,-1.0106658935546875,-0.0324859619140625,0.014373779296875
1772789537366049800,10.1920498046875,-1.0111236572265625,-0.032135009765625,0.0132904052734375
1772789537376115700,10.20211572265625,-1.0123443603515625,-0.0328369140625,0.013702392578125
1772789537386182000,10.212181884765625,-1.0104217529296875,-0.032501220703125,0.0142059326171875
1772789537396247800,10.222247802734374,-1.01092529296875,-0.03216552734375,0.01373291015625
1772789537406314000,10.23231396484375,-1.011810302734375,-0.03277587890625,0.01239013671875
1772789537416379000,10.24237890625,-1.0113677978515625,-0.03302001953125,0.0124969482421875
1772789537426444800,10.25244482421875,-1.0093994140625,-0.03228759765625,0.013153076171875
1772789537436510700,10.2625107421875,-1.009490966796875,-0.03228759765625,0.0124664306640625
1772789537446577000,10.272576904296875,-1.0110931396484375,-0.0326385498046875,0.011993408203125
1772789537456642800,10.282642822265625,-1.011444091796875,-0.0333709716796875,0.0122222900390625
1772789537466708000,10.2927080078125,-1.011260986328125,-0.03289794921875,0.0124664306640625
1772789537476774000,10.30277392578125,-1.01068115234375,-0.0322723388671875,0.012939453125
1772789537486839800,10.31283984375,-1.0095977783203125,-0.0319366455078125,0.0130157470703125
1772789537496905700,10.32290576171875,-1.0104827880859375,-0.03167724609375,0.0131378173828125
1772789537506972000,10.332971923828126,-1.0115814208984375,-0.032470703125,0.0130462646484375
1772789537517037800,10.343037841796875,-1.012176513671875,-0.0319671630859375,0.0133514404296875
1772789537527103000,10.35310302734375,-1.011260986328125,-0.0316009521484375,0.0140838623046875
1772789537537169000,10.3631689453125,-1.0107421875,-0.032196044921875,0.0141754150390625
1772789537547234800,10.37323486328125,-1.0114593505859375,-0.031982421875,0.014190673828125
1772789537557300700,10.38330078125,-1.011993408203125,-0.0325775146484375,0.0135345458984375
1772789537567367000,10.393366943359375,-1.01123046875,-0.032379150390625,0.0135955810546875
1772789537577431800,10.403431884765626,-1.009429931640625,-0.0322113037109375,0.0144805908203125
1772789537587498000,10.413498046875,-1.0112152099609375,-0.0318756103515625,0.014251708984375
1772789537597564000,10.42356396484375,-1.011260986328125,-0.0332489013671875,0.012908935546875
1772789537607629800,10.4336298828125,-1.0110931396484375,-0.0323028564453125,0.01397705078125
1772789537617695700,10.44369580078125,-1.01043701171875,-0.0323333740234375,0.0123748779296875
1772789537627761000,10.453760986328126,-1.010162353515625,-0.0330963134765625,0.0134735107421875
1772789537637826800,10.463826904296875,-1.0109405517578125,-0.032562255859375,0.01300048828125
1772789537647893000,10.47389306640625,-1.010833740234375,-0.0323638916015625,0.012481689453125
1772789537657958700,10.483958740234375,-1.010040283203125,-0.032318115234375,0.0126953125
1772789537668024800,10.49402490234375,-1.010772705078125,-0.0324249267578125,0.01263427734375
1772789537678090000,10.504090087890624,-1.009918212890625,-0.0320892333984375,0.01214599609375
1772789537688156000,10.514156005859375,-1.010650634765625,-0.0324859619140625,0.0126495361328125
1772789537698221800,10.524221923828126,-1.0108489990234375,-0.03265380859375,0.013153076171875
1772789537708288000,10.5342880859375,-1.011016845703125,-0.03277587890625,0.01312255859375
1772789537718353700,10.544353759765626,-1.0094451904296875,-0.0326385498046875,0.0129241943359375
1772789537728419800,10.554419921875,-1.0099639892578125,-0.032379150390625,0.013916015625
1772789537738484700,10.564484619140625,-1.0120697021484375,-0.0314483642578125,0.014007568359375
1772789537748551000,10.574551025390624,-1.0102081298828125,-0.0327301025390625,0.0139617919921875
1772789537758616800,10.584616943359375,-1.010467529296875,-0.0324859619140625,0.01348876953125
1772789537768683000,10.59468310546875,-1.0102996826171875,-0.032257080078125,0.01348876953125
1772789537778748700,10.604748779296875,-1.0112762451171875,-0.031982421875,0.0140228271484375
1772789537788813800,10.614813720703125,-1.01177978515625,-0.0322265625,0.014068603515625
1772789537798879700,10.624879638671874,-1.009857177734375,-0.032318115234375,0.0139617919921875
1772789537808946000,10.63494580078125,-1.009429931640625,-0.032867431640625,0.013946533203125
1772789537819011800,10.64501171875,-1.0095062255859375,-0.0318145751953125,0.0118560791015625
1772789537829078000,10.655078125,-1.0098419189453125,-0.0326080322265625,0.0122528076171875
1772789537839143000,10.665142822265626,-1.01043701171875,-0.0321197509765625,0.0129547119140625
1772789537849208800,10.675208740234375,-1.0047149658203125,-0.031768798828125,0.0123748779296875
1772789537859274800,10.685274658203125,-1.00335693359375,-0.0316314697265625,0.0130767822265625
1772789537869341000,10.6953408203125,-1.019561767578125,-0.0324859619140625,0.0134429931640625
1772789537879406800,10.70540673828125,-1.0275115966796875,-0.0323028564453125,0.0150604248046875
1772789537889471700,10.7154716796875,-1.017303466796875,-0.0318450927734375,0.0147247314453125
1772789537899538000,10.725537841796875,-0.9999542236328125,-0.0331878662109375,0.0143890380859375
1772789537909603800,10.735603759765626,-0.9927978515625,-0.03350830078125,0.0131683349609375
1772789537919669800,10.745669677734375,-1.0165252685546875,-0.033660888671875,0.0124664306640625
1772789537929736000,10.75573583984375,-1.02886962890625,-0.0329132080078125,0.0118560791015625
1772789537939801000,10.765801025390624,-1.009979248046875,-0.0323028564453125,0.011627197265625
1772789537949866800,10.77586669921875,-0.9955291748046875,-0.0310211181640625,0.011627197265625
1772789537959933000,10.785932861328124,-0.998992919921875,-0.0295562744140625,0.01177978515625
1772789537969998800,10.795998779296875,-1.0210723876953125,-0.0309600830078125,0.0127105712890625
