time,seconds_elapsed,z,y,x
1772797997482664000,0.097663818359375,-33.56168973948955,1.3130645661644638,3.7553783691912885
1772797997492690000,0.10768994140625,-27.477363980340957,1.4340825169004499,1.9094329609893261
1772797997502716700,0.117716552734375,-22.12533192076683,1.0204910482406615,0.8422725890975445
1772797997512743700,0.12774365234375,-18.256430632770062,0.6788887109927833,0.06276333016604185
1772797997522769700,0.137769775390625,-15.359710827875137,0.0539727054670453,-0.23727884313799438
1772797997532797000,0.147796875,-12.458425907021761,-0.14913681463077663,-0.33040143653675913
1772797997542823700,0.15782373046875,-9.076389852079748,-0.26141090241894127,-0.30962657872922716
1772797997552849700,0.167849609375,-5.601366885882616,-0.31506036728098985,-0.18788769330754876
1772797997562876700,0.177876708984375,-2.812787137711048,-0.265767928584665,-0.1547325157459825
1772797997572904000,0.187904052734375,-0.9007137452155352,-0.07976692580655216,-0.2745488356072455
1772797997582930000,0.197929931640625,0.6355114876896143,0.23647812121436,-0.4658052746955305
1772797997592956700,0.207956787109375,2.49552736068964,0.3137394939407706,-0.7944440124087035
1772797997602983700,0.217983642578125,4.884985041189194,0.37850320414379235,-1.5024952511303127
1772797997613009700,0.228009765625,7.393116447386145,0.47891602761596436,-2.054665753918886
1772797997623037000,0.238036865234375,9.80245371735394,0.6032451487265527,-2.2578195515498516
1772797997633063700,0.248063720703125,11.752174995720386,0.8691196064256131,-2.1729174548119303
1772797997643089700,0.258089599609375,12.918275122857093,1.0294821639478207,-1.8816228707827627
1772797997653116700,0.26811669921875,13.844021017998456,1.2117523096345364,-1.5121791714072226
1772797997663144000,0.27814404296875,14.568150115817785,1.4817986461907624,-1.1266479683227837
1772797997673170700,0.288170654296875,15.00324599866867,1.7382888972118495,-0.9622944414682686
1772797997683196700,0.29819677734375,15.437468605816363,1.898618867638707,-0.8551429573908448
1772797997693223700,0.3082236328125,15.766244633108377,2.0937799129500982,-0.8336997718676924
1772797997703251000,0.3182509765625,15.972162342494725,2.3331834200918675,-0.7131900629147887
1772797997713277000,0.32827685546875,15.889058527350425,2.7512124328076837,-0.7430775439172983
1772797997723303700,0.3383037109375,15.277501331222057,3.221984316934645,-0.7921528327316045
1772797997733330700,0.34833056640625,14.36994458824396,3.571806931647658,-0.697285295361653
1772797997743356700,0.358356689453125,13.533411931037902,3.9322143610000606,-0.5775792309418321
1772797997753384000,0.368384033203125,12.818593097877502,4.149783637474477,-0.3501812188923359
1772797997763410700,0.37841064453125,12.049778470635413,4.435304168146849,-0.305130436353758
1772797997773436700,0.388436767578125,11.126502764999866,4.585924353203177,-0.16614311368502677
1772797997783463700,0.398463623046875,10.322195968616008,4.53631071972847,0.019870346715860066
1772797997793491000,0.408490966796875,9.824660288465022,4.413769797208905,0.011057473652437328
1772797997803517000,0.418516845703125,9.34927681888938,4.256505059571564,-0.05854366664439439
1772797997813543700,0.428543701171875,8.983468407276272,4.03620898848176,-0.06443951974995434
1772797997823570700,0.43857080078125,8.77655233450234,3.771008192260563,0.012143076932057737
1772797997833596700,0.4485966796875,8.622208160486817,3.447733977255225,0.243207502534613
1772797997843624000,0.4586240234375,8.705572672393918,3.163982794342935,0.4448018688291311
1772797997853650700,0.468650634765625,8.827419182908535,2.9279896801665424,0.6156672617956995
1772797997863677700,0.478677734375,8.748896265813707,2.689244052411616,0.8823126308020204
1772797997873703700,0.48870361328125,8.671912394854425,2.359476968255639,1.210866612841189
1772797997883731000,0.49873095703125,8.669824482664465,2.1714020818129183,1.4618842776700853
1772797997893757700,0.5087578125,8.800667369583248,2.1629159930184483,1.7003664321832357
1772797997903783700,0.51878369140625,8.94093041127622,2.223403048815578,1.9913687552675603
1772797997913810700,0.528810791015625,8.97293590734601,2.0022639510303732,3.0756735195100307
1772797997923838000,0.538837890625,7.975896461841463,1.8040289051011205,5.080311213934421
1772797997933864000,0.548864013671875,4.580066859346628,0.3288539148338139,7.144484800910949
1772797997943890700,0.558890625,-0.34229075790345664,-2.277875374367833,9.135494951999187
1772797997953917700,0.568917724609375,-7.3411588811337944,-4.196893763695657,10.157935965263842
1772797997963943700,0.578943603515625,-21.81561247612238,-4.983980837470293,10.284578477883338
1772797997973971000,0.588970947265625,-39.525131695675846,-3.1225860773324965,12.140020467096566
1772797997983997700,0.598997802734375,-56.65556507911682,1.5540847147226333,12.487266217058897
1772797997994024700,0.609024658203125,-68.64742444474696,5.398534283030033,9.263961172914504
1772797998004050700,0.61905078125,-66.07889030003547,6.753853498208523,2.401989829814434
1772797998014078000,0.629077880859375,-51.75241309759617,7.112744093257189,-2.780041052407026
1772797998024105000,0.63910498046875,-36.366473603487016,4.021241720974445,-5.393718407180905
1772797998034130700,0.649130615234375,-25.66337511450052,1.9680461857385931,-5.727476899060607
1772797998044157700,0.65915771484375,-17.758375897181033,0.05957045240886509,-4.958773915499449
1772797998054185000,0.66918505859375,-12.389100441861151,-1.988705527407676,-3.085399963754415
1772797998064211000,0.6792109375,-9.069241733890772,-3.001236994946003,-1.4731334014371036
1772797998074237700,0.68923779296875,-6.040601183712482,-3.762030812817812,-1.0779542261719703
1772797998084264700,0.6992646484375,-3.182829825893044,-3.5861762332618237,-1.221536183154583
1772797998094290700,0.709290771484375,-0.8773457291096448,-2.677154093906283,-1.8789025059081612
1772797998104318000,0.71931787109375,1.2738199126213787,-1.6184718466982244,-2.9317843962743875
1772797998114345000,0.729344970703125,3.6275901936680075,-0.6257904502727091,-3.3444454522162674
1772797998124371700,0.739371826171875,5.83549245262146,0.36688071701973674,-2.8015175556778904
1772797998134397700,0.749397705078125,8.095665581560134,1.2180068399846553,-2.0250188036739827
1772797998144425000,0.759425048828125,10.770938099503516,2.293308213560283,-1.580565456021577
1772797998154452000,0.769451904296875,13.467484876143931,3.3060482092827557,-1.5415386830128728
1772797998164478000,0.77947802734375,15.759958684706687,4.203468173649907,-1.5647193598531186
1772797998174505000,0.7895048828125,17.251328876841068,4.787340659517049,-1.7404146571941672
1772797998184532000,0.799531982421875,18.507001138353345,5.327872600829601,-2.200449166468531
1772797998194558000,0.809557861328125,19.91134303537607,5.52017562636137,-2.9473896694242954
1772797998204585000,0.8195849609375,20.895493188691137,5.6985015644669526,-3.3014532827079295
1772797998214612000,0.829612060546875,20.78903772405386,6.1066229311525815,-3.4719957273304463
1772797998224638000,0.839637939453125,20.14169375975132,6.501928655406832,-3.081735888288915
1772797998234665000,0.8496650390625,18.786449363374707,6.931359936624765,-2.334581011930108
1772797998244692000,0.85969189453125,17.344283054870367,7.5387646892488,-1.6899194185793398
1772797998254719000,0.869718994140625,15.94509079569578,8.21747760528326,-0.8817683678574859
1772797998264745000,0.879744873046875,14.411322892814875,8.728428647324442,-0.10719050091356039
1772797998274772000,0.88977197265625,13.228713529425859,8.949389027541875,0.1137342234686017
1772797998284799000,0.899799072265625,12.492455602395534,8.911497980564832,0.2161890741623938
1772797998294825000,0.909824951171875,11.932763033539056,8.698056305414438,0.3476573264379054
1772797998304852000,0.91985205078125,11.427671823441981,8.223865845015645,0.38658933383524413
1772797998314879000,0.92987890625,11.246709691613912,7.530546311479807,0.47855822715423996
1772797998324906000,0.939906005859375,11.172406438040733,6.754614545708894,0.46995859498269854
1772797998334932000,0.949931884765625,10.935305654883384,5.988540157085657,0.4944773154936731
1772797998344959000,0.959958984375,10.746173076081275,5.179073201459646,0.47719636421650646
1772797998354986000,0.969986083984375,10.738729774338006,4.625547630800306,0.3398081473074853
1772797998365012000,0.980011962890625,10.7486257299304,4.035130545595288,0.14390629356615245
1772797998375039000,0.9900390625,10.676640690171718,3.5074142467141147,0.2396020253885537
1772797998385066000,1.00006591796875,10.446404532086849,3.068945672559738,0.8198526674967259
1772797998395092000,1.010092041015625,9.902635508549213,2.634960381299257,1.625177189555764
1772797998405119000,1.020118896484375,9.178260327014327,1.9148247370302676,2.3860865966312588
1772797998415146000,1.03014599609375,8.771395097869634,1.301762981557846,2.8237770260199904
1772797998425173000,1.040173095703125,8.554478440085052,1.022628498660773,3.102443160752952
1772797998435199000,1.050198974609375,7.668889783287048,0.7649971147805452,3.2474645028889175
1772797998445226000,1.06022607421875,5.859928390219808,0.5322611392365768,3.1906416686877606
1772797998455253000,1.0702529296875,3.2089170378297567,0.04285140933077782,3.8582267492473123
1772797998465279000,1.080279052734375,-1.6209060881078243,-0.9046164517425,5.321261658257246
1772797998475306000,1.090305908203125,-9.007261370795964,-1.636170731126517,7.252640055203438
1772797998485333000,1.1003330078125,-18.57925038200617,-2.7577164078742262,9.421770392692089
1772797998495359000,1.11035888671875,-27.43489028174877,-3.5405484545528885,10.23694111291766
1772797998505386000,1.120385986328125,-37.46118724128008,-2.7190958775788543,8.717945247232914
1772797998515413000,1.1304130859375,-48.47073419041633,-0.5940231468729674,7.297815413969754
1772797998525440000,1.14043994140625,-56.175850302338596,4.190124123430252,6.577531885662674
1772797998535466000,1.150466064453125,-59.28684414155483,8.014785287684202,4.417589063236117
1772797998545493000,1.160492919921875,-54.00722265367508,6.3918777966260905,1.045152172897011
1772797998555519700,1.170519775390625,-41.81159428112507,6.739744893357157,-2.3920121872879565
1772797998565546000,1.1805458984375,-32.2794918746233,5.922465802675485,-4.08118239493519
1772797998575573000,1.190572998046875,-25.14119365339279,3.1777415628433228,-3.4979011529594657
1772797998585600000,1.20060009765625,-19.185757309007645,1.8903540203794835,-2.893390368211269
1772797998595626800,1.210626708984375,-15.598970834892988,0.7554245459236204,-2.275124029833078
1772797998605653000,1.220653076171875,-13.086388294506072,0.3086444358240813,-1.4320532030299304
1772797998615680000,1.230679931640625,-10.25001686758995,0.4133050529338419,-0.8409538346491754
1772797998625707000,1.24070703125,-7.098105911573767,0.9222820184230804,-0.9118610891085117
1772797998635733000,1.25073291015625,-3.453276998335123,1.7198066073209046,-1.1812041727662086
1772797998645759700,1.260759765625,1.2783558024853467,2.7533038521289823,-1.8839590586453676
1772797998655787000,1.270787109375,6.064218206143379,3.8240547227934,-2.520896779745817
1772797998665813000,1.28081298828125,9.63846142502725,4.6253404177904125,-2.5730434388294814
1772797998675840000,1.290840087890625,12.135371179985999,5.383648848587274,-2.167828461109847
1772797998685866800,1.30086669921875,14.504153152203559,6.037611354246735,-1.7118857511937617
1772797998695894000,1.31089404296875,16.457832228285074,6.375395448380709,-1.2052108521018177
1772797998705920000,1.320919921875,17.63810701124668,6.349395914727449,-0.8744216583564877
1772797998715947000,1.330947021484375,18.693031074965,6.465479623931646,-0.6414812097489834
1772797998725973800,1.340973876953125,19.51934161336422,6.344458458325266,-0.749210055322945
1772797998735999700,1.350999755859375,20.048266118991375,6.313595702549815,-0.9146579532854259
1772797998746027000,1.361027099609375,19.96388220090866,6.281902341169118,-1.2433651531249283
1772797998756054000,1.371053955078125,19.612544797718524,6.11054331946671,-1.5447536995366216
1772797998766080000,1.381080078125,19.434355637735127,6.23889322052598,-1.600732484129071
1772797998776106800,1.391106689453125,18.7692316865921,6.242000538891554,-1.4159237598754464
1772797998786134000,1.401134033203125,17.516449301302433,6.329758317321539,-1.1690450945474207
1772797998796161000,1.4111611328125,16.20727458218336,6.525174506437778,-0.8651013106949627
1772797998806187000,1.42118701171875,14.954322685545682,6.504610441836714,-0.5990409019697457
1772797998816213800,1.4312138671875,13.916652538967131,6.444793394255638,-0.29976518299356103
1772797998826241000,1.441240966796875,13.328686646306513,6.34068536952734,0.06315510596260428
1772797998836267000,1.45126708984375,12.871709771037102,6.08558891095221,0.35452173231467604
1772797998846294000,1.4612939453125,12.36874037539959,5.702715967291593,0.48633309893943366
1772797998856320800,1.47132080078125,11.879522441738843,5.20922284052968,0.6850904151771218
1772797998866348000,1.48134814453125,11.50857900532484,4.581673125499487,0.8828343896538019
1772797998876374000,1.4913740234375,11.325520778000355,3.9383024487420912,0.931941534911096
1772797998886401000,1.501401123046875,11.319628797352314,3.335048093795776,1.0496498496424407
1772797998896427800,1.511427734375,11.48062366142869,2.735699221855402,1.1687996684189885
1772797998906453800,1.521453857421875,11.673140621972083,2.248223455686867,1.0019235642842947
1772797998916481000,1.53148095703125,11.612514011573792,1.7135069226548074,0.8082878288440406
1772797998926508000,1.541508056640625,11.26512096209526,1.3001149220898747,0.7663186457078903
1772797998936534000,1.551533935546875,10.850804832422734,1.031436220625043,0.9169226102817803
1772797998946560800,1.561560791015625,10.454267520546912,0.7567815134905278,1.1562436267718672
1772797998956588000,1.571588134765625,9.83549966238737,0.6582631985280663,1.2516850915722548
1772797998966615000,1.581614990234375,9.082629038730262,0.5043300164662301,1.3415014099672435
1772797998976641000,1.59164111328125,8.273906179469824,0.37767296386472876,1.5952778719849883
1772797998986667800,1.601667724609375,7.210147067388892,0.10924724164712242,1.6416741508483885
1772797998996695000,1.611695068359375,5.495643242651224,0.039052711167559026,1.6846718733146786
1772797999006721000,1.621720947265625,2.5833716483592983,-0.25202245795726774,1.607966819296777
1772797999016748000,1.631748046875,-4.857066522172093,-0.9161666773479431,1.845783641768992
1772797999026774800,1.64177490234375,-15.797114403146505,-2.558891287097335,3.8773578584358095
1772797999036801800,1.6518017578125,-23.67125203373432,-3.633911213383078,6.165291393220424
1772797999046828000,1.661828125,-29.362713616561887,-3.753921448381245,5.71894872469008
1772797999056855000,1.67185498046875,-38.22505447524786,-2.143662134233117,5.318708466643095
1772797999066881800,1.6818818359375,-48.880161379003525,0.3714277858648449,5.946152967733145
1772797999076907800,1.69190771484375,-55.982457728004455,3.2921637685760854,7.168972176435589
1772797999086935000,1.70193505859375,-56.91480287528038,4.048737338404357,8.128170259323715
1772797999096962000,1.711962158203125,-50.26828863880634,4.191483721345663,5.8605830547362565
1772797999106988800,1.72198876953125,-39.74732015638351,4.270661010695994,4.051635105672479
1772797999117014800,1.732014892578125,-29.28643350995779,3.088254768663645,3.440585274544358
1772797999127041800,1.742041748046875,-21.27529213173389,1.687455366553366,2.206762733529508
1772797999137069000,1.752069091796875,-15.659142687261104,0.15846037716269493,0.791244631845504
1772797999147095000,1.762094970703125,-12.172743171525001,-0.4435990323780104,0.4655439203456044
1772797999157121800,1.772121826171875,-10.126134467333555,-0.7410869546219706,0.687479429205507
1772797999167148800,1.782148681640625,-8.191585623657703,-0.7447093829028308,0.8152079834960401
1772797999177174800,1.7921748046875,-6.206337104836106,-0.7217015784114599,0.9318386590585112
1772797999187201800,1.802201904296875,-4.103951568365097,-0.21675847154818473,1.233708851507306
1772797999197228800,1.812228759765625,-2.0228572417259216,0.2032280319109559,0.8902603018708527
1772797999207255800,1.822255859375,0.5416361031621695,0.30801855901069936,0.29469372494816776
1772797999217281800,1.83228173828125,3.527984741055965,0.9388974915288388,-0.1603626305874437
1772797999227308800,1.842308837890625,6.784159204623103,1.1830772731617092,-0.48160227102525527
1772797999237335800,1.852335693359375,9.941627794766426,1.1143187942340969,-1.3387053495079277
1772797999247361800,1.86236181640625,12.881716785788536,1.975449593862891,-1.6252872258014976
1772797999257388800,1.872388916015625,15.471541555809974,3.134998984181881,-1.6780393034324048
1772797999267415800,1.882415771484375,16.663792023247478,3.3135753899171947,-1.7644588189959525
1772797999277441800,1.89244189453125,17.16749557837844,3.6760876825943587,-2.069123610599339
1772797999287468800,1.90246875,17.075016032123564,4.174883591939508,-1.9386396201208234
1772797999297495800,1.912495849609375,16.963766318947076,4.414538735754788,-2.2298815971799195
1772797999307522800,1.922522705078125,17.10717642649412,4.919184832432866,-2.7892423037335274
1772797999317548800,1.932548828125,17.496234196269512,5.345898086863756,-2.723924028387666
1772797999327575800,1.942575927734375,17.716360463750362,6.011369244009256,-2.3430860976859926
1772797999337602800,1.952602783203125,17.322759789848327,6.663356065681576,-1.8702020437106488
1772797999347628800,1.96262890625,16.161983488082885,7.090766070204973,-1.1694332170821726
1772797999357655800,1.97265576171875,14.846407085227966,7.511179347708821,-0.3310577084884047
1772797999367682800,1.982682861328125,13.77455994375944,8.071768573144078,0.02076514013111591
1772797999377709800,1.992709716796875,12.959708372485636,8.397333821696042,0.040299934749677774
1772797999387735800,2.00273583984375,12.196166132688521,8.709310689878464,0.021557971009239552
1772797999397762800,2.0127626953125,11.632457898449896,8.807114061504603,0.004250570116564632
1772797999407789800,2.022789794921875,11.35078147598505,8.548599903440476,-0.3315772388504818
1772797999417815800,2.03281591796875,11.545210992151498,8.245557452341913,-0.6850877117633819
1772797999427842800,2.0428427734375,12.09091010696888,7.883498748651147,-0.9932467752233147
1772797999437869800,2.052869873046875,12.778111449885367,7.3698834558367725,-1.2698475018590687
1772797999447895800,2.062895751953125,13.557129491233825,6.827359463924169,-1.6196026042938232
1772797999457922800,2.0729228515625,14.28682206839919,6.2258472764700645,-1.849063978613913
1772797999467949800,2.08294970703125,14.71637083851695,5.722203927093744,-1.9170605332583188
1772797999477976800,2.092976806640625,14.767968923807143,5.3407174693554635,-1.9231386841282248
1772797999488002800,2.1030029296875,14.435581720280647,4.969339148655534,-1.7851183067955076
1772797999498029800,2.11302978515625,13.810325669145584,4.424752378994226,-1.633503850004822
1772797999508056800,2.123056884765625,13.111684063804148,3.904496332991123,-1.69276340983361
1772797999518082800,2.133082763671875,12.279928119480608,3.271255712842941,-1.7666960765287278
1772797999528109800,2.14310986328125,11.558268042123316,2.5686624472662807,-1.880687928020209
1772797999538136800,2.15313671875,10.81089835397005,1.8981512501269577,-2.006923759534955
1772797999548163800,2.163163818359375,9.337772843578458,1.137893584958464,-1.7496810827113687
1772797999558189800,2.17318994140625,6.240205472168326,0.2841564392449334,-0.9934827028710395
1772797999568216800,2.183216796875,1.8235656724810598,-0.5304082413788884,0.4867654259420931
1772797999578243800,2.193243896484375,-3.364810779374838,-1.6945915020436046,1.8359138435311615
1772797999588269800,2.203269775390625,-10.951719029545783,-3.048574207921326,3.3214015534982084
1772797999598296800,2.213296875,-20.95149739998579,-4.08550055039525,4.894798286934197
1772797999608323800,2.22332373046875,-30.82061876146793,-4.196592150400579,5.625141144701838
1772797999618349800,2.233349853515625,-43.34196611182689,-2.2210564856894313,5.965488367322087
1772797999628377000,2.243377197265625,-59.83065992684364,2.1854598332598805,7.2752388405025
1772797999638403800,2.25340380859375,-69.26173356993198,5.27171875193119,8.56754075075388
1772797999648430800,2.263430908203125,-67.26589059185982,5.483398678106069,6.629710401189326
1772797999658456800,2.273456787109375,-54.80191991019249,5.410697014510632,1.913506201777607
1772797999668483800,2.28348388671875,-40.12330334053039,4.287501670859754,-0.5185712347213178
1772797999678510800,2.2935107421875,-29.27401358884573,2.2354624660521742,-1.5773860953330994
1772797999688536800,2.303536865234375,-23.117854765629765,0.5860603513002395,-2.151888695308566
1772797999698563800,2.313563720703125,-19.710751489448548,-0.6571895779471844,-1.97520935536623
1772797999708590800,2.3235908203125,-16.66002887132168,-1.062427352020517,-2.107514716053009
1772797999718617000,2.3336171875,-13.676742543607949,-1.0677186633616684,-2.885809411562979
1772797999728643800,2.343643798828125,-10.300341864204405,-0.5758597136728465,-3.1796611327290534
1772797999738670800,2.3536708984375,-6.521730503463745,-0.09808759539499878,-3.1330782452523707
1772797999748697900,2.36369775390625,-2.513759767472744,0.639913522040844,-3.4003505870506165
1772797999758723800,2.373723876953125,1.3037228834539651,1.7367881372600793,-3.3990953262925148
1772797999768750800,2.383750732421875,4.266330580276251,2.8823709615468975,-3.266365894974768
1772797999778777900,2.39377783203125,6.491907027608156,3.873558173891902,-3.0112650524854656
1772797999788803800,2.403803955078125,8.759320044672489,4.87326011660397,-2.818370783062279
1772797999798830800,2.413830810546875,11.102199513870477,5.85968113746047,-2.5979712515980005
1772797999808857900,2.42385791015625,13.316437405586242,6.625777737915516,-2.2269537270344792
1772797999818883800,2.4338837890625,15.298284591531752,7.046063005125522,-1.7617729409128426
1772797999828910800,2.443910888671875,17.31242076666355,7.364874103242158,-1.0764180295806378
1772797999838937900,2.453937744140625,19.46228876979947,7.746610151827335,-0.38536793881412595
1772797999848963800,2.4639638671875,21.50629985871315,7.896760965806245,-0.014075798560306428
1772797999858990800,2.473990966796875,23.013681274449823,7.494500015586614,-0.030091515674628314
1772797999869017900,2.484017822265625,23.526498694884776,7.237031567183137,-0.11151903163716197
1772797999879044900,2.494044921875,23.323947831583023,7.2920046818643804,-0.26109847546890375
1772797999889070800,2.50407080078125,22.56858656015396,7.520499549239873,-0.5451731181818992
1772797999899097900,2.514097900390625,21.29819837554693,7.8644053411245345,-0.8107822760082781
1772797999909124900,2.524124755859375,19.719704026710986,8.257860469076038,-0.8688988763470202
1772797999919150800,2.53415087890625,18.035252225887774,8.646517841356992,-0.843284396488592
1772797999929177900,2.544177734375,16.44077354145646,8.851932861918211,-0.7059711445119231
1772797999939204900,2.554204833984375,15.135471864378452,8.81222745899558,-0.5392513999827205
1772797999949230800,2.56423095703125,14.217297865796088,8.560906427305936,-0.4973446876235306
1772797999959257900,2.5742578125,13.36118372528553,8.367817804354429,-0.5127972544297575
1772797999969284900,2.584284912109375,12.6824123570621,8.06454622067511,-0.43506870258301494
1772797999979311900,2.594311767578125,11.960427285534143,7.684750784763693,-0.44273178455680606
1772797999989337900,2.604337890625,11.03716210129261,7.193423896124958,-0.47147718285210427
1772797999999364900,2.61436474609375,10.173110153520106,6.58595075443983,-0.8328753768075257
1772798000009391900,2.624391845703125,9.583431027200817,5.888228602030873,-1.3140674595966935
1772798000019417900,2.63441796875,9.38747240177095,5.084087225341796,-1.826948592917621
1772798000029444900,2.64444482421875,9.60386649698615,4.317139268754422,-2.325200020122528
1772798000039471900,2.654471923828125,10.114190347039699,3.67114262740761,-2.5795184800624846
1772798000049497900,2.664497802734375,10.52954458758831,3.181782654927671,-2.406486264450848
1772798000059524900,2.67452490234375,10.57404307000637,2.490799747645855,-1.9956895410761235
1772798000069551900,2.6845517578125,9.854335295760631,1.771122222407907,-1.5826193198114633
1772798000079579000,2.694578857421875,8.003670019429922,1.2339770009241997,-0.9425327792912721
1772798000089604900,2.70460498046875,4.526573169568181,0.329138138602674,0.44846784399077294
1772798000099631900,2.7146318359375,0.40203415572643275,-0.9334517202783376,1.9714714840121565
1772798000109659000,2.724658935546875,-3.1674989857703446,-1.7436064389728008,2.542564421674609
1772798000119684900,2.734684814453125,-6.990000926163792,-3.6963764373853802,2.5204452365860344
1772798000129711900,2.7447119140625,-10.92317331854105,-5.450480743366479,3.02804258428514
1772798000139739000,2.75473876953125,-14.16878722512722,-6.794154528936743,3.5767730296224354
1772798000149764900,2.764764892578125,-16.706942598187922,-7.233417468339204,3.4461268343195317
1772798000159791900,2.7747919921875,-20.631359437179565,-7.755767271751165,3.7508132532328364
1772798000169819400,2.7848193359375,-28.757873745989798,-7.528772872066497,5.463800243666768
1772798000179845400,2.794845458984375,-41.26834431302547,-6.273891468670964,7.297844640064239
1772798000189872400,2.804872314453125,-52.751515320849414,-3.654631929850578,9.306499168914556
1772798000199899100,2.814899169921875,-58.05524249145984,-0.5814237775407731,10.155599046748875
1772798000209926400,2.824926513671875,-54.07734189956188,0.8176539153434336,8.059614024969935
1772798000219952400,2.834952392578125,-43.81193106348514,1.7944331014990806,4.700630636574328
1772798000229979400,2.8449794921875,-34.49801431179046,2.7914094186395406,2.7972826945871114
1772798000240006100,2.855006103515625,-28.34941452565193,3.14987360496968,1.8127286366462707
1772798000250032400,2.865032470703125,-24.703566790759563,3.393143724411726,1.417247848086059
1772798000260059400,2.875059326171875,-21.279666693556308,3.6035762808740137,1.0621631481263787
1772798000270086400,2.88508642578125,-16.93576888947487,3.9094071936473247,0.7864717183552682
1772798000280112400,2.8951123046875,-12.072212420761584,4.0231712277323,0.42217319984845814
1772798000290139100,2.90513916015625,-7.182841127312183,4.309265758900344,-0.09523761279135942
1772798000300166400,2.91516650390625,-3.1009131747066974,4.57830014193505,-0.5424810295537114
1772798000310192400,2.9251923828125,0.44136721820533276,4.823770986291766,-0.8013561298847198
1772798000320219400,2.935219482421875,3.8253199204236266,4.989923087000847,-1.392909525643289
1772798000330246100,2.94524609375,6.573668195971846,5.3065299530714745,-2.264249876858294
1772798000340273400,2.9552734375,8.832751776108145,5.797325511312485,-3.0377669827029106
1772798000350299400,2.96529931640625,10.847931322813034,6.145149937945604,-3.492102111291885
1772798000360326400,2.975326416015625,12.808520616674423,6.271087517166137,-3.4047762945383786
1772798000370353200,2.985353271484375,14.665440277224778,6.362745225644111,-2.9742659859120844
1772798000380379100,2.995379150390625,16.28374173579216,6.333844709852338,-2.447520724020153
1772798000390406400,3.005406494140625,17.71403172854185,6.243581086081266,-1.9920143596947193
1772798000400433400,3.015433349609375,18.797031547665593,5.9890194650351996,-1.4036172360099852
1772798000410459400,3.02545947265625,19.56504654896259,5.781086324173212,-0.7878291243135929
1772798000420486100,3.035486083984375,19.993267285346985,5.575744953370094,-0.7006564522951841
1772798000430513400,3.045513427734375,19.810534052193162,5.50512535674572,-0.7506428646050393
1772798000440539400,3.055539306640625,19.513135159939527,5.637030904459953,-0.8636335762299596
1772798000450566400,3.06556640625,19.135158756148815,6.003216332691908,-1.1916720099624245
1772798000460593200,3.07559326171875,18.541074088346956,6.394793391811847,-1.379579357818514
1772798000470620400,3.085620361328125,17.450875297629832,6.7077341365903616,-1.2241385476727038
1772798000480646400,3.095646484375,16.1401340598464,6.915415348517894,-0.8438100277978926
1772798000490673400,3.10567333984375,14.937197363221644,7.045826858282089,-0.5922093023840338
1772798000500700200,3.1157001953125,13.779927023750544,7.10043289321661,-0.24523798544891176
1772798000510726100,3.12572607421875,12.584880203592776,7.046724099382757,0.13344174430556593
1772798000520753400,3.13575341796875,11.490210989463328,6.876112096655368,0.3077148998890072
1772798000530780400,3.145780517578125,10.756500408828257,6.557384000647068,0.30799532426558435
1772798000540806400,3.155806396484375,10.317109459131956,6.1262827403903,0.1538251185774803
1772798000550833200,3.165833251953125,10.106102902173996,5.592654587116837,-0.03826959796585142
1772798000560860400,3.1758603515625,10.09495957686901,4.961666714331507,-0.27987448760941624
1772798000570886400,3.185886474609375,10.055632944130897,4.227888329157233,-0.5509107850510627
1772798000580913400,3.195913330078125,9.98280034763217,3.5617724443674086,-0.807488422094658
1772798000590940200,3.205940185546875,10.086980853074788,3.0008792675495144,-1.0485931801963597
1772798000600967400,3.215967529296875,10.290444739568233,2.532321552340686,-1.1493056442022322
1772798000610993400,3.225993408203125,10.083123008602858,2.182950773048401,-1.2447891945786773
1772798000621020400,3.2360205078125,9.486702591329813,1.6728049099102615,-1.1774934086147695
1772798000631047200,3.246047119140625,8.689674846038221,1.2517181170590221,-1.1108047216985375
1772798000641073200,3.2560732421875,7.155090366077423,0.8026261498205364,-0.4527267435442656
1772798000651100400,3.266100341796875,4.624384139978885,0.19925096323983743,0.30860914531499145
1772798000661127400,3.27612744140625,1.2933581413060427,-0.5073274447165429,0.7742397210307419
1772798000671153400,3.2861533203125,-0.825875069591403,-1.54968969463408,0.4377556035794318
1772798000681180200,3.29618017578125,-1.708043104290962,-2.487045363548398,-0.44160570313632486
1772798000691207400,3.30620751953125,-3.6474955020993947,-3.5258079815387724,-0.33610337450541555
1772798000701233400,3.3162333984375,-6.1354188175261015,-5.087548179450631,0.5072260301686823
1772798000711260400,3.326260498046875,-9.135726422667503,-6.508687482017279,0.7586538832336663
1772798000721287200,3.336287109375,-15.00811389696598,-7.722205193889141,0.7150626518536358
1772798000731313200,3.346313232421875,-25.868670892596242,-7.505994638547301,1.1964224193599073
1772798000741340400,3.35634033203125,-39.425561898899076,-3.9734178935259576,1.5210700416103005
1772798000751367400,3.366367431640625,-52.961695363855355,1.9299996559388934,2.0050188026964664
1772798000761394200,3.376394287109375,-60.77532679555416,5.93068067331314,3.208521316510439
1772798000771420200,3.386420166015625,-57.96384197261333,6.599280191612244,1.6602584398090838
1772798000781447400,3.396447509765625,-48.06336919505596,6.939460240972042,-1.6640407348267734
1772798000791474400,3.406474365234375,-37.084909458100796,6.827741156718134,-3.0174580619066953
1772798000801500400,3.41650048828125,-27.93360903420448,5.266747393259406,-2.4666090169802306
1772798000811527200,3.426527099609375,-22.257478291499613,3.4999808818429705,-1.7425135291695595
1772798000821554400,3.436554443359375,-19.353292973029614,2.2772195408076046,-1.316704676232487
1772798000831580400,3.446580322265625,-16.727131984257696,1.7877824114382266,-0.4936082775741815
1772798000841607400,3.456607421875,-13.672946658456326,1.5611302493199706,0.21437734856531024
1772798000851634200,3.46663427734375,-10.187944150036573,1.5996595942005514,0.33489918634742494
1772798000861660200,3.47666015625,-6.549254470205307,1.9863585258901117,0.5309317537963391
1772798000871687400,3.4866875,-2.9010043503463265,2.1995979564666746,0.37297362706735726
1772798000881714400,3.49671435546875,0.5499971042722464,2.8223183516442774,0.19316066527441142
1772798000891740400,3.506740478515625,4.090954724147916,3.486718080165982,0.18251871362030506
1772798000901767200,3.51676708984375,7.90887401292622,4.110449990473687,0.10510361163690686
1772798000911794400,3.52679443359375,11.800444813370705,4.9620519142568105,-0.13211203007176517
1772798000921820400,3.5368203125,15.33253289809227,6.129594641417264,-0.9081512017399073
1772798000931847400,3.546847412109375,17.756044823884963,6.941634662401675,-1.6978773918464778
1772798000941874200,3.556874267578125,18.71195555566549,7.3751172648370265,-2.0765470385983584
1772798000951901200,3.566901123046875,18.52523471418023,7.687614357501268,-2.36322375356853
1772798000961927400,3.576927490234375,18.236465703105925,7.813292409002781,-2.7028087596446273
1772798000971954400,3.586954345703125,18.30135932329893,8.046171775072812,-3.2344971770271655
1772798000981981200,3.596981201171875,17.9841743650794,8.121721813836693,-3.3581580434873697
1772798000992007200,3.607007080078125,17.271179240214824,8.382122224038838,-3.184836781801283
1772798001002034200,3.6170341796875,16.185270840168,8.643414030122756,-2.966131779295206
1772798001012061400,3.6270615234375,14.917949057394265,8.805968398600816,-2.592169287320971
1772798001022087400,3.63708740234375,14.105098889070748,8.989764292550086,-2.6275217557311055
1772798001032114200,3.6471142578125,13.765782763063907,9.22185572311282,-2.688628258600831
1772798001042141200,3.65714111328125,13.857223029398916,9.28780440531671,-2.78284968008697
1772798001052167400,3.66716748046875,13.791817368030546,9.058163875037431,-2.8301906924545763
1772798001062194400,3.6771943359375,13.586710975027083,8.656046717202663,-2.6810873417019843
1772798001072221200,3.68722119140625,13.244424308776855,8.523575352299213,-2.6429177700445052
1772798001082247200,3.6972470703125,12.82090897360444,8.44657686829269,-2.8592244792371986
1772798001092274200,3.707274169921875,12.220311562907694,8.106798969992996,-3.1056407877504824
1772798001102301400,3.717301513671875,11.50912027259469,7.721097524908185,-3.34928032502681
1772798001112327400,3.727327392578125,10.760331365293263,7.4129837618947025,-3.48305692730993
1772798001122354200,3.737354248046875,10.17513844447732,7.139854218500852,-3.5464424810275434
1772798001132381200,3.747381103515625,10.138532176613808,6.973425638937949,-3.4626045063897966
1772798001142407400,3.757407470703125,10.327026457512378,6.746851510491966,-3.4105092852324246
1772798001152434400,3.767434326171875,10.404142430418728,6.484716239321232,-3.5792882273137567
1772798001162461200,3.777461181640625,10.684066456258297,6.293867504251003,-3.7194182902768254
1772798001172487000,3.78748681640625,10.993502992308139,6.1070227441251275,-3.945368441605568
1772798001182514000,3.797513916015625,10.906416245007515,5.727957960575819,-3.8034029799088835
1772798001192541000,3.807541015625,10.630154833328723,5.265255108875036,-3.710492641021311
1772798001202568000,3.81756787109375,10.407482388496398,4.908298112237453,-3.914706761360168
1772798001212594000,3.827593994140625,10.090635283929108,4.6454643374085425,-4.202049539023638
1772798001222621000,3.837620849609375,9.128378982514143,4.674800906530022,-4.328701988515258
1772798001232648000,3.84764794921875,7.172172433781624,4.636749408294261,-4.158604949572682
1772798001242674000,3.857673828125,3.615943010494113,4.263725366213918,-3.4991356631904837
1772798001252701000,3.867700927734375,-2.0137071360647676,3.1263945297047493,-2.8922113875597715
1772798001262728000,3.87772802734375,-8.28545633201003,1.307055096616596,-1.8764998286806045
1772798001272754000,3.88775390625,-15.801232944381237,-1.212632818796113,-0.4256853726878762
1772798001282781000,3.897781005859375,-27.989905506443975,-3.0805472630262374,1.667101875963062
1772798001292808000,3.907807861328125,-45.051734724736214,-2.022798205015063,6.115792910557985
1772798001302834000,3.917833984375,-60.212974652099604,1.5039401892416178,9.89958196619749
1772798001312861000,3.92786083984375,-67.52167269461154,4.348001732268929,11.634153011929989
1772798001322888000,3.937887939453125,-63.26890185313224,4.070706301367283,7.510420053774118
1772798001332914000,3.947913818359375,-50.53123464183807,3.4589123738735914,2.651514333476126
1772798001342941000,3.95794091796875,-36.267011358737946,2.605300863833725,0.1929991911023855
1772798001352968000,3.967968017578125,-24.59290043042898,1.5747034321203828,-0.9363882851868868
1772798001362994000,3.977993896484375,-17.790156352323294,0.6121942884555086,-1.7643182414814829
1772798001373021000,3.98802099609375,-15.736781222736834,-0.01931260323524475,-1.474402252329141
1772798001383048000,3.9980478515625,-16.2945588978827,0.09679814010635018,-0.37715339697003364
1772798001393074000,4.008073974609375,-16.011303097271917,0.508088894075714,-0.09313201881423593
1772798001403101000,4.018100830078125,-13.352380825626849,1.0709422285180539,-0.01594078871458769
1772798001413128000,4.0281279296875,-9.76118179576695,1.576804057661444,0.17509937727451325
1772798001423154000,4.03815380859375,-6.132630648112297,2.301447388613224,0.16742752747237682
1772798001433181000,4.048180908203125,-2.493721772572398,3.1371853883102534,0.08453092533797026
1772798001443208000,4.0582080078125,0.7561293331921101,4.0031092674344775,-0.11935089430660009
1772798001453234000,4.06823388671875,3.9200791020482777,4.922070032480359,-0.45431846971511836
1772798001463261000,4.078260986328125,7.26833855959475,6.011515374481678,-0.7759870030894875
1772798001473288000,4.088287841796875,10.499141266018151,7.073193588635325,-0.9467794769503176
1772798001483314000,4.09831396484375,13.567574897402524,8.010997001317143,-1.2851283653602004
1772798001493341000,4.1083408203125,16.277178724014757,8.813753645649552,-1.4512285897515713
1772798001503368000,4.118367919921875,18.24117227336168,9.200512490832805,-1.3502405967399478
1772798001513394000,4.128393798828125,19.793945320963857,9.164510618603229,-1.3037363274574278
1772798001523421000,4.1384208984375,21.129299606478213,8.863252128311991,-1.5333543536439538
1772798001533448000,4.148447998046875,21.819402516055106,8.32747410352826,-1.8412063969813286
1772798001543475000,4.158474853515625,21.847641937589643,7.9929270916193715,-2.022727331735939
1772798001553501000,4.1685009765625,21.399664361333844,7.7279603964149945,-2.0328654255211354
1772798001563528000,4.17852783203125,20.47968302106857,7.677426725485921,-2.1463895133703947
1772798001573555000,4.188554931640625,19.035866022747754,7.65840521415174,-2.1378157462924716
1772798001583581000,4.198580810546875,17.627199832785127,7.687201100525259,-1.9318501061111688
1772798001593608000,4.20860791015625,16.312857940161226,7.642392236983776,-1.8630118399456141
1772798001603635000,4.218635009765625,14.792972432160377,7.378441440823674,-2.0678570977948603
1772798001613661000,4.228660888671875,13.421281927895546,7.014233450144529,-2.3141487570151686
1772798001623688000,4.23868798828125,12.230012288188934,6.411570339089631,-2.6241329900756476
1772798001633715000,4.24871484375,11.13136247999072,5.634402894043922,-2.8649931257665155
1772798001643741000,4.258740966796875,10.209560938560962,4.6516295820400115,-2.972314267322421
1772798001653768000,4.268767822265625,9.366264194047451,3.6311560694560407,-2.8049627276957034
1772798001663795000,4.278794921875,8.675160582995414,2.997703560122847,-2.8246178607583046
1772798001673821000,4.288821044921875,8.341398583984375,2.5409222074255347,-2.867248211216926
1772798001683848000,4.298847900390625,8.215289155328273,2.40185743560642,-2.9025416429162023
1772798001693875000,4.308875,8.253019458785653,2.1845077932320534,-2.975121141436696
1772798001703901000,4.31890087890625,8.05962220827639,1.9959730341926216,-3.1918384772568937
1772798001713928000,4.328927978515625,7.6924039298653595,1.9368204418696462,-3.6331758848458526
1772798001723955000,4.338954833984375,7.491772636449337,1.9369088508054613,-3.9937218458861112
1772798001733981000,4.34898095703125,7.382873870313167,1.9424314136192202,-4.388969994734228
1772798001744008000,4.359008056640625,6.778719059395789,1.9917982327260075,-4.719713814967871
1772798001754035000,4.369034912109375,5.327420180886984,1.8743083099856972,-4.601859588959813
1772798001764061000,4.37906103515625,2.376420504271984,1.7891595450103281,-4.009490785165131
1772798001774088000,4.389087890625,-1.2142074477016924,1.461635709736496,-3.5665211001992225
1772798001784115000,4.399114990234375,-5.580778855884075,0.9485518934503198,-3.1026486201971766
1772798001794141000,4.409140869140625,-9.538179680588842,0.22983550486210733,-2.8505884605780243
1772798001804168000,4.41916796875,-13.222586570978164,-1.4217191482812166,-2.2996416543655096
1772798001814195000,4.42919482421875,-19.359318224668502,-3.191235835188627,-1.762272122606635
1772798001824221000,4.439220947265625,-30.52013242459297,-3.1190736852973697,-1.2931734323889017
1772798001834248000,4.449248046875,-41.893778058815,-1.4710446124643086,2.622755856503546
1772798001844275000,4.45927490234375,-51.742307883167264,0.690645345890522,10.135250670725107
1772798001854301000,4.469301025390625,-56.958277275347704,3.8638513111308215,15.221687674063443
1772798001864328000,4.479327880859375,-52.10509490113258,3.9859380601420997,13.294065414780377
1772798001874355000,4.48935498046875,-40.846034261989594,2.441113925717771,11.584821702528
1772798001884381000,4.499380859375,-32.03392721450329,0.7804317075386643,8.347844691383838
1772798001894408000,4.509407958984375,-23.5985889485836,1.8334607512906194,7.362785022008419
1772798001904435000,4.51943505859375,-16.008657551199196,1.301779932692647,9.025812926530838
1772798001914461000,4.5294609375,-11.404825200861692,0.04306786509305238,8.208333344841003
1772798001924488000,4.539488037109375,-9.222298206183314,-0.8258157406195997,7.182453004777431
1772798001934515000,4.549514892578125,-8.593111245340108,-0.7957096484303474,7.470615866652131
1772798001944541000,4.559541015625,-7.406054254892468,-0.5348509730666876,8.170302012610435
1772798001954568000,4.56956787109375,-5.068327346152067,-0.1989431941986084,7.8021034909904
1772798001964595000,4.579594970703125,-1.455236217957735,0.5711328312814236,6.72776570174992
1772798001974621000,4.589620849609375,2.9632845731705424,1.9661855064332483,6.023758185461163
1772798001984648000,4.59964794921875,8.315962529432774,3.5071997271806,5.520861855059862
1772798001994675000,4.609675048828125,13.959056094932555,4.793796119266748,4.265964377312362
1772798002004701000,4.619700927734375,18.974059847176076,5.819875196772814,2.1829114639513194
1772798002014728000,4.62972802734375,22.742320494294166,6.692731213247775,0.18864567206799984
1772798002024755000,4.6397548828125,24.488773701000213,7.015379113048315,-1.1763299908585845
1772798002034781000,4.649781005859375,24.95257077767849,7.182428454858064,-2.019751092404127
1772798002044808000,4.659807861328125,25.313117907762525,7.271134327793121,-2.57462252471447
1772798002054835000,4.6698349609375,24.731214676141736,7.414356219291687,-3.0832080066680905
1772798002064861000,4.67986083984375,22.83050848083496,7.985685449928045,-3.016464374694228
1772798002074888000,4.689887939453125,20.956051994550226,8.919336419105528,-3.1311236040532586
1772798002084915000,4.6999150390625,18.71518913075924,9.629549804297088,-3.5466789201319218
1772798002094941000,4.70994091796875,16.104925968343018,10.067484709966182,-3.773023039214313
1772798002104968000,4.719968017578125,14.078228417801856,10.67240173742771,-3.675033789627254
1772798002114995000,4.729994873046875,12.955209892022609,10.617550203299523,-3.5971535543501374
1772798002125021000,4.74002099609375,12.258235343110561,10.078390719383954,-3.644524377334118
1772798002135048000,4.7500478515625,11.707882265007495,9.39476314330101,-3.420363155248761
1772798002145075000,4.760074951171875,11.232130546641349,8.710997035530209,-3.116475485497713
1772798002155101000,4.770100830078125,10.897026485371589,8.19903477061987,-2.7440809734925624
1772798002165128000,4.7801279296875,10.501616131699084,7.5244596850425,-2.789831209537387
1772798002175155500,4.790155517578125,9.927589917063713,6.8259308924257756,-3.0696137810796498
1772798002185181400,4.800181396484375,9.586215104961395,6.200339910247922,-3.173739925986528
1772798002195208400,4.81020849609375,9.553964109697937,5.440809244179725,-2.934747045472264
1772798002205235500,4.8202353515625,9.598530396655201,4.512767347055673,-2.4046365449309346
1772798002215261400,4.830261474609375,9.683453243920207,3.34646351404041,-1.8747301886595784
1772798002225288400,4.840288330078125,9.518277294766902,2.262042722202837,-1.3846065383307635
1772798002235315200,4.850315185546875,8.61207255091965,1.2640716949366033,-0.6744627843093126
1772798002245341400,4.860341552734375,7.217519057461619,0.2859917649133131,0.011639657454565166
1772798002255368400,4.870368408203125,6.180540400278568,-1.0377703190173952,-0.24305216584242878
1772798002265395500,4.8803955078125,5.502733493173122,-2.3501506292447445,-1.0694628036152571
1772798002275421400,4.89042138671875,4.011372653388976,-3.411194637148082,-1.8262131182499228
1772798002285448200,4.9004482421875,1.4159025709569453,-4.0842219087615605,-2.6384868018597363
1772798002295475500,4.910475341796875,-1.3807903410434723,-4.7712125315368175,-2.742554786838591
1772798002305501400,4.92050146484375,-4.589060313141346,-4.991721660855412,-2.2436763137765228
1772798002315528400,4.930528564453125,-10.581354269802569,-5.0889294046759606,-1.7007514859780668
1772798002325555200,4.94055517578125,-17.65815377397537,-5.080734407782554,-0.2755632733467966
1772798002335581400,4.95058154296875,-23.862673600256443,-5.213818351626396,0.6766604404840618
1772798002345608400,4.9606083984375,-27.909409827971455,-5.35978515791893,1.4097902255564927
1772798002355635500,4.970635498046875,-31.842491619455814,-4.523141149292886,2.5275118139714
1772798002365661400,4.980661376953125,-37.502896385240554,-1.9257228554025292,5.128834129562974
1772798002375688200,4.990688232421875,-41.9027609912157,2.7171824451729654,8.981077712747455
1772798002385715500,5.000715576171875,-46.18249465842247,6.478834195545315,12.16705694258213
1772798002395741400,5.010741455078125,-47.1264694532156,8.008668266108632,9.815658651363849
1772798002405768400,5.0207685546875,-41.65693914146423,10.892916127443312,5.726427097746729
1772798002415795200,5.030795166015625,-32.69008343081474,11.486450175625086,6.258796190869808
1772798002425821400,5.040821533203125,-23.78754850890636,9.019694735911488,6.8200745676130055
1772798002435848400,5.050848388671875,-18.16152064449787,7.620639254859089,4.918499188256264
1772798002445875500,5.06087548828125,-15.448555817019939,5.722952115112543,3.9179178323611614
1772798002455901400,5.0709013671875,-14.329024548834562,4.013311804758012,3.8400200614273547
1772798002465928200,5.08092822265625,-12.720994308912754,3.035860856820643,3.5692379579424856
1772798002475955500,5.09095556640625,-9.962715006458758,2.1707086927212775,3.0562817135587332
1772798002485981400,5.1009814453125,-6.023190030184388,1.4148434172928332,2.279725093887746
1772798002496008400,5.111008544921875,-1.7601836258947847,0.7926718881696462,1.4172906643144785
1772798002506034400,5.121034423828125,2.0963269670844076,0.34712007775604725,0.7413414408396929
1772798002516061400,5.1310615234375,5.494681119620799,0.5207100733809172,0.14578794259428976
1772798002526088400,5.14108837890625,8.708933088737727,0.7587032753333449,-0.4749257889360189
1772798002536114400,5.151114501953125,11.594631148880719,1.3611401764169335,-1.17925274643749
1772798002546141400,5.161141357421875,14.62185131086707,2.1696289346605537,-1.3014065693356096
1772798002556168200,5.171168212890625,16.930648477721213,3.444003558555245,-1.4702575537398457
1772798002566194400,5.1811943359375,18.632091160833834,4.509723741576075,-1.6907905023254453
1772798002576221400,5.191221435546875,19.832944621443747,5.330509379073977,-2.0771482193619013
1772798002586248400,5.20124853515625,20.05791306825876,6.0033887666493655,-2.555698044013977
1772798002596274400,5.2112744140625,20.044237594127654,6.531765575265884,-3.2251579785346984
1772798002606301400,5.221301513671875,20.11153243024349,7.354824418392777,-3.6683413062512873
1772798002616328400,5.231328369140625,20.139762499427793,7.995135999840498,-4.019569988369941
1772798002626354400,5.2413544921875,19.828123484897613,8.626531868904829,-4.4010979471623894
1772798002636381400,5.25138134765625,18.890912777411938,9.377496366679669,-4.59013466437459
1772798002646408200,5.261408203125,17.52943036342859,9.986035091769695,-4.507313757824898
1772798002656434400,5.271434326171875,15.915752473008633,10.398476075220108,-4.317141899102926
1772798002666461400,5.28146142578125,14.24372059329748,10.160452916520834,-4.183374941430985
1772798002676488400,5.291488525390625,12.852136471039056,9.812962836408614,-3.8795287727341052
1772798002686514400,5.301514404296875,11.993327684617041,9.401931719756126,-3.342653600363433
1772798002696541400,5.31154150390625,11.463562636512517,8.78952813593149,-2.933624178922176
1772798002706568400,5.321568359375,11.071326236701012,7.998222275418042,-2.529794371950626
1772798002716594400,5.331594482421875,10.8184164745152,7.116017415839433,-2.020908299615234
1772798002726621400,5.341621337890625,10.671156705802678,6.394853013044595,-1.5378097256176173
1772798002736648400,5.3516484375,10.593647934186459,5.669886879879236,-1.1371272036958484
1772798002746674400,5.36167431640625,10.683314761108159,5.0197278581559654,-0.8071348594166338
1772798002756701400,5.371701416015625,10.765275251436233,4.205064502930641,-0.6968409856602549
1772798002766728400,5.381728515625,10.618497128760813,3.342109410484135,-0.6409035559915006
1772798002776754400,5.39175439453125,10.52432129998207,2.620747147029638,-0.45676359784491355
1772798002786781400,5.401781494140625,10.60886420801878,2.0531550570949912,-0.10627302074246107
1772798002796808400,5.411808349609375,10.42530796804428,1.5069826256774366,0.05098024565279483
1772798002806834400,5.42183447265625,10.187999095094204,0.9397912254981696,0.3219087718710303
1772798002816861400,5.431861328125,9.581594459423423,0.6675976477801799,0.3752219905160367
1772798002826888400,5.441888427734375,8.583167943474649,0.4629916055142879,0.3605054828993976
1772798002836914400,5.45191455078125,7.496148367315531,-0.048216224299557506,0.9198411280769854
1772798002846941400,5.46194140625,5.958775717940926,-0.5339354656569659,1.816591303423792
1772798002856967400,5.471967529296875,3.279572290289402,-1.0584821945913134,2.6108862627506255
1772798002866994400,5.481994384765625,-1.2282786431521178,-1.6743611994415522,3.173739925986528
1772798002877021400,5.492021484375,-6.732869162368774,-2.808425143109262,3.699925654299557
1772798002887047400,5.50204736328125,-12.55721595159769,-3.7569270599380133,4.244322162085771
1772798002897074400,5.512074462890625,-17.39162698984742,-4.501519392332434,4.6864413677021854
1772798002907101400,5.522101318359375,-22.419437616693973,-5.321304912877083,4.84268348429352
1772798002917127400,5.53212744140625,-31.015746196770667,-5.319627335053682,5.432791357418894
1772798002927154400,5.542154541015625,-42.13367519469261,-2.1163995949067176,7.079906822538375
1772798002937181400,5.552181396484375,-51.8560371381998,2.0812483481571076,9.09979352402091
1772798002947207400,5.56220751953125,-57.586563487958905,5.194921927976608,10.259089816361666
1772798002957234400,5.572234375,-54.52389324240684,6.879459653517603,7.749059298545122
1772798002967261400,5.582261474609375,-43.17971686377525,6.970594799426197,5.115009602349996
1772798002977287400,5.592287353515625,-30.585393124532697,5.910448617145419,4.810864450706541
1772798002987314400,5.602314453125,-21.83076562159061,3.3064982911378142,4.4583287776425475
1772798002997341400,5.612341552734375,-17.425394819414613,1.2503127803057432,4.483774476805329
1772798003007367400,5.622367431640625,-15.260082578909396,0.21300079951509832,4.3396079979330295
1772798003017394400,5.63239453125,-13.58546711244583,-0.2544330262303352,3.741849610054493
1772798003027421400,5.64242138671875,-11.79153669977188,-0.22710852758362887,3.428483333340287
1772798003037447400,5.652447509765625,-9.818672446227072,0.09947583488300442,3.0756323107168075
1772798003047474400,5.662474365234375,-7.221566287025809,0.597386485826224,1.972926943517476
1772798003057501400,5.67250146484375,-3.859071967899799,1.409546333798021,0.42167905965596436
1772798003067527400,5.68252734375,0.10212181934714316,2.315851907671243,-1.420223210635036
1772798003077554400,5.692554443359375,3.425975149911642,3.3136934633389115,-2.921365878112614
1772798003087581400,5.70258154296875,5.593494545072317,4.152217586623132,-3.987371307815611
1772798003097607400,5.712607421875,7.055411848229169,4.848558806067705,-4.3866088185608385
1772798003107634400,5.722634521484375,8.426354748997092,5.351171643352508,-4.432001619470119
1772798003117660400,5.732660400390625,9.97735377266407,5.8295408507406705,-4.185561930081248
1772798003127687400,5.7426875,11.58668398926854,6.278554199784994,-3.7628652178153392
1772798003137714400,5.75271435546875,13.537639193344116,6.789925513064861,-3.2739927365913983
1772798003147740400,5.762740478515625,15.091543875324724,6.809575385430454,-2.675734874758124
1772798003157767400,5.772767333984375,15.910028834664821,7.321198627644777,-2.0534267136432227
1772798003167794400,5.78279443359375,16.337370450127125,7.706331917452812,-1.6328708127982914
1772798003177819600,5.792819580078125,16.69131715903282,7.430076350992918,-1.5775909702554345
1772798003187846700,5.8028466796875,17.09915561712384,7.29172469587922,-1.5499856088407338
1772798003197873700,5.812873779296875,17.396002720713614,7.221039632803201,-1.473866538017243
1772798003207899600,5.822899658203125,17.80991436123848,6.777870918133854,-1.4520390293516219
1772798003217926700,5.8329267578125,17.736811715626715,6.692061351162195,-1.3176514555633068
1772798003227953700,5.84295361328125,17.362483897471428,6.842101690503955,-1.2361093367777765
1772798003237979600,5.852979736328125,16.524851170068978,7.153456042873859,-1.237602205684036
1772798003248006700,5.863006591796875,15.234590410256384,7.342538352793455,-1.0800975218109785
1772798003258033000,5.873032958984375,14.08917066757679,7.48331694279313,-0.8138982160717249
1772798003268059600,5.8830595703125,13.33717858031988,7.545812854194641,-0.6788053435582667
1772798003278086700,5.893086669921875,12.589303865253925,7.442178876718878,-0.5741045405685902
1772798003288112600,5.903112548828125,11.860320897662639,7.249627429383993,-0.43968708309866483
1772798003298139600,5.9131396484375,11.251195312595367,7.048226905161142,-0.4081573878470808
1772798003308166700,5.923166748046875,10.96304706376791,6.717140847361088,-0.44461862121671436
1772798003318192600,5.933192626953125,10.756860474312305,6.285104352080822,-0.41915414428822695
1772798003328219600,5.9432197265625,10.477755948162079,5.937869123512506,-0.2717873350046575
1772798003338246700,5.95324658203125,10.243851330697536,5.599459006434679,-0.11236885339953005
1772798003348272600,5.963272705078125,10.011561162692308,5.259439700594544,0.08885098049417138
1772798003358299600,5.973299560546875,9.781748198455572,4.955084413331747,0.22767083764150736
1772798003368326700,5.98332666015625,9.811727157133816,4.566553297778964,0.060253758497908705
1772798003378352600,5.9933525390625,10.212126989656687,4.250900371432304,-0.1895602296296507
1772798003388379600,6.003379638671875,10.293687667012215,3.907213482995331,-0.19804303048849103
1772798003398406700,6.01340673828125,9.780231948673725,3.2359143503487107,0.28838278823569413
1772798003408432600,6.0234326171875,8.971420826607941,2.2535357367508113,1.3414536253027618
1772798003418459600,6.033459716796875,7.701804795417189,1.557501829689741,2.3523073688872156
1772798003428485600,6.043485595703125,5.375774754211307,1.1409386517427862,3.0071880123049017
1772798003438512600,6.0535126953125,2.6486153971642254,0.722532330147177,3.3190900616854426
1772798003448539600,6.06353955078125,-0.05487082335054874,-0.2967379441268742,3.759174254342913
1772798003458565600,6.073565673828125,-5.330125932714343,-1.9593541991084813,4.877249478501081
1772798003468592600,6.083592529296875,-13.912635704541206,-3.952954658950865,6.383863416996598
1772798003478619600,6.09361962890625,-23.865989008414743,-5.520145815744995,7.075887650024891
1772798003488646000,6.10364599609375,-37.39150989394188,-4.901368020713329,7.691130841189622
1772798003498672600,6.113672607421875,-52.77982488501072,-2.124067645316571,8.566974349042773
1772798003508699600,6.12369970703125,-61.26990245685577,3.6785055573910475,8.923394170063734
1772798003518725600,6.1337255859375,-59.52410391466617,7.206957915958761,8.475568569499254
1772798003528752600,6.143752685546875,-51.51657488172054,5.314992076468467,6.1181269064635035
1772798003538779600,6.153779541015625,-40.12314902675151,4.791048574124276,2.4313401352003217
1772798003548805600,6.1638056640625,-27.70930694234371,4.5861946945771574,-0.1225495442174375
1772798003558832600,6.17383251953125,-19.02000326770544,2.8911662624210117,-0.3072361033961177
1772798003568859600,6.183859619140625,-15.283506709116697,1.5796901344917713,0.355944750855118
1772798003578886000,6.193885986328125,-13.84002171922922,0.809360280381143,0.6200580441005528
1772798003588912600,6.20391259765625,-12.426463081049919,1.0876200262703002,0.3969609441153705
1772798003598938600,6.213938720703125,-11.30605736811757,1.6721952535793185,-0.40127983022779223
1772798003608965600,6.223965576171875,-10.993517020833492,2.17682527590543,-1.4442021982461213
1772798003618992600,6.23399267578125,-9.489547459366918,2.8291236477449533,-1.9775261078760027
1772798003629019000,6.244018798828125,-5.807428972175717,3.5016187121778724,-2.3726925697900354
1772798003639045600,6.254045654296875,-1.523401991689205,4.127781064502894,-3.253913240636885
1772798003649072600,6.26407275390625,2.90187470344007,4.708103164412081,-3.907084595918655
1772798003659098600,6.2740986328125,7.055905184704065,5.181909301668405,-3.9176831468224522
1772798003669126000,6.2841259765625,10.644144780236482,5.674724967560172,-3.749851714724302
1772798003679152600,6.294152587890625,13.74724055967927,6.042837564462423,-3.503245144335925
1772798003689178600,6.3041787109375,16.349502786469458,6.070832655847072,-3.10353826251328
1772798003699205600,6.31420556640625,18.319231664597986,6.159037593522667,-2.6513416072577236
1772798003709231600,6.324231689453125,19.80395934997797,5.966761455997824,-2.4260393984436988
1772798003719259000,6.3342587890625,20.5495684581995,5.442023296144605,-1.9228931849345563
1772798003729285600,6.34428564453125,20.229549737858772,5.2719525606870645,-1.4519069274045526
1772798003739311600,6.3543115234375,19.4870713288784,5.252247158741951,-1.006040205822885
1772798003749338600,6.364338623046875,18.78154405567646,5.417267625072598,-0.45378980619851494
1772798003759366000,6.374365966796875,17.79894873058796,5.59598753093183,-0.15268387612048537
1772798003769391900,6.384391845703125,16.45368329191208,5.803146180289984,0.031319998023658986
1772798003779418600,6.394418701171875,15.140625009357928,6.059384210115671,0.39914643492829055
1772798003789445600,6.404445556640625,14.074029212546348,6.294529767552018,0.8304018993660807
1772798003799471600,6.4144716796875,13.084478076970576,6.347616630095243,1.2254676043193786
1772798003809499000,6.424498779296875,11.99502747427225,6.411010367119312,1.5163604026146231
1772798003819525600,6.434525634765625,11.014840379369259,6.390471436959505,1.601432449091971
1772798003829551600,6.444551513671875,10.169553922343253,6.195525203442573,1.4990458413287997
1772798003839578600,6.45457861328125,9.360360522961615,6.015312428677082,1.4228930143661795
1772798003849604600,6.4646044921875,8.294607606714964,5.805874143949151,1.2643749156668782
1772798003859631900,6.4746318359375,7.231306175273656,5.602793119293451,1.0723536296859384
1772798003869658600,6.48465869140625,6.472500316348672,5.455673051312566,0.9881907339427619
1772798003879684600,6.4946845703125,6.13171119517982,5.231145334002376,0.6454749555602669
1772798003889711600,6.504711669921875,6.216364577853679,4.913353642061352,0.12477032553944736
1772798003899739000,6.51473876953125,6.749245712152123,4.4013831938445565,-0.1384540560422465
1772798003909764900,6.524764892578125,7.2645800838440655,3.769052382017672,-0.4350158033519983
1772798003919791600,6.53479150390625,7.387969147625565,3.205652483075857,-0.4937848031848669
1772798003929818600,6.544818603515625,7.667478162923455,2.6066414647877214,-0.5299406238671391
1772798003939844600,6.5548447265625,8.195183355888723,2.009553523516655,-0.3659516194760799
1772798003949871900,6.564871826171875,8.277898463976383,1.484484085882455,-0.25912249922081826
1772798003959897900,6.57489794921875,8.12420661638975,1.1367143851112573,-0.0850159323759377
1772798003969924600,6.584924560546875,7.062475210744142,0.9015552375409751,0.06067052260525524
1772798003979951600,6.59495166015625,4.652050145539641,0.6516483104329556,0.1119803655385971
1772798003989977600,6.6049775390625,2.377683071553707,0.5731995545528829,0.42601723499074573
1772798004000004900,6.6150048828125,-0.7404547941982745,-0.18177074479721486,1.1947728255219756
1772798004010031600,6.625031494140625,-3.836228267928958,-2.06147514167279,2.567787125736475
1772798004020057600,6.6350576171875,-5.976527063208818,-3.8795273114293813,2.9503935274153945
1772798004030084600,6.645084716796875,-9.481366490998864,-4.9812359226763245,3.762445823359489
1772798004040111900,6.65511181640625,-15.950550230145453,-5.593137986719608,5.658762259274721
1772798004050137900,6.665137939453125,-24.6380699439764,-4.30028458006531,7.64997523945868
1772798004060164600,6.67516455078125,-33.54362567501068,-1.4624300749845802,8.08599700498283
1772798004070190600,6.685190673828125,-39.754862826848026,2.0656213015668095,7.421545254012942
1772798004080217600,6.695217529296875,-41.16346238131523,4.065129378017783,5.94774754344821
1772798004090244900,6.705244873046875,-37.66459150654077,4.66690781519264,4.214361323586106
1772798004100270800,6.715270751953125,-30.5615212505579,3.7029178218528624,3.549930907665193
1772798004110297600,6.725297607421875,-23.91737783486843,2.3918714636430143,3.1370360429674387
1772798004120324600,6.73532470703125,-20.395493164253235,1.6460624489352107,2.0586238438948987
1772798004130350600,6.7453505859375,-17.32111143811941,0.7129875991452485,1.4174784419715403
1772798004140377900,6.7553779296875,-13.946108935075998,-0.03862381823100149,0.775149164025858
1772798004150404600,6.765404541015625,-10.757070902192591,0.08425956105068326,0.004637742803245783
1772798004160430600,6.7754306640625,-7.962724845579266,0.21565131402388213,-0.7537829892616719
1772798004170457600,6.78545751953125,-6.036168169701099,0.3049889089912176,-1.0968723501969129
1772798004180483800,6.79548388671875,-4.397956142005324,0.2705398191615939,-1.5080955553553999
1772798004190510800,6.8055107421875,-2.6044746421426535,0.28483649393096566,-1.8704529497317968
1772798004200537900,6.815537841796875,-0.7707698529630899,0.29962372869625686,-2.410816694870591
1772798004210563800,6.825563720703125,1.210471183782816,0.5631608294889331,-2.896227052941918
1772798004220590800,6.8355908203125,3.1647458876699206,0.8391828794538975,-3.595445581388473
1772798004230617900,6.845617919921875,5.493139150875806,1.1369663871109486,-4.005736693328619
1772798004240643800,6.855643798828125,8.035313111928104,1.179720656210184,-4.57501688248068
1772798004250670800,6.8656708984375,10.40611694536209,1.1900684472233056,-4.607275184267759
1772798004260696800,6.87569677734375,12.919591466152667,0.9547995556682348,-4.110777322731912
1772798004270723800,6.885723876953125,14.941386047083139,0.6342829688079655,-3.640344461300969
1772798004280750800,6.895750732421875,15.941670173597334,0.5544251498475671,-3.1125057050839064
1772798004290776800,6.90577685546875,16.04857805817723,0.5949775249883532,-2.5829592681661246
1772798004300803800,6.915803955078125,15.728195765221118,0.7004441247187554,-2.226026236926019
1772798004310830800,6.925830810546875,14.894623126864433,1.0030863244533539,-1.9306841310717164
1772798004320856800,6.93585693359375,13.909991327512264,1.3858517160862684,-1.5699050919279456
1772798004330883800,6.9458837890625,13.26919868454933,1.7222686135202645,-1.1877307980559766
1772798004340910800,6.955910888671875,13.069808915627002,2.090019537503272,-0.824933477892354
1772798004350936800,6.965936767578125,12.714568075257539,2.4692577779233456,-0.6361323230016976
1772798004360963800,6.9759638671875,11.781454866218565,2.5959797855198383,-0.2621108673818409
1772798004370989800,6.98598974609375,10.478042363888024,2.744964478328824,0.2145310778222978
1772798004381016800,6.996016845703125,9.0695065223068,2.8144799131035803,0.6065622373852878
1772798004391043800,7.0060439453125,8.171834629005193,2.8295038792341947,0.7466156549155711
1772798004401069800,7.01606982421875,7.67515176629126,2.8657687863141295,0.6891584683336317
1772798004411096800,7.026096923828125,7.103823704698682,2.83055718767941,0.5479935093648731
1772798004421123800,7.036123779296875,6.825392547765373,2.792326533484459,0.37940490222387013
1772798004431150000,7.046150146484375,6.864516351407766,2.582494865524769,0.2960695433460176
1772798004441176800,7.0561767578125,7.082924124532938,2.2772680561244485,0.2867527028158307
1772798004451202800,7.066202880859375,7.177706687033176,1.8854881679087876,0.42314745170809326
1772798004461229800,7.076229736328125,7.354079737505316,1.5326456208527088,0.5889087264686823
1772798004471256800,7.0862568359375,7.413677589377761,1.3393411631934344,0.7886052963178605
1772798004481283000,7.096282958984375,7.070910446134209,1.2442854828402399,0.8529189977310597
1772798004491309800,7.106309814453125,6.451008030986785,1.0475639102138579,0.8255074053227901
1772798004501336800,7.1163369140625,5.481079295247793,0.7543893576569854,0.6374684669762849
1772798004511362800,7.12636279296875,4.016577236294746,0.4069564145594835,0.34447862333655355
1772798004521390000,7.13639013671875,2.625830149382353,0.04017828113138675,0.19084464341700075
1772798004531416000,7.146416015625,1.367517602494359,-0.5404647212952375,0.11445062810964882
1772798004541442800,7.15644287109375,-0.597146977981925,-1.6006652641117571,0.5314336389038712
1772798004551469800,7.1664697265625,-2.6820915503084657,-3.4915737035036085,1.5791140881694852
1772798004561495800,7.176495849609375,-5.482237233111262,-5.58714722187221,3.2239024255156514
1772798004571523000,7.186523193359375,-10.154368043649196,-7.128439675039052,4.845642041838169
1772798004581549800,7.1965498046875,-15.298864437246321,-7.313500474357604,5.787510219740867
1772798004591575800,7.206575927734375,-18.764230517303943,-6.543681638509034,6.134587627398967
1772798004601602800,7.216602783203125,-22.153793460619447,-3.9692616506293414,5.735278512722253
1772798004611630000,7.226630126953125,-26.039126827979086,-1.053139226128161,4.168825314813852
1772798004621656000,7.236656005859375,-28.291965376245972,0.0903944105438888,3.028381606981158
1772798004631682800,7.246682861328125,-28.11470326797962,0.3954644219473004,2.019986362464726
1772798004641708800,7.256708740234375,-26.178729359936714,0.7946747524246573,0.5393894932791591
1772798004651735800,7.26673583984375,-24.24641923509836,0.5571272484131157,-0.19064948617108166
1772798004661763000,7.27676318359375,-22.274953157913682,0.5472738167881965,-0.3382060458730906
1772798004671789000,7.2867890625,-19.69461400911808,-0.09382087786123156,-0.3385362276755273
1772798004681815800,7.29681591796875,-15.88499960734844,-1.079386450932175,-0.2272450134448707
1772798004691841800,7.306841796875,-11.395490386283397,-2.0956988983139393,-0.6188968913666903
1772798004701868800,7.316868896484375,-7.267399817439913,-2.5288129596978424,-1.2236512756124138
1772798004711896000,7.32689599609375,-4.295557843804359,-2.371031943101436,-1.7303474366880953
1772798004721922000,7.336922119140625,-1.9682038605183363,-1.9903776984035968,-1.5812854408591985
1772798004731948800,7.34694873046875,-0.16168518442809582,-1.4908835776612162,-1.3298720547109841
1772798004741975800,7.356975830078125,1.8589415217667817,-0.8961421995162964,-1.5473554064676165
1772798004752001800,7.367001708984375,4.61928360196948,0.0077186115533113475,-1.8935472634628414
1772798004762029000,7.377029052734375,7.536926952427625,0.6806605429708957,-2.076576264692843
1772798004772055800,7.387055908203125,9.911113414037228,1.4502654438078402,-2.2035084079086777
1772798004782081800,7.397081787109375,12.150171274232864,2.0371327275767923,-2.5843381553038953
1772798004792108800,7.40710888671875,14.255647177934646,2.4180834710031744,-2.5545763465076683
1772798004802134800,7.417134765625,15.442500170242786,2.756533043308556,-2.3938573767632243
1772798004812162000,7.427162109375,16.06788481619358,3.2273689325824377,-2.4329741661429405
1772798004822188800,7.437188720703125,16.266512368571757,3.529325634270906,-2.33106672019884
1772798004832214800,7.44721484375,16.143295154225825,3.8889302228078244,-2.289107400869578
1772798004842241800,7.45724169921875,15.868154855531452,4.277765289743244,-2.3733749990962445
1772798004852267800,7.467267822265625,15.443021563768387,4.46158865622133,-2.260536409293115
1772798004862295000,7.477294921875,14.346009585905074,4.752620351530611,-2.027434632644057
1772798004872321800,7.48732177734375,13.267823889064788,4.877601068417728,-1.91620493934229
1772798004882347800,7.49734765625,11.786254959976672,4.878745270016789,-1.7324297959201036
1772798004892374800,7.507374755859375,10.354389096212387,4.876025489664078,-1.463167887739837
1772798004902402000,7.517402099609375,9.400322530993819,4.78926987401396,-1.204852247922495
