time,seconds_elapsed,z,y,x
1772797748269693700,0.096693603515625,0.0006351607153192163,0.09813792258501053,0.10057404637336731
1772797748279719700,0.1067197265625,-0.0012034857645630836,0.09063153713941574,0.08890087902545929
1772797748289746700,0.11674658203125,-0.0020173981320112944,0.04743196815252304,0.02957715094089508
1772797748299772700,0.126772705078125,0.0012729372829198837,-0.029377590864896774,-0.03708230331540108
1772797748309799700,0.136799560546875,0.0006236025365069509,-0.09149859845638275,-0.07107438147068024
1772797748319825700,0.14682568359375,0.0006531635299324989,-0.08915182203054428,-0.06872707605361938
1772797748329852700,0.156852783203125,0.0018573157722130418,-0.029767896980047226,-0.033216167241334915
1772797748339879000,0.16687890625,-0.00012807082384824753,0.030468281358480453,0.020601259544491768
1772797748349905000,0.17690478515625,-0.0007786985952407122,0.060003574937582016,0.0585176944732666
1772797748359931600,0.186931640625,-0.0015574067365378141,0.060707978904247284,0.06042931228876114
1772797748369957600,0.19695751953125,0.0010414692806079984,0.03516106680035591,0.025729134678840637
1772797748379984600,0.206984619140625,-0.0018121078610420227,-0.012072757817804813,-0.013816677033901215
1772797748390010600,0.2170107421875,-0.0007075290195643902,-0.04977623373270035,-0.042757730931043625
1772797748400036600,0.22703662109375,0.0004860998596996069,-0.05966002494096756,-0.04565684497356415
1772797748410063600,0.237063720703125,0.001204152824357152,-0.025426212698221207,-0.027127735316753387
1772797748420089600,0.247089599609375,0.002676880918443203,0.01758410409092903,0.008243303745985031
1772797748430116600,0.25711669921875,-0.002177818212658167,0.03699435666203499,0.03577275574207306
1772797748440142600,0.267142578125,0.00037535419687628746,0.04072997346520424,0.03837412968277931
1772797748450168600,0.27716845703125,-0.000009212642908096313,0.024369582533836365,0.019061775878071785
1772797748460195800,0.28719580078125,-0.0004185405559837818,-0.00410893140360713,-0.007939216680824757
1772797748470221800,0.297221923828125,0.0012108648661524057,-0.028837142512202263,-0.0276850126683712
1772797748480248600,0.30724853515625,0.001764802378602326,-0.037214651703834534,-0.033128783106803894
1772797748490274600,0.317274658203125,-0.0009008338674902916,-0.018418848514556885,-0.02031739056110382
1772797748500301600,0.327301513671875,-0.000679791672155261,0.0071264575235545635,0.0027112301904708147
1772797748510327600,0.33732763671875,0.0016596964560449123,0.023601289838552475,0.022084416821599007
1772797748520353800,0.347353759765625,0.0028378788847476244,0.02574247121810913,0.025607246905565262
1772797748530380800,0.357380859375,-0.0025985203683376312,0.017859172075986862,0.015359854325652122
1772797748540406800,0.36740673828125,-0.0014653452672064304,-0.0015097325667738914,-0.004386952146887779
1772797748550433500,0.37743359375,-0.001093846745789051,-0.019387250766158104,-0.01781116984784603
1772797748560459500,0.38745947265625,0.0024295151233673096,-0.02417082153260708,-0.01972624845802784
1772797748570486800,0.39748681640625,-0.0010586869902908802,-0.011931145563721657,-0.008873486891388893
1772797748580512800,0.4075126953125,0.0010310955112800002,0.0033178485464304686,0.0026247105561196804
1772797748590538800,0.417538818359375,-0.000721468823030591,0.015028071589767933,0.012596862390637398
1772797748600565800,0.427565673828125,0.0016263739671558142,0.01389383152127266,0.017108790576457977
1772797748610591700,0.437591796875,0.0014963860157877207,0.009900132194161415,0.010663973167538643
1772797748620618500,0.447618408203125,0.00018371385522186756,0.00018465425819158554,-0.0029216106049716473
1772797748630644500,0.45764453125,0.0014488577144220471,-0.01086258515715599,-0.011688397265970707
1772797748640670700,0.467670654296875,-0.0011591759975999594,-0.011734504252672195,-0.01282583363354206
1772797748650697700,0.47769775390625,0.0019280200358480215,-0.014337362721562386,-0.010893681086599827
1772797748660723700,0.4877236328125,-0.0008986592292785645,-0.0011307471431791782,0.0004340740852057934
1772797748670750700,0.497750732421875,0.0011915023205801845,0.011500999331474304,0.0063742962665855885
1772797748680776700,0.507776611328125,-0.00034061423502862453,0.015310117974877357,0.012153356336057186
1772797748690803700,0.5178037109375,0.001465248758904636,0.008706025779247284,0.009970871731638908
1772797748700829700,0.52782958984375,0.001019435585476458,0.003802347695454955,0.002447974169626832
1772797748710855700,0.537855712890625,0.00007113651372492313,-0.005674971733242273,-0.005451124161481857
1772797748720882700,0.547882568359375,-0.0005171557422727346,-0.009889956563711166,-0.008994726464152336
1772797748730908700,0.55790869140625,-0.00006100209429860115,-0.00974586233496666,-0.00657388661056757
1772797748740935700,0.567935791015625,0.0009597874013707042,0.00026735663414001465,-0.0017506354488432407
1772797748750961700,0.577961669921875,-0.000691249268129468,0.006616359110921621,0.00572262704372406
1772797748760988700,0.58798876953125,-0.002577566308900714,0.008942363783717155,0.006823844276368618
1772797748771014100,0.59801416015625,0.000010333722457289696,0.009352253749966621,0.00755749735981226
1772797748781040000,0.6080400390625,-0.00048528052866458893,-0.0016758963465690613,0.00348152918741107
1772797748791067100,0.618067138671875,0.0010597299551591277,-0.005472310818731785,-0.00629821652546525
1772797748801093000,0.628093017578125,0.0014014134649187326,-0.006495497189462185,-0.007308885920792818
1772797748811120000,0.6381201171875,0.0017570559866726398,-0.006719779688864946,-0.005897874478250742
1772797748821146000,0.64814599609375,0.0005333335138857365,-0.0019021211192011833,-0.001659453846514225
1772797748831173000,0.658173095703125,0.000938179437071085,0.0025256872177124023,0.003778130980208516
1772797748841199000,0.66819921875,0.00017624907195568085,0.003417047206312418,0.0053733643144369125
1772797748851225000,0.67822509765625,-0.000492422841489315,0.002625396940857172,0.0035600578412413597
1772797748861252000,0.688252197265625,0.00035126658622175455,-0.0012098210863769054,0.0004156637005507946
1772797748871278000,0.698278076171875,-0.0014194559771567583,-0.0035050706937909126,-0.002618736121803522
1772797748881305000,0.70830517578125,0.00030227762181311846,-0.005291253328323364,-0.0040983883664011955
1772797748891331000,0.7183310546875,-0.00122528662905097,-0.005869927816092968,-0.0044134859926998615
1772797748901358000,0.728358154296875,-0.00025776028633117676,-0.0017436263151466846,0.00047048507258296013
1772797748911384000,0.738384033203125,0.0017098941607400775,0.00006687641143798828,0.0037758084945380688
1772797748921410000,0.74841015625,-0.0008214404806494713,0.0038142104167491198,0.004039461724460125
1772797748931437000,0.75843701171875,-0.0015450650826096535,0.003889311570674181,0.003411488141864538
1772797748941463000,0.768463134765625,0.0004842635244131088,-0.00013099657371640205,0.00011289678514003754
1772797748951490000,0.778489990234375,-0.0002328741829842329,-0.002507090102881193,-0.0019539466593414545
1772797748961516000,0.78851611328125,0.00039696332532912493,-0.00438488507643342,-0.004198192618787289
1772797748971543000,0.79854296875,0.0004957889905199409,-0.0027869963087141514,-0.000026605091989040375
1772797748981569000,0.808569091796875,-0.0011583003215491772,-0.00041731540113687515,0.0006343914428725839
1772797748991595000,0.818594970703125,-0.001531063113361597,0.0014322572387754917,0.0016754092648625374
1772797749001622300,0.828622314453125,0.0016080050263553858,0.0035609218757599592,0.001647712429985404
1772797749011648300,0.838648193359375,0.001317622372880578,0.0026486371643841267,0.0005715591832995415
1772797749021675000,0.848675048828125,-0.0026177307590842247,0.002769278362393379,0.002004339825361967
1772797749031701000,0.858700927734375,-0.0010760906152427197,-0.0017033852636814117,-0.0003277601208537817
1772797749041728000,0.86872802734375,-0.0014436068013310432,-0.0031055398285388947,-0.001194619107991457
1772797749051754000,0.87875390625,-0.0005312070716172457,-0.0011797347106039524,-0.0007483926601707935
1772797749061781200,0.88878125,0.0013942583464086056,-0.0002894401550292969,0.00004842504858970642
1772797749071807200,0.89880712890625,-0.000722456956282258,0.0011450457386672497,0.00170947948936373
1772797749081833200,0.908833251953125,0.0003151105483993888,0.000532784964889288,0.0005392865277826786
1772797749091860000,0.91885986328125,-0.002166895428672433,0.0018488755449652672,0.0013662707060575485
1772797749101886000,0.928885986328125,0.00020997575484216213,0.0005639004521071911,0.00028156512416899204
1772797749111913200,0.938913330078125,-0.00019375700503587723,0.0009048506617546082,-0.00020962907001376152
1772797749121939200,0.948939208984375,-0.0003849719651043415,-0.0032954872585833073,0.0005371214356273413
1772797749131966200,0.95896630859375,-0.001567070372402668,0.001449689269065857,-0.001425291644409299
1772797749141992200,0.9689921875,0.002443650271743536,-0.0010542147792875767,0.0016708995681256056
1772797749152019000,0.97901904296875,0.0021936208941042423,0.002631974872201681,-0.00008780928328633308
1772797749162045000,0.989044921875,0.00011102878488600254,-0.00009456928819417953,0.0003015447873622179
1772797749172071000,0.99907080078125,-0.00003367173485457897,0.0023207664489746094,0.0007042459910735488
1772797749182098200,1.00909814453125,0.00028564129024744034,0.002554325619712472,-0.0015450597275048494
1772797749192124200,1.019124267578125,-0.0005152137018740177,-0.0008974759839475155,-0.0017353009898215532
1772797749202151200,1.029151123046875,-0.0026761023327708244,0.0025593070313334465,-0.0005493953358381987
1772797749212177200,1.03917724609375,0.0004639429971575737,-0.000640129204839468,0.0009276727214455605
1772797749222204200,1.0492041015625,-0.00021889153867959976,0.0020129119511693716,0.004077127203345299
1772797749232230100,1.059230224609375,-0.00034752022475004196,0.00021240673959255219,-0.0010229237377643585
1772797749242256100,1.069256103515625,0.0003944365307688713,0.0004947017878293991,-0.0008487529121339321
1772797749252283100,1.079283203125,-0.00036021042615175247,-0.004309950862079859,0.0008685258217155933
1772797749262309000,1.08930908203125,-0.0015256097540259361,-0.003125909250229597,0.00038542854599654675
1772797749272336100,1.099336181640625,-0.0011204720940440893,0.0005059731192886829,0.0004522798117250204
1772797749282362000,1.109362060546875,0.0000878041610121727,0.0009621726348996162,-0.002203690819442272
1772797749292389000,1.11938916015625,-0.00061810202896595,-0.0013972725719213486,-0.0011953867506235838
1772797749302415000,1.1294150390625,-0.0011057269293814898,-0.0006931331008672714,0.000996927497908473
1772797749312442000,1.139442138671875,0.0003296963404864073,0.002492728177458048,0.0019603674300014973
1772797749322468000,1.149468017578125,0.0012466227635741234,0.0033689080737531185,0.003266115440055728
1772797749332494000,1.159494140625,0.0009130743565037847,0.0012992210686206818,0.003376920474693179
1772797749342521000,1.16952099609375,-0.000011841533705592155,-0.0012528863735496998,0.00041548535227775574
1772797749352547000,1.179547119140625,-0.0005381770897656679,0.0002467110753059387,-0.0007418754976242781
1772797749362574000,1.189573974609375,-0.0021704284008592367,-0.00383831188082695,-0.005153934471309185
1772797749372600000,1.19960009765625,-0.0031876363791525364,-0.0028453487902879715,-0.0021147411316633224
1772797749382627000,1.209626953125,0.0004766067722812295,0.0004955870099365711,-0.000522170914337039
1772797749392653000,1.219653076171875,0.0016646510921418667,0.0018970223609358072,0.0015730332816019654
1772797749402680000,1.22968017578125,0.0013812907272949815,0.0033457819372415543,0.004172544926404953
1772797749412706000,1.2397060546875,0.0006991979898884892,0.0027852747589349747,0.0010554005857557058
1772797749422732000,1.24973193359375,-0.0026254921685904264,0.0003375634551048279,0.0036892667412757874
1772797749432759000,1.259759033203125,0.0009405907476320863,-0.0017660469748079777,-0.0020751855336129665
1772797749442785000,1.269784912109375,0.0024258357007056475,-0.00003099767491221428,-0.0038131647743284702
1772797749452812300,1.279812255859375,-0.0018516296986490488,-0.004283224232494831,-0.0017053503543138504
1772797749462838300,1.28983837890625,-0.0016990306321531534,-0.004389218054711819,-0.0027240095660090446
1772797749472865000,1.299864990234375,-0.0014189505018293858,0.00007488764822483063,-0.0015806821174919605
1772797749482891000,1.30989111328125,-0.003513526637107134,0.002997440518811345,0.00014158408157527447
1772797749492918000,1.31991796875,0.0003374931402504444,0.005781529936939478,0.0026116271037608385
1772797749502944000,1.329944091796875,-0.0021970372181385756,0.004300812259316444,0.002235056133940816
1772797749512970200,1.33997021484375,-0.0014492964837700129,-0.002592866774648428,0.00004985160194337368
1772797749522997200,1.349997314453125,0.001509741647168994,-0.002222953364253044,-0.0020774812437593937
1772797749533023200,1.360023193359375,0.0006565955700352788,-0.0020090006291866302,-0.0012992499396204948
1772797749543050000,1.370050048828125,0.0005729723488911986,-0.004356311168521643,-0.0013197562657296658
1772797749553076000,1.380075927734375,0.00045679928734898567,-0.0023762290365993977,-0.0006236433982849121
1772797749563103200,1.390103271484375,0.00023389258421957493,0.002437966875731945,0.0016240646364167333
1772797749573129200,1.400129150390625,-0.0013677382376044989,-0.0007044477388262749,-0.000802044291049242
1772797749583156200,1.41015625,-0.00201541930437088,0.0031315695960074663,0.0025404891930520535
1772797749593182200,1.42018212890625,-0.0010850746184587479,-0.0012447955086827278,0.0004160730168223381
1772797749603208200,1.430208251953125,0.000672611640766263,-0.00040936190634965897,-0.0002537120599299669
1772797749613235000,1.44023486328125,-0.00014694617129862309,-0.0007773893885314465,-0.0009150116238743067
1772797749623261200,1.45026123046875,-0.0003852990921586752,-0.00219925120472908,-0.0007682715076953173
1772797749633288200,1.4602880859375,0.0009982523042708635,-0.0035638553090393543,0.000708451378159225
1772797749643314200,1.470314208984375,0.002085088286548853,-0.0002543446607887745,0.0007840851321816444
1772797749653341000,1.4803408203125,0.0015060482546687126,-0.0014349455013871193,0.0009963758056983352
1772797749663367000,1.490366943359375,0.0016368094366043806,0.0007544392719864845,0.002430754480883479
1772797749673394200,1.500394287109375,-0.0005449692253023386,0.001726608257740736,0.0011106571182608604
1772797749683420200,1.510420166015625,0.001188216032460332,0.0003609391860663891,0.0025897768791764975
1772797749693447200,1.520447265625,0.0007552687311545014,-0.0009707636199891567,-0.0008670254610478878
1772797749703473200,1.53047314453125,-0.002435731003060937,-0.0004479852505028248,-0.00023798691108822823
1772797749713499100,1.5404990234375,-0.0004059376660734415,-0.0020514600910246372,0.0017726749647408724
1772797749723526000,1.55052587890625,0.0014686614740639925,0.000765631441026926,-0.0015011490322649479
1772797749733551900,1.5605517578125,0.0001674408558756113,0.00007347576320171356,0.00129570288117975
1772797749743579100,1.5705791015625,0.0005591919180005789,0.0012319511733949184,0.001985994167625904
1772797749753605000,1.580605224609375,-0.002455923007801175,0.0007617734372615814,0.0016805236227810383
1772797749763632000,1.590632080078125,-0.00036906986497342587,0.0014707068912684917,-0.001936847809702158
1772797749773658600,1.60065869140625,0.0009509297087788582,-0.0009956248104572296,-0.0014921368565410376
1772797749783684600,1.6106845703125,-0.0010943780653178692,-0.001166333444416523,0.002038682112470269
1772797749793711600,1.620711669921875,-0.00012614764273166656,0.00008774874731898308,0.0005814002361148596
1772797749803737600,1.630737548828125,0.0015726827550679445,-0.00020573148503899574,0.0004176159854978323
1772797749813764600,1.6407646484375,0.00018735509365797043,0.003069461788982153,0.0015179379843175411
1772797749823790600,1.65079052734375,0.0005269082030281425,0.0021024681627750397,0.002309429459273815
1772797749833817600,1.660817626953125,-0.0000029688235372304916,0.00017864257097244263,-0.00045980256982147694
1772797749843843600,1.670843505859375,0.00030249578412622213,-0.0005236328579485416,-0.001254223519936204
1772797749853870600,1.68087060546875,-0.0006907971110194921,-0.002116700168699026,-0.0020977093372493982
1772797749863896600,1.690896484375,-0.0015645802486687899,0.0009227655827999115,-0.0005293735302984715
1772797749873923600,1.700923583984375,-0.0002287647221237421,0.0032322017941623926,0.002873980673030019
1772797749883949600,1.710949462890625,-0.0003938807640224695,-0.0008320482447743416,0.001473690615966916
1772797749893975600,1.7209755859375,-0.001480726059526205,0.0013551916927099228,-0.00030129984952509403
1772797749904002600,1.73100244140625,0.00085513258818537,-0.003499750979244709,0.0001583618577569723
1772797749914028500,1.741028564453125,0.0002647589426487684,-0.0011865291744470596,0.0011258882004767656
1772797749924055600,1.7510556640625,0.0004586371360346675,-0.0005100863054394722,0.0010574449552223086
1772797749934081500,1.76108154296875,-0.0012186106760054827,0.0026856025215238333,-0.001381897833198309
1772797749944108500,1.771108642578125,-0.0007608134765177965,-0.0017336467280983925,-0.0020815101452171803
1772797749954134500,1.781134521484375,-0.0008411942981183529,0.000961406622081995,-0.0007568583823740482
1772797749964161500,1.79116162109375,0.000246973242610693,-0.000566182192414999,-0.002882593311369419
1772797749974187500,1.8011875,0.0013029493857175112,0.0010711969807744026,-0.0004988419823348522
1772797749984213500,1.811213623046875,0.0022995041217654943,0.0008171312510967255,0.0011400672374293208
1772797749994240500,1.821240478515625,0.00014169816859066486,0.0011940496042370796,0.00005561159923672676
1772797750004266500,1.8312666015625,-0.000019156839698553085,0.00031147804111242294,0.0017174240201711655
1772797750014293800,1.841293701171875,0.0014265428762882948,-0.0022378861904144287,-0.002151679480448365
1772797750024319700,1.85131982421875,-0.0012968056835234165,-0.0025603948161005974,0.0005301239434629679
1772797750034346500,1.861346435546875,0.00005762488581240177,-0.0010026497766375542,0.0004934114404022694
1772797750044372500,1.87137255859375,0.0022840274032205343,-0.0014889426529407501,0.0023086220026016235
1772797750054399500,1.8813994140625,0.00010418449528515339,0.0016370117664337158,0.001368496217764914
1772797750064425500,1.891425537109375,-0.0004758520517498255,0.0011187605559825897,0.0019282926805317402
1772797750074451500,1.901451416015625,-0.0015638363547623158,0.00020672986283898354,0.001696879044175148
1772797750084478700,1.911478759765625,-0.00031481380574405193,-0.0016686683520674706,0.00024172780103981495
1772797750094504700,1.921504638671875,0.0017904997803270817,-0.0023895977064967155,-0.003483452135697007
1772797750104531500,1.931531494140625,-0.002389065222814679,-0.0025216899812221527,-0.0009947281796485186
1772797750114557400,1.941557373046875,-0.0017822212539613247,-0.0036304364912211895,0.0002677908632904291
1772797750124584400,1.95158447265625,-0.00004424247890710831,-0.0011992370709776878,0.005066008307039738
1772797750134610700,1.961610595703125,-0.0005748716648668051,-0.000009790994226932526,0.0026229231152683496
1772797750144637700,1.9716376953125,0.0005311390850692987,0.0005079274997115135,-0.000666347099468112
1772797750154663700,1.98166357421875,-0.0005107272882014513,0.0022049578838050365,-0.0006367296446114779
1772797750164689700,1.991689697265625,0.0007987490389496088,-0.002229738049209118,-0.0022532683797180653
1772797750174716400,2.00171630859375,-0.0012341935653239489,-0.002890635747462511,-0.004309229552745819
1772797750184742400,2.011742431640625,0.0009578543249517679,0.002376031130552292,-0.00012939819134771824
1772797750194769700,2.021769775390625,0.0022375117987394333,0.0005761673673987389,0.0002764833625406027
1772797750204795600,2.031795654296875,-0.002060031285509467,0.0027162833139300346,0.00141152273863554
1772797750214822700,2.04182275390625,-0.00040840869769454,0.0012370748445391655,0.0020157648250460625
1772797750224848400,2.051848388671875,-0.000527185620740056,0.0018927452620118856,0.0007425073999911547
1772797750234875400,2.06187548828125,0.000015185913071036339,0.00313370069488883,-0.0014014209154993296
1772797750244901600,2.071901611328125,-0.0013552769087255,0.00043511949479579926,-0.0004967451095581055
1772797750254927600,2.081927734375,0.0012838296825066209,-0.0009109005331993103,-0.000898236408829689
1772797750264954600,2.09195458984375,0.0007386805955320597,0.0029086051508784294,-0.00217495602555573
1772797750274980600,2.101980712890625,-0.00001023709774017334,0.0046824379824101925,0.0033383634872734547
1772797750285007400,2.11200732421875,0.0014166845940053463,0.003827563254162669,0.0031149243004620075
1772797750295033300,2.122033447265625,0.0012739801313728094,0.001238476950675249,0.0015056326519697905
1772797750305060600,2.132060546875,0.0007061942014843225,0.0017117206007242203,0.0007226633606478572
1772797750315086600,2.142086669921875,0.0022995523177087307,0.001216437667608261,-0.0020792759023606777
1772797750325113600,2.152113525390625,-0.00046400981955230236,-0.0002917102538049221,-0.0018068347126245499
1772797750335139600,2.1621396484375,-0.0014448394067585468,-0.0011829379945993423,-0.0009940380696207285
1772797750345165600,2.17216552734375,0.0007184463320299983,0.0032991620246320963,-0.0022955250460654497
1772797750355192600,2.182192626953125,0.0015176814049482346,0.0026107216253876686,0.0006112207192927599
1772797750365218600,2.192218505859375,0.0011472356272861362,0.0007971087470650673,0.0009467790368944407
1772797750375245600,2.20224560546875,0.0009039342403411865,0.003681942354887724,-0.0004690159112215042
1772797750385271600,2.212271484375,-0.0025019822642207146,0.0019847098737955093,-0.0004325304180383682
1772797750395298600,2.222298583984375,-0.00016286666505038738,0.00022149737924337387,-0.0017823665402829647
1772797750405324500,2.232324462890625,-0.001056889770552516,0.00014985818415880203,-0.002602354157716036
1772797750415351600,2.2423515625,0.0011030894238501787,-0.002137648407369852,-0.0012193191796541214
1772797750425377500,2.25237744140625,0.0010708651971071959,-0.0012153959833085537,-0.0009580631740391254
1772797750435403500,2.262403564453125,-0.0023627642076462507,0.0008932705968618393,0.00035957666113972664
1772797750445430500,2.272430419921875,0.0046836938709020615,0.0035569642204791307,-0.0012537662405520678
1772797750455456500,2.28245654296875,0.0023396301548928022,0.0007813582196831703,-0.0015425863675773144
1772797750465483800,2.29248388671875,0.0016962105873972178,0.0005970676429569721,-0.0018006465397775173
1772797750475509800,2.302509765625,-0.0012993139680474997,0.0012906920164823532,-0.0013718840200453997
1772797750485536500,2.31253662109375,-0.0005405794363468885,-0.0005362364463508129,0.00024492107331752777
1772797750495562500,2.3225625,0.0026847757399082184,0.0014814888127148151,0.002482273615896702
1772797750505588500,2.33258837890625,-0.0012764099519699812,0.000780545175075531,-0.0012197864707559347
1772797750515615500,2.342615478515625,0.0004948305431753397,-0.0014319387264549732,0.0012369295582175255
1772797750525641500,2.352641357421875,0.0008421067614108324,0.0033297929912805557,0.0009168175747618079
1772797750535668700,2.362668701171875,0.0013136407360434532,0.0012119542807340622,0.0024478284176439047
1772797750545694500,2.372694580078125,-0.00019424105994403362,0.0015429854393005371,0.0008107833564281464
1772797750555721500,2.382721435546875,-0.0008507957682013512,0.0005305847153067589,0.0007484955713152885
1772797750565747500,2.39274755859375,-0.0012164479121565819,-0.0006627780385315418,0.0006153375143185258
1772797750575774700,2.402774658203125,0.001178084989078343,-0.002345220185816288,-0.0007057623006403446
1772797750585800700,2.41280078125,0.001062503783032298,-0.0014384137466549873,-0.0009371910709887743
1772797750595826700,2.42282666015625,-0.002556069288402796,-0.0012346841394901276,-0.0004999053198844194
1772797750605853400,2.432853515625,-0.001035670517012477,-0.003713554237037897,-0.002235220978036523
1772797750615879400,2.44287939453125,-0.0013293561059981585,-0.0015640170313417912,-0.0021837675012648106
1772797750625906400,2.452906494140625,-0.0008569112978875637,0.0025308593176305294,-0.0007749556098133326
1772797750635932400,2.462932373046875,0.0001560801174491644,0.003561108373105526,0.0005416154162958264
1772797750645959700,2.472959716796875,-0.00025351415388286114,0.005341964308172464,0.00337335467338562
1772797750655985700,2.482985595703125,-0.0005142956506460905,0.0023746774531900883,-0.0018669588025659323
1772797750666011600,2.49301171875,-0.0004743484314531088,-0.001589171588420868,-0.0005979628767818213
1772797750676038400,2.503038330078125,-0.00032404111698269844,-0.0035743066109716892,-0.002098896773532033
1772797750686064400,2.513064453125,-0.00017437152564525604,-0.0031737671233713627,-0.0009247090201824903
1772797750696091600,2.523091552734375,-0.003746833885088563,-0.0023904521949589252,-0.0008918608073145151
1772797750706117600,2.53311767578125,-0.0000887156929820776,0.0012436974793672562,0.0023252377286553383
1772797750716144600,2.54314453125,-0.0015248691197484732,0.0020028636790812016,0.0018386231968179345
1772797750726170600,2.553170654296875,0.0009116568835452199,0.001397527288645506,0.0009283546824008226
1772797750736197400,2.563197265625,0.0017837865743786097,-0.0000035888515412807465,-0.0004032610449939966
1772797750746223400,2.573223388671875,-0.0005872256588190794,0.0011181347072124481,-0.0025335235986858606
1772797750756249600,2.58324951171875,-0.0012542975600808859,-0.0000783517025411129,-0.0015996277797967196
1772797750766276600,2.593276611328125,0.0001925977412611246,-0.0017332402057945728,-0.000946087995544076
1772797750776302600,2.603302490234375,-0.00008696923032402992,-0.0002821004018187523,-0.0009350478649139404
1772797750786329600,2.61332958984375,-0.0013887223321944475,-0.000014186371117830276,-0.00116541120223701
1772797750796355600,2.62335546875,0.0023645679466426373,0.00007318751886487007,0.0003534157294780016
1772797750806382300,2.63338232421875,0.002345393178984523,0.0017381960060447454,-0.003991531673818827
1772797750816408300,2.643408203125,0.00033794669434428215,-0.00463984115049243,-0.000749032711610198
1772797750826435600,2.653435546875,-0.001054620137438178,-0.0008975667878985405,-0.0002547500189393759
1772797750836461600,2.663461669921875,-0.00011132610961794853,0.0004428103566169739,-0.0006697445642203093
1772797750846487600,2.673487548828125,0.0012114659184589982,-0.00031113065779209137,0.000042917439714074135
1772797750856514600,2.6835146484375,0.00021614879369735718,-0.0000762459821999073,0.0009544240310788155
1772797750866540500,2.69354052734375,0.0019256320083513856,-0.0011047590523958206,0.002725426107645035
1772797750876567300,2.7035673828125,0.00046602822840213776,0.0007385225035250187,0.0018668649718165398
1772797750886593500,2.713593505859375,0.0006806789897382259,-0.0014034579508006573,0.000016767065972089767
1772797750896620500,2.72362060546875,-0.0005542938597500324,-0.001214540097862482,-0.0022240341641008854
1772797750906646500,2.733646484375,-0.0006464391481131315,-0.0020483755506575108,-0.0006024353206157684
1772797750916672500,2.743672607421875,0.0013894012663513422,0.0008215946145355701,0.0000660077203065157
1772797750926699500,2.753699462890625,-0.002066050423309207,0.0015148152597248554,-0.0011473284102976322
1772797750936725500,2.7637255859375,0.00019022985361516476,-0.00024678418412804604,0.0007287111366167665
1772797750946752500,2.77375244140625,0.001103960326872766,-0.0015027308836579323,0.0012933013495057821
1772797750956778500,2.783778564453125,-0.0021010416094213724,-0.0013555847108364105,0.0009998611640185118
1772797750966805500,2.793805419921875,0.0014124669833108783,-0.0005398583598434925,-0.0008803305681794882
1772797750976831500,2.80383154296875,0.0007588410517200828,-0.000753526110202074,-0.001098509645089507
1772797750986857500,2.813857421875,-0.0002640790771692991,-0.0004933355376124382,-0.0005520291160792112
1772797750996884500,2.823884521484375,0.00004963483661413193,0.0028997946064919233,-0.00193954654969275
1772797751006910500,2.833910400390625,-0.00011228537186980247,-0.00003527523949742317,0.000996588496491313
1772797751016937500,2.8439375,0.002423950470983982,0.0014001848176121712,-0.0009099943563342094
1772797751026963500,2.85396337890625,0.0010753256501629949,-0.002569256816059351,0.00016618892550468445
1772797751036990500,2.863990478515625,0.0014137137914076447,-0.00256012799218297,0.00020477664656937122
1772797751047016400,2.874016357421875,0.00006961636245250702,-0.0033513526432216167,0.000772029859945178
1772797751057043500,2.88404345703125,0.00023131363559514284,-0.00024228449910879135,-0.00009702472016215324
1772797751067069400,2.8940693359375,-0.00004032882861793041,-0.0006606671959161758,-0.00023950380273163319
1772797751077095400,2.904095458984375,0.0013576613273471594,0.00041242316365242004,0.002023966982960701
1772797751087122400,2.914122314453125,-0.0021404006984084845,0.0019743668381124735,0.00016215117648243904
1772797751097148400,2.9241484375,0.00022527622058987617,0.0013563898392021656,-0.0015991376712918282
1772797751107175700,2.93417578125,-0.0016898028552532196,-0.001442592591047287,-0.002935245167464018
1772797751117201700,2.94420166015625,-0.00014912034384906292,0.0004551298916339874,-0.0014938958920538425
1772797751127228400,2.954228515625,0.0009800600819289684,-0.0012365099973976612,0.00034528295509517193
1772797751137254400,2.96425439453125,0.0012556938454508781,-0.0020855749025940895,-0.00046529620885849
1772797751147280400,2.9742802734375,-0.002109476597979665,0.0035941489040851593,-0.00007940409705042839
1772797751157307400,2.984307373046875,0.0004807496443390846,0.00032223155722022057,0.00034612021408975124
1772797751167333400,2.99433349609375,-0.0001767848152667284,-0.0030991313979029655,-0.0008871897589415312
1772797751177360600,3.004360595703125,0.00130548607558012,-0.0052473279647529125,0.000619623577222228
1772797751187386600,3.01438671875,-0.0012759161181747913,-0.0013434006832540035,-0.0012821396812796593
1772797751197413400,3.024413330078125,-0.00025642686523497105,0.001310580875724554,-0.002167286816984415
1772797751207439400,3.034439453125,0.00014997157268226147,0.002141220960766077,-0.0015496998094022274
1772797751217465300,3.04446533203125,-0.00015046773478388786,0.0003287149593234062,0.0002803762909024954
1772797751227492600,3.05449267578125,0.0007110649021342397,0.004988714121282101,0.0011333867441862822
1772797751237518600,3.0645185546875,0.0003345820587128401,0.007050491403788328,0.0018120539607480168
1772797751247545600,3.074545654296875,-0.0010619796812534332,0.00006182398647069931,-0.001224482199177146
1772797751257571600,3.084571533203125,-0.0002662308979779482,-0.003990272060036659,-0.0004897643812000751
1772797751267598300,3.094598388671875,0.0003707972355186939,-0.0005686427466571331,-0.002608309267088771
1772797751277624300,3.104624267578125,0.0015475235413759947,0.0010269894264638424,-0.0013897207099944353
1772797751287650600,3.114650634765625,-0.0006080390885472298,-0.0009051337838172913,-0.0011247361544519663
1772797751297677600,3.124677490234375,0.0010841945186257362,0.0011660982854664326,-0.0004889338742941618
1772797751307703600,3.13470361328125,0.0004636780358850956,0.0005293367430567741,0.0002719312906265259
1772797751317730300,3.144730224609375,-0.0007266884204000235,0.0034362338483333588,0.003485635621473193
1772797751327756300,3.15475634765625,0.000030714552849531174,-0.00039658742025494576,0.0010768064530566335
1772797751337783600,3.164783447265625,0.00125495542306453,-0.004275354091078043,0.000839818618260324
1772797751347809500,3.1748095703125,0.00004082033410668373,-0.000824962742626667,-0.0016366548370569944
1772797751357835500,3.18483544921875,-0.0027038396801799536,-0.004542191978543997,-0.0025617696810513735
1772797751367862500,3.194862548828125,0.0008083372376859188,-0.0013048537075519562,-0.0010062172077596188
1772797751377888500,3.204888427734375,0.0002697408199310303,0.0008998848497867584,0.0011455818312242627
1772797751387915300,3.214915283203125,-0.0024051382206380367,-0.001087632030248642,0.0013820704771205783
1772797751397941500,3.22494140625,-0.0007253503426909447,0.00020491844043135643,0.0010695469100028276
1772797751407968500,3.234968505859375,0.0006850596982985735,0.00012768711894750595,0.00005062157288193703
1772797751417994500,3.244994384765625,0.0019299737177789211,-0.0007983320392668247,-0.0011357157491147518
1772797751428020500,3.2550205078125,0.0006785544101148844,-0.0030710739083588123,-0.000568728893995285
1772797751438047500,3.265047607421875,-0.0010795893613249063,-0.003375170286744833,-0.0028381776064634323
1772797751448073500,3.275073486328125,-0.0013022294733673334,0.0002525872550904751,-0.0002437261864542961
1772797751458100500,3.2851005859375,0.00010884157381951809,-0.00033856090158224106,-0.0008058866951614618
1772797751468126500,3.29512646484375,-0.0004259212873876095,0.0007277689874172211,-0.0001747175119817257
1772797751478153500,3.305153564453125,0.0015872290823608637,0.0012073572725057602,0.0034067013766616583
1772797751488179500,3.315179443359375,0.0011693789856508374,0.0014062956906855106,0.002147026127204299
1772797751498206500,3.32520654296875,0.0023789708502590656,0.00014792662113904953,0.0009759393287822604
1772797751508232400,3.335232421875,0.000342185259796679,-0.0009495620615780354,-0.0006983899511396885
1772797751518258700,3.3452587890625,-0.0003630972933024168,-0.0011848458088934422,-0.0022506415843963623
1772797751528285400,3.355285400390625,0.0022297564428299665,-0.000988038256764412,-0.00013662432320415974
1772797751538311400,3.3653115234375,0.0010978924110531807,-0.0016302559524774551,-0.0006176887545734644
1772797751548338400,3.37533837890625,-0.0014704600907862186,-0.001708819530904293,-0.00199108081869781
1772797751558364400,3.385364501953125,-0.0012395258527249098,0.0011037266813218594,0.0005513527430593967
1772797751568391700,3.3953916015625,-0.0015359357930719852,-0.0008739368058741093,-0.00006596813909709454
1772797751578417700,3.405417724609375,0.0005076152738183737,-0.00016109086573123932,-0.0007827042136341333
1772797751588443400,3.415443359375,0.0006112122209742665,-0.00014138361439108849,0.0001611202023923397
1772797751598470400,3.425470458984375,0.00033147726207971573,-0.0008325371891260147,-0.00010019121691584587
1772797751608496400,3.435496337890625,0.0003748867893591523,-0.002022703643888235,-0.002164140809327364
1772797751618523400,3.4455234375,0.0004336725687608123,-0.0013242200948297977,0.0006945542991161346
1772797751628549600,3.455549560546875,0.0017612583469599485,0.002590093994513154,-0.0007912232540547848
1772797751638576400,3.465576416015625,-0.0004469670820981264,0.00017645489424467087,0.001025173463858664
1772797751648602400,3.475602294921875,0.0010071187280118465,0.0010646190494298935,0.0014845686964690685
1772797751658628400,3.48562841796875,-0.002611924195662141,0.0020008734427392483,0.002153339795768261
1772797751668655400,3.4956552734375,0.000755643006414175,-0.002205855678766966,-0.0010829335078597069
1772797751678681300,3.505681396484375,-0.000930756563320756,-0.0022990116849541664,-0.0030143873300403357
1772797751688708600,3.51570849609375,-0.0018506122287362814,-0.001089403871446848,-0.0014164906460791826
1772797751698734600,3.525734619140625,0.00039149424992501736,-0.0016212365590035915,-0.00012526731006801128
1772797751708760600,3.535760498046875,0.0003994838334619999,-0.0021466780453920364,0.0015005925670266151
1772797751718787300,3.545787353515625,0.0014850855804979801,-0.001932688057422638,0.0023341102059930563
1772797751728813300,3.555813232421875,-0.0020723650231957436,0.002318782266229391,0.002040363382548094
1772797751738840600,3.565840576171875,-0.0011695022694766521,0.001209998968988657,0.003673977218568325
1772797751748866600,3.575866455078125,0.0003104163333773613,-0.00025181006640195847,0.000627853674814105
1772797751758893600,3.5858935546875,-0.001334720989689231,0.0021925836335867643,-0.00020547560416162014
1772797751768919600,3.59591943359375,0.003078935667872429,-0.004917257931083441,-0.00016606086865067482
1772797751778945500,3.605945556640625,0.0007676199311390519,-0.0031462530605494976,-0.0020805138628929853
1772797751788972500,3.61597265625,0.0008142252918332815,-0.0011102664284408092,-0.0016410921234637499
1772797751798998500,3.62599853515625,-0.00022766622714698315,0.001837026560679078,-0.0010329210199415684
1772797751809025500,3.636025634765625,0.0005417210049927235,-0.0011220118030905724,0.0007138462970033288
1772797751819051500,3.646051513671875,0.002524774055927992,-0.003409639000892639,0.0017747691599652171
1772797751829078500,3.65607861328125,-0.0017975366208702326,0.00035473890602588654,-0.001070019556209445
1772797751839104800,3.666104736328125,0.0009686039993539453,0.0029418254271149635,-0.0009153417777270079
1772797751849130800,3.676130859375,0.0014245371567085385,0.003036101348698139,0.0013483449583873153
1772797751859157500,3.686157470703125,-0.0008499156683683395,0.0007178885862231255,0.0012007567565888166
1772797751869183500,3.69618359375,0.002422044053673744,-0.00031461892649531364,0.0006974192801862955
1772797751879210500,3.70621044921875,-0.0008890286553651094,0.0027619015891104937,-0.0002401154488325119
1772797751889236500,3.716236572265625,0.0022622898686677217,-0.004644881933927536,-0.0022302959114313126
1772797751899263700,3.726263671875,-0.00036010798066854477,0.0005183746106922626,-0.001366546843200922
1772797751909289500,3.73628955078125,0.00015761051326990128,-0.001673406921327114,-0.0015873229131102562
1772797751919315500,3.7463154296875,-0.0022839184384793043,0.00003709876909852028,0.002063467400148511
1772797751929342500,3.756342529296875,0.001477530226111412,0.002268295269459486,0.0028355177491903305
1772797751939368400,3.766368408203125,0.0009632150176912546,0.0028358001727610826,0.001416929648257792
1772797751949395700,3.776395751953125,-0.0009310913737863302,0.0000743684358894825,0.0013538127532228827
1772797751959421700,3.786421630859375,-0.0024354010820388794,-0.005400283262133598,-0.0009940643794834614
1772797751969447700,3.79644775390625,0.00006450829096138477,-0.0010462813079357147,-0.0018963431939482689
1772797751979474400,3.806474365234375,0.0003799004480242729,-0.0017918003723025322,-0.0015712922904640436
1772797751989500400,3.81650048828125,-0.00010506133548915386,-0.0016083084046840668,-0.0001619474496692419
1772797751999527400,3.82652734375,0.00006039743311703205,0.0007450450211763382,-0.00005567772313952446
1772797752009553700,3.8365537109375,0.000997297465801239,0.00017725909128785133,0.00198563514277339
1772797752019580700,3.84658056640625,0.0010520350188016891,0.0021176517475396395,-0.0009283861145377159
1772797752029606700,3.856606689453125,-0.001150399213656783,0.0009999233298003674,0.001169119612313807
1772797752039632600,3.866632568359375,-0.002660584170371294,0.0012627243995666504,0.0008365337271243334
1772797752049659400,3.876659423828125,-0.0009279316291213036,-0.003529367968440056,-0.00048519321717321873
1772797752059685400,3.886685302734375,-0.0004633041098713875,-0.002554256934672594,0.0006191590800881386
1772797752069712600,3.896712646484375,-0.0009000624995678663,0.0027038883417844772,0.0005035777576267719
1772797752079738600,3.906738525390625,0.0003052258398383856,0.0013053673319518566,-0.0007567217107862234
1772797752089765600,3.916765625,0.0003382490249350667,0.0011266693472862244,0.0013394523411989212
1772797752099791600,3.92679150390625,0.001469290815293789,-0.0008779093623161316,-0.002493743784725666
1772797752109817600,3.936817626953125,-0.00144234299659729,0.0014725965447723866,-0.0012356664519757032
1772797752119844400,3.94684423828125,0.00045764248352497816,-0.0016527753323316574,-0.00018605892546474934
1772797752129870600,3.95687060546875,-0.000254220562055707,-0.0008434406481683254,-0.002038021106272936
1772797752139897600,3.966897705078125,-0.0007154780905693769,0.0016076802276074886,-0.000026646535843610764
1772797752149923600,3.976923583984375,0.00009145960211753845,-0.0012400378473103046,-0.0022647669538855553
1772797752159949600,3.986949462890625,0.0005072909407317638,-0.0019046426750719547,-0.0038227152545005083
1772797752169976600,3.9969765625,0.003428512252867222,0.0017854331526905298,0.0012151864357292652
1772797752180002600,4.00700244140625,0.0020554133225232363,0.0009137429296970367,-0.00004105782136321068
1772797752190029600,4.017029541015625,0.0005334167508408427,0.00024262629449367523,0.0019443286582827568
1772797752200055600,4.0270556640625,-0.0015488332137465477,0.0008402103558182716,-0.0006425930187106133
1772797752210082600,4.03708251953125,0.0011793088633567095,-0.00030201906338334084,0.00035529350861907005
1772797752220108500,4.047108642578125,-0.0015539636369794607,0.0005476363003253937,0.0018642753129824996
1772797752230134500,4.057134521484375,0.00009027193300426006,-0.0017269696108996868,-0.000021242769435048103
1772797752240161500,4.06716162109375,-0.0004832805134356022,0.000701091717928648,-0.0019723507575690746
1772797752250187500,4.0771875,0.001424608170054853,-0.0010712416842579842,-0.00038111209869384766
1772797752260214500,4.087214599609375,-0.0005312897264957428,-0.0013727848418056965,0.0005195634439587593
1772797752270240500,4.097240478515625,-0.0010713788215070963,0.0005715889856219292,-0.0015888612251728773
1772797752280267500,4.107267578125,0.0008085881127044559,-0.00043411925435066223,0.0029664505273103714
1772797752290293500,4.11729345703125,0.00025731371715664864,-0.0011579664424061775,0.000012472271919250488
1772797752300319700,4.12731982421875,-0.0012458281125873327,-0.0017238082364201546,0.0019243473652750254
1772797752310346500,4.137346435546875,-0.00022956589236855507,0.00125227402895689,0.000778122921474278
1772797752320372500,4.14737255859375,0.001389926066622138,-0.0013408889062702656,0.0007239485858008265
1772797752330399500,4.1573994140625,-0.001117706298828125,0.0001270459033548832,-0.001366632990539074
1772797752340425500,4.167425537109375,-0.0002455890644341707,-0.002502400428056717,0.00012526963837444782
1772797752350451500,4.177451416015625,-0.00017767841927707195,0.0019570630975067616,-0.0009349347092211246
1772797752360478700,4.187478759765625,0.0011712198611348867,0.002325179986655712,0.003078616224229336
1772797752370504700,4.197504638671875,-0.00224668113514781,-0.0001992303878068924,0.0006476828129962087
1772797752380531500,4.207531494140625,-0.0004880274645984173,0.0011537959799170494,-0.0001318291760981083
1772797752390557400,4.217557373046875,0.000994820729829371,-0.002402322832494974,0.0016903055366128683
1772797752400584400,4.22758447265625,0.0011976894456893206,0.0010430584661662579,0.0006545176729559898
1772797752410610400,4.2376103515625,0.0014653371181339025,-0.0008805426768958569,-0.002024888526648283
1772797752420636700,4.24763671875,-0.00021601258777081966,-0.001094173640012741,-0.00009312108159065247
1772797752430663700,4.25766357421875,0.001374693587422371,-0.004596763290464878,-0.0018753085751086473
1772797752440689700,4.267689697265625,-0.0015466141048818827,-0.0053912862204015255,-0.00007264455780386925
1772797752450716400,4.27771630859375,0.00011493219062685966,0.0003393040969967842,-0.003120632143691182
1772797752460742400,4.287742431640625,0.001484237378463149,-0.00300810020416975,-0.0011347206309437752
1772797752470768400,4.297768310546875,-0.001023394986987114,0.0016503012739121914,0.002730058738961816
1772797752480795600,4.307795654296875,0.0019227555021643639,0.0028412428218871355,0.00012307963334023952
1772797752490821600,4.317821533203125,-0.0003140335902571678,0.00117596797645092,0.0006972571136429906
1772797752500848600,4.3278486328125,0.0017838593339547515,0.000026184599846601486,0.0016906728269532323
1772797752510874600,4.33787451171875,-0.0010603966657072306,-0.0013325600884854794,-0.0015535899437963963
1772797752520900600,4.347900634765625,0.001385970739647746,-0.0007303366437554359,-0.0020049642771482468
1772797752530927600,4.357927734375,0.0002711714478209615,0.00006168754771351814,-0.00028003472834825516
1772797752540953600,4.36795361328125,-0.0021174887660890818,-0.0010896231979131699,0.0004637178499251604
1772797752550980600,4.377980712890625,-0.0015931122470647097,-0.0015058750286698341,0.0008032708428800106
1772797752561006600,4.388006591796875,0.00039641931653022766,0.0019315497484058142,0.0013821418397128582
1772797752571033600,4.39803369140625,0.003207119647413492,-0.001349464524537325,-0.0014575866516679525
1772797752581059300,4.408059326171875,0.00008832872845232487,-0.001768374815583229,-0.0018766906578093767
1772797752591085600,4.41808544921875,0.0000332011841237545,-0.0018440084531903267,0.0008045799331739545
1772797752601112600,4.428112548828125,-0.000530945835635066,-0.0003583412617444992,-0.0005735403392463923
1772797752611138600,4.438138671875,0.0011684172786772251,0.0032584979198873043,0.0009479236323386431
1772797752621165600,4.44816552734375,0.00006121746264398098,0.0010862192139029503,0.0025330055505037308
1772797752631191600,4.458191650390625,0.0016495267627760768,0.0006760922260582447,0.0012064850889146328
1772797752641217500,4.468217529296875,-0.0016428478993475437,0.00033988524228334427,0.0025477679446339607
1772797752651244500,4.47824462890625,-0.0012769296299666166,-0.0013219276443123817,-0.0004751861561089754
1772797752661270500,4.4882705078125,0.0027559762820601463,-0.002432068344205618,-0.0006248343270272017
1772797752671297500,4.498297607421875,-0.002610027091577649,-0.0009825099259614944,-0.003779881400987506
1772797752681323500,4.508323486328125,0.00015489035286009312,-0.0011413544416427612,-0.0012928955256938934
1772797752691350500,4.5183505859375,-0.0013505946844816208,0.001189444214105606,0.0009667965350672603
1772797752701376500,4.52837646484375,0.0019244082504883409,0.0004962398670613766,-0.0002552703954279423
1772797752711402800,4.53840283203125,0.00004421663470566273,-0.00021375901997089386,0.0023327895905822515
1772797752721429500,4.548429443359375,-0.001545654609799385,-0.0002382202073931694,0.0008153081871569157
1772797752731455500,4.55845556640625,-0.00008784024976193905,-0.0024063000455498695,-0.0016294738743454218
1772797752741482500,4.568482421875,-0.0004838770255446434,0.0008452646434307098,-0.0023435454349964857
1772797752751508500,4.578508544921875,-0.0022402319591492414,-0.0005646129138767719,-0.0016716301906853914
1772797752761534500,4.588534423828125,-0.00006047799251973629,0.000006115064024925232,0.00016550300642848015
1772797752771561200,4.598561279296875,0.0002971845678985119,-0.001014408189803362,-0.0002294436562806368
1772797752781587200,4.608587158203125,-0.0010020469781011343,0.000831227283924818,0.0003186785615980625
1772797752791614000,4.618614013671875,0.0010592398466542363,-0.0013509667478501797,0.0017533233622089028
1772797752801640000,4.628639892578125,0.0017574061639606953,0.00006354367360472679,-0.0008690701797604561
1772797752811666000,4.638666015625,-0.00034329527989029884,0.0004068249836564064,-0.0004403011407703161
1772797752821693000,4.64869287109375,-0.0006370716728270054,0.001063512172549963,0.0004522495437413454
1772797752831719200,4.65871923828125,0.0002921052509918809,-0.0012827329337596893,-0.0005528272595256567
1772797752841746200,4.66874609375,-0.0016480968333780766,-0.0003651510924100876,0.001521253609098494
1772797752851772200,4.678772216796875,-0.00018096156418323517,0.001377088949084282,0.00003734021447598934
1772797752861799000,4.688798828125,0.00012742308899760246,-0.0006742784753441811,-0.000029146671295166016
1772797752871825000,4.698824951171875,-0.0013998996000736952,0.00013399124145507812,-0.0018355688080191612
1772797752881851000,4.708850830078125,-0.00034413556568324566,-0.00012102257460355759,-0.0029097527731209993
1772797752891878100,4.718878173828125,0.0002494831569492817,-0.002097620628774166,-0.0007776259444653988
1772797752901904100,4.728904052734375,-0.0006422230508178473,0.0008394904434680939,-0.0015672524459660053
1772797752911931100,4.73893115234375,0.0007178533123806119,0.0019838507287204266,0.0008985683089122176
1772797752921957000,4.74895703125,-0.0006130270194262266,0.0006533614359796047,0.0005327167455106974
1772797752931983000,4.758983154296875,-0.0018777623772621155,-0.0010582520626485348,0.002712514251470566
1772797752942010000,4.769010009765625,-0.0016304010059684515,-0.00039371708407998085,-0.0011255780700594187
1772797752952036000,4.7790361328125,-0.00006552762351930141,-0.002137554809451103,0.0004874984733760357
1772797752962063000,4.78906298828125,0.0023239250294864178,0.0006224215030670166,-0.00011799577623605728
1772797752972089000,4.799089111328125,-0.000802626134827733,0.0000695493072271347,0.0008306222734972835
1772797752982115000,4.809114990234375,-0.0024811076000332832,-0.0013447534292936325,-0.00004621339030563831
1772797752992142000,4.81914208984375,0.0004933769814670086,0.0005887015722692013,0.00013248459435999393
1772797753002168000,4.82916796875,-0.000563362380489707,0.00198447797447443,0.0005127319600433111
1772797753012195000,4.839195068359375,-0.00006481865420937538,0.0024081869050860405,0.0017258018488064408
1772797753022221000,4.849220947265625,0.0021836748346686363,-0.0005447869189083576,-0.00048766424879431725
1772797753032247000,4.8592470703125,-0.0003564481157809496,0.001699725165963173,0.0020881451200693846
1772797753042274000,4.869274169921875,0.0010274308733642101,-0.0009689857251942158,0.0006309065502136946
1772797753052300000,4.879300048828125,0.00033767218701541424,-0.0007085287943482399,-0.00015232921577990055
1772797753062327000,4.8893271484375,-0.0014504294376820326,-0.002209336031228304,0.0002273120917379856
1772797753072353000,4.89935302734375,-0.00042218295857310295,0.001518556848168373,-0.000654993113130331
1772797753082380000,4.909380126953125,-0.0013612776529043913,-0.001704926136881113,-0.00003415788523852825
1772797753092406000,4.919406005859375,0.00003421865403652191,-0.0011762888170778751,-0.0026315387804061174
1772797753102432000,4.929431884765625,0.0007910913554951549,0.000052008312195539474,0.0007851035334169865
1772797753112459000,4.939458984375,0.0016369113000109792,0.0002765129320323467,-0.0026903217658400536
1772797753122485200,4.9494853515625,-0.0017133359797298908,0.00042391056194901466,0.0009316940559074283
1772797753132512000,4.959511962890625,0.0005399646470323205,0.002055363031104207,0.0028148151468485594
1772797753142538000,4.9695380859375,0.0011679809540510178,0.001239546574652195,0.002088832901790738
1772797753152564000,4.97956396484375,0.0006803561700507998,0.00008053891360759735,0.0019423591438680887
1772797753162591000,4.989591064453125,-0.002023116685450077,-0.0027146819047629833,-0.0024314250331372023
1772797753172617000,4.999616943359375,-0.0010808901861310005,-0.00009413110092282295,-0.0019219627138227224
1772797753182644200,5.009644287109375,0.001018417882733047,-0.0013153678737580776,-0.0020841683726757765
1772797753192670200,5.019670166015625,-0.00039678579196333885,-0.0026868958957493305,-0.00012408150359988213
1772797753202696200,5.0296962890625,0.0015179795445874333,0.0018888937775045633,0.00046451413072645664
1772797753212723000,5.039722900390625,-0.00023118476383388042,-0.00030448567122220993,-0.000423916382715106
1772797753222749000,5.0497490234375,0.00011565885506570339,-0.0007370105013251305,0.000513303792104125
1772797753232776200,5.059776123046875,0.00019555375911295414,-0.0005974606610834599,-0.0007301259320229292
1772797753242802200,5.06980224609375,0.0009498359868302941,-0.00001858500763773918,0.0001453142613172531
1772797753252828200,5.079828125,0.00030987837817519903,-0.00019515259191393852,0.001063838484697044
1772797753262855200,5.089855224609375,-0.0017809637356549501,-0.003387611825019121,0.0019000719767063856
1772797753272881200,5.099881103515625,-0.0012541902251541615,-0.000026702415198087692,0.0006411958020180464
1772797753282908000,5.109907958984375,0.0018708202987909317,0.003284951439127326,0.0001836505252867937
1772797753292934000,5.119933837890625,-0.00011483253911137581,0.0003477511927485466,-0.0004552416503429413
1772797753302960000,5.129960205078125,0.0004517710767686367,0.0004876554012298584,-0.0002892517950385809
1772797753312987100,5.139987060546875,0.0007692198269069195,-0.0012050499208271503,-0.000024533597752451897
1772797753323013000,5.15001318359375,-0.00013163289986550808,-0.00019485736265778542,-0.001323480624705553
1772797753333039900,5.160039794921875,0.0013863688800483942,0.001775349024683237,0.00039425818249583244
1772797753343065900,5.17006591796875,0.0007797047728672624,0.0000699642114341259,0.0003907869104295969
1772797753353091800,5.180091796875,-0.0004141903482377529,0.0023674732074141502,0.0018150454852730036
1772797753363119000,5.190119140625,-0.00042820675298571587,0.000004882458597421646,0.0013389408122748137
1772797753373145000,5.20014501953125,0.00020882126409560442,0.000735387671738863,0.0009069760562852025
1772797753383172000,5.210172119140625,-0.0005356466863304377,-0.0008828090503811836,0.0018388525350019336
1772797753393198000,5.220197998046875,0.0007226970046758652,0.0005885874852538109,-0.001122848829254508
1772797753403224800,5.230224853515625,-0.000878854189068079,-0.0019162935204803944,-0.0015227356925606728
1772797753413251000,5.2402509765625,-0.00003276788629591465,-0.0007327846251428127,-0.0002127266488969326
1772797753423277000,5.250277099609375,-0.0018794368952512741,0.001104889903217554,-0.0016613174229860306
1772797753433304000,5.260303955078125,0.0011698827147483826,-0.0022104796953499317,-0.0003640917129814625
1772797753443330000,5.270330078125,-0.0008569993078708649,0.00044329697266221046,0.0007402937626466155
1772797753453357000,5.280357177734375,0.0014413087628781796,-0.0010922816582024097,-0.0007308362983167171
1772797753463383000,5.290383056640625,0.00007536308839917183,0.00009447894990444183,0.0007747856434434652
1772797753473409000,5.300408935546875,-0.0011869752779603004,-0.001521793194115162,-0.0019051535055041313
1772797753483436000,5.31043603515625,-0.00005651963874697685,0.002589036477729678,-0.0013750528451055288
1772797753493462000,5.3204619140625,-0.00005785143002867699,-0.0018786825239658356,-0.0010184557177126408
1772797753503489000,5.330489013671875,0.0028188389260321856,-0.0012451251968741417,-0.0006092474795877934
1772797753513515000,5.340514892578125,-0.00043527758680284023,0.0009389328770339489,-0.00010857312008738518
1772797753523541000,5.350541015625,-0.00000707642175257206,0.00008233636617660522,0.001590587431564927
1772797753533568300,5.360568359375,0.00003340374678373337,-0.002011440694332123,0.0014310640981420875
1772797753543594200,5.37059423828125,-0.00021341140381991863,-0.0033162711188197136,-0.0005371179431676865
1772797753553621000,5.38062109375,-0.00039477250538766384,0.00019111158326268196,-0.0014500496909022331
1772797753563647000,5.39064697265625,0.0005710478872060776,0.0009885430335998535,0.0006773737259209156
1772797753573673000,5.4006728515625,-0.0014939671382308006,0.00460511539131403,0.0009005465544760227
1772797753583700000,5.410699951171875,-0.0015619159676134586,0.0000788453035056591,0.00044135330244898796
1772797753593726200,5.420726318359375,-0.0002082311548292637,0.00015847384929656982,-0.0006795711815357208
1772797753603753200,5.430753173828125,-0.000502107897773385,0.00029311515390872955,-0.0008785293903201818
1772797753613779000,5.440779052734375,0.0009610328124836087,-0.0010549770668148994,-0.00000820821151137352
1772797753623805000,5.450804931640625,-0.0014740179758518934,-0.0033690519630908966,0.00205311574973166
1772797753633832000,5.46083203125,0.0002359977224841714,-0.0024425387382507324,-0.00290409242734313
1772797753643858000,5.47085791015625,0.0012399072293192148,0.0015422636643052101,0.002540252637118101
1772797753653885200,5.48088525390625,-0.0004011327400803566,0.0028621263336390257,0.0009815044468268752
1772797753663911200,5.4909111328125,0.000914926640689373,0.001787690445780754,0.0018317722715437412
1772797753673937200,5.500937255859375,-0.0004390242975205183,-0.000060809310525655746,0.0017705196514725685
1772797753683964000,5.5109638671875,0.0008187785279005766,0.002337455516681075,-0.0010540822986513376
1772797753693990000,5.520989990234375,0.0016680605476722121,0.0014255889691412449,-0.0023518409579992294
1772797753704017200,5.53101708984375,-0.001311746658757329,-0.0018585612997412682,-0.0020627789199352264
1772797753714043100,5.541043212890625,-0.0023815385065972805,-0.0029951981268823147,-0.0017442647367715836
1772797753724069000,5.551069091796875,0.0011660896707326174,0.0010179998353123665,0.001643720897845924
1772797753734096100,5.56109619140625,0.0013234824873507023,0.0015804595313966274,0.0005281227640807629
1772797753744122000,5.5711220703125,0.00034099211916327477,-0.0008319271728396416,0.00019226502627134323
1772797753754148900,5.58114892578125,-0.00006860215216875076,-0.0007280637510120869,0.000765110831707716
1772797753764174800,5.5911748046875,-0.00011728308163583279,0.0021206673700362444,-0.0026557710953056812
1772797753774201000,5.601201171875,-0.0015479333233088255,0.003928687423467636,-0.0015297862701117992
1772797753784228000,5.61122802734375,-0.0019267827738076448,-0.0006953547708690166,0.0013261041603982449
1772797753794254000,5.621254150390625,0.00032918108627200127,-0.000027966219931840897,0.0003833451773971319
1772797753804281000,5.631281005859375,-0.0009777049999684095,0.0013055717572569847,0.0005164030008018017
1772797753814307000,5.64130712890625,0.0012747966684401035,0.0005327221006155014,0.002084738574922085
1772797753824333000,5.6513330078125,0.00019413523841649294,-0.0006935098208487034,-0.0004390557296574116
1772797753834360000,5.661360107421875,0.0003677733475342393,-0.0036149974912405014,-0.001367966178804636
1772797753844386000,5.671385986328125,-0.0008294004946947098,0.001889124745503068,-0.0008380729705095291
1772797753854413000,5.6814130859375,-0.0007620223332196474,0.0008835149928927422,0.0007598235970363021
1772797753864439000,5.69143896484375,-0.0007240497507154942,0.0006771329790353775,0.0010740762809291482
1772797753874465000,5.701465087890625,-0.00031818379648029804,0.0024100521113723516,0.0011550363851711154
1772797753884492000,5.711491943359375,0.0006758181843906641,0.0002704155631363392,-0.0006428705528378487
1772797753894518000,5.72151806640625,-0.001573221292346716,-0.0011514457874000072,-0.00120027014054358
1772797753904545000,5.731544921875,-0.0007434268482029438,0.0001054820604622364,0.00021380186080932617
1772797753914571000,5.741571044921875,-0.0004190539475530386,-0.0014034654013812542,0.0003450957592576742
1772797753924597000,5.751596923828125,0.00017705210484564304,-0.0012281830422580242,-0.002569090574979782
1772797753934624000,5.7616240234375,0.0013126239646226168,-0.0004462790675461292,-0.0024862661957740784
1772797753944650000,5.77164990234375,-0.00009116414003074169,-0.0009357081726193428,-0.0015197305474430323
1772797753954677000,5.781677001953125,-0.002361775143072009,-0.000131167471408844,-0.00017376895993947983
1772797753964703000,5.791702880859375,-0.0003899701405316591,-0.000554095022380352,0.00045758578926324844
1772797753974729000,5.80172900390625,0.0008736996678635478,-0.0008137528784573078,-0.0007794525008648634
1772797753984756000,5.811755859375,0.0014379293425008655,0.0010805181227624416,0.0025355173274874687
1772797753994782000,5.821781982421875,-0.001595144858583808,-0.002149629406630993,-0.0026118403766304255
1772797754004808000,5.831807861328125,0.0035844282247126102,0.0023229732178151608,0.002094588940963149
1772797754014835200,5.841835205078125,-0.0003509249072521925,-0.0018459390848875046,0.0009081506868824363
1772797754024861200,5.851861083984375,-0.0013614851050078869,0.000052685849368572235,-0.001729578711092472
1772797754034888000,5.861887939453125,0.001521386904641986,-0.0004935287870466709,0.001293641864322126
1772797754044914000,5.871913818359375,0.0014172160299494863,0.0025720815174281597,0.001924854819662869
1772797754054940000,5.88193994140625,-0.00045898091048002243,-0.00015046820044517517,-0.001747111789882183
1772797754064967200,5.89196728515625,0.0021481674630194902,-0.0015365369617938995,-0.0012688557617366314
1772797754074993200,5.9019931640625,0.0012003483716398478,-0.003447620663791895,-0.0011601988226175308
1772797754085020200,5.912020263671875,0.0013353527756407857,-0.0007001720368862152,-0.0020023540128022432
1772797754095046100,5.922046142578125,0.00032415054738521576,0.001682292204350233,-0.0027176791336387396
1772797754105072000,5.932072021484375,-0.0015976233407855034,-0.00019037118181586266,0.0028334723319858313
1772797754115099000,5.942098876953125,-0.0001651090569794178,0.002765737473964691,0.0021287999115884304
1772797754125125000,5.952125,0.0006979837780818343,0.0025340449064970016,0.0005972075741738081
1772797754135152000,5.962152099609375,0.0009342060657218099,-0.0000710589811205864,-0.0015056245028972626
1772797754145178000,5.97217822265625,0.0004281032597646117,-0.0002408069558441639,-0.001174180069938302
1772797754155204000,5.9822041015625,0.0008621985325589776,-0.002918082755059004,-0.0011781747452914715
1772797754165231000,5.992231201171875,-0.0020462151151150465,-0.0010035685263574123,-0.0002572860103100538
1772797754175257000,6.002257080078125,-0.0008659018203616142,-0.0020776218734681606,0.0036644849460572004
1772797754185284000,6.0122841796875,-0.0003767258021980524,0.0018904965836554766,0.0025568276178091764
1772797754195310000,6.02231005859375,-0.000488312216475606,-0.00003763195127248764,-0.0009622734505683184
1772797754205336000,6.032336181640625,0.0012781117111444473,0.0000918293371796608,-0.0004925949033349752
1772797754215363000,6.042363037109375,0.0014536139788106084,-0.002798765432089567,-0.0005037800874561071
1772797754225389000,6.05238916015625,-0.0005123638547956944,-0.0018945164047181606,-0.0008718508761376143
1772797754235415800,6.062415771484375,0.0010511778527870774,-0.004569129552692175,-0.0014404358807951212
1772797754245442000,6.072442138671875,-0.0022700484842061996,0.0007332363165915012,0.002103999489918351
1772797754255468000,6.082468017578125,0.000290580908767879,-0.0005607935599982738,0.003921606577932835
1772797754265495000,6.0924951171875,-0.0004550856538116932,0.0004641362465918064,0.0021307303104549646
1772797754275521000,6.10252099609375,-0.0008393798489123583,0.00022019073367118835,0.003517970908433199
1772797754285548000,6.112548095703125,0.0007441580528393388,-0.0029210997745394707,0.0025018909946084023
1772797754295574000,6.122573974609375,-0.0003815600648522377,-0.00421246699988842,-0.0024097771383821964
1772797754305600300,6.132600341796875,0.0008525014854967594,-0.002598170191049576,-0.0019251317717134953
1772797754315627000,6.142626953125,-0.0020450176671147346,-0.004817914217710495,0.0008149947971105576
1772797754325653000,6.152653076171875,-0.0011411644518375397,-0.002552179154008627,-0.0003840194549411535
1772797754335680000,6.162679931640625,-0.0011560781858861446,0.0004734382964670658,0.002281005959957838
1772797754345706000,6.1727060546875,-0.0047088563442230225,-0.0005775815807282925,0.004162001423537731
1772797754355732000,6.18273193359375,-0.002428924199193716,-0.0009421687573194504,0.0025702298153191805
1772797754365759200,6.19275927734375,-0.00042590522207319736,-0.0025612893514335155,0.00017584091983735561
1772797754375785200,6.20278515625,-0.0002730395644903183,-0.004348270129412413,-0.0006263030227273703
1772797754385811200,6.212811279296875,-0.002668777946382761,-0.003275658003985882,0.001986145507544279
1772797754395838000,6.222837890625,-0.0023089852184057236,-0.0031201299279928207,0.0023451396264135838
1772797754405864000,6.232864013671875,0.0015723243122920394,-0.0011232811957597733,0.0016925414092838764
1772797754415891200,6.24289111328125,-0.0009944303892552853,-0.0031219832599163055,-0.0020087198354303837
1772797754425917200,6.252917236328125,-0.000466211698949337,0.0011728336103260517,-0.002557063475251198
1772797754435943200,6.262943115234375,-0.002565048635005951,-0.0014663590118288994,-0.0007168191950768232
1772797754445970200,6.27297021484375,-0.0002540519926697016,-0.00008696643635630608,-0.002456462010741234
1772797754455996200,6.28299609375,0.0010066883405670524,0.0027812581975013018,-0.0007227440364658833
1772797754466023000,6.29302294921875,-0.0011855240445584059,0.001096575055271387,0.0004745780024677515
1772797754476049000,6.303048828125,0.0010139807127416134,0.002711515873670578,0.0014032222097739577
1772797754486075100,6.3130751953125,0.001102691050618887,0.002488948404788971,-0.0009868976194411516
1772797754496102100,6.32310205078125,-0.0002925388980656862,0.0012836018577218056,-0.0014779847115278244
1772797754506128100,6.333128173828125,-0.0005651642568409443,-0.0014247847720980644,-0.0018487507477402687
1772797754516154000,6.343154052734375,0.0005147476913407445,-0.0024519655853509903,0.0016804704209789634
1772797754526180900,6.353180908203125,0.00036087282933294773,0.0007981881499290466,0.0020237169228494167
1772797754536206800,6.363206787109375,-0.0007339527364820242,0.00372979580424726,0.006136436481028795
1772797754546234000,6.373234130859375,-0.001310768537223339,0.00340713351033628,0.005114337429404259
1772797754556260000,6.383260009765625,-0.00047693285159766674,-0.0003370046615600586,0.0017643468454480171
1772797754566286000,6.3932861328125,0.001483697327785194,-0.0012381691485643387,-0.0023500220850110054
1772797754576313000,6.40331298828125,0.0011217737337574363,-0.003556184470653534,-0.003001697827130556
1772797754586339000,6.413339111328125,-0.001026218757033348,-0.0019001099281013012,-0.0020709100645035505
1772797754596366000,6.423365966796875,-0.002340222243219614,-0.003189079463481903,-0.0004770082887262106
1772797754606392000,6.43339208984375,-0.002430760068818927,0.002800998045131564,-0.00024048076011240482
1772797754616418000,6.44341796875,0.0011786222457885742,0.0010438445024192333,0.002471948741003871
1772797754626445000,6.453445068359375,-0.0008619306609034538,0.004123194143176079,0.00010485970415174961
1772797754636471000,6.463470947265625,0.0008816408226266503,-0.00046623172238469124,0.003057240042835474
1772797754646498000,6.473498046875,-0.0013436833396553993,-0.001495834905654192,-0.0019830341916531324
1772797754656524000,6.48352392578125,0.0010161437094211578,-0.0016084862872958183,-0.002334038959816098
1772797754666550300,6.49355029296875,0.0027989251539111137,-0.0042890142649412155,-0.003559298813343048
1772797754676577000,6.503576904296875,0.003493211232125759,-0.000997613649815321,-0.0008593862876296043
1772797754686603000,6.51360302734375,0.00046575197484344244,0.0006325887516140938,0.001144824200309813
1772797754696629000,6.52362890625,-0.0006362639833241701,0.0036566080525517464,0.0039832210168242455
1772797754706656000,6.533656005859375,-0.0004625236615538597,0.0010732929222285748,0.001845817663706839
1772797754716682000,6.543681884765625,0.002418750198557973,0.00022827181965112686,-0.0005776588805019855
1772797754726709200,6.553709228515625,0.0002724669175222516,-0.00183423375710845,-0.001547027612105012
1772797754736735200,6.5637353515625,-0.0009685661643743515,-0.0009037251584231853,-0.0014274518471211195
1772797754746761000,6.573760986328125,0.00037869508378207684,0.0015497487038373947,0.0019563219975680113
1772797754756788000,6.5837880859375,-0.0001842970959842205,-0.00048437342047691345,-0.0004700839053839445
1772797754766814000,6.59381396484375,-0.000598209910094738,0.001856003887951374,0.000625282758846879
1772797754776842000,6.603842041015625,0.003587746759876609,0.0043146344833076,0.0004692215006798506
1772797754786868000,6.613867919921875,0.00037280493415892124,0.0014777705073356628,0.002931117545813322
1772797754796894000,6.62389404296875,-0.00029804534278810024,-0.0011592917144298553,0.0003928588703274727
1772797754806921000,6.6339208984375,-0.0007356288842856884,-0.0005996967665851116,-0.0006533009000122547
1772797754816947000,6.643947021484375,-0.00046238861978054047,0.0016898228786885738,-0.0014951261691749096
1772797754826973000,6.653972900390625,-0.0022582835517823696,-0.0015327963046729565,0.0009377369424328208
1772797754837000000,6.664,-0.001419653883203864,-0.0007263910956680775,-0.00015628966502845287
1772797754847026000,6.67402587890625,-0.002583335153758526,0.001606836449354887,0.0004676538519561291
1772797754857053000,6.684052978515625,0.0004875559825450182,-0.001040878240019083,0.00014274800196290016
1772797754867079000,6.694078857421875,0.001452842028811574,-0.002097063697874546,0.001994950696825981
1772797754877105000,6.70410498046875,-0.0015235068276524544,0.00009045703336596489,0.0029185351449996233
1772797754887132000,6.7141318359375,-0.0007117751520127058,0.001645742915570736,-0.00046074995771050453
1772797754897158000,6.724157958984375,-0.0003716896753758192,-0.0010666865855455399,0.0013563247630372643
1772797754907185000,6.734184814453125,-0.0021782151889055967,0.0035340064205229282,0.0038723978213965893
1772797754917211000,6.7442109375,0.000460977666079998,-0.0011345148086547852,-0.0008099719416350126
1772797754927237000,6.754237060546875,-0.0012722928076982498,0.001759339589625597,-0.0001568961888551712
1772797754937263900,6.764263916015625,-0.0001913157757371664,0.00025491975247859955,-0.0029598732944577932
1772797754947289900,6.774289794921875,-0.00038218218833208084,0.0006669517606496811,-0.0013969046995043755
1772797754957315800,6.78431591796875,-0.00031001074239611626,0.00012499839067459106,-0.00076280627399683
1772797754967342800,6.7943427734375,0.0009581497870385647,-0.0005078730173408985,-0.0016371498350054026
1772797754977368800,6.804368896484375,0.0025158326607197523,0.00029533635824918747,-0.00012980075553059578
1772797754987396000,6.81439599609375,-0.0005109717603772879,0.0014429637230932713,0.0018990557873621583
1772797754997422000,6.824422119140625,-0.001380227506160736,-0.0009197928011417389,0.0026191745419055223
1772797755007448000,6.834447998046875,0.0002816652413457632,-0.0010320520959794521,0.0020727161318063736
1772797755017474800,6.844474853515625,-0.0013436619192361832,0.00014213519170880318,0.0006023847963660955
1772797755027500800,6.854500732421875,0.0006556028965860605,-0.003388658631592989,0.0001880668569356203
1772797755037528000,6.864528076171875,0.0010809097439050674,-0.0019854395650327206,0.000650657806545496
1772797755047554000,6.874553955078125,0.0005109835183247924,-0.0003074370324611664,-0.002755719469860196
1772797755057580000,6.884580078125,-0.001542846206575632,0.0014228187501430511,-0.0013985729310661554
1772797755067607000,6.89460693359375,0.0006632361328229308,0.0019162367098033428,-0.000913192518055439
1772797755077633000,6.904633056640625,-0.0003660756628960371,-0.00032481318339705467,0.0016168104484677315
1772797755087659000,6.914658935546875,-0.0013134819455444813,0.0013337698765099049,0.001341121387667954
1772797755097685800,6.924685791015625,0.0007147815776988864,-0.003670309204608202,0.000790912308730185
1772797755107712000,6.9347119140625,-0.0013113967142999172,-0.0009084949269890785,-0.0006912334356456995
1772797755117739000,6.944739013671875,0.0011906431755051017,-0.003117853309959173,-0.003106720745563507
1772797755127765000,6.954764892578125,0.0010042036883533,0.002295875921845436,-0.0006574213039129972
1772797755137791000,6.964791015625,-0.0009119408205151558,-0.0007047075778245926,-0.001626811921596527
1772797755147817700,6.974817626953125,-0.00026811123825609684,0.00009337626397609711,-0.0010872106067836285
1772797755157843700,6.98484375,0.0007564068073406816,-0.0011721579357981682,-0.0024315742775797844
1772797755167871000,6.99487109375,0.0014579512644559145,0.000341139268130064,-0.0017618408892303705
1772797755177897000,7.00489697265625,0.0005854996852576733,0.002274594269692898,0.00008932244963943958
1772797755187923000,7.0149228515625,-0.0017458340153098106,0.005921878386288881,0.0013666179729625583
1772797755197950000,7.024949951171875,0.0006483477773144841,0.0033199700992554426,0.0037203198298811913
1772797755207976000,7.034975830078125,0.0007923435186967254,-0.0007133600302040577,-0.000994889298453927
1772797755218002000,7.045001953125,0.0012237755581736565,0.0009069070219993591,-0.0005224444903433323
1772797755228029000,7.05502880859375,-0.00048803025856614113,-0.0033039096742868423,-0.0013155234046280384
1772797755238055000,7.065054931640625,-0.0001974795013666153,-0.0002796235494315624,0.000016323290765285492
1772797755248082000,7.07508203125,0.00034225359559059143,0.000775639433413744,0.0019846572540700436
1772797755258108000,7.08510791015625,0.0009912658715620637,0.00027762865647673607,0.0013745269970968366
1772797755268134000,7.0951337890625,-0.0016167869325727224,0.00134261604398489,0.0015164838405326009
1772797755278161000,7.105160888671875,-0.0014921510592103004,0.00010105036199092865,0.001829138956964016
1772797755288187100,7.115187255859375,0.0005649827653542161,0.0006299898959696293,0.000022658612579107285
1772797755298213000,7.125213134765625,-0.0016779315192252398,0.00016313791275024414,-0.00460964348167181
1772797755308240000,7.135239990234375,-0.0017939533572643995,-0.0020981859415769577,-0.002540100133046508
1772797755318265900,7.145265869140625,0.00047532643657177687,-0.0017122942954301834,0.0010194811038672924
1772797755328292900,7.15529296875,0.0014180666767060757,0.0005755173042416573,0.0024031121283769608
1772797755338318800,7.16531884765625,0.0013645370490849018,0.00003249850124120712,0.0003594022709876299
1772797755348345000,7.175344970703125,-0.0004717868287116289,-0.000126667320728302,0.0009274096228182316
1772797755358372000,7.1853720703125,0.0027232076972723007,0.00196258258074522,-0.00044731423258781433
1772797755368397800,7.195397705078125,-0.0005286021623760462,-0.00038216402754187584,-0.0009129294194281101
1772797755378423800,7.205423828125,-0.0013688295148313046,-0.0006372947245836258,-0.0010311738587915897
1772797755388450800,7.215450927734375,0.0008219429291784763,-0.001538264099508524,-0.00002513779327273369
1772797755398476800,7.225476806640625,-0.0015687767881900072,-0.0016953907907009125,-0.00037640868686139584
1772797755408504000,7.235504150390625,0.00045144848991185427,-0.002050457987934351,-0.00009413482621312141
1772797755418530000,7.245530029296875,-0.0004383136983960867,0.002704083453863859,0.0025719557888805866
1772797755428556000,7.25555615234375,-0.0002988961059600115,0.002575188409537077,0.0034670254681259394
1772797755438582800,7.265582763671875,-0.0010757402051240206,0.0009756940416991711,0.0021996269933879375
1772797755448608800,7.27560888671875,-0.0009481052402406931,0.002741436939686537,-0.003755035810172558
1772797755458634800,7.285634765625,0.001285754144191742,0.00046736374497413635,-0.000003973720595240593
1772797755468662000,7.295662109375,-0.0006688134744763374,0.0008941716514527798,-0.0008985137101262808
1772797755478688000,7.30568798828125,0.001208981266245246,-0.0015969490632414818,-0.0015597764868289232
1772797755488715000,7.315715087890625,-0.00003124005161225796,0.002771335421130061,-0.0015059786383062601
1772797755498741000,7.325740966796875,-0.001331927953287959,0.0003196294419467449,0.00016568787395954132
1772797755508767000,7.33576708984375,0.0006618213374167681,-0.0005416846834123135,-0.00032541481778025627
1772797755518793700,7.345793701171875,-0.0003078356385231018,0.00032783718779683113,0.00006340676918625832
1772797755528820000,7.355820068359375,-0.0010281563736498356,-0.0011547659523785114,-0.001856725662946701
1772797755538846000,7.365845947265625,-0.00036103464663028717,0.0002231532707810402,-0.0006804075092077255
1772797755548873000,7.375873046875,-0.0007592884358018637,-0.0013808384537696838,-0.0007816718425601721
1772797755558899000,7.38589892578125,-0.0027020645793527365,0.0004045446403324604,-0.004044842906296253
1772797755568926000,7.395926025390625,-0.00023509422317147255,-0.0020899740047752857,-0.0007973555475473404
1772797755578952000,7.405951904296875,-0.0015823876019567251,0.0012229983694851398,-0.0005251804832369089
1772797755588978000,7.41597802734375,-0.00033641746267676353,-0.0037554558366537094,-0.0002722828648984432
1772797755599005000,7.4260048828125,0.0025611016899347305,-0.0010472876019775867,0.001037726178765297
1772797755609031000,7.436031005859375,0.0014619927387684584,-0.0009301882237195969,0.0008019455708563328
1772797755619057000,7.446056884765625,0.0014662537723779678,-0.0007126079872250557,-0.0003810306079685688
1772797755629084000,7.456083984375,0.0013276385143399239,-0.0019485396333038807,0.001853554043918848
1772797755639110000,7.46610986328125,0.0003678351640701294,0.0018853466026484966,0.0007869579130783677
1772797755649137000,7.476136962890625,0.000924760359339416,0.0014619985595345497,-0.0005336988251656294
1772797755659163000,7.486162841796875,-0.00009682821109890938,-0.0008522882126271725,-0.0006649927236139774
1772797755669188900,7.49618896484375,-0.00027833483181893826,0.00018917256966233253,-0.0007855701260268688
1772797755679215900,7.5062158203125,-0.0004903224762529135,0.0000818474218249321,0.00011750776320695877
1772797755689241900,7.516241943359375,0.0011602308368310332,0.0019156401976943016,-0.0008923269342631102
1772797755699267800,7.526267822265625,0.0009375906083732843,0.0008293366990983486,0.002643285784870386
1772797755709295000,7.536295166015625,0.000019523780792951584,0.00019893096759915352,0.0002871283795684576
1772797755719321000,7.546321044921875,-0.00184761849232018,-0.00003915559500455856,-0.0027986762579530478
1772797755729347800,7.556347900390625,0.0012588389217853546,0.0015550646930932999,-0.000006980495527386665
1772797755739373800,7.566373779296875,-0.0008272151462733746,0.0014506690204143524,-0.0000067141372710466385
1772797755749399800,7.57639990234375,0.0007687858305871487,0.0000112215057015419,-0.0001727738417685032
1772797755759426800,7.5864267578125,-0.0002679827157407999,0.0014080498367547989,0.00168185168877244
1772797755769452800,7.596452880859375,0.0011500924592837691,-0.0019193119369447231,0.0016869500977918506
1772797755779477500,7.6064775390625,0.0008105394663289189,0.00038592051714658737,0.0005263444036245346
1772797755789504500,7.61650439453125,0.0014514189679175615,0.0008291313424706459,0.0005573395173996687
1772797755799530500,7.626530517578125,-0.0003371599595993757,-0.0044298130087554455,0.0011256580473855138
1772797755809557500,7.6365576171875,-0.00142982741817832,-0.000386988278478384,-0.0029402340296655893
1772797755819583700,7.646583740234375,0.00046447908971458673,0.0002569640055298805,-0.0018139833118766546
1772797755829609700,7.656609619140625,0.0013457632157951593,-0.00032064178958535194,0.0011065562721341848
1772797755839636500,7.666636474609375,0.00009674066677689552,0.0017494331113994122,0.0025273526553064585
1772797755849662500,7.676662353515625,0.00015693274326622486,0.0024453280493617058,0.0016555573092773557
1772797755859688400,7.6866884765625,0.00270664319396019,-0.0011810981668531895,0.0006859004497528076
1772797755869715500,7.696715576171875,-0.0013277789112180471,-0.0012404792942106724,-0.0018137143924832344
1772797755879741700,7.70674169921875,-0.0014750517439097166,-0.0027036196552217007,0.00022360403090715408
1772797755889767700,7.716767578125,-0.0010784408077597618,-0.0012138020247220993,-0.0004705421160906553
1772797755899794700,7.726794677734375,0.0012464988976716995,0.001084239687770605,-0.0017656371928751469
1772797755909820700,7.736820556640625,0.0018078491557389498,-0.001134670339524746,0.0009618543554097414
1772797755919847400,7.746847412109375,0.002489884849637747,-0.0022521326318383217,-0.0017337971366941929
1772797755929873400,7.756873291015625,-0.0009283795952796936,-0.0006954437121748924,-0.0022068561520427465
1772797755939899400,7.7668994140625,-0.00021971226669847965,0.0017999382689595222,-0.000996182905510068
1772797755949926700,7.7769267578125,0.002221388276666403,0.0023142430000007153,0.003147448878735304
1772797755959952600,7.78695263671875,-0.0012178178876638412,0.0017746863886713982,0.0040444014593958855
1772797755969978600,7.796978515625,-0.00007782015018165112,0.003417413216084242,0.0008712285198271275
1772797755980005400,7.80700537109375,-0.0002615782432258129,-0.002005581744015217,-0.00009576533921062946
1772797755990031400,7.81703125,-0.000030624447390437126,-0.0018075909465551376,-0.0017800410278141499
1772797756000058600,7.82705859375,0.0014500932302325964,-0.0040039001032710075,-0.001714527141302824
1772797756010084600,7.837084716796875,0.0023792998399585485,0.0007550721056759357,0.001624619704671204
1772797756020110600,7.847110595703125,0.0013260196428745985,0.0019335211254656315,0.003186031011864543
1772797756030137600,7.8571376953125,0.002299258019775152,0.0029960935935378075,0.002055377932265401
1772797756040163600,7.86716357421875,0.0000744531862437725,0.0004439866170287132,0.0016439196188002825
1772797756050189600,7.877189453125,0.00022879044990986586,0.0004408862441778183,-0.0015178683679550886
1772797756060216600,7.887216552734375,0.0009798018727451563,-0.00162492785602808,-0.0020366522949188948
1772797756070242600,7.89724267578125,-0.0014526871964335442,0.0014504310674965382,-0.0011604593601077795
1772797756080269600,7.90726953125,0.0011327095562592149,-0.0010564024560153484,-0.0015111977700144053
1772797756090295600,7.917295654296875,-0.00007218541577458382,-0.004563645925372839,-0.0010543633252382278
1772797756100321500,7.927321533203125,0.00011689914390444756,0.0015903860330581665,-0.0000458243303000927
1772797756110348500,7.9373486328125,0.0023956068325787783,0.00176908727735281,0.0015480902511626482
1772797756120374500,7.94737451171875,-0.001112308818846941,0.0024609765969216824,0.00020479178056120872
1772797756130400800,7.95740087890625,-0.000140749616548419,0.00038324669003486633,0.00041015748865902424
1772797756140427500,7.967427490234375,-0.0007902944926172495,0.002633085008710623,0.0007795380661264062
1772797756150453500,7.97745361328125,0.0012392888311296701,-0.003992672078311443,0.00003077159635722637
1772797756160479500,7.9874794921875,-0.0023051120806485415,-0.00030685681849718094,-0.0009221076034009457
1772797756170506500,7.997506591796875,0.0005018197698518634,-0.002005388028919697,-0.001773374155163765
1772797756180532500,8.007532470703126,-0.0015504122711718082,0.003959826193749905,0.0011571685317903757
1772797756190559700,8.017559814453126,0.0013176905922591686,0.030577730387449265,0.02612968720495701
1772797756200585700,8.027585693359375,-0.00010017631575465202,0.05324682593345642,0.043801359832286835
1772797756210611500,8.037611572265625,-0.0002648518420755863,0.05746949464082718,0.05467496067285538
1772797756220638500,8.047638427734375,-0.0012677982449531555,0.04554838687181473,0.04223266988992691
1772797756230664400,8.05766455078125,-0.001491848612204194,0.018809761852025986,0.01925792545080185
1772797756240690400,8.0676904296875,-0.0020886629354208708,-0.004961880389600992,0.0010251259664073586
1772797756250717700,8.0777177734375,-0.0001852752175182104,-0.010654677636921406,-0.006326506845653057
1772797756260743700,8.08774365234375,-0.0022558830678462982,-0.010608072392642498,-0.013311711139976978
1772797756270769700,8.097769775390624,0.0023122699931263924,-0.025139376521110535,-0.016965003684163094
1772797756280796400,8.10779638671875,0.0012904151808470488,-0.04264353960752487,-0.0368761271238327
1772797756290822400,8.117822509765626,-0.002086994703859091,-0.062192175537347794,-0.059396762400865555
1772797756300849400,8.127849365234376,0.001771925832144916,-0.06465266644954681,-0.0625360980629921
1772797756310875600,8.137875732421875,-0.0011340079363435507,-0.043697506189346313,-0.03570203855633736
1772797756320901600,8.147901611328125,0.00014803791418671608,0.002461199415847659,0.002663990715518594
