time,seconds_elapsed,z,y,x
1772797920887273500,0.0782734375,-0.9989166259765625,0.0144195556640625,0.0145263671875
1772797920897300700,0.08830078125,-1.01593017578125,0.0153350830078125,0.0127410888671875
1772797920907327700,0.09832763671875,-1.0016937255859375,0.0143585205078125,0.0063018798828125
1772797920917354500,0.1083544921875,-0.9750213623046875,0.013946533203125,0.00323486328125
1772797920927381800,0.1183818359375,-0.9775543212890625,0.0137939453125,0.0044403076171875
1772797920937408800,0.12840869140625,-1.0003204345703125,0.0146636962890625,0.007659912109375
1772797920947435500,0.138435546875,-1.0082855224609375,0.0145416259765625,0.0114898681640625
1772797920957462500,0.148462646484375,-0.994964599609375,0.015533447265625,0.0108489990234375
1772797920967489800,0.15848974609375,-0.987091064453125,0.0141143798828125,0.0069580078125
1772797920977516500,0.1685166015625,-0.9887542724609375,0.013427734375,0.004791259765625
1772797920987543600,0.17854345703125,-0.9925537109375,0.014312744140625,0.0052337646484375
1772797920997570800,0.18857080078125,-0.9971771240234375,0.015167236328125,0.0086517333984375
1772797921007597600,0.19859765625,-0.99774169921875,0.014739990234375,0.0103912353515625
1772797921017623600,0.20862353515625,-0.995330810546875,0.013885498046875,0.00909423828125
1772797921027650600,0.218650634765625,-0.9914093017578125,0.013458251953125,0.0067901611328125
1772797921037677800,0.228677734375,-0.98907470703125,0.01495361328125,0.006256103515625
1772797921047704600,0.23870458984375,-0.99395751953125,0.01519775390625,0.007049560546875
1772797921057731600,0.248731689453125,-0.9976654052734375,0.015045166015625,0.0069427490234375
1772797921067758600,0.258758544921875,-0.9954681396484375,0.0135498046875,0.007843017578125
1772797921077785900,0.268785888671875,-0.991485595703125,0.012237548828125,0.00860595703125
1772797921087812000,0.27881201171875,-0.991607666015625,0.013671875,0.008331298828125
1772797921097839000,0.288839111328125,-0.99420166015625,0.0145416259765625,0.0081024169921875
1772797921107866000,0.2988662109375,-0.99481201171875,0.0142974853515625,0.007476806640625
1772797921117892900,0.308892822265625,-0.99310302734375,0.0139007568359375,0.0086517333984375
1772797921127920000,0.318920166015625,-0.99169921875,0.0138092041015625,0.008209228515625
1772797921137947100,0.328947021484375,-0.993072509765625,0.01373291015625,0.0073089599609375
1772797921147974000,0.338973876953125,-0.9935455322265625,0.01446533203125,0.007659912109375
1772797921158001200,0.349001220703125,-0.993743896484375,0.01385498046875,0.0074920654296875
1772797921168028200,0.359028076171875,-0.994293212890625,0.0137786865234375,0.007354736328125
1772797921178055200,0.36905517578125,-0.9933319091796875,0.01507568359375,0.0079498291015625
1772797921188082000,0.37908203125,-0.9921112060546875,0.01397705078125,0.008056640625
1772797921198109200,0.389109130859375,-0.9938812255859375,0.0136260986328125,0.00726318359375
1772797921208136200,0.39913623046875,-0.9952392578125,0.0143280029296875,0.007568359375
1772797921218163000,0.409162841796875,-0.9939727783203125,0.0135345458984375,0.007720947265625
1772797921228190200,0.419190185546875,-0.992523193359375,0.015045166015625,0.007843017578125
1772797921238217200,0.42921728515625,-0.9922943115234375,0.014923095703125,0.00714111328125
1772797921248244000,0.439243896484375,-0.99395751953125,0.0145416259765625,0.0082855224609375
1772797921258271000,0.44927099609375,-0.9944305419921875,0.014312744140625,0.0079803466796875
1772797921268298200,0.45929833984375,-0.9940032958984375,0.01495361328125,0.0086517333984375
1772797921278325000,0.469324951171875,-0.9935150146484375,0.0142974853515625,0.008514404296875
1772797921288352000,0.47935205078125,-0.992034912109375,0.01409912109375,0.0073089599609375
1772797921298379300,0.489379150390625,-0.9920654296875,0.0147552490234375,0.0083770751953125
1772797921308405200,0.4994052734375,-0.9925537109375,0.0143280029296875,0.0078277587890625
1772797921318432000,0.509431884765625,-0.9946136474609375,0.0144195556640625,0.00640869140625
1772797921328459000,0.519458984375,-0.9942779541015625,0.015411376953125,0.007080078125
1772797921338486300,0.529486328125,-0.99346923828125,0.0149383544921875,0.00762939453125
1772797921348513000,0.539512939453125,-0.993865966796875,0.014373779296875,0.0071258544921875
1772797921358540000,0.5495400390625,-0.9946136474609375,0.013641357421875,0.00732421875
1772797921368567000,0.559567138671875,-0.9944305419921875,0.0137939453125,0.0074005126953125
1772797921378594000,0.569593994140625,-0.992523193359375,0.014251708984375,0.0074615478515625
1772797921388621000,0.57962109375,-0.9932708740234375,0.0139923095703125,0.0076751708984375
1772797921398648000,0.58964794921875,-0.99383544921875,0.0141448974609375,0.007080078125
1772797921408675000,0.599675048828125,-0.9937286376953125,0.0152130126953125,0.0082244873046875
1772797921418702000,0.6097021484375,-0.9940185546875,0.014739990234375,0.0074462890625
1772797921428729000,0.61972900390625,-0.99322509765625,0.0141754150390625,0.007293701171875
1772797921438756000,0.629756103515625,-0.9933013916015625,0.014739990234375,0.007537841796875
1772797921448783000,0.639783203125,-0.9941253662109375,0.0142364501953125,0.0076446533203125
1772797921458810000,0.64981005859375,-0.994354248046875,0.0135650634765625,0.007049560546875
1772797921468837000,0.659837158203125,-0.9939727783203125,0.014190673828125,0.0072479248046875
1772797921478864100,0.669864013671875,-0.9938201904296875,0.013946533203125,0.007781982421875
1772797921488891100,0.67989111328125,-0.9933929443359375,0.013519287109375,0.0074005126953125
1772797921498918100,0.689918212890625,-0.9923095703125,0.0140838623046875,0.0083160400390625
1772797921508945000,0.69994482421875,-0.9930267333984375,0.013641357421875,0.0080108642578125
1772797921518972200,0.70997216796875,-0.99346923828125,0.014495849609375,0.00738525390625
1772797921528999200,0.719999267578125,-0.9937896728515625,0.0140380859375,0.00762939453125
1772797921539026000,0.73002587890625,-0.9949493408203125,0.0141448974609375,0.0070037841796875
1772797921549053200,0.74005322265625,-0.9942169189453125,0.0140380859375,0.007537841796875
1772797921559080200,0.750080078125,-0.9939422607421875,0.0142974853515625,0.0067138671875
1772797921569107000,0.76010693359375,-0.99267578125,0.014190673828125,0.0080413818359375
1772797921579134000,0.770134033203125,-0.993316650390625,0.013275146484375,0.0084075927734375
1772797921589161200,0.7801611328125,-0.9947967529296875,0.0124664306640625,0.00750732421875
1772797921599188000,0.79018798828125,-0.9942779541015625,0.014190673828125,0.008575439453125
1772797921609215000,0.800215087890625,-0.9937744140625,0.015411376953125,0.0076446533203125
1772797921619242200,0.8102421875,-0.9936370849609375,0.015228271484375,0.0079498291015625
1772797921629269200,0.820269287109375,-0.9931488037109375,0.014190673828125,0.0064239501953125
1772797921639296000,0.8302958984375,-0.9933624267578125,0.013427734375,0.0073394775390625
1772797921649323000,0.840322998046875,-0.992584228515625,0.01422119140625,0.0073699951171875
1772797921659350300,0.850350341796875,-0.9937591552734375,0.014923095703125,0.0074005126953125
1772797921669377000,0.860376953125,-0.9948272705078125,0.0149383544921875,0.0084686279296875
1772797921679403000,0.870403076171875,-0.996307373046875,0.0152435302734375,0.0057220458984375
1772797921689430000,0.880429931640625,-0.994964599609375,0.0152740478515625,0.0074005126953125
1772797921699457300,0.890457275390625,-0.9928131103515625,0.014984130859375,0.009033203125
1772797921709484000,0.900484130859375,-0.991851806640625,0.0140533447265625,0.0092620849609375
1772797921719511000,0.910510986328125,-0.9937744140625,0.0130615234375,0.0081634521484375
1772797921729538000,0.9205380859375,-0.995208740234375,0.012969970703125,0.0087738037109375
1772797921739565000,0.93056494140625,-0.9922637939453125,0.013092041015625,0.0057220458984375
1772797921749592000,0.940592041015625,-0.9932708740234375,0.01397705078125,0.0066070556640625
1772797921759619000,0.950619140625,-0.99334716796875,0.013031005859375,0.0066680908203125
1772797921769646000,0.96064599609375,-0.9946441650390625,0.0143585205078125,0.0074310302734375
1772797921779673000,0.970673095703125,-0.9944000244140625,0.014556884765625,0.008544921875
1772797921789700000,0.9807001953125,-0.994659423828125,0.0146942138671875,0.0081634521484375
1772797921799727000,0.99072705078125,-0.9947662353515625,0.0151214599609375,0.0064697265625
1772797921809754000,1.000754150390625,-0.993621826171875,0.015106201171875,0.0063934326171875
1772797921819781000,1.010781005859375,-0.992889404296875,0.0141754150390625,0.00579833984375
1772797921829807900,1.020807861328125,-0.9935150146484375,0.0146942138671875,0.0064849853515625
1772797921839835100,1.030835205078125,-0.9947662353515625,0.0154266357421875,0.008148193359375
1772797921849862100,1.040862060546875,-0.994476318359375,0.013824462890625,0.00775146484375
1772797921859889200,1.05088916015625,-0.9937744140625,0.014404296875,0.0084228515625
1772797921869916200,1.060916259765625,-0.99432373046875,0.0148773193359375,0.00775146484375
1772797921879943200,1.070943115234375,-0.994415283203125,0.0142974853515625,0.0091552734375
1772797921889970200,1.08097021484375,-0.9964141845703125,0.014312744140625,0.0077362060546875
1772797921899997000,1.090996826171875,-0.993865966796875,0.0146026611328125,0.0076141357421875
1772797921910024200,1.101024169921875,-0.9931488037109375,0.0139007568359375,0.0082855224609375
1772797921920051200,1.11105126953125,-0.994384765625,0.01531982421875,0.007720947265625
1772797921930078000,1.121077880859375,-0.994842529296875,0.015350341796875,0.008056640625
1772797921940105200,1.131105224609375,-0.995452880859375,0.014068603515625,0.008148193359375
1772797921950132200,1.14113232421875,-0.9947052001953125,0.0144805908203125,0.0087127685546875
1772797921960159000,1.151158935546875,-0.992950439453125,0.0142822265625,0.00927734375
1772797921970186000,1.16118603515625,-0.99273681640625,0.0144500732421875,0.008514404296875
1772797921980213200,1.171213134765625,-0.9942474365234375,0.0152435302734375,0.008270263671875
1772797921990240000,1.181239990234375,-0.995361328125,0.015167236328125,0.007965087890625
1772797922000267000,1.19126708984375,-0.993438720703125,0.01458740234375,0.00726318359375
1772797922010294300,1.201294189453125,-0.9936370849609375,0.0143890380859375,0.00689697265625
1772797922020321000,1.211321044921875,-0.9946441650390625,0.015106201171875,0.007354736328125
1772797922030348000,1.22134814453125,-0.993927001953125,0.01318359375,0.0074615478515625
1772797922040375000,1.231375,-0.9942169189453125,0.0139007568359375,0.0066680908203125
1772797922050402000,1.241402099609375,-0.9947662353515625,0.014373779296875,0.0063323974609375
1772797922060429000,1.251428955078125,-0.9933624267578125,0.015899658203125,0.0076141357421875
1772797922070456000,1.2614560546875,-0.994384765625,0.0146636962890625,0.008544921875
1772797922080483000,1.271483154296875,-0.9943389892578125,0.01434326171875,0.0081024169921875
1772797922090509600,1.281509521484375,-0.995452880859375,0.0142669677734375,0.0068817138671875
1772797922100536600,1.29153662109375,-0.9936676025390625,0.0153045654296875,0.006439208984375
1772797922110563800,1.301563720703125,-0.99395751953125,0.014373779296875,0.0075225830078125
1772797922120590600,1.311590576171875,-0.9939117431640625,0.0150909423828125,0.0080413818359375
1772797922130617600,1.32161767578125,-0.99462890625,0.013885498046875,0.006561279296875
1772797922140644600,1.33164453125,-0.996185302734375,0.0137481689453125,0.0071258544921875
1772797922150671600,1.341671630859375,-0.9931488037109375,0.0141143798828125,0.008636474609375
1772797922160698600,1.35169873046875,-0.995452880859375,0.0140533447265625,0.0076904296875
1772797922170725600,1.3617255859375,-0.994415283203125,0.0153656005859375,0.00848388671875
1772797922180752600,1.371752685546875,-0.994110107421875,0.0149383544921875,0.00946044921875
1772797922190779600,1.381779541015625,-0.9950103759765625,0.0132598876953125,0.008209228515625
1772797922200806700,1.391806640625,-0.9937896728515625,0.0130462646484375,0.0070953369140625
1772797922210833700,1.401833740234375,-0.99285888671875,0.01470947265625,0.00775146484375
1772797922220860700,1.411860595703125,-0.9935455322265625,0.0154876708984375,0.0093994140625
1772797922230887700,1.4218876953125,-0.9958038330078125,0.01593017578125,0.00927734375
1772797922240914700,1.431914794921875,-0.99658203125,0.0167388916015625,0.0081787109375
1772797922250941700,1.441941650390625,-0.9937896728515625,0.0159759521484375,0.005889892578125
1772797922260968700,1.45196875,-0.9939727783203125,0.0136871337890625,0.006103515625
1772797922270995700,1.46199560546875,-0.9931640625,0.0135650634765625,0.007080078125
1772797922281022500,1.4720224609375,-0.9929046630859375,0.015655517578125,0.007843017578125
1772797922291049700,1.4820498046875,-0.994537353515625,0.015869140625,0.00848388671875
1772797922301076700,1.49207666015625,-0.9959869384765625,0.0160980224609375,0.0078277587890625
1772797922311103500,1.502103515625,-0.99505615234375,0.0149078369140625,0.00775146484375
1772797922321130800,1.512130859375,-0.99334716796875,0.0147552490234375,0.0073089599609375
1772797922331157800,1.52215771484375,-0.993865966796875,0.01348876953125,0.0088348388671875
1772797922341184500,1.5321845703125,-0.9949951171875,0.013092041015625,0.009368896484375
1772797922351211500,1.54221142578125,-0.99444580078125,0.014923095703125,0.0081939697265625
1772797922361238800,1.55223876953125,-0.9945831298828125,0.0169525146484375,0.009063720703125
1772797922371265500,1.562265625,-0.99530029296875,0.0152587890625,0.0074920654296875
1772797922381292500,1.57229248046875,-0.9945068359375,0.013427734375,0.004638671875
1772797922391319800,1.58231982421875,-0.9921112060546875,0.0160980224609375,0.0069732666015625
1772797922401346600,1.5923466796875,-0.9931182861328125,0.0177459716796875,0.009124755859375
1772797922411373600,1.60237353515625,-0.99560546875,0.0141448974609375,0.01129150390625
1772797922421400600,1.612400634765625,-0.9965667724609375,0.01385498046875,0.0087432861328125
1772797922431427800,1.622427734375,-0.9952239990234375,0.014984130859375,0.00701904296875
1772797922441454600,1.63245458984375,-0.99151611328125,0.015838623046875,0.0048828125
1772797922451481600,1.642481689453125,-0.991943359375,0.0157928466796875,0.006927490234375
1772797922461508900,1.6525087890625,-0.9954681396484375,0.0153656005859375,0.00726318359375
1772797922471534800,1.662534912109375,-0.9967498779296875,0.0150909423828125,0.007293701171875
1772797922481561600,1.6725615234375,-0.99456787109375,0.0157318115234375,0.0065155029296875
1772797922491588600,1.682588623046875,-0.9949951171875,0.0135955810546875,0.0086669921875
1772797922501615900,1.692615966796875,-0.993743896484375,0.013031005859375,0.01025390625
1772797922511642600,1.702642578125,-0.9934539794921875,0.0149078369140625,0.01019287109375
1772797922521669600,1.712669677734375,-0.9949188232421875,0.01544189453125,0.0074920654296875
1772797922531696600,1.722696533203125,-0.9974517822265625,0.0159454345703125,0.00604248046875
1772797922541723600,1.7327236328125,-0.994873046875,0.01422119140625,0.0060882568359375
1772797922551750700,1.742750732421875,-0.9906768798828125,0.013641357421875,0.007232666015625
1772797922561777700,1.752777587890625,-0.9921112060546875,0.0138702392578125,0.00909423828125
1772797922571804700,1.7628046875,-0.996734619140625,0.01239013671875,0.0097198486328125
1772797922581831700,1.772831787109375,-0.9965057373046875,0.014923095703125,0.008544921875
1772797922591858700,1.782858642578125,-0.9937744140625,0.01446533203125,0.008819580078125
1772797922601885400,1.792885498046875,-0.9921112060546875,0.0129547119140625,0.0084991455078125
1772797922611912700,1.80291259765625,-0.9942779541015625,0.01513671875,0.0080718994140625
1772797922621939700,1.812939697265625,-0.9954071044921875,0.01446533203125,0.0084228515625
1772797922631966500,1.822966552734375,-0.99658203125,0.0138702392578125,0.00909423828125
1772797922641993700,1.83299365234375,-0.996002197265625,0.0133209228515625,0.0100250244140625
1772797922652020700,1.843020751953125,-0.9929351806640625,0.0137176513671875,0.0108184814453125
1772797922662047700,1.8530478515625,-0.992462158203125,0.0145111083984375,0.0093841552734375
1772797922672074500,1.863074462890625,-0.9951171875,0.0152587890625,0.008544921875
1772797922682101800,1.873101806640625,-0.9959259033203125,0.0152435302734375,0.0064544677734375
1772797922692128800,1.883128662109375,-0.99493408203125,0.0164031982421875,0.0077667236328125
1772797922702155500,1.893155517578125,-0.993896484375,0.015716552734375,0.0087432861328125
1772797922712182800,1.903182861328125,-0.9951324462890625,0.0155487060546875,0.0083160400390625
1772797922722209800,1.913209716796875,-0.996246337890625,0.0154876708984375,0.0078277587890625
1772797922732236500,1.923236572265625,-0.99566650390625,0.0156097412109375,0.00653076171875
1772797922742263600,1.933263671875,-0.99462890625,0.01556396484375,0.00653076171875
1772797922752290800,1.943290771484375,-0.9937896728515625,0.0146331787109375,0.0059814453125
1772797922762317600,1.953317626953125,-0.9938201904296875,0.0146484375,0.00732421875
1772797922772344600,1.963344482421875,-0.9947662353515625,0.014251708984375,0.00909423828125
1772797922782371800,1.973371826171875,-0.9945068359375,0.0140838623046875,0.00830078125
1772797922792397800,1.983397705078125,-0.9940032958984375,0.01324462890625,0.008880615234375
1772797922802424600,1.993424560546875,-0.9943695068359375,0.014739990234375,0.008331298828125
1772797922812451600,2.00345166015625,-0.99346923828125,0.0151519775390625,0.0087432861328125
1772797922822478800,2.013478759765625,-0.9936370849609375,0.014923095703125,0.008514404296875
1772797922832505600,2.023505615234375,-0.99517822265625,0.0136566162109375,0.0069122314453125
1772797922842532600,2.03353271484375,-0.9948883056640625,0.0140533447265625,0.0070953369140625
1772797922852559600,2.0435595703125,-0.992401123046875,0.0149078369140625,0.007659912109375
1772797922862586600,2.053586669921875,-0.9932861328125,0.0146331787109375,0.008148193359375
1772797922872613600,2.063613525390625,-0.995574951171875,0.0153350830078125,0.00823974609375
1772797922882640600,2.073640625,-0.9964752197265625,0.01568603515625,0.0080108642578125
1772797922892667600,2.083667724609375,-0.9955291748046875,0.0155792236328125,0.0067596435546875
1772797922902694700,2.093694580078125,-0.9938507080078125,0.016387939453125,0.0068359375
1772797922912721700,2.1037216796875,-0.99346923828125,0.0148468017578125,0.0072021484375
1772797922922748700,2.113748779296875,-0.9946746826171875,0.016143798828125,0.0087890625
1772797922932775700,2.123775634765625,-0.994720458984375,0.0150299072265625,0.008880615234375
1772797922942802700,2.133802734375,-0.9959869384765625,0.01458740234375,0.009429931640625
1772797922952829700,2.14382958984375,-0.99578857421875,0.0149688720703125,0.0085296630859375
1772797922962856700,2.153856689453125,-0.995635986328125,0.0157318115234375,0.00811767578125
1772797922972883700,2.1638837890625,-0.994842529296875,0.0162200927734375,0.0078887939453125
1772797922982910700,2.17391064453125,-0.9949951171875,0.0162506103515625,0.006866455078125
1772797922992937500,2.1839375,-0.9950103759765625,0.0135650634765625,0.0086212158203125
1772797923002964700,2.19396484375,-0.9952850341796875,0.013946533203125,0.008697509765625
1772797923012991700,2.20399169921875,-0.9948883056640625,0.014404296875,0.0092926025390625
1772797923023018500,2.2140185546875,-0.993621826171875,0.014892578125,0.0083160400390625
1772797923033045800,2.224045654296875,-0.9939422607421875,0.0153350830078125,0.007965087890625
1772797923043072800,2.23407275390625,-0.9944610595703125,0.01531982421875,0.00836181640625
1772797923053098800,2.2440986328125,-0.9944610595703125,0.0145721435546875,0.007720947265625
1772797923063125500,2.25412548828125,-0.9940948486328125,0.0159149169921875,0.0076141357421875
1772797923073152800,2.26415283203125,-0.994598388671875,0.0144805908203125,0.0082244873046875
1772797923083179800,2.2741796875,-0.9954376220703125,0.014404296875,0.00909423828125
1772797923093206500,2.28420654296875,-0.9955902099609375,0.0139312744140625,0.0086517333984375
1772797923103233300,2.2942333984375,-0.9948272705078125,0.014373779296875,0.007904052734375
1772797923113260500,2.304260498046875,-0.9950103759765625,0.015289306640625,0.0082244873046875
1772797923123287600,2.31428759765625,-0.9941253662109375,0.0152435302734375,0.0084075927734375
1772797923133314300,2.324314208984375,-0.9939727783203125,0.01507568359375,0.0081024169921875
1772797923143341300,2.33434130859375,-0.9941253662109375,0.014190673828125,0.0083770751953125
1772797923153368600,2.34436865234375,-0.993621826171875,0.0144805908203125,0.0093994140625
1772797923163395300,2.354395263671875,-0.9936065673828125,0.0135955810546875,0.00836181640625
1772797923173422300,2.36442236328125,-0.994659423828125,0.0153961181640625,0.00762939453125
1772797923183449600,2.37444970703125,-0.993927001953125,0.0154571533203125,0.00909423828125
1772797923193476400,2.384476318359375,-0.9942169189453125,0.01507568359375,0.0079498291015625
1772797923203503400,2.39450341796875,-0.9942626953125,0.0160064697265625,0.008392333984375
1772797923213530400,2.4045302734375,-0.9942169189453125,0.016510009765625,0.0074005126953125
1772797923223557400,2.414557373046875,-0.994659423828125,0.0166778564453125,0.007598876953125
1772797923233584400,2.42458447265625,-0.994903564453125,0.015411376953125,0.00830078125
1772797923243611400,2.434611328125,-0.99517822265625,0.01483154296875,0.0086822509765625
1772797923253638400,2.444638427734375,-0.993927001953125,0.01416015625,0.0092010498046875
1772797923263665400,2.45466552734375,-0.994415283203125,0.0146484375,0.0098876953125
1772797923273692400,2.4646923828125,-0.9940948486328125,0.015228271484375,0.008941650390625
1772797923283718400,2.474718505859375,-0.9946136474609375,0.0147552490234375,0.0087890625
1772797923293745400,2.484745361328125,-0.993682861328125,0.0155029296875,0.0081634521484375
1772797923303772400,2.4947724609375,-0.9942626953125,0.01531982421875,0.0077667236328125
1772797923313799400,2.50479931640625,-0.9951934814453125,0.0154266357421875,0.007659912109375
1772797923323826400,2.514826416015625,-0.9949493408203125,0.014678955078125,0.00830078125
1772797923333853400,2.524853515625,-0.9945526123046875,0.01470947265625,0.007720947265625
1772797923343880400,2.53488037109375,-0.9948883056640625,0.014068603515625,0.00811767578125
1772797923353907500,2.544907470703125,-0.9937286376953125,0.0143585205078125,0.0079193115234375
1772797923363934500,2.5549345703125,-0.9936370849609375,0.014495849609375,0.0077667236328125
1772797923373961500,2.56496142578125,-0.99407958984375,0.015625,0.008148193359375
1772797923383988500,2.574988525390625,-0.9932861328125,0.0158538818359375,0.00872802734375
1772797923394015200,2.58501513671875,-0.994903564453125,0.0153656005859375,0.0087890625
1772797923404042500,2.59504248046875,-0.9950408935546875,0.0142974853515625,0.0073394775390625
1772797923414069500,2.605069580078125,-0.993743896484375,0.0148773193359375,0.006683349609375
1772797923424096300,2.61509619140625,-0.9936065673828125,0.015045166015625,0.00634765625
1772797923434123500,2.62512353515625,-0.9931640625,0.014434814453125,0.0080413818359375
1772797923444150500,2.635150634765625,-0.994232177734375,0.0145111083984375,0.008636474609375
1772797923454177300,2.64517724609375,-0.9943084716796875,0.0149383544921875,0.0083465576171875
1772797923464204300,2.655204345703125,-0.99493408203125,0.014923095703125,0.008270263671875
1772797923474231600,2.6652314453125,-0.9943389892578125,0.014404296875,0.0071868896484375
1772797923484257500,2.675257568359375,-0.9928131103515625,0.0132904052734375,0.007568359375
1772797923494284300,2.6852841796875,-0.9934539794921875,0.0135498046875,0.0081634521484375
1772797923504311300,2.695311279296875,-0.9946136474609375,0.0135650634765625,0.0078582763671875
1772797923514338600,2.705338623046875,-0.994140625,0.013427734375,0.0079345703125
1772797923524365300,2.715365234375,-0.993255615234375,0.0149993896484375,0.0075531005859375
1772797923534392300,2.725392333984375,-0.994537353515625,0.01434326171875,0.0079498291015625
1772797923544419600,2.735419677734375,-0.99542236328125,0.0131072998046875,0.0089569091796875
1772797923554446300,2.7454462890625,-0.9935302734375,0.0143890380859375,0.0086517333984375
1772797923564473300,2.755473388671875,-0.9936370849609375,0.0148773193359375,0.006988525390625
1772797923574500400,2.765500244140625,-0.9951629638671875,0.0154571533203125,0.0074615478515625
1772797923584527600,2.775527587890625,-0.9953460693359375,0.0159912109375,0.009185791015625
1772797923594554400,2.785554443359375,-0.9932098388671875,0.0153656005859375,0.0077667236328125
1772797923604581400,2.795581298828125,-0.995758056640625,0.015960693359375,0.0075225830078125
1772797923614608600,2.805608642578125,-0.9960174560546875,0.012176513671875,0.0108795166015625
1772797923624635400,2.815635498046875,-0.9923095703125,0.0145263671875,0.0061187744140625
1772797923634662400,2.825662353515625,-0.993927001953125,0.0169830322265625,0.009735107421875
1772797923644689400,2.835689453125,-0.996185302734375,0.0150909423828125,0.0093841552734375
1772797923654716400,2.84571630859375,-0.9952239990234375,0.01556396484375,0.00677490234375
1772797923664742400,2.855742431640625,-0.9939422607421875,0.0167388916015625,0.008056640625
1772797923674769400,2.865769287109375,-0.9940948486328125,0.015960693359375,0.00628662109375
1772797923684796400,2.87579638671875,-0.99456787109375,0.013916015625,0.007537841796875
1772797923694823400,2.885823486328125,-0.9951324462890625,0.013580322265625,0.0089874267578125
1772797923704850400,2.895850341796875,-0.9942169189453125,0.0145111083984375,0.0085296630859375
1772797923714877400,2.90587744140625,-0.9954833984375,0.015106201171875,0.008270263671875
1772797923724904200,2.915904296875,-0.99554443359375,0.01519775390625,0.0077667236328125
1772797923734931500,2.925931396484375,-0.9943084716796875,0.0149383544921875,0.0075531005859375
1772797923744958500,2.93595849609375,-0.9945068359375,0.01544189453125,0.00714111328125
1772797923754985200,2.945985107421875,-0.9955902099609375,0.01470947265625,0.0078277587890625
1772797923765012500,2.956012451171875,-0.9946746826171875,0.01397705078125,0.007598876953125
1772797923775039500,2.96603955078125,-0.993927001953125,0.015106201171875,0.0079803466796875
1772797923785066200,2.976066162109375,-0.993255615234375,0.014617919921875,0.00823974609375
1772797923795093200,2.98609326171875,-0.9942626953125,0.014617919921875,0.0073394775390625
1772797923805120500,2.99612060546875,-0.9949493408203125,0.0146331787109375,0.007476806640625
1772797923815147500,3.0061474609375,-0.9954071044921875,0.0142669677734375,0.007049560546875
1772797923825174300,3.01617431640625,-0.993927001953125,0.0149078369140625,0.0082855224609375
1772797923835200300,3.0262001953125,-0.9932403564453125,0.0131072998046875,0.007568359375
1772797923845227500,3.0362275390625,-0.9947662353515625,0.014068603515625,0.008392333984375
1772797923855254500,3.046254638671875,-0.99627685546875,0.0140380859375,0.0093231201171875
1772797923865281300,3.05628125,-0.995208740234375,0.013824462890625,0.00811767578125
1772797923875308500,3.06630859375,-0.99468994140625,0.015106201171875,0.007659912109375
1772797923885335600,3.07633544921875,-0.994415283203125,0.014312744140625,0.0077056884765625
1772797923895362300,3.0863623046875,-0.9939422607421875,0.014312744140625,0.0072784423828125
1772797923905389300,3.096389404296875,-0.99444580078125,0.0153045654296875,0.008148193359375
1772797923915416600,3.10641650390625,-0.994598388671875,0.015380859375,0.0078277587890625
1772797923925443300,3.116443359375,-0.995361328125,0.0144500732421875,0.00738525390625
1772797923935470300,3.12647021484375,-0.99468994140625,0.0143890380859375,0.0072479248046875
1772797923945497600,3.13649755859375,-0.9952545166015625,0.0159759521484375,0.0062255859375
1772797923955524400,3.1465244140625,-0.9939422607421875,0.01568603515625,0.00640869140625
1772797923965551400,3.15655126953125,-0.994842529296875,0.014312744140625,0.0082550048828125
1772797923975578400,3.166578369140625,-0.9944915771484375,0.0151824951171875,0.0075836181640625
1772797923985605400,3.17660546875,-0.9951934814453125,0.0151214599609375,0.00830078125
1772797923995631400,3.18663134765625,-0.9946441650390625,0.0149688720703125,0.0078582763671875
1772797924005658400,3.196658447265625,-0.9939422607421875,0.01422119140625,0.0073699951171875
1772797924015685400,3.206685302734375,-0.9947662353515625,0.0150604248046875,0.007598876953125
1772797924025712400,3.21671240234375,-0.9947967529296875,0.015411376953125,0.0082244873046875
1772797924035739400,3.226739501953125,-0.9946136474609375,0.0150604248046875,0.007537841796875
1772797924045766400,3.236766357421875,-0.99298095703125,0.014739990234375,0.0073699951171875
1772797924055793400,3.24679345703125,-0.99462890625,0.014678955078125,0.0078582763671875
1772797924065820400,3.2568203125,-0.995208740234375,0.0160064697265625,0.0080413818359375
1772797924075847400,3.266847412109375,-0.9951019287109375,0.0153656005859375,0.0066986083984375
1772797924085874400,3.27687451171875,-0.994232177734375,0.0150146484375,0.007293701171875
1772797924095902000,3.28690185546875,-0.9942779541015625,0.0147857666015625,0.008453369140625
1772797924105929200,3.29692919921875,-0.995025634765625,0.01458740234375,0.0084075927734375
1772797924115956000,3.3069560546875,-0.9947662353515625,0.0141754150390625,0.0081939697265625
1772797924125983000,3.31698291015625,-0.9951629638671875,0.014251708984375,0.0084686279296875
1772797924136010000,3.327010009765625,-0.994384765625,0.015289306640625,0.0075225830078125
1772797924146036200,3.3370361328125,-0.9938507080078125,0.0146942138671875,0.007049560546875
1772797924156063000,3.34706298828125,-0.995269775390625,0.014739990234375,0.0076751708984375
1772797924166090000,3.357090087890625,-0.9940643310546875,0.014801025390625,0.008575439453125
1772797924176117000,3.367116943359375,-0.993896484375,0.0157928466796875,0.0086517333984375
1772797924186144000,3.37714404296875,-0.9949188232421875,0.0142059326171875,0.007171630859375
1772797924196171000,3.3871708984375,-0.9951324462890625,0.013946533203125,0.0075836181640625
1772797924206198000,3.397197998046875,-0.9947357177734375,0.01531982421875,0.0070953369140625
1772797924216225000,3.40722509765625,-0.9951324462890625,0.014739990234375,0.0069732666015625
1772797924226252000,3.417251953125,-0.9940643310546875,0.0143280029296875,0.0077056884765625
1772797924236279000,3.427279052734375,-0.99468994140625,0.014862060546875,0.007965087890625
1772797924246306000,3.43730615234375,-0.994659423828125,0.01446533203125,0.008056640625
1772797924256333000,3.4473330078125,-0.9942169189453125,0.01422119140625,0.0082550048828125
1772797924266360000,3.457360107421875,-0.995086669921875,0.014923095703125,0.0086669921875
1772797924276387000,3.467386962890625,-0.9945526123046875,0.014373779296875,0.0077362060546875
1772797924286413000,3.4774130859375,-0.9932098388671875,0.01434326171875,0.0071563720703125
1772797924296440000,3.487440185546875,-0.99395751953125,0.01385498046875,0.007598876953125
1772797924306467000,3.497467041015625,-0.99322509765625,0.015350341796875,0.0081329345703125
1772797924316494000,3.507494140625,-0.995635986328125,0.0147552490234375,0.0077667236328125
1772797924326521000,3.51752099609375,-0.9957427978515625,0.014617919921875,0.008056640625
1772797924336548000,3.527548095703125,-0.993896484375,0.015533447265625,0.0066070556640625
1772797924346575000,3.5375751953125,-0.995025634765625,0.0155029296875,0.0077667236328125
1772797924356601900,3.547601806640625,-0.9947509765625,0.0143890380859375,0.0082855224609375
1772797924366629000,3.557629150390625,-0.994873046875,0.0133514404296875,0.0080108642578125
1772797924376656100,3.56765625,-0.9954376220703125,0.01470947265625,0.0076141357421875
1772797924386683000,3.577682861328125,-0.9946441650390625,0.0147857666015625,0.007720947265625
1772797924396710100,3.587710205078125,-0.99432373046875,0.0144805908203125,0.007476806640625
1772797924406737200,3.597737060546875,-0.99505615234375,0.01568603515625,0.0072479248046875
1772797924416764000,3.607763916015625,-0.9955596923828125,0.01519775390625,0.0075225830078125
1772797924426790000,3.617789794921875,-0.9941558837890625,0.0141448974609375,0.006744384765625
1772797924436817000,3.62781689453125,-0.9944915771484375,0.0137939453125,0.00775146484375
1772797924446844200,3.63784423828125,-0.994842529296875,0.013946533203125,0.0072174072265625
1772797924456871000,3.647870849609375,-0.9951171875,0.01422119140625,0.0072479248046875
1772797924466898000,3.65789794921875,-0.994171142578125,0.0151824951171875,0.006744384765625
1772797924476925200,3.66792529296875,-0.993499755859375,0.0145721435546875,0.0070037841796875
1772797924486952200,3.6779521484375,-0.9941253662109375,0.015350341796875,0.007568359375
1772797924496979000,3.68797900390625,-0.9935455322265625,0.0149383544921875,0.008148193359375
1772797924507006000,3.698005859375,-0.994293212890625,0.0144195556640625,0.007965087890625
1772797924517033200,3.708033203125,-0.9944305419921875,0.0146026611328125,0.00811767578125
1772797924527060000,3.71806005859375,-0.9937744140625,0.0148468017578125,0.009185791015625
1772797924537087000,3.7280869140625,-0.9950408935546875,0.01422119140625,0.0079803466796875
1772797924547114200,3.7381142578125,-0.9947509765625,0.0138092041015625,0.0071563720703125
1772797924557140200,3.74814013671875,-0.9951324462890625,0.015167236328125,0.00714111328125
1772797924567167000,3.7581669921875,-0.993621826171875,0.0162811279296875,0.0074615478515625
1772797924577194000,3.768194091796875,-0.994384765625,0.0149993896484375,0.0078277587890625
1772797924587221200,3.77822119140625,-0.994781494140625,0.01483154296875,0.0071563720703125
1772797924597248000,3.788248046875,-0.994842529296875,0.0142822265625,0.006927490234375
1772797924607275000,3.79827490234375,-0.993865966796875,0.0145416259765625,0.0079193115234375
1772797924617302000,3.808302001953125,-0.993743896484375,0.0144500732421875,0.008270263671875
1772797924627329000,3.8183291015625,-0.996185302734375,0.0145111083984375,0.0084991455078125
1772797924637356000,3.82835595703125,-0.994873046875,0.015869140625,0.007232666015625
1772797924647383000,3.838383056640625,-0.99462890625,0.0157012939453125,0.00653076171875
1772797924657410000,3.84841015625,-0.9942779541015625,0.015411376953125,0.0076446533203125
1772797924667437000,3.85843701171875,-0.9951629638671875,0.0147247314453125,0.008758544921875
1772797924677464000,3.868464111328125,-0.99462890625,0.014404296875,0.0077972412109375
1772797924687490000,3.878489990234375,-0.99383544921875,0.0134124755859375,0.0071563720703125
1772797924697517000,3.88851708984375,-0.9948272705078125,0.015411376953125,0.006805419921875
1772797924707544000,3.8985439453125,-0.9961090087890625,0.0148162841796875,0.0071868896484375
1772797924717571000,3.908571044921875,-0.9942474365234375,0.0157928466796875,0.0085296630859375
1772797924727597800,3.918597900390625,-0.9935760498046875,0.01531982421875,0.008331298828125
1772797924737625000,3.928625,-0.996612548828125,0.013580322265625,0.0077972412109375
1772797924747652000,3.938652099609375,-0.9953155517578125,0.014312744140625,0.0071258544921875
1772797924757679000,3.94867919921875,-0.9934234619140625,0.013763427734375,0.006805419921875
1772797924767706000,3.9587060546875,-0.9929351806640625,0.0137481689453125,0.00848388671875
1772797924777733000,3.968733154296875,-0.9947357177734375,0.0154266357421875,0.008544921875
1772797924787760000,3.978760009765625,-0.9962310791015625,0.0152740478515625,0.0081787109375
1772797924797787000,3.988786865234375,-0.995361328125,0.0139923095703125,0.00726318359375
1772797924807812900,3.998812744140625,-0.9937286376953125,0.0150604248046875,0.006317138671875
1772797924817840000,4.008840087890625,-0.993499755859375,0.016265869140625,0.00689697265625
1772797924827867100,4.0188671875,-0.9945068359375,0.014892578125,0.0074005126953125
1772797924837894000,4.028893798828125,-0.9953460693359375,0.014373779296875,0.007415771484375
1772797924847921200,4.038921142578125,-0.99560546875,0.0144805908203125,0.0083160400390625
1772797924857948200,4.0489482421875,-0.9942474365234375,0.0157012939453125,0.0082550048828125
1772797924867975000,4.058974853515625,-0.9946746826171875,0.0147857666015625,0.0074005126953125
1772797924878002000,4.069001953125,-0.9944305419921875,0.0150909423828125,0.0072479248046875
1772797924888029200,4.079029296875,-0.994110107421875,0.0149383544921875,0.007293701171875
1772797924898056000,4.089055908203125,-0.995086669921875,0.0146484375,0.0071563720703125
1772797924908083000,4.0990830078125,-0.99432373046875,0.0157318115234375,0.00848388671875
1772797924918110200,4.109110107421875,-0.9943389892578125,0.0142364501953125,0.0084381103515625
1772797924928136200,4.11913623046875,-0.994781494140625,0.0145263671875,0.0084686279296875
1772797924938163000,4.129162841796875,-0.9941253662109375,0.01513671875,0.0076904296875
1772797924948190000,4.13918994140625,-0.9954986572265625,0.0146026611328125,0.0064239501953125
1772797924958217200,4.14921728515625,-0.9942474365234375,0.0147705078125,0.006134033203125
1772797924968244000,4.159243896484375,-0.9933624267578125,0.0148162841796875,0.008209228515625
1772797924978271000,4.16927099609375,-0.9940032958984375,0.0148773193359375,0.008026123046875
1772797924988298000,4.179298095703125,-0.9950103759765625,0.014678955078125,0.008148193359375
1772797924998325000,4.189324951171875,-0.99456787109375,0.0141448974609375,0.0086669921875
1772797925008352000,4.19935205078125,-0.9947357177734375,0.0143280029296875,0.00823974609375
1772797925018379000,4.20937890625,-0.9947357177734375,0.015869140625,0.00848388671875
1772797925028406000,4.219406005859375,-0.9945220947265625,0.0152587890625,0.0081787109375
1772797925038432000,4.229431884765625,-0.994537353515625,0.0150604248046875,0.008026123046875
1772797925048459000,4.239458984375,-0.993804931640625,0.0151824951171875,0.00738525390625
1772797925058486000,4.249486083984375,-0.994293212890625,0.0150146484375,0.0078887939453125
1772797925068513300,4.25951318359375,-0.9952239990234375,0.01434326171875,0.0077667236328125
1772797925078540000,4.2695400390625,-0.993499755859375,0.0159454345703125,0.0073699951171875
1772797925088567000,4.279567138671875,-0.9937744140625,0.0164031982421875,0.0065155029296875
1772797925098593000,4.289593017578125,-0.995269775390625,0.014923095703125,0.0075836181640625
1772797925108620000,4.2996201171875,-0.994659423828125,0.0146636962890625,0.0070953369140625
1772797925118646800,4.309646728515625,-0.99444580078125,0.0142822265625,0.0076141357421875
1772797925128674000,4.319674072265625,-0.9943695068359375,0.014007568359375,0.0077667236328125
1772797925138701000,4.329701171875,-0.994140625,0.01458740234375,0.0081634521484375
1772797925148727800,4.339727783203125,-0.994964599609375,0.015716552734375,0.0079803466796875
1772797925158753800,4.34975390625,-0.9952239990234375,0.013671875,0.0079803466796875
1772797925168780800,4.35978076171875,-0.9943389892578125,0.0140380859375,0.0085906982421875
1772797925178808000,4.36980810546875,-0.994476318359375,0.0147705078125,0.008331298828125
1772797925188834800,4.379834716796875,-0.994720458984375,0.01422119140625,0.00762939453125
1772797925198861800,4.38986181640625,-0.994384765625,0.0148468017578125,0.0078277587890625
1772797925208889000,4.39988916015625,-0.99530029296875,0.016845703125,0.0075531005859375
1772797925218915800,4.409915771484375,-0.995025634765625,0.0158233642578125,0.00701904296875
1772797925228942800,4.41994287109375,-0.9948883056640625,0.0153656005859375,0.0063934326171875
1772797925238969900,4.429969970703125,-0.9939422607421875,0.0164947509765625,0.007049560546875
1772797925248996900,4.439996826171875,-0.9951171875,0.0162811279296875,0.0079498291015625
1772797925259022800,4.45002294921875,-0.995086669921875,0.0158843994140625,0.007568359375
1772797925269049900,4.4600498046875,-0.99468994140625,0.0157470703125,0.00872802734375
1772797925279076900,4.470076904296875,-0.9957733154296875,0.0156097412109375,0.00811767578125
1772797925289104000,4.480103759765625,-0.9942626953125,0.0143890380859375,0.0083160400390625
1772797925299131000,4.490130859375,-0.993255615234375,0.0145263671875,0.009246826171875
1772797925309158000,4.500157958984375,-0.9927825927734375,0.015167236328125,0.0097503662109375
1772797925319185000,4.510184814453125,-0.9968109130859375,0.0144195556640625,0.0101165771484375
1772797925329212000,4.5202119140625,-0.9959716796875,0.014862060546875,0.00860595703125
1772797925339239000,4.530239013671875,-0.9954376220703125,0.0142822265625,0.0072479248046875
1772797925349266000,4.540265869140625,-0.9934844970703125,0.013580322265625,0.0084991455078125
1772797925359293000,4.55029296875,-0.9940643310546875,0.013916015625,0.00909423828125
1772797925369319000,4.56031884765625,-0.9949493408203125,0.014739990234375,0.0089263916015625
1772797925379346000,4.570345947265625,-0.9959259033203125,0.01422119140625,0.0087738037109375
1772797925389373000,4.580373046875,-0.995819091796875,0.013702392578125,0.0075225830078125
1772797925399400000,4.59039990234375,-0.994659423828125,0.0154266357421875,0.0066986083984375
1772797925409427000,4.600427001953125,-0.993377685546875,0.0164947509765625,0.0066680908203125
1772797925419454000,4.610453857421875,-0.994720458984375,0.0159454345703125,0.0064849853515625
1772797925429481000,4.62048095703125,-0.9956817626953125,0.01556396484375,0.007080078125
1772797925439508000,4.630508056640625,-0.995361328125,0.0141448974609375,0.007476806640625
1772797925449535000,4.640534912109375,-0.99365234375,0.013336181640625,0.006866455078125
1772797925459561700,4.650561767578125,-0.993560791015625,0.01422119140625,0.0064849853515625
1772797925469587700,4.660587646484375,-0.9925384521484375,0.014251708984375,0.006866455078125
1772797925479615000,4.670614990234375,-0.994293212890625,0.0146026611328125,0.0065765380859375
1772797925489642000,4.68064208984375,-0.9954986572265625,0.0147705078125,0.0066070556640625
1772797925499668700,4.690668701171875,-0.9950103759765625,0.0144805908203125,0.00689697265625
1772797925509696000,4.700696044921875,-0.9954833984375,0.0145263671875,0.007659912109375
1772797925519723000,4.710722900390625,-0.99468994140625,0.014373779296875,0.00762939453125
1772797925529749800,4.720749755859375,-0.9947509765625,0.013946533203125,0.0072784423828125
1772797925539776800,4.73077685546875,-0.996002197265625,0.0159912109375,0.0069580078125
1772797925549804000,4.740803955078125,-0.9957122802734375,0.0152587890625,0.0062255859375
1772797925559830800,4.750830810546875,-0.9934844970703125,0.01458740234375,0.007080078125
1772797925569856800,4.760856689453125,-0.9944000244140625,0.015350341796875,0.0074462890625
1772797925579883800,4.7708837890625,-0.99468994140625,0.0144500732421875,0.009033203125
1772797925589911000,4.7809111328125,-0.9951171875,0.014862060546875,0.00921630859375
1772797925599937800,4.790937744140625,-0.9959869384765625,0.0145721435546875,0.0083770751953125
1772797925609964800,4.80096484375,-0.995361328125,0.0156707763671875,0.007598876953125
1772797925619992000,4.810991943359375,-0.994232177734375,0.016448974609375,0.0072784423828125
1772797925630019000,4.82101904296875,-0.9940643310546875,0.01495361328125,0.005615234375
1772797925640045800,4.8310458984375,-0.996337890625,0.0142822265625,0.00750732421875
1772797925650072800,4.84107275390625,-0.9951019287109375,0.014129638671875,0.008758544921875
1772797925660100000,4.85110009765625,-0.994476318359375,0.0141448974609375,0.009490966796875
1772797925670126000,4.8611259765625,-0.994659423828125,0.013824462890625,0.0092315673828125
1772797925680152800,4.87115283203125,-0.99578857421875,0.0155487060546875,0.008392333984375
1772797925690179800,4.881179931640625,-0.9943389892578125,0.015869140625,0.009613037109375
1772797925700207000,4.89120703125,-0.994354248046875,0.0152740478515625,0.008209228515625
1772797925710233900,4.90123388671875,-0.9954071044921875,0.01483154296875,0.0076141357421875
1772797925720260900,4.9112607421875,-0.9957275390625,0.0144195556640625,0.0091552734375
1772797925730288000,4.9212880859375,-0.9943389892578125,0.013427734375,0.0090179443359375
1772797925740315000,4.93131494140625,-0.9932708740234375,0.0128326416015625,0.0081634521484375
1772797925750342000,4.941341796875,-0.993804931640625,0.0147857666015625,0.007080078125
1772797925760367900,4.951367919921875,-0.995147705078125,0.014923095703125,0.005889892578125
1772797925770395000,4.961394775390625,-0.994720458984375,0.0149078369140625,0.0065155029296875
1772797925780422000,4.971421875,-0.9957122802734375,0.0148162841796875,0.00701904296875
1772797925790449000,4.981448974609375,-0.9944305419921875,0.014068603515625,0.007781982421875
1772797925800476000,4.991475830078125,-0.9945831298828125,0.014190673828125,0.0082855224609375
1772797925810503000,5.0015029296875,-0.9958343505859375,0.0142822265625,0.0081329345703125
1772797925820530000,5.011530029296875,-0.9958648681640625,0.0148468017578125,0.0077972412109375
1772797925830557000,5.021556884765625,-0.9939727783203125,0.0153656005859375,0.0078582763671875
1772797925840583700,5.031583740234375,-0.994598388671875,0.01507568359375,0.0078582763671875
1772797925850611000,5.04161083984375,-0.994415283203125,0.0148773193359375,0.007354736328125
1772797925860637000,5.051636962890625,-0.994293212890625,0.013641357421875,0.007568359375
1772797925870664000,5.061663818359375,-0.99407958984375,0.0133819580078125,0.0079345703125
1772797925880690700,5.071690673828125,-0.9945068359375,0.0142974853515625,0.008209228515625
1772797925890718000,5.081718017578125,-0.9947509765625,0.0144195556640625,0.0084686279296875
1772797925900745000,5.091744873046875,-0.994964599609375,0.01446533203125,0.008148193359375
1772797925910772000,5.10177197265625,-0.994354248046875,0.0153350830078125,0.0070037841796875
1772797925920799000,5.111799072265625,-0.9947662353515625,0.0137176513671875,0.00732421875
1772797925930826000,5.121825927734375,-0.9952545166015625,0.013214111328125,0.0077667236328125
1772797925940853000,5.13185302734375,-0.99420166015625,0.0137786865234375,0.0081329345703125
1772797925950879000,5.14187890625,-0.993194580078125,0.014556884765625,0.008453369140625
1772797925960906000,5.151906005859375,-0.9948883056640625,0.016265869140625,0.007598876953125
1772797925970933000,5.16193310546875,-0.995635986328125,0.015960693359375,0.0060882568359375
1772797925980960000,5.1719599609375,-0.99462890625,0.0153045654296875,0.0060882568359375
1772797925990986800,5.18198681640625,-0.99456787109375,0.015777587890625,0.0074310302734375
1772797926001014000,5.192013916015625,-0.993621826171875,0.0145721435546875,0.006591796875
1772797926011041000,5.202041015625,-0.995086669921875,0.0129241943359375,0.00762939453125
1772797926021067800,5.21206787109375,-0.9950408935546875,0.0135650634765625,0.008331298828125
1772797926031095000,5.222094970703125,-0.9936370849609375,0.013336181640625,0.00762939453125
1772797926041121000,5.23212109375,-0.993865966796875,0.013275146484375,0.008148193359375
1772797926051148000,5.24214794921875,-0.9945831298828125,0.014739990234375,0.0068359375
1772797926061174800,5.2521748046875,-0.994476318359375,0.014251708984375,0.007415771484375
1772797926071201800,5.262201904296875,-0.9945831298828125,0.0149078369140625,0.0078277587890625
1772797926081229000,5.27222900390625,-0.993011474609375,0.01336669921875,0.00823974609375
1772797926091256600,5.282256591796875,-0.9932098388671875,0.0133514404296875,0.0080108642578125
1772797926101283800,5.292283935546875,-0.993499755859375,0.0142822265625,0.007781982421875
1772797926111310800,5.302310791015625,-0.9928741455078125,0.01593017578125,0.008209228515625
1772797926121337600,5.312337646484375,-0.9906463623046875,0.0135040283203125,0.007293701171875
1772797926131363600,5.322363525390625,-0.996063232421875,0.0134124755859375,0.00689697265625
1772797926141390800,5.332390869140625,-0.9968109130859375,0.015350341796875,0.0076446533203125
1772797926151417900,5.34241796875,-0.995513916015625,0.014373779296875,0.0081939697265625
1772797926161444600,5.352444580078125,-0.9927825927734375,0.0141143798828125,0.007568359375
1772797926171471600,5.3624716796875,-0.9948272705078125,0.0146331787109375,0.00885009765625
1772797926181499000,5.372498779296875,-0.9954376220703125,0.014190673828125,0.00823974609375
1772797926191525600,5.382525634765625,-0.9953155517578125,0.01513671875,0.008514404296875
1772797926201552600,5.392552734375,-0.9944915771484375,0.0142669677734375,0.009063720703125
1772797926211580000,5.402579833984375,-0.996337890625,0.0144805908203125,0.0087432861328125
1772797926221606000,5.41260595703125,-0.99407958984375,0.014862060546875,0.0070953369140625
1772797926231632600,5.422632568359375,-0.9929962158203125,0.014801025390625,0.0081787109375
1772797926241659600,5.43265966796875,-0.9952239990234375,0.0157012939453125,0.0084228515625
1772797926251687000,5.44268701171875,-0.9962921142578125,0.015777587890625,0.006439208984375
1772797926261713700,5.452713623046875,-0.993743896484375,0.0134429931640625,0.00787353515625
1772797926271740700,5.46274072265625,-0.9935455322265625,0.0139617919921875,0.0075531005859375
1772797926281767700,5.472767578125,-0.995025634765625,0.0142974853515625,0.0079345703125
1772797926291794700,5.482794677734375,-0.9942169189453125,0.013702392578125,0.007904052734375
1772797926301820700,5.492820556640625,-0.995819091796875,0.01251220703125,0.008636474609375
1772797926311847700,5.50284765625,-0.994781494140625,0.0146942138671875,0.0075225830078125
1772797926321874700,5.512874755859375,-0.9957427978515625,0.0152740478515625,0.00738525390625
1772797926331901700,5.522901611328125,-0.9928741455078125,0.0144195556640625,0.0090789794921875
1772797926341928700,5.5329287109375,-0.9936065673828125,0.0141754150390625,0.007659912109375
1772797926351955700,5.542955810546875,-0.9956512451171875,0.0144500732421875,0.0073089599609375
1772797926361982700,5.552982666015625,-0.99456787109375,0.013702392578125,0.0087738037109375
1772797926372009700,5.563009765625,-0.993011474609375,0.0145263671875,0.0064697265625
1772797926382036700,5.57303662109375,-0.9941558837890625,0.016082763671875,0.006927490234375
1772797926392062700,5.583062744140625,-0.9957275390625,0.015289306640625,0.0061798095703125
1772797926402089500,5.59308935546875,-0.9958953857421875,0.0150604248046875,0.0071258544921875
1772797926412116700,5.60311669921875,-0.9948272705078125,0.0147247314453125,0.0083465576171875
1772797926422143700,5.613143798828125,-0.9947357177734375,0.0139923095703125,0.0085906982421875
1772797926432170800,5.623170654296875,-0.995697021484375,0.014068603515625,0.0095672607421875
1772797926442197800,5.63319775390625,-0.995147705078125,0.0137481689453125,0.0076751708984375
1772797926452224800,5.643224853515625,-0.995147705078125,0.0134429931640625,0.0087432861328125
1772797926462251800,5.653251708984375,-0.994476318359375,0.0139312744140625,0.0068206787109375
1772797926472277800,5.66327783203125,-0.99407958984375,0.0162200927734375,0.0075531005859375
1772797926482304800,5.6733046875,-0.993621826171875,0.0147857666015625,0.0081939697265625
1772797926492331800,5.683331787109375,-0.99639892578125,0.0150909423828125,0.0091552734375
1772797926502358800,5.69335888671875,-0.9977569580078125,0.0142974853515625,0.007415771484375
1772797926512385500,5.703385498046875,-0.9951934814453125,0.014801025390625,0.00830078125
1772797926522412800,5.713412841796875,-0.9934539794921875,0.0136566162109375,0.0091094970703125
1772797926532439800,5.723439697265625,-0.9943084716796875,0.0142822265625,0.007965087890625
1772797926542466600,5.733466552734375,-0.9951171875,0.0156097412109375,0.0078887939453125
1772797926552492500,5.743492431640625,-0.9941558837890625,0.0140228271484375,0.00787353515625
1772797926562519800,5.753519775390625,-0.9964141845703125,0.0142822265625,0.00775146484375
1772797926572546800,5.763546875,-0.9978790283203125,0.0147705078125,0.0084686279296875
1772797926582573600,5.773573486328125,-0.993133544921875,0.014923095703125,0.00860595703125
1772797926592600800,5.783600830078125,-0.991455078125,0.01409912109375,0.0081634521484375
1772797926602627800,5.7936279296875,-0.9942474365234375,0.0142364501953125,0.0068359375
1772797926612654600,5.803654541015625,-0.99688720703125,0.01470947265625,0.0065765380859375
1772797926622681600,5.813681640625,-0.9947052001953125,0.0144805908203125,0.0068817138671875
1772797926632708900,5.823708984375,-0.9955902099609375,0.0147247314453125,0.007232666015625
1772797926642734800,5.83373486328125,-0.9953460693359375,0.0147247314453125,0.007171630859375
1772797926652761600,5.84376171875,-0.9947052001953125,0.014373779296875,0.007049560546875
1772797926662788600,5.85378857421875,-0.99200439453125,0.014739990234375,0.0081329345703125
1772797926672815900,5.86381591796875,-0.993560791015625,0.0145416259765625,0.0083770751953125
1772797926682842600,5.873842529296875,-0.9969329833984375,0.0148773193359375,0.0076751708984375
1772797926692869600,5.88386962890625,-0.994781494140625,0.01495361328125,0.0076751708984375
1772797926702896600,5.893896728515625,-0.9937286376953125,0.01416015625,0.00811767578125
1772797926712923600,5.903923583984375,-0.994964599609375,0.01324462890625,0.00775146484375
1772797926722949600,5.91394970703125,-0.994903564453125,0.0138092041015625,0.0081787109375
1772797926732976600,5.9239765625,-0.995880126953125,0.0135498046875,0.0082855224609375
1772797926743003600,5.934003662109375,-0.995208740234375,0.0134429931640625,0.0081024169921875
1772797926753030700,5.94403076171875,-0.992919921875,0.01446533203125,0.0078125
1772797926763057700,5.9540576171875,-0.9949798583984375,0.014312744140625,0.0079803466796875
1772797926773084700,5.964084716796875,-0.9953765869140625,0.014129638671875,0.0078887939453125
1772797926783112000,5.97411181640625,-0.99432373046875,0.0149688720703125,0.007415771484375
1772797926793138700,5.984138671875,-0.995513916015625,0.01422119140625,0.0073699951171875
1772797926803164700,5.99416455078125,-0.9940643310546875,0.0146026611328125,0.0070343017578125
1772797926813191700,6.004191650390625,-0.9949951171875,0.0154571533203125,0.00823974609375
1772797926823219000,6.014218994140625,-0.9956512451171875,0.016357421875,0.0078277587890625
1772797926833245700,6.02424560546875,-0.9945526123046875,0.0161285400390625,0.0076141357421875
1772797926843272700,6.034272705078125,-0.99481201171875,0.0158843994140625,0.0072784423828125
1772797926853299700,6.0442998046875,-0.9949188232421875,0.015625,0.00762939453125
1772797926863326700,6.05432666015625,-0.9943084716796875,0.0137481689453125,0.0070343017578125
1772797926873353700,6.064353759765625,-0.994659423828125,0.014434814453125,0.0065155029296875
1772797926883379700,6.074379638671875,-0.9947357177734375,0.0153961181640625,0.0073089599609375
1772797926893406700,6.08440673828125,-0.994232177734375,0.0154876708984375,0.0074462890625
1772797926903433700,6.094433837890625,-0.99432373046875,0.0146942138671875,0.0082244873046875
1772797926913460700,6.104460693359375,-0.9936065673828125,0.01409912109375,0.0079345703125
1772797926923487700,6.11448779296875,-0.995025634765625,0.0146942138671875,0.0068817138671875
1772797926933514500,6.124514404296875,-0.9953155517578125,0.0145263671875,0.0076446533203125
1772797926943541800,6.134541748046875,-0.9937896728515625,0.0142364501953125,0.0078277587890625
1772797926953567700,6.144567626953125,-0.9944610595703125,0.0137176513671875,0.008270263671875
1772797926963594800,6.1545947265625,-0.9956207275390625,0.01373291015625,0.007415771484375
1772797926973621500,6.16462158203125,-0.9944915771484375,0.01495361328125,0.0081024169921875
1772797926983648800,6.174648681640625,-0.994171142578125,0.0142974853515625,0.007965087890625
1772797926993675800,6.18467578125,-0.9940643310546875,0.014739990234375,0.00653076171875
1772797927003702500,6.19470263671875,-0.9936676025390625,0.01507568359375,0.0072021484375
1772797927013729800,6.204729736328125,-0.994873046875,0.014678955078125,0.007415771484375
1772797927023756800,6.2147568359375,-0.994537353515625,0.014984130859375,0.0069732666015625
1772797927033782800,6.22478271484375,-0.99456787109375,0.014892578125,0.0085296630859375
1772797927043809500,6.2348095703125,-0.9926910400390625,0.0142364501953125,0.0081787109375
1772797927053836800,6.2448369140625,-0.993133544921875,0.0145263671875,0.007049560546875
1772797927063863800,6.25486376953125,-0.995513916015625,0.013916015625,0.007232666015625
1772797927073890600,6.264890625,-0.9954833984375,0.014404296875,0.0072784423828125
1772797927083917600,6.27491748046875,-0.99468994140625,0.0146026611328125,0.00732421875
1772797927093944300,6.2849443359375,-0.994110107421875,0.01434326171875,0.0079345703125
1772797927103971300,6.294971435546875,-0.9932098388671875,0.014190673828125,0.0079498291015625
1772797927113997300,6.304997314453125,-0.9950103759765625,0.0125885009765625,0.0083160400390625
1772797927124024300,6.3150244140625,-0.9951171875,0.0153961181640625,0.00701904296875
1772797927134051300,6.32505126953125,-0.996002197265625,0.0142822265625,0.0074310302734375
1772797927144078300,6.335078369140625,-0.99420166015625,0.0141754150390625,0.0066680908203125
1772797927154105000,6.34510498046875,-0.99346923828125,0.0145263671875,0.0079803466796875
1772797927164132400,6.35513232421875,-0.9937896728515625,0.014556884765625,0.008087158203125
1772797927174159400,6.365159423828125,-0.993988037109375,0.014495849609375,0.007171630859375
1772797927184185300,6.375185302734375,-0.9957122802734375,0.0133514404296875,0.007354736328125
1772797927194212000,6.385212158203125,-0.9946136474609375,0.0144195556640625,0.0077362060546875
1772797927204239400,6.3952392578125,-0.9942626953125,0.015380859375,0.007659912109375
1772797927214266400,6.405266357421875,-0.9954681396484375,0.0142059326171875,0.007293701171875
1772797927224293000,6.415293212890625,-0.9956512451171875,0.0148468017578125,0.0073089599609375
1772797927234320400,6.4253203125,-0.9947509765625,0.0152740478515625,0.006805419921875
1772797927244347400,6.435347412109375,-0.9938201904296875,0.0157318115234375,0.0072784423828125
1772797927254374100,6.4453740234375,-0.99456787109375,0.0136871337890625,0.00787353515625
1772797927264400100,6.455400146484375,-0.9939117431640625,0.0149078369140625,0.0084075927734375
1772797927274427100,6.46542724609375,-0.9933013916015625,0.0141143798828125,0.00738525390625
1772797927284454400,6.475454345703125,-0.9949188232421875,0.0140228271484375,0.0081329345703125
1772797927294481200,6.485481201171875,-0.9950408935546875,0.0147552490234375,0.0075531005859375
1772797927304508200,6.495508056640625,-0.99407958984375,0.01483154296875,0.0074615478515625
1772797927314535400,6.505535400390625,-0.9943084716796875,0.013946533203125,0.00830078125
1772797927324562400,6.5155625,-0.994781494140625,0.0146484375,0.00750732421875
1772797927334588400,6.52558837890625,-0.9952850341796875,0.01422119140625,0.008392333984375
1772797927344615200,6.535615234375,-0.9952545166015625,0.0140533447265625,0.008056640625
1772797927354642400,6.545642333984375,-0.9941558837890625,0.0147857666015625,0.0086517333984375
1772797927364669400,6.55566943359375,-0.994659423828125,0.01385498046875,0.0080413818359375
1772797927374696200,6.5656962890625,-0.9948272705078125,0.0145416259765625,0.0084075927734375
1772797927384723200,6.57572314453125,-0.9946746826171875,0.014404296875,0.0081939697265625
1772797927394750500,6.58575048828125,-0.99468994140625,0.01434326171875,0.0073394775390625
1772797927404776400,6.5957763671875,-0.994354248046875,0.014892578125,0.0080413818359375
1772797927414803200,6.60580322265625,-0.99444580078125,0.01416015625,0.008148193359375
1772797927424830200,6.615830322265625,-0.9951629638671875,0.0152435302734375,0.0074462890625
1772797927434857500,6.625857421875,-0.9949493408203125,0.0146636962890625,0.007568359375
1772797927444884200,6.63588427734375,-0.9942474365234375,0.015045166015625,0.0075531005859375
1772797927454911200,6.6459111328125,-0.9954071044921875,0.013885498046875,0.007537841796875
1772797927464938500,6.6559384765625,-0.9947052001953125,0.014373779296875,0.00738525390625
1772797927474964500,6.665964599609375,-0.9935760498046875,0.0145263671875,0.007843017578125
1772797927484991200,6.6759912109375,-0.9947052001953125,0.0152435302734375,0.0083770751953125
1772797927495018200,6.686018310546875,-0.995697021484375,0.0149993896484375,0.0080413818359375
1772797927505045200,6.696045166015625,-0.994140625,0.014495849609375,0.0065765380859375
1772797927515072300,6.706072265625,-0.99285888671875,0.01373291015625,0.00860595703125
1772797927525099300,6.716099365234375,-0.9924163818359375,0.0135955810546875,0.007659912109375
1772797927535126300,6.726126220703125,-0.9944305419921875,0.0142974853515625,0.007293701171875
1772797927545152300,6.73615234375,-0.99456787109375,0.014129638671875,0.0086212158203125
1772797927555179300,6.74617919921875,-0.9962158203125,0.01531982421875,0.0082244873046875
1772797927565206300,6.756206298828125,-0.994384765625,0.0137481689453125,0.0073699951171875
1772797927575233300,6.7662333984375,-0.9931488037109375,0.01336669921875,0.0091094970703125
1772797927585260300,6.77626025390625,-0.99456787109375,0.014190673828125,0.0084228515625
1772797927595287300,6.786287353515625,-0.9954681396484375,0.014068603515625,0.0085601806640625
1772797927605314300,6.796314208984375,-0.99517822265625,0.014678955078125,0.00836181640625
1772797927615341300,6.80634130859375,-0.9954376220703125,0.0138397216796875,0.006927490234375
1772797927625367300,6.8163671875,-0.994171142578125,0.014678955078125,0.0072784423828125
1772797927635394300,6.826394287109375,-0.994903564453125,0.01483154296875,0.006744384765625
1772797927645421300,6.83642138671875,-0.9954376220703125,0.0158538818359375,0.0069580078125
1772797927655448300,6.8464482421875,-0.99493408203125,0.01470947265625,0.008148193359375
1772797927665475300,6.856475341796875,-0.9946441650390625,0.0147705078125,0.0071868896484375
1772797927675502300,6.86650244140625,-0.994171142578125,0.0143280029296875,0.0084381103515625
1772797927685529300,6.876529296875,-0.993682861328125,0.0143890380859375,0.0074005126953125
1772797927695555300,6.886555419921875,-0.9952392578125,0.0142059326171875,0.0074462890625
1772797927705582300,6.896582275390625,-0.9956512451171875,0.014495849609375,0.0073394775390625
1772797927715609300,6.906609375,-0.9950103759765625,0.0138092041015625,0.007354736328125
1772797927725636400,6.91663623046875,-0.9935760498046875,0.013885498046875,0.008758544921875
1772797927735663000,6.9266630859375,-0.993133544921875,0.01324462890625,0.008697509765625
1772797927745690400,6.9366904296875,-0.9945220947265625,0.015228271484375,0.0083770751953125
1772797927755717400,6.94671728515625,-0.9950103759765625,0.015533447265625,0.007171630859375
1772797927765743400,6.956743408203125,-0.9963836669921875,0.0149383544921875,0.0055999755859375
1772797927775770000,6.96677001953125,-0.994537353515625,0.014739990234375,0.0070343017578125
1772797927785797400,6.97679736328125,-0.9940185546875,0.014739990234375,0.0070648193359375
1772797927795824400,6.986824462890625,-0.9941558837890625,0.0149078369140625,0.00811767578125
1772797927805851100,6.99685107421875,-0.9953460693359375,0.014495849609375,0.0084991455078125
1772797927815878400,7.00687841796875,-0.9954071044921875,0.0146636962890625,0.0077667236328125
1772797927825905400,7.016905517578125,-0.993194580078125,0.015228271484375,0.00823974609375
1772797927835931400,7.026931396484375,-0.99359130859375,0.01470947265625,0.00830078125
1772797927845958100,7.036958251953125,-0.996063232421875,0.013824462890625,0.0085906982421875
1772797927855985400,7.0469853515625,-0.9952850341796875,0.015228271484375,0.0081939697265625
1772797927866012400,7.057012451171875,-0.9946441650390625,0.0149688720703125,0.0076904296875
1772797927876039200,7.0670390625,-0.99517822265625,0.014862060546875,0.007965087890625
1772797927886066200,7.077066162109375,-0.994384765625,0.0141143798828125,0.0077362060546875
1772797927896093400,7.087093505859375,-0.993682861328125,0.0145416259765625,0.0073394775390625
1772797927906119400,7.097119384765625,-0.9935760498046875,0.0145111083984375,0.0075225830078125
1772797927916146200,7.107146240234375,-0.993896484375,0.01422119140625,0.00860595703125
1772797927926173200,7.117173095703125,-0.9947967529296875,0.014862060546875,0.007965087890625
1772797927936200400,7.127200439453125,-0.994354248046875,0.0135955810546875,0.007781982421875
1772797927946227200,7.137227294921875,-0.9946441650390625,0.0150299072265625,0.008270263671875
1772797927956254200,7.147254150390625,-0.9955291748046875,0.01446533203125,0.0083160400390625
1772797927966280200,7.1572802734375,-0.995361328125,0.014007568359375,0.00762939453125
1772797927976307500,7.167307373046875,-0.9941253662109375,0.014495849609375,0.0085601806640625
1772797927986334200,7.177334228515625,-0.9949951171875,0.0143585205078125,0.008148193359375
1772797927996361200,7.187361328125,-0.9951629638671875,0.01513671875,0.0069732666015625
1772797928006388200,7.19738818359375,-0.9950103759765625,0.0140228271484375,0.00750732421875
1772797928016415200,7.207415283203125,-0.9946136474609375,0.0140380859375,0.008270263671875
1772797928026442200,7.217442138671875,-0.9940338134765625,0.0136871337890625,0.0084075927734375
1772797928036468200,7.22746826171875,-0.99371337890625,0.0142364501953125,0.0084075927734375
1772797928046495200,7.2374951171875,-0.9947357177734375,0.015106201171875,0.00811767578125
1772797928056522500,7.2475224609375,-0.99481201171875,0.0143890380859375,0.0074462890625
1772797928066549200,7.25754931640625,-0.9953765869140625,0.0152587890625,0.0073394775390625
1772797928076576300,7.267576171875,-0.994781494140625,0.0151214599609375,0.0078582763671875
1772797928086603500,7.277603515625,-0.994598388671875,0.014068603515625,0.008209228515625
1772797928096630800,7.287630859375,-0.9943695068359375,0.0142364501953125,0.0085906982421875
1772797928106657000,7.297656982421875,-0.9949188232421875,0.0153656005859375,0.008056640625
1772797928116684000,7.30768408203125,-0.9940948486328125,0.0145721435546875,0.0081634521484375
1772797928126710800,7.317710693359375,-0.9948272705078125,0.0152435302734375,0.0082855224609375
1772797928136737800,7.32773779296875,-0.995697021484375,0.01483154296875,0.008026123046875
1772797928146765000,7.33776513671875,-0.9942779541015625,0.0150604248046875,0.0065765380859375
1772797928156791800,7.347791748046875,-0.9945068359375,0.0140533447265625,0.007415771484375
1772797928166817800,7.35781787109375,-0.994049072265625,0.0148162841796875,0.00897216796875
1772797928176844800,7.3678447265625,-0.99481201171875,0.0143890380859375,0.0083770751953125
1772797928186872000,7.3778720703125,-0.99432373046875,0.0155029296875,0.0076751708984375
1772797928196898800,7.38789892578125,-0.9954376220703125,0.0136871337890625,0.0078887939453125
1772797928206925800,7.39792578125,-0.9949188232421875,0.0148468017578125,0.0078277587890625
1772797928216952800,7.407952880859375,-0.9926910400390625,0.01513671875,0.008209228515625
1772797928226980000,7.41797998046875,-0.9947662353515625,0.01483154296875,0.00823974609375
1772797928237005800,7.428005859375,-0.99615478515625,0.015625,0.00927734375
1772797928247032800,7.43803271484375,-0.99493408203125,0.0151214599609375,0.0080718994140625
1772797928257059800,7.448059814453125,-0.9953155517578125,0.0153656005859375,0.0075225830078125
1772797928267087000,7.458087158203125,-0.9948272705078125,0.015533447265625,0.007171630859375
1772797928277113900,7.46811376953125,-0.994537353515625,0.015350341796875,0.007293701171875
1772797928287140900,7.478140869140625,-0.99462890625,0.0157012939453125,0.007659912109375
1772797928297168100,7.488168212890625,-0.9942779541015625,0.013916015625,0.0087890625
1772797928307194000,7.498194091796875,-0.9942779541015625,0.013824462890625,0.0095672607421875
1772797928317220900,7.508220947265625,-0.99383544921875,0.014556884765625,0.007843017578125
1772797928327248000,7.518247802734375,-0.994659423828125,0.014404296875,0.0085601806640625
1772797928337275100,7.528275146484375,-0.9959259033203125,0.0146484375,0.0078887939453125
1772797928347302000,7.538302001953125,-0.994842529296875,0.0136871337890625,0.008819580078125
1772797928357329000,7.548328857421875,-0.993865966796875,0.0139312744140625,0.0074920654296875
1772797928367355000,7.55835498046875,-0.994232177734375,0.015380859375,0.00775146484375
1772797928377382000,7.5683818359375,-0.99383544921875,0.0144500732421875,0.0084381103515625
1772797928387409000,7.578408935546875,-0.9930267333984375,0.01458740234375,0.0086822509765625
1772797928397436000,7.588435791015625,-0.9937744140625,0.0147247314453125,0.008575439453125
1772797928407463000,7.598462890625,-0.9954376220703125,0.014923095703125,0.007537841796875
1772797928417490000,7.608489990234375,-0.9942474365234375,0.01519775390625,0.007904052734375
1772797928427517000,7.618516845703125,-0.9939422607421875,0.0150604248046875,0.00836181640625
1772797928437543000,7.62854296875,-0.9938507080078125,0.01483154296875,0.0073089599609375
1772797928447570000,7.63856982421875,-0.9950103759765625,0.0149993896484375,0.00701904296875
1772797928457597000,7.648596923828125,-1.00177001953125,0.0187530517578125,0.0085296630859375
1772797928467624000,7.6586240234375,-1.0148162841796875,0.01806640625,0.0082550048828125
1772797928477651000,7.66865087890625,-1.00531005859375,0.013397216796875,0.006011962890625
1772797928487677700,7.678677734375,-0.9806976318359375,0.008453369140625,0.009307861328125
1772797928497704000,7.688703857421875,-0.9728851318359375,0.00653076171875,0.009124755859375
1772797928507731000,7.69873095703125,-0.9814453125,0.00665283203125,0.009124755859375
1772797928517758000,7.708758056640625,-0.9938507080078125,0.00885009765625,0.009002685546875
1772797928527784700,7.71878466796875,-1.0008392333984375,0.010284423828125,0.00872802734375
1772797928537812000,7.72881201171875,-0.997344970703125,0.0114898681640625,0.0079803466796875
1772797928547839000,7.7388388671875,-0.9910736083984375,0.010955810546875,0.008148193359375
1772797928557866000,7.748865966796875,-0.9904327392578125,0.0090789794921875,0.008453369140625
1772797928567891700,7.7588916015625,-0.9907989501953125,0.009979248046875,0.009033203125
1772797928577919000,7.7689189453125,-0.992095947265625,0.012451171875,0.00811767578125
1772797928587946000,7.778946044921875,-0.9989471435546875,0.0155181884765625,0.0080413818359375
1772797928597973000,7.788972900390625,-1.0065765380859375,0.0181121826171875,0.0063629150390625
1772797928607999700,7.798999755859375,-1.0034332275390625,0.0155487060546875,0.00628662109375
