time,seconds_elapsed,z,y,x
1772797920887273500,0.0782734375,-0.0013885721564292908,-0.04796938970685005,-0.005149488337337971
1772797920897300700,0.08830078125,-0.0022889869287610054,-0.06923233717679977,-0.002261822810396552
1772797920907327700,0.09832763671875,-0.0029760824982076883,-0.03327406570315361,-0.0012282498646527529
1772797920917354500,0.1083544921875,-0.002234658459201455,0.025843847543001175,-0.0019435749854892492
1772797920927381800,0.1183818359375,-0.0049188584089279175,0.04429449513554573,-0.002132925670593977
1772797920937408800,0.12840869140625,-0.0020871192682534456,0.014286261051893234,-0.0025928535033017397
1772797920947435500,0.138435546875,-0.002025866648182273,-0.03327939286828041,0.0008671252289786935
1772797920957462500,0.148462646484375,-0.0022445120848715305,-0.04565270617604256,-0.001749164192005992
1772797920967489800,0.15848974609375,-0.0012695288751274347,-0.021452028304338455,-0.008677643723785877
1772797920977516500,0.1685166015625,-0.0033369408920407295,0.009859554469585419,-0.007190801203250885
1772797920987543600,0.17854345703125,-0.001279116258956492,0.020486366003751755,-0.002433863002806902
1772797920997570800,0.18857080078125,-0.0030421288684010506,0.0041460092179477215,0.002743055811151862
1772797921007597600,0.19859765625,-0.002540122950449586,-0.0181097611784935,0.0010045443195849657
1772797921017623600,0.20862353515625,-0.0015707324491813779,-0.025225995108485222,-0.0068387314677238464
1772797921027650600,0.218650634765625,-0.002182993106544018,-0.01666872575879097,-0.011953332461416721
1772797921037677800,0.228677734375,-0.0021632856223732233,0.0025800704024732113,-0.0027574370615184307
1772797921047704600,0.23870458984375,-0.0025659557431936264,0.005494900047779083,0.002846919232979417
1772797921057731600,0.248731689453125,5.326322138898831e-7,0.0021915151737630367,0.003879693103954196
1772797921067758600,0.258758544921875,-0.0027632960118353367,-0.008273642510175705,-0.0012932310346513987
1772797921077785900,0.268785888671875,-0.0023188143968582153,-0.011592740193009377,-0.007731156423687935
1772797921087812000,0.27881201171875,-0.0018500980222597718,-0.010962902568280697,-0.004698881413787603
1772797921097839000,0.288839111328125,0.000024767397917457856,-0.00418462511152029,-0.0034072482958436012
1772797921107866000,0.2988662109375,-0.0017222663154825568,-0.0018050905782729387,0.001315335277467966
1772797921117892900,0.308892822265625,-0.0006293049664236605,-0.0002798982313834131,-0.0002692455891519785
1772797921127920000,0.318920166015625,-0.0029577065724879503,-0.008539426140487194,-0.001648496720008552
1772797921137947100,0.328947021484375,-0.002755306428298354,-0.011121893301606178,-0.006465356331318617
1772797921147974000,0.338973876953125,-0.000838895735796541,-0.012050271034240723,-0.005540173966437578
1772797921158001200,0.349001220703125,-0.0030980552546679974,-0.006898385938256979,0.0007779093575663865
1772797921168028200,0.359028076171875,-0.005131378769874573,-0.0009592706337571144,0.0019622170366346836
1772797921178055200,0.36905517578125,-0.0010673949727788568,-0.0012697952333837748,-0.001544100814498961
1772797921188082000,0.37908203125,-0.002042910782620311,-0.005618737079203129,-0.005660548806190491
1772797921198109200,0.389109130859375,-0.0043561323545873165,-0.00851758848875761,-0.004974518436938524
1772797921208136200,0.39913623046875,-0.0019853864796459675,-0.011529623530805111,-0.0009560748003423214
1772797921218163000,0.409162841796875,-0.0021941782906651497,-0.004977980628609657,-0.000716922979336232
1772797921228190200,0.419190185546875,-0.0016916398890316486,-0.00475560687482357,0.0008202536264434457
1772797921238217200,0.42921728515625,-0.0021603561472147703,-0.0067575047723948956,-0.0035428032279014587
1772797921248244000,0.439243896484375,-0.001785383210517466,-0.004572913981974125,-0.004038683604449034
1772797921258271000,0.44927099609375,-0.0035598473623394966,-0.011435880325734615,-0.0017172062071040273
1772797921268298200,0.45929833984375,-0.0026932547334581614,-0.008254201151430607,-0.0009624664089642465
1772797921278325000,0.469324951171875,-0.001659948262386024,-0.005982258822768927,-0.002237854292616248
1772797921288352000,0.47935205078125,-0.0025302693247795105,-0.004954278469085693,-0.0019853864796459675
1772797921298379300,0.489379150390625,-0.0012924320762977004,-0.006852047052234411,-0.001865011639893055
1772797921308405200,0.4994052734375,-0.0018607506062835455,-0.0062304651364684105,-0.0030541131272912025
1772797921318432000,0.509431884765625,-0.0026072347536683083,-0.009183377958834171,-0.0027598338201642036
1772797921328459000,0.519458984375,-0.0021228056866675615,-0.008582835085690022,-0.002267149044200778
1772797921338486300,0.529486328125,-0.002517219865694642,-0.004068777430802584,-0.0019539613276720047
1772797921348513000,0.539512939453125,-0.0010452907299622893,-0.0073591130785644054,-0.001555818715132773
1772797921358540000,0.5495400390625,-0.0006655239267274737,-0.0033955303952097893,-0.0015302523970603943
1772797921368567000,0.559567138671875,-0.0002950782363768667,-0.006749249063432217,-0.0015270565636456013
1772797921378594000,0.569593994140625,-0.0025398568250238895,-0.006110623013228178,-0.0018197379540652037
1772797921388621000,0.57962109375,-0.0032088428270071745,-0.00863077212125063,-0.004098604898899794
1772797921398648000,0.58964794921875,-0.0037199032958596945,-0.0054938350804150105,-0.004576908424496651
1772797921408675000,0.599675048828125,-0.003320695599541068,-0.0056919739581644535,-0.0007920240750536323
1772797921418702000,0.6097021484375,-0.0013962953817099333,-0.006369215901941061,-0.0005757753970101476
1772797921428729000,0.61972900390625,-0.000008255799002654385,-0.006323676090687513,-0.001969407545402646
1772797921438756000,0.629756103515625,-0.0026202842127531767,-0.0059540290385484695,-0.0027257453184574842
1772797921448783000,0.639783203125,-0.0018128136871382594,-0.004598213825374842,-0.0025276062078773975
1772797921458810000,0.64981005859375,-0.002656503114849329,-0.004467186518013477,-0.0017931063193827868
1772797921468837000,0.659837158203125,-0.001062068622559309,-0.005331115797162056,-0.0028690234757959843
1772797921478864100,0.669864013671875,-0.0009070726810023189,-0.0055803875438869,-0.002241050126031041
1772797921488891100,0.67989111328125,-0.0025334651581943035,-0.007808121852576733,-0.002469282830134034
1772797921498918100,0.689918212890625,-0.002923884429037571,-0.005401955917477608,-0.0016258598770946264
1772797921508945000,0.69994482421875,-0.0034826158080250025,-0.004827511962503195,-0.002638926263898611
1772797921518972200,0.70997216796875,-0.003739078063517809,-0.0054482948035001755,-0.0032317459117621183
1772797921528999200,0.719999267578125,-0.003323092358186841,-0.0092347776517272,-0.001948368619196117
1772797921539026000,0.73002587890625,-0.001118527608923614,-0.007002515718340874,-0.0025009745731949806
1772797921549053200,0.74005322265625,-0.0016192019684240222,-0.0020655477419495583,-0.0020157466642558575
1772797921559080200,0.750080078125,-0.001413073274306953,-0.006487460341304541,-0.003763579297810793
1772797921569107000,0.76010693359375,-0.0031140341889113188,-0.005914081819355488,-0.00378967821598053
1772797921579134000,0.770134033203125,0.001023186487145722,-0.0031936627347022295,-0.0016378440195694566
1772797921589161200,0.7801611328125,-0.002624545246362686,-0.003436276689171791,-0.005087969359010458
1772797921599188000,0.79018798828125,-0.002228266792371869,-0.0070427292957901955,-0.0037742317654192448
1772797921609215000,0.800215087890625,-0.002968625631183386,-0.007363640237599611,-0.0029587720055133104
1772797921619242200,0.8102421875,-0.0007832356495782733,-0.005065598525106907,-0.0014410364674404263
1772797921629269200,0.820269287109375,-0.0004921521758660674,-0.002999251941218972,0.0010849718237295747
1772797921639296000,0.8302958984375,-0.0032898029312491417,-0.0036099147982895374,-0.0008617989369668067
1772797921649323000,0.840322998046875,-0.0032439965289086103,-0.006166815757751465,-0.00239258399233222
1772797921659350300,0.850350341796875,-0.0030751521699130535,-0.007895207032561302,-0.004524444229900837
1772797921669377000,0.860376953125,0.00038003307417966425,-0.010327205993235111,-0.00030173614504747093
1772797921679403000,0.870403076171875,-0.004629373084753752,-0.005591839086264372,-0.0017134778900071979
1772797921689430000,0.880429931640625,-0.0032866070978343487,-0.0016429040115326643,0.0006799050024710596
1772797921699457300,0.890457275390625,-0.004717523697763681,0.0011318434262648225,0.0002798982313834131
1772797921709484000,0.900484130859375,-0.0028786107432097197,-0.00392896169796586,0.00028096348978579044
1772797921719511000,0.910510986328125,-0.00004021373388241045,-0.010177269577980042,-0.0026226809713989496
1772797921729538000,0.9205380859375,-0.001916410750709474,-0.014201573096215725,-0.005915945861488581
1772797921739565000,0.93056494140625,-0.0011733887949958444,-0.00962812639772892,-0.0035449336282908916
1772797921749592000,0.940592041015625,0.0003270361921750009,-0.002645051572471857,-0.004232295788824558
1772797921759619000,0.950619140625,-0.0009893643436953425,-0.00011211907985853031,-0.0023675502743571997
1772797921769646000,0.96064599609375,-0.00046605319948866963,-0.002222141483798623,-0.0001805623178370297
1772797921779673000,0.970673095703125,-0.003748132847249508,-0.00998898409307003,-0.0017499631503596902
1772797921789700000,0.9807001953125,-0.0021789984311908484,-0.01182257104665041,-0.005899434443563223
1772797921799727000,0.99072705078125,0.00011531487689353526,-0.01031735260039568,-0.0046211169101297855
1772797921809754000,1.000754150390625,-0.00045833003241568804,-0.0035888757556676865,-0.0029790119733661413
1772797921819781000,1.010781005859375,-0.0013880395563319325,0.000731836655177176,-0.005151618737727404
1772797921829807900,1.020807861328125,-0.0007877630414441228,-0.00205249828286469,-0.002698314841836691
1772797921839835100,1.030835205078125,-0.0009483516332693398,-0.005227785091847181,-0.004248540848493576
1772797921849862100,1.040862060546875,-0.00016298545233439654,-0.006422212813049555,-0.0051508196629583836
1772797921859889200,1.05088916015625,0.00012250541476532817,-0.008329036645591259,-0.0030282805673778057
1772797921869916200,1.060916259765625,-0.0026314693968743086,-0.0049406965263187885,-0.003459978848695755
1772797921879943200,1.070943115234375,0.00042637207661755383,-0.0030399984680116177,-0.0036812876351177692
1772797921889970200,1.08097021484375,-0.001811748486943543,-0.009214270859956741,-0.005388640332967043
1772797921899997000,1.090996826171875,-0.0017281252657994628,-0.005569735076278448,-0.0043899547308683395
1772797921910024200,1.101024169921875,0.0004114583716727793,-0.004240018781274557,-0.0017243968322873116
1772797921920051200,1.11105126953125,0.0001560612436151132,-0.0034229608718305826,-0.004205664154142141
1772797921930078000,1.121077880859375,0.0007137271459214389,-0.004098338540643454,-0.004860268905758858
1772797921940105200,1.131105224609375,-0.0009369000908918679,-0.005357481073588133,-0.0011952266795560718
1772797921950132200,1.14113232421875,-0.0020418455824255943,-0.007868043147027493,-0.005428587552160025
1772797921960159000,1.151158935546875,-0.0009981527691707015,-0.004034422803670168,-0.0038860845379531384
1772797921970186000,1.16118603515625,-0.0015214639715850353,-0.0073316823691129684,-0.003555053612217307
1772797921980213200,1.171213134765625,-0.001793905277736485,-0.011006578803062439,-0.003991013392806053
1772797921990240000,1.181239990234375,-0.003061303636059165,-0.007811317685991526,-0.00361790438182652
1772797922000267000,1.19126708984375,-0.0019022959750145674,-0.006736998446285725,-0.003032541600987315
1772797922010294300,1.201294189453125,-0.0024498419370502234,-0.003946005832403898,-0.001800030586309731
1772797922020321000,1.211321044921875,-0.0009776464430615306,-0.001333178486675024,-0.002757969545200467
1772797922030348000,1.22134814453125,-0.00313560594804585,-0.005498095881193876,-0.003307912265881896
1772797922040375000,1.231375,-0.0030064424499869347,-0.008588960394263268,0.000005592638444795739
1772797922050402000,1.241402099609375,-0.0007560714147984982,-0.005136971361935139,-0.0020213392563164234
1772797922060429000,1.251428955078125,-0.0014452975010499358,-0.001841842196881771,-0.0007672567153349519
1772797922070456000,1.2614560546875,-0.0028549085836857557,-0.002793655963614583,-0.0018074874533340335
1772797922080483000,1.271483154296875,-0.0032490564044564962,-0.005572664551436901,-0.0005536712124012411
1772797922090509600,1.281509521484375,-0.0007909588166512549,-0.00800279900431633,-0.003949734382331371
1772797922100536600,1.29153662109375,-0.002633866388350725,-0.005621400196105242,-0.0036583843175321817
1772797922110563800,1.301563720703125,-0.003427488263696432,-0.0017278589075431228,-0.002429868094623089
1772797922120590600,1.311590576171875,-0.001609614584594965,-0.0008934905636124313,-0.002040247665718198
1772797922130617600,1.32161767578125,-0.0022181468084454536,-0.0057074204087257385,0.0010317085543647408
1772797922140644600,1.33164453125,-0.0012535499408841133,-0.0038959383964538574,-0.0020698087755590677
1772797922150671600,1.341671630859375,-0.00027510453946888447,-0.005408880300819874,-0.003981159534305334
1772797922160698600,1.35169873046875,-0.0012325108982622623,-0.004223507363349199,-0.004325506277382374
1772797922170725600,1.3617255859375,-0.001543568097986281,-0.0041401502676308155,-0.004612328484654427
1772797922180752600,1.371752685546875,0.0002721750643104315,-0.004237089306116104,-0.0033923345617949963
1772797922190779600,1.381779541015625,-0.0015811186749488115,-0.009877397678792477,-0.0016703346045687795
1772797922200806700,1.391806640625,-0.0009470200748182833,-0.008742092177271843,-0.004721518140286207
1772797922210833700,1.401833740234375,-0.0012929646763950586,-0.0037473340053111315,-0.006418750621378422
1772797922220860700,1.411860595703125,-0.001389104756526649,-0.0010215885704383254,-0.004579039290547371
1772797922230887700,1.4218876953125,-0.004448277875781059,-0.005244829226285219,-0.0015784555580466986
1772797922240914700,1.431914794921875,-0.0014452975010499358,-0.011032144539058208,0.0005217132274992764
1772797922250941700,1.441941650390625,-0.0012098740553483367,-0.014141918160021305,-0.003388339886441827
1772797922260968700,1.45196875,-0.0014093448407948017,-0.004849083721637726,-0.005573197267949581
1772797922270995700,1.46199560546875,-0.0012146678054705262,0.0003861583536490798,-0.0016666061710566282
1772797922281022500,1.4720224609375,-0.001603755634278059,0.001273523666895926,-0.0020748688839375973
1772797922291049700,1.4820498046875,-0.0016000272007659078,-0.007637413218617439,-0.003451456781476736
1772797922301076700,1.49207666015625,-0.0012993563432246447,-0.00833862368017435,-0.002689526416361332
1772797922311103500,1.502103515625,-0.0018519621808081865,-0.009339972399175167,-0.004228567238897085
1772797922321130800,1.512130859375,-0.00261841993778944,-0.0013073458103463054,-0.0029963224660605192
1772797922331157800,1.52215771484375,-0.002055427758023143,0.0002889529860112816,-0.0017427726415917277
1772797922341184500,1.5321845703125,-0.0021166803780943155,-0.0011760519118979573,-0.0027425233274698257
1772797922351211500,1.54221142578125,-0.001525991247035563,-0.007441671099513769,-0.0027385284192860126
1772797922361238800,1.55223876953125,-0.0012333098566159606,-0.010912569239735603,-0.0038077877834439278
1772797922371265500,1.562265625,-0.0029265477787703276,-0.010883008129894733,-0.001347825862467289
1772797922381292500,1.57229248046875,-0.0012727247085422277,-0.0082704471424222,-0.003409645054489374
1772797922391319800,1.58231982421875,-0.0036844832357019186,0.004467452876269817,-0.005776396486908197
1772797922401346600,1.5923466796875,-0.0017363809747621417,0.006800648290663958,-0.001377386855892837
1772797922411373600,1.60237353515625,-0.001933454885147512,-0.00515747768804431,-0.001702026231214404
1772797922421400600,1.612400634765625,-0.0004924184759147465,-0.018385399132966995,-0.002329467097297311
1772797922431427800,1.622427734375,-0.0022807312197983265,-0.018194450065493584,-0.003287938656285405
1772797922441454600,1.63245458984375,0.0001131843455368653,-0.0067995828576385975,-0.0033318807836622
1772797922451481600,1.642481689453125,-0.0012229235144332051,0.005547098349779844,-0.0014325142838060856
1772797922461508900,1.6525087890625,-0.0023289343807846308,0.0038155107758939266,0.0014407701091840863
1772797922471534800,1.662534912109375,-0.0026964505668729544,-0.0028304075822234154,0.000648479734081775
1772797922481561600,1.6725615234375,0.00028069718973711133,-0.011010306887328625,-0.0030282805673778057
1772797922491588600,1.682588623046875,-0.003085272153839469,-0.010724283754825592,-0.00504083139821887
1772797922501615900,1.692615966796875,0.0004628573951777071,0.00013608753215521574,-0.0029763488564640284
1772797922511642600,1.702642578125,-0.0015534218400716782,-0.002671150490641594,-0.0000066579027588886674
1772797922521669600,1.712669677734375,-0.0005757753970101476,-0.006336991675198078,-0.0008777778712101281
1772797922531696600,1.722696533203125,-0.0019228023011237383,-0.011273693293333054,-0.002261023735627532
1772797922541723600,1.7327236328125,-0.0022631543688476086,-0.00529729388654232,-0.004263987299054861
1772797922551750700,1.742750732421875,-0.0024495755787938833,0.0012895026011392474,-0.0022327941842377186
1772797922561777700,1.752777587890625,-0.00013315805699676275,0.003971572034060955,0.00016937704640440643
1772797922571804700,1.7628046875,-0.0018399780383333564,-0.005012335255742073,0.00009827064059209079
1772797922581831700,1.772831787109375,-0.00250603468157351,-0.014039119705557823,-0.0020841897930949926
1772797922591858700,1.782858642578125,-0.0031132353469729424,-0.009778860956430435,-0.0013547500129789114
1772797922601885400,1.792885498046875,-0.0007680556736886501,-0.005366535857319832,-0.005586512852460146
1772797922611912700,1.80291259765625,-0.0033997914288192987,0.0024828650057315826,-0.0014708638191223145
1772797922621939700,1.812939697265625,-0.003382480936124921,-0.0014889733865857124,-0.00023409185814671218
1772797922631966500,1.822966552734375,-0.0024889903143048286,-0.005603823345154524,0.0003507383225951344
1772797922641993700,1.83299365234375,-0.0012490225490182638,-0.008655806072056293,-0.0034112429711967707
1772797922652020700,1.843020751953125,-0.0031766186002641916,-0.007383880205452442,-0.0016551546286791563
1772797922662047700,1.8530478515625,-0.0024780714884400368,-0.006134325172752142,-0.006339122075587511
1772797922672074500,1.863074462890625,-0.0013757890556007624,-0.008655539713799953,-0.004254932515323162
1772797922682101800,1.873101806640625,-0.0013763216556981206,-0.008288289420306683,-0.004541488364338875
1772797922692128800,1.883128662109375,-0.0012221246724948287,-0.008257397450506687,-0.0006748450105078518
1772797922702155500,1.893155517578125,-0.00007084008393576369,-0.006304234731942415,-0.002922286745160818
1772797922712182800,1.903182861328125,-0.001892175991088152,-0.007148989476263523,-0.0021379857789725065
1772797922722209800,1.913209716796875,-0.0036187032237648964,-0.011059575714170933,-0.00387410051189363
1772797922732236500,1.923236572265625,-0.002211222657933831,-0.009846505708992481,-0.003427754621952772
1772797922742263600,1.933263671875,0.00034168356796726584,-0.00424268189817667,-0.001133707701228559
1772797922752290800,1.943290771484375,0.0004324973560869694,-0.002261023735627532,-0.003061836352571845
1772797922762317600,1.953317626953125,-0.001549959764815867,-0.004324707202613354,-0.0028461201582103968
1772797922772344600,1.963344482421875,-0.002624278888106346,-0.0032168321777135134,0.0003832288784906268
1772797922782371800,1.973371826171875,-0.0024381240364164114,-0.009487777948379517,-0.0015773903578519821
1772797922792397800,1.983397705078125,-0.002629871480166912,-0.007503989152610302,-0.002519882982596755
1772797922802424600,1.993424560546875,-0.0033329459838569164,-0.007002782076597214,-0.0028791434597223997
1772797922812451600,2.00345166015625,-0.0020700751338154078,-0.0029555761720985174,-0.0011776498286053538
1772797922822478800,2.013478759765625,-0.0017185378819704056,-0.005389172583818436,-0.001208009896799922
1772797922832505600,2.023505615234375,-0.0014178669080138206,-0.008643022738397121,-0.0004972121678292751
1772797922842532600,2.03353271484375,-0.003501524217426777,-0.006363889668136835,-0.00464721629396081
1772797922852559600,2.0435595703125,-0.0029816750902682543,-0.0030043120495975018,-0.003350256709381938
1772797922862586600,2.053586669921875,-0.0022631543688476086,-0.0006908240029588342,-0.0022181468084454536
1772797922872613600,2.063613525390625,-0.0030245520174503326,-0.005510612856596708,-0.0004814995336346328
1772797922882640600,2.073640625,-0.003564641112461686,-0.009225189685821533,-0.0022801985032856464
1772797922892667600,2.083667724609375,-0.003998203668743372,-0.010333064943552017,-0.003212837502360344
1772797922902694700,2.093694580078125,-0.0006748450105078518,-0.005363340023905039,-0.0033009881153702736
1772797922912721700,2.1037216796875,-0.001776594785042107,-0.002867691917344928,-0.0031217574141919613
1772797922922748700,2.113748779296875,-0.0022061625495553017,-0.0015962987672537565,-0.001282312092371285
1772797922932775700,2.123775634765625,-0.0016381103778257966,-0.0048829056322574615,0.00017097493400797248
1772797922942802700,2.133802734375,-0.0025776736438274384,-0.00643686018884182,-0.0036133769899606705
1772797922952829700,2.14382958984375,-0.0035217641852796078,-0.006155097857117653,-0.001651692553423345
1772797922962856700,2.153856689453125,-0.003171824850142002,-0.005245095584541559,-0.0009129316313192248
1772797922972883700,2.1638837890625,-0.0012412993237376213,-0.0037771612405776978,-0.00180855265352875
1772797922982910700,2.17391064453125,-0.0029111013282090425,-0.00501180300489068,-0.0019441075855866075
1772797922992937500,2.1839375,-0.0029204224701970816,-0.003707652911543846,-0.0018098842119798064
1772797923002964700,2.19396484375,-0.002435727044939995,-0.005489573813974857,-0.003173955250531435
1772797923012991700,2.20399169921875,-0.001955292886123061,-0.004739894066005945,-0.007795338984578848
1772797923023018500,2.2140185546875,-0.001433845958672464,-0.00891120359301567,-0.00330338510684669
1772797923033045800,2.224045654296875,-0.0014745922526344657,-0.004116980824619532,-0.0034202977549284697
1772797923043072800,2.23407275390625,-0.0035771578550338745,-0.004708202555775642,-0.0019379822770133615
1772797923053098800,2.2440986328125,-0.0035896748304367065,-0.0057526943273842335,-0.00273693073540926
1772797923063125500,2.25412548828125,-0.002552639925852418,-0.003605121048167348,-0.0032855418976396322
1772797923073152800,2.26415283203125,-0.0002079928817693144,-0.003852528752759099,-0.0035143073182553053
1772797923083179800,2.2741796875,-0.0009890979854390025,-0.007197725586593151,-0.0040975394658744335
1772797923093206500,2.28420654296875,-0.0007640608819201589,-0.007707187905907631,-0.002508165081962943
1772797923103233300,2.2942333984375,-0.00036218989407643676,-0.005477056838572025,-0.002913498319685459
1772797923113260500,2.304260498046875,-0.0012948289513587952,-0.00621182331815362,-0.0015595471486449242
1772797923123287600,2.31428759765625,-0.0018639464396983385,-0.004372111521661282,0.0002884203568100929
1772797923133314300,2.324314208984375,-0.000245543458731845,-0.0038482677191495895,-0.0014359764754772186
1772797923143341300,2.33434130859375,0.0008807073463685811,-0.005494633689522743,-0.005386775825172663
1772797923153368600,2.34436865234375,-0.003487143199890852,-0.008628109470009804,-0.001035436987876892
1772797923163395300,2.354395263671875,-0.0008295746520161629,-0.007918642833828926,-0.0016964336391538382
1772797923173422300,2.36442236328125,0.0003022687742486596,-0.005293831694871187,-0.0010037453612312675
1772797923183449600,2.37444970703125,-0.0029667613562196493,-0.005192098673433065,-0.002544117858633399
1772797923193476400,2.384476318359375,-0.001032241270877421,-0.006398777011781931,-0.0032322786282747984
1772797923203503400,2.39450341796875,-0.0021795309148728848,-0.005215268116444349,-0.004553472623229027
1772797923213530400,2.4045302734375,-0.0012895026011392474,-0.007669637445360422,-0.0018104169284924865
1772797923223557400,2.414557373046875,-0.0011265170760452747,-0.005791576579213142,-0.0011590076610445976
1772797923233584400,2.42458447265625,-0.0023209447972476482,-0.004512992687523365,-0.0015584818320348859
1772797923243611400,2.434611328125,-0.0014897723449394107,-0.004632036201655865,-0.0006940197781659663
1772797923253638400,2.444638427734375,-0.0032200280111283064,-0.004579039290547371,-0.0019291938515380025
1772797923263665400,2.45466552734375,-0.00242081331089139,-0.007062170654535294,-0.005571066867560148
1772797923273692400,2.4646923828125,-0.0003448793722782284,-0.008252071216702461,-0.0013334447285160422
1772797923283718400,2.474718505859375,-0.0011030812747776508,-0.009441704489290714,-0.00041092574247159064
1772797923293745400,2.484745361328125,-0.002692189533263445,-0.007395065855234861,-0.001784850494004786
1772797923303772400,2.4947724609375,-0.0018048242200165987,-0.006554305553436279,-0.0005448827287182212
1772797923313799400,2.50479931640625,-0.0020911141764372587,-0.003311640815809369,-0.0015688681742176414
1772797923323826400,2.514826416015625,-0.0033457293175160885,-0.0036101811565458775,-0.0005038700764998794
1772797923333853400,2.524853515625,-0.003626959165558219,-0.0064805359579622746,-0.00033422670094296336
1772797923343880400,2.53488037109375,-0.0007017429452389479,-0.007955394685268402,-0.0022943131625652313
1772797923353907500,2.544907470703125,-0.0009118663729168475,-0.00896819494664669,-0.005903961602598429
1772797923363934500,2.5549345703125,-0.0014314490836113691,-0.004907673224806786,-0.003183010034263134
1772797923373961500,2.56496142578125,-0.0022972426377236843,-0.004055728204548359,-0.0007917577750049531
1772797923383988500,2.574988525390625,-0.004453604109585285,-0.006962834391742945,-0.002674079965800047
1772797923394015200,2.58501513671875,-0.0020330571569502354,-0.01013945322483778,-0.003513242118060589
1772797923404042500,2.59504248046875,-0.003765976056456566,-0.009661415591835976,-0.0005163869354873896
1772797923414069500,2.605069580078125,-0.002273274352774024,-0.00902651809155941,-0.003257578704506159
1772797923424096300,2.61509619140625,-0.002257561543956399,-0.005449360236525536,-0.0028810077346861362
1772797923434123500,2.62512353515625,-0.0015310513554140925,-0.001457548001781106,-0.0044352286495268345
1772797923444150500,2.635150634765625,-0.0009387642494402826,-0.0029561088886111975,-0.002710299100726843
1772797923454177300,2.64517724609375,-0.0007637945818714797,-0.008805209770798683,0.00004367584188003093
1772797923464204300,2.655204345703125,-0.0036461339332163334,-0.00971441250294447,-0.003177950158715248
1772797923474231600,2.6652314453125,-0.0022708773612976074,-0.007270962465554476,-0.0027832696214318275
1772797923484257500,2.675257568359375,-0.0043534692376852036,-0.00638013519346714,0.000055926382628967986
1772797923494284300,2.6852841796875,-0.0021968416403979063,-0.005381449591368437,-0.001356347929686308
1772797923504311300,2.695311279296875,-0.0017568873008713126,-0.007225155830383301,-0.0004601942200679332
1772797923514338600,2.705338623046875,-0.0007265103631652892,-0.009854494594037533,-0.0033100428991019726
1772797923524365300,2.715365234375,-0.00036991306114941835,-0.010426808148622513,-0.003865312086418271
1772797923534392300,2.725392333984375,-0.004580104257911444,-0.004618986509740353,-0.0021813951898366213
1772797923544419600,2.735419677734375,-0.0021907163318246603,-0.005835785064846277,-0.0008309062686748803
1772797923554446300,2.7454462890625,-0.0032439965289086103,-0.008342351764440536,-0.001062068622559309
1772797923564473300,2.755473388671875,-0.0005853627808392048,-0.01008166279643774,-0.004972121678292751
1772797923574500400,2.765500244140625,-0.0006522081675939262,-0.006174006499350071,-0.003689809702336788
1772797923584527600,2.775527587890625,-0.0014000238152220845,-0.005134574603289366,-0.0017901768442243338
1772797923594554400,2.785554443359375,-0.0038578552193939686,-0.0028519791085273027,-0.0007038734620437026
1772797923604581400,2.795581298828125,-0.0027987160719931126,-0.0031457259319722652,0.0010596717474982142
1772797923614608600,2.805608642578125,-0.0024644893128424883,-0.006740194279700518,-0.0019920445047318935
1772797923624635400,2.815635498046875,-0.002624278888106346,-0.011423096992075443,-0.004641090985387564
1772797923634662400,2.825662353515625,-0.002371012233197689,-0.00675164582207799,-0.0029172266367822886
1772797923644689400,2.835689453125,-0.0010391654213890433,-0.007923702709376812,-0.00230842805467546
1772797923654716400,2.84571630859375,-0.0022631543688476086,-0.005661347880959511,-0.000003994741746282671
1772797923664742400,2.855742431640625,-0.002118811011314392,-0.006025401875376701,-0.00019867181254085153
1772797923674769400,2.865769287109375,-0.0021880532149225473,-0.006678142584860325,-0.002296710154041648
1772797923684796400,2.87579638671875,-0.002304965863004327,-0.0046701193787157536,-0.0029981867410242558
1772797923694823400,2.885823486328125,-0.002386192325502634,-0.005844573490321636,0.0005139900604262948
1772797923704850400,2.895850341796875,-0.001300155185163021,-0.00669332267716527,-0.002813895931467414
1772797923714877400,2.90587744140625,-0.0035321505274623632,-0.009582586586475372,-0.0007997472421266139
1772797923724904200,2.915904296875,-0.002252235310152173,-0.010523481294512749,-0.004126567859202623
1772797923734931500,2.925931396484375,-0.003329217666760087,-0.00415373221039772,-0.0019225359428673983
1772797923744958500,2.93595849609375,-0.001460477476939559,-0.0059814597479999065,-0.0021169467363506556
1772797923754985200,2.945985107421875,-0.0037862160243093967,-0.005081311333924532,-0.003061569994315505
1772797923765012500,2.956012451171875,-0.004028031136840582,-0.005364938173443079,0.00006764429417671636
1772797923775039500,2.96603955078125,-0.003425357863306999,-0.01022707112133503,-0.0015523566398769617
1772797923785066200,2.976066162109375,-0.002237854292616248,-0.00395639194175601,-0.0018410432385280728
1772797923795093200,2.98609326171875,-0.0015688681742176414,-0.009386577643454075,-0.0021401161793619394
1772797923805120500,2.99612060546875,-0.0020935109350830317,-0.008477640338242054,-0.00042770366417244077
1772797923815147500,3.0061474609375,-0.002255431143566966,-0.005423794034868479,-0.0014650048688054085
1772797923825174300,3.01617431640625,-0.001401089015416801,-0.0006761765689589083,-0.0015209312550723553
1772797923835200300,3.0262001953125,-0.00256409146822989,-0.009217733517289162,-0.0025800704024732113
1772797923845227500,3.0362275390625,-0.0020572920329868793,-0.0083085298538208,-0.004525776021182537
1772797923855254500,3.046254638671875,-0.0008146609761752188,-0.009101619012653828,-0.004599545616656542
1772797923865281300,3.05628125,-0.0012341088149696589,-0.0057681407779455185,-0.0024746092967689037
1772797923875308500,3.06630859375,-0.003323625074699521,-0.007766576483845711,-0.004042412154376507
1772797923885335600,3.07633544921875,-0.004493019077926874,-0.004039749037474394,-0.0016889767721295357
1772797923895362300,3.0863623046875,-0.0025334651581943035,-0.007352721411734819,-0.002229065867140889
1772797923905389300,3.096389404296875,-0.0020836573094129562,-0.008262990042567253,-0.001085504423826933
1772797923915416600,3.10641650390625,-0.003724164329469204,-0.011215103790163994,-0.00021891183860134333
1772797923925443300,3.116443359375,-0.0019497001776471734,-0.007591873407363892,-0.004064516630023718
1772797923935470300,3.12647021484375,-0.001698830397799611,-0.0073071811348199844,-0.001017061178572476
1772797923945497600,3.13649755859375,-0.0027169568929821253,-0.005859753116965294,-0.003456783015280962
1772797923955524400,3.1465244140625,-0.0017382452497258782,-0.00333241350017488,-0.0006884271278977394
1772797923965551400,3.15655126953125,-0.00011451592581579462,-0.008628109470009804,-0.0031915323343127966
1772797923975578400,3.166578369140625,-0.0037619813811033964,-0.007405451964586973,-0.0008692557457834482
1772797923985605400,3.17660546875,0.0001560612436151132,-0.005238970275968313,-0.0021992383990436792
1772797923995631400,3.18663134765625,-0.000672448193654418,-0.004445082042366266,-0.004256263840943575
1772797924005658400,3.196658447265625,-0.0012303803814575076,-0.003919640555977821,-0.0043859598226845264
1772797924015685400,3.206685302734375,-0.0008647284121252596,-0.005816077347844839,-0.0014751249691471457
1772797924025712400,3.21671240234375,-0.0035569178871810436,-0.005076784174889326,-0.0030125677585601807
1772797924035739400,3.226739501953125,-0.0011566109023988247,-0.004050135146826506,-0.0019510318525135517
1772797924045766400,3.236766357421875,-0.002852511825039983,-0.006112221162766218,-0.001499359728768468
1772797924055793400,3.24679345703125,-0.002159024588763714,-0.006837666034698486,-0.002275138394907117
1772797924065820400,3.2568203125,-0.0026256104465574026,-0.00592526700347662,-0.0036282907240092754
1772797924075847400,3.266847412109375,-0.0046722497791051865,-0.004743356257677078,-0.001933454885147512
1772797924085874400,3.27687451171875,-0.0023971113841980696,-0.0067828050814569,-0.002448244020342827
1772797924095902000,3.28690185546875,-0.0006748450105078518,-0.004231763072311878,-0.0009624664089642465
1772797924105929200,3.29692919921875,-0.0003294330381322652,-0.004828311037272215,-0.002147573046386242
1772797924115956000,3.3069560546875,-0.002627208363264799,-0.006277070846408606,-0.0025358619168400764
1772797924125983000,3.31698291015625,-0.0025393241085112095,-0.006105030421167612,-0.002172074280679226
1772797924136010000,3.327010009765625,-0.003710848744958639,-0.006413424387574196,-0.003144660498946905
1772797924146036200,3.3370361328125,-0.0024045680183917284,-0.006287456955760717,-0.0032772859558463097
1772797924156063000,3.34706298828125,-0.0036695697344839573,-0.005930326879024506,0.001276453142054379
1772797924166090000,3.357090087890625,-0.002704440150409937,-0.004295146092772484,-0.0017608820926398039
1772797924176117000,3.367116943359375,-0.001785116852261126,-0.006786533165723085,-0.0016857809387147427
1772797924186144000,3.37714404296875,0.00038242992013692856,-0.0036999296862632036,-0.0028634308837354183
1772797924196171000,3.3871708984375,-0.0022423816844820976,-0.006971889175474644,-0.003111637430265546
1772797924206198000,3.397197998046875,-0.0031201594974845648,-0.004102599807083607,-0.00207726564258337
1772797924216225000,3.40722509765625,-0.0013100089272484183,-0.00700757559388876,-0.0009094694978557527
1772797924226252000,3.417251953125,-0.001047687605023384,-0.006756706163287163,-0.001716673607006669
1772797924236279000,3.427279052734375,-0.0012373046483844519,-0.006930610164999962,-0.001990446588024497
1772797924246306000,3.43730615234375,-0.0027483822777867317,-0.006823018658906221,-0.002546514617279172
1772797924256333000,3.4473330078125,-0.0000428768944402691,-0.004174504894763231,-0.003073820611461997
1772797924266360000,3.457360107421875,-0.002698048483580351,-0.009256348945200443,-0.0030008498579263687
1772797924276387000,3.467386962890625,-0.000707868195604533,-0.005884520709514618,-0.0013081447687000036
1772797924286413000,3.4774130859375,-0.001240766723640263,-0.00609411159530282,-0.0028605014085769653
1772797924296440000,3.487440185546875,0.00038163099088706076,-0.003990214318037033,-0.002484196564182639
1772797924306467000,3.497467041015625,-0.00185063062235713,-0.004006193019449711,-0.0035169704351574183
1772797924316494000,3.507494140625,-0.0020210728980600834,-0.00532578956335783,-0.0024743429385125637
1772797924326521000,3.51752099609375,-0.001677525113336742,-0.006196643225848675,-0.001677525113336742
1772797924336548000,3.527548095703125,-0.002900714986026287,-0.007466171868145466,-0.0037827540654689074
1772797924346575000,3.5375751953125,-0.0019076223252341151,-0.0054853130131959915,-0.004579572007060051
1772797924356601900,3.547601806640625,-0.0010431602131575346,-0.007397995330393314,-0.00029108350281603634
1772797924366629000,3.557629150390625,-0.0021465078461915255,-0.004756405483931303,-0.002380866091698408
1772797924376656100,3.56765625,0.0004703142330981791,-0.003963849041610956,-0.0023094932548701763
1772797924386683000,3.577682861328125,-0.0024253407027572393,-0.0070099723525345325,-0.002243446884676814
1772797924396710100,3.587710205078125,-0.0011574097443372011,-0.006716758478432894,-0.0038155107758939266
1772797924406737200,3.597737060546875,-0.0019140138756483793,-0.00626029260456562,-0.004355333745479584
1772797924416764000,3.607763916015625,-0.002724946476519108,-0.005564941558986902,-0.0016490293201059103
1772797924426790000,3.617789794921875,-0.0027204190846532583,-0.0010327738709747791,-0.0024975123815238476
1772797924436817000,3.62781689453125,-0.002913231961429119,-0.005532717332243919,-0.0018748653819784522
1772797924446844200,3.63784423828125,-0.001695900922641158,-0.006864297669380903,-0.001969141187146306
1772797924456871000,3.647870849609375,-0.001540638622827828,-0.009675797075033188,-0.00395692465826869
1772797924466898000,3.65789794921875,-0.0034879420418292284,-0.0054725296795368195,-0.0006021407316438854
1772797924476925200,3.66792529296875,-0.002731071785092354,-0.003890611929818988,-0.0022485069930553436
1772797924486952200,3.6779521484375,-0.0026903252582997084,-0.004519650712609291,-0.0020682108588516712
1772797924496979000,3.68797900390625,-0.003570500062778592,-0.007178550586104393,-0.0017089504981413484
1772797924507006000,3.698005859375,-0.0031904669012874365,-0.004483165219426155,-0.0036674391012638807
1772797924517033200,3.708033203125,-0.0017781927017495036,-0.008414257317781448,-0.0016112125013023615
1772797924527060000,3.71806005859375,-0.0008466189028695226,-0.009192699566483498,-0.0032682311721146107
1772797924537087000,3.7280869140625,-0.002796319080516696,-0.00774766830727458,-0.0017142767319455743
1772797924547114200,3.7381142578125,-0.002915895078331232,-0.005307413637638092,-0.0015566176734864712
1772797924557140200,3.74814013671875,-0.002095375210046768,-0.004515655804425478,0.00012836436508223414
1772797924567167000,3.7581669921875,-0.0015579492319375277,-0.0051843756809830666,-0.0033936661202460527
1772797924577194000,3.768194091796875,-0.002234658459201455,-0.00634844321757555,-0.001184307737275958
1772797924587221200,3.77822119140625,-0.00130894361063838,-0.008916796185076237,-0.0013265205780044198
1772797924597248000,3.788248046875,-0.0022897860035300255,-0.007196393795311451,0.0003933488915208727
1772797924607275000,3.79827490234375,-0.005671733990311623,-0.001990180229768157,-0.0013054815353825688
1772797924617302000,3.808302001953125,-0.0010783139150589705,-0.004689027555286884,-0.0024522386956959963
1772797924627329000,3.8183291015625,0.0011227887589484453,-0.00683233980089426,-0.002141447737812996
1772797924637356000,3.82835595703125,-0.0012532835826277733,-0.008665659464895725,0.00025832661776803434
1772797924647383000,3.838383056640625,-0.002558498876169324,-0.008226504549384117,-0.0019520970527082682
1772797924657410000,3.84841015625,-0.002989931032061577,-0.0034730283077806234,-0.0009981527691707015
1772797924667437000,3.85843701171875,-0.0023281353060156107,-0.0037414750549942255,-0.002432797569781542
1772797924677464000,3.868464111328125,-0.0016724651213735342,-0.0059598879888653755,-0.0010452907299622893
1772797924687490000,3.878489990234375,-0.0018261295044794679,-0.005290902219712734,-0.003150785807520151
1772797924697517000,3.88851708984375,-0.001362473238259554,-0.0062853265553712845,-0.004514856729656458
1772797924707544000,3.8985439453125,-0.0021789984311908484,-0.0051657333970069885,-0.003640807466581464
1772797924717571000,3.908571044921875,-0.0022485069930553436,-0.0035779569298028946,-0.004159857518970966
1772797924727597800,3.918597900390625,-0.003456783015280962,-0.0035989959724247456,0.000630902883131057
1772797924737625000,3.928625,0.0003246393462177366,-0.009647035039961338,-0.0008727178792469203
1772797924747652000,3.938652099609375,-0.002811499172821641,-0.007668838836252689,-0.001627191435545683
1772797924757679000,3.94867919921875,-0.0008458199445158243,-0.007812649011611938,-0.0033920682035386562
1772797924767706000,3.9587060546875,-0.0011859056539833546,-0.002490321872755885,-0.003306048223748803
1772797924777733000,3.968733154296875,-0.0005110605852678418,-0.005694637540727854,0.00020133497309871018
1772797924787760000,3.978760009765625,-0.0029755497816950083,-0.006346046458929777,-0.0011286477092653513
1772797924797787000,3.988786865234375,-0.0031787490006536245,-0.008163920603692532,-0.004342284053564072
1772797924807812900,3.998812744140625,-0.0017233315156772733,-0.008547681383788586,-0.004141215234994888
1772797924817840000,4.008840087890625,-0.00036192359402775764,-0.006642722524702549,-0.0014974954538047314
1772797924827867100,4.0188671875,-0.0027987160719931126,-0.004763329867273569,-0.0021667478140443563
1772797924837894000,4.028893798828125,-0.0018341189716011286,-0.003043726785108447,-0.002555303042754531
1772797924847921200,4.038921142578125,-0.0032493227627128363,-0.006900516804307699,-0.0006543386843986809
1772797924857948200,4.0489482421875,-0.0021345235873013735,-0.005753759294748306,-0.005275988485664129
1772797924867975000,4.058974853515625,-0.0024104269687086344,-0.00401578051969409,-0.001973402453586459
1772797924878002000,4.069001953125,-0.0019773971289396286,-0.005702360533177853,-0.002130795270204544
1772797924888029200,4.079029296875,-0.0019587550777941942,-0.004253334365785122,-0.001704955706372857
1772797924898056000,4.089055908203125,-0.0010956244077533484,-0.003436010330915451,-0.001014664419926703
1772797924908083000,4.0990830078125,-0.0021401161793619394,-0.0021883193403482437,0.0020900487434118986
1772797924918110200,4.109110107421875,-0.0017209346406161785,-0.004535097163170576,-0.0018261295044794679
1772797924928136200,4.11913623046875,-0.002207494108006358,-0.007392402272671461,-0.003300189273431897
1772797924938163000,4.129162841796875,-0.0017512947088107467,-0.00563977612182498,-0.0017251957906410098
1772797924948190000,4.13918994140625,-0.00466532539576292,-0.00914556160569191,-0.002109223511070013
1772797924958217200,4.14921728515625,-0.0043958136811852455,-0.004238420631736517,-0.0027832696214318275
1772797924968244000,4.159243896484375,0.00039015308720991015,-0.0024956483393907547,-0.000811997801065445
1772797924978271000,4.16927099609375,-0.00005832322858623229,-0.004323109518736601,-0.0029640982393175364
1772797924988298000,4.179298095703125,0.00036991306114941835,-0.005320996046066284,-0.0036450685001909733
1772797924998325000,4.189324951171875,-0.0023784691002219915,-0.010519752278923988,-0.0024980450980365276
1772797925008352000,4.19935205078125,-0.003201652318239212,-0.008653675206005573,-0.001845038030296564
1772797925018379000,4.20937890625,-0.0017382452497258782,-0.0028533106669783592,-0.0009627327090129256
1772797925028406000,4.219406005859375,-0.002299373270943761,-0.004986769054085016,-0.0025329324416816235
1772797925038432000,4.229431884765625,-0.0015222628135234118,-0.005988650489598513,-0.0010133327450603247
1772797925048459000,4.239458984375,-0.0023513049818575382,-0.006262955721467733,-0.0032722260802984238
1772797925058486000,4.249486083984375,-0.001416269107721746,-0.010518686845898628,-0.005380117800086737
1772797925068513300,4.25951318359375,-0.0021222729701548815,-0.006346312817186117,-0.0021654162555933
1772797925078540000,4.2695400390625,-0.001942776027135551,-0.005545766558498144,-0.0005826996639370918
1772797925088567000,4.279567138671875,-0.0014559502014890313,-0.007027283310890198,-0.0024687503464519978
1772797925098593000,4.289593017578125,-0.0020266654901206493,-0.005389971658587456,-0.0006801713607273996
1772797925108620000,4.2996201171875,-0.0017009610310196877,-0.004698881413787603,-0.0029851372819393873
1772797925118646800,4.309646728515625,-0.001547030289657414,-0.003933755215257406,-0.002424808219075203
1772797925128674000,4.319674072265625,-0.0023997745011001825,-0.0037947380915284157,-0.0020623519085347652
1772797925138701000,4.329701171875,-0.00001997370782191865,-0.004992361646145582,-0.003573962254449725
1772797925148727800,4.339727783203125,-0.004452272783964872,-0.005468534771353006,-0.003849332919344306
1772797925158753800,4.34975390625,-0.00022317290131468326,-0.0029372002463787794,-0.00415453128516674
1772797925168780800,4.35978076171875,-0.00013022858183830976,-0.00247540813870728,-0.0010495517635717988
1772797925178808000,4.36980810546875,-0.002124403603374958,-0.004471713677048683,-0.0020458402577787638
1772797925188834800,4.379834716796875,-0.0018141453620046377,-0.007892544381320477,-0.003079146845266223
1772797925198861800,4.38986181640625,-0.000003462109361862531,-0.004060521721839905,-0.0032557144295424223
1772797925208889000,4.39988916015625,-0.0036341496743261814,-0.006537261418998241,-0.005660282447934151
1772797925218915800,4.409915771484375,-0.0012658004416152835,-0.004080761689692736,-0.0033278861083090305
1772797925228942800,4.41994287109375,-0.004728442523628473,-0.004059989005327225,-0.003093527862802148
1772797925238969900,4.429969970703125,-0.0029204224701970816,-0.0008812400046736002,-0.0033965955954045057
1772797925248996900,4.439996826171875,-0.0017627463676035404,-0.004067978356033564,-0.001142229768447578
1772797925259022800,4.45002294921875,-0.0016551546286791563,-0.0020695424173027277,-0.0006729807937517762
1772797925269049900,4.4600498046875,-0.002639725338667631,-0.008737298659980297,-0.0020061591640114784
1772797925279076900,4.470076904296875,-0.0034053840208798647,-0.006579073145985603,0.0021022993605583906
1772797925289104000,4.480103759765625,-0.0023361248895525932,-0.0032748891972005367,-0.0011406318517401814
1772797925299131000,4.490130859375,-0.003998203668743372,-0.000606668065302074,-0.0009084042394533753
1772797925309158000,4.500157958984375,-0.00213585514575243,-0.007272293791174889,-0.0003608583356253803
1772797925319185000,4.510184814453125,-0.002826146548613906,-0.010846788994967937,-0.00022556974727194756
1772797925329212000,4.5202119140625,-0.0017092167399823666,-0.012920059263706207,0.0011198592837899923
1772797925339239000,4.530239013671875,-0.001680987305007875,-0.009484581649303436,0.001669003046117723
1772797925349266000,4.540265869140625,-0.003653058083727956,-0.0035814191214740276,0.00018216021999251097
1772797925359293000,4.55029296875,-0.002758768619969487,-0.0036847495939582586,-0.0014088122406974435
1772797925369319000,4.56031884765625,-0.004226702731102705,-0.011113104410469532,-0.002522279741242528
1772797925379346000,4.570345947265625,-0.0028360001742839813,-0.01471662800759077,-0.002695385366678238
1772797925389373000,4.580373046875,-0.0043926178477704525,-0.015809589996933937,-0.0033896714448928833
1772797925399400000,4.59039990234375,-0.002683667466044426,-0.008416388183832169,-0.00324825756251812
1772797925409427000,4.600427001953125,-0.0013081447687000036,-0.0029862024821341038,-0.002941993996500969
1772797925419454000,4.610453857421875,-0.00038296254933811724,-0.0023965786676853895,0.0031190942972898483
1772797925429481000,4.62048095703125,-0.0036634444259107113,-0.002561161993071437,0.0011936287628486753
1772797925439508000,4.630508056640625,-0.0008335694437846541,-0.009411078877747059,-0.0008679241873323917
1772797925449535000,4.640534912109375,-0.003320695599541068,-0.010747186839580536,-0.004574511665850878
1772797925459561700,4.650561767578125,-0.0033808830194175243,-0.006813431158661842,-0.005687180440872908
1772797925469587700,4.660587646484375,-0.001008539111353457,-0.004637628793716431,-0.0033241575583815575
1772797925479615000,4.670614990234375,-0.0023393207229673862,-0.00390312890522182,-0.0021550299134105444
1772797925489642000,4.68064208984375,-0.0027334685437381268,-0.010297378525137901,-0.000358461489668116
1772797925499668700,4.690668701171875,-0.0021052288357168436,-0.009267267771065235,-0.0018469021888449788
1772797925509696000,4.700696044921875,-0.0036157737486064434,-0.006916761863976717,-0.0023576964158564806
1772797925519723000,4.710722900390625,-0.003356115659698844,-0.0021552962716668844,-0.0014114753575995564
1772797925529749800,4.720749755859375,-0.00023302659974433482,-0.004691957030445337,-0.002213353058323264
1772797925539776800,4.73077685546875,-0.003525758860632777,-0.006472280248999596,-0.0027079021092504263
1772797925549804000,4.740803955078125,-0.000672181835398078,-0.010067547671496868,-0.0020306603983044624
1772797925559830800,4.750830810546875,-0.0024495755787938833,-0.005856557283550501,-0.0016969662392511964
1772797925569856800,4.760856689453125,-0.0020578245166689157,-0.0011057445080950856,-0.0031140341889113188
1772797925579883800,4.7708837890625,-0.0026130937039852142,0.00012144014181103557,0.00024288028362207115
1772797925589911000,4.7809111328125,-0.0031790153589099646,-0.0052264537662267685,-0.0005049353349022567
1772797925599937800,4.790937744140625,-0.0019217369845137,-0.011380219832062721,-0.0019824570044875145
1772797925609964800,4.80096484375,0.0009576727170497179,-0.01164387259632349,-0.003846403444185853
1772797925619992000,4.810991943359375,-0.0024554345291107893,-0.007843808270990849,-0.0023212111555039883
1772797925630019000,4.82101904296875,-0.0025539714843034744,-0.004062385763972998,-0.003070092061534524
1772797925640045800,4.8310458984375,-0.0022652847692370415,0.0011707255616784096,0.0024200144689530134
1772797925650072800,4.84107275390625,-0.004762797150760889,-0.0002913498319685459,-0.002418682910501957
1772797925660100000,4.85110009765625,-0.00452710734680295,-0.003581951605156064,-0.0007360977469943464
1772797925670126000,4.8611259765625,-0.001546763931401074,-0.009978065267205238,-0.003263437654823065
1772797925680152800,4.87115283203125,-0.003634682158008218,-0.008139419369399548,-0.004852545913308859
1772797925690179800,4.881179931640625,-0.0017265273490920663,-0.007330883294343948,-0.0010178601369261742
1772797925700207000,4.89120703125,-0.002886600326746702,-0.0033747577108442783,-0.0005816344055347145
1772797925710233900,4.90123388671875,-0.0022833943367004395,-0.005629123654216528,0.0016021577175706625
1772797925720260900,4.9112607421875,-0.004464523401111364,-0.006896788254380226,-0.0005107942852191627
1772797925730288000,4.9212880859375,-0.004132160916924477,-0.010461695492267609,-0.0027089675422757864
1772797925740315000,4.93131494140625,-0.0014343785587698221,-0.0062549663707613945,-0.0009542105835862458
1772797925750342000,4.941341796875,-0.0038922098465263844,-0.006708769127726555,-0.002516687149181962
1772797925760367900,4.951367919921875,0.00041039311327040195,-0.006272276863455772,-0.0012330436147749424
1772797925770395000,4.961394775390625,-0.0009917612187564373,-0.005888781975954771,-0.0008575378451496363
1772797925780422000,4.971421875,-0.0032807481475174427,-0.0037326866295188665,-0.002401106059551239
1772797925790449000,4.981448974609375,-0.00216514989733696,-0.002801911672577262,-0.0010391654213890433
1772797925800476000,4.991475830078125,-0.0016018913593143225,-0.005653890781104565,-0.0005225121858529747
1772797925810503000,5.0015029296875,-0.0016548882704228163,-0.006160424090921879,-0.00024314661277458072
1772797925820530000,5.011530029296875,-0.0019299928098917007,-0.0066062374971807,-0.002865028567612171
1772797925830557000,5.021556884765625,0.0000756337758502923,-0.005090366117656231,0.0003483414766378701
1772797925840583700,5.031583740234375,-0.002463157754391432,-0.009167931973934174,-0.0034650389570742846
1772797925850611000,5.04161083984375,-0.000678307143971324,-0.003228017594665289,-0.0022024342324584723
1772797925860637000,5.051636962890625,-0.0009688580175861716,-0.00315957423299551,-0.0026823359075933695
1772797925870664000,5.061663818359375,-0.003775563556700945,-0.005244829226285219,-0.0030660973861813545
1772797925880690700,5.071690673828125,-0.0011627360945567489,-0.006530869752168655,-0.0010458233300596476
1772797925890718000,5.081718017578125,-0.0015483618481084704,-0.006963100749999285,-0.000526506919413805
1772797925900745000,5.091744873046875,-0.001986984396353364,-0.007181213703006506,-0.0012279836228117347
1772797925910772000,5.10177197265625,-0.0029635655228048563,-0.010150105692446232,-0.0033832797780632973
1772797925920799000,5.111799072265625,-0.0012290488230064511,-0.006070675794035196,-0.003061303636059165
1772797925930826000,5.121825927734375,-0.0015286544803529978,-0.003418167121708393,-0.000538491178303957
1772797925940853000,5.13185302734375,-0.0036218990571796894,-0.003993676509708166,-0.002659698948264122
1772797925950879000,5.14187890625,-0.0019259981345385313,-0.005085039883852005,-0.0020572920329868793
1772797925960906000,5.151906005859375,-0.0017478326335549355,-0.007937551476061344,-0.0052352421917021275
1772797925970933000,5.16193310546875,-0.0019867182709276676,-0.01007846649736166,-0.005625395104289055
1772797925980960000,5.1719599609375,-0.0022895196452736855,-0.005772667936980724,-0.0024194817524403334
1772797925990986800,5.18198681640625,-0.004413124173879623,-0.003998736385256052,0.00046871634549461305
1772797926001014000,5.192013916015625,-0.0017073525814339519,-0.0019060244085267186,-0.0011835087789222598
1772797926011041000,5.202041015625,-0.00410473020747304,-0.004822984803467989,0.0005603290628641844
1772797926021067800,5.21206787109375,-0.0015536881983280182,-0.005257878918200731,-0.0033393376506865025
1772797926031095000,5.222094970703125,-0.0006716492353007197,-0.006277603097259998,-0.003634948516264558
1772797926041121000,5.23212109375,-0.0015941682504490018,-0.005035238806158304,-0.004310592543333769
1772797926051148000,5.24214794921875,-0.002447711303830147,-0.004890362732112408,0.0005209143273532391
1772797926061174800,5.2521748046875,-0.003171292133629322,-0.00487225316464901,-0.0025742114521563053
1772797926071201800,5.262201904296875,-0.0022482406347990036,-0.0056980992667376995,-0.003058107802644372
1772797926081229000,5.27222900390625,-0.0018048242200165987,-0.005025118589401245,-0.00202267081476748
1772797926091256600,5.282256591796875,-0.0036511938087642193,-0.006763896439224482,-0.0030059099663048983
1772797926101283800,5.292283935546875,-0.001976331928744912,-0.010318683460354805,-0.003710316028445959
1772797926111310800,5.302310791015625,-0.0013289173366501927,-0.00686216726899147,-0.0046541402116417885
1772797926121337600,5.312337646484375,-0.0023329290561378,0.0015329155139625072,-0.004780374001711607
1772797926131363600,5.322363525390625,-0.003552656853571534,0.0008029430755414069,-0.004449343308806419
1772797926141390800,5.332390869140625,-0.0020935109350830317,-0.003102049930021167,0.00036458674003370106
1772797926151417900,5.34241796875,-0.0030831415206193924,-0.005221659783273935,0.0007757788407616317
1772797926161444600,5.352444580078125,-0.001958488719537854,-0.0013488910626620054,-0.00007909588020993397
1772797926171471600,5.3624716796875,-0.0024106933269649744,-0.004739094991236925,-0.007778827100992203
1772797926181499000,5.372498779296875,-0.0014215953415259719,-0.0032599754631519318,-0.00407596817240119
1772797926191525600,5.382525634765625,-0.0012839100090786815,-0.007636880502104759,-0.0017180051654577255
1772797926201552600,5.392552734375,-0.0010700580896809697,-0.008417719043791294,-0.00042770366417244077
1772797926211580000,5.402579833984375,-0.002272741636261344,-0.006912766955792904,-0.003507649526000023
1772797926221606000,5.41260595703125,-0.0009262474486604333,-0.0049348375760018826,-0.001627191435545683
1772797926231632600,5.422632568359375,-0.0020421119406819344,-0.005608350969851017,-0.0038898130878806114
1772797926241659600,5.43265966796875,-0.004472512751817703,-0.01044518407434225,-0.0016106797847896814
1772797926251687000,5.44268701171875,-0.0017656758427619934,-0.006680273450911045,-0.0009781790431588888
1772797926261713700,5.452713623046875,-0.0020242687314748764,-0.005726329050958157,0.00041199102997779846
1772797926271740700,5.46274072265625,0.0000697748182574287,-0.005855758674442768,-0.0034224283881485462
1772797926281767700,5.472767578125,-0.004443218000233173,-0.005305283237248659,-0.0004985437262803316
1772797926291794700,5.482794677734375,-0.0027268105186522007,-0.011224690824747086,-0.005361742340028286
1772797926301820700,5.492820556640625,-0.0029848709236830473,-0.008270712569355965,-0.003640541108325124
1772797926311847700,5.50284765625,-0.002034388715401292,-0.01025476772338152,-0.0028674255590885878
1772797926321874700,5.512874755859375,-0.0013590110465884209,-0.0043681166134774685,-0.0017797905020415783
1772797926331901700,5.522901611328125,-0.0031260184478014708,-0.0009824400767683983,-0.0011081412667408586
1772797926341928700,5.5329287109375,-0.003525758860632777,-0.0075878784991800785,-0.003320429241284728
1772797926351955700,5.542955810546875,-0.0019259981345385313,-0.007211041171103716,-0.0018895127577707171
1772797926361982700,5.552982666015625,-0.00202240445651114,-0.009734652936458588,-0.004519917070865631
1772797926372009700,5.563009765625,-0.0011353056179359555,-0.008556736633181572,-0.003859186777845025
1772797926382036700,5.57303662109375,-0.0017515610670670867,-0.002285258611664176,-0.0034208304714411497
1772797926392062700,5.583062744140625,-0.0017323862994089723,-0.003328951308503747,-0.004677842371165752
1772797926402089500,5.59308935546875,-0.0023441144730895758,-0.0029430591966956854,-0.0032378712203353643
1772797926412116700,5.60311669921875,-0.0026469158474355936,-0.0029755497816950083,-0.00024501082953065634
1772797926422143700,5.613143798828125,-0.0024498419370502234,-0.005327653605490923,-0.0016764599131420255
1772797926432170800,5.623170654296875,-0.0027859327383339405,-0.007842742837965488,-0.002636263146996498
1772797926442197800,5.63319775390625,-0.0008253136184066534,-0.00914156623184681,-0.0013321131700649858
1772797926452224800,5.643224853515625,-0.0021979068405926228,-0.009096026420593262,-0.00011052118497900665
1772797926462251800,5.653251708984375,-0.0006535397260449827,-0.005063734482973814,-0.003079679561778903
1772797926472277800,5.66327783203125,-0.0015369103057309985,-0.0030208237003535032,-0.0019017633749172091
1772797926482304800,5.6733046875,-0.0004780374001711607,-0.0009776464430615306,-0.00347409350797534
1772797926492331800,5.683331787109375,-0.002897519152611494,-0.005335377063602209,-0.004545216914266348
1772797926502358800,5.69335888671875,-0.0007576693315058947,-0.012916064821183681,-0.002016811864450574
1772797926512385500,5.703385498046875,-0.0019270633347332478,-0.0095658078789711,-0.002531068166717887
1772797926522412800,5.713412841796875,0.0015073491958901286,-0.007911186665296555,-0.0043593281880021095
1772797926532439800,5.723439697265625,-0.004296744242310524,-0.006616889964789152,-0.0005600627628155053
1772797926542466600,5.733466552734375,-0.002606702037155628,-0.005431250669062138,-0.0038125813007354736
1772797926552492500,5.743492431640625,-0.002653573639690876,-0.00926114246249199,0.0004822984628845006
1772797926562519800,5.753519775390625,-0.0007225155713967979,-0.009487777948379517,-0.003707120195031166
1772797926572546800,5.763546875,-0.0007379619055427611,-0.012820989824831486,-0.002466353354975581
1772797926582573600,5.773573486328125,-0.0017869811272248626,-0.010575679130852222,-0.002770752878859639
1772797926592600800,5.783600830078125,-0.0030178942251950502,-0.00577852688729763,-0.0027286747936159372
1772797926602627800,5.7936279296875,-0.0024048343766480684,-0.005714078433811665,-0.0011880361707881093
1772797926612654600,5.803654541015625,0.0001715075777610764,-0.006125004030764103,-0.003421096596866846
1772797926622681600,5.813681640625,-0.0017749968683347106,-0.008845689706504345,-0.0003129214164800942
1772797926632708900,5.823708984375,0.0004564658156596124,-0.009661149233579636,-0.0035715652629733086
1772797926642734800,5.83373486328125,-0.0036402747500687838,-0.004748416133224964,-0.0031763522420078516
1772797926652761600,5.84376171875,-0.0014165353495627642,-0.006081860978156328,-0.0025502429343760014
1772797926662788600,5.85378857421875,-0.003719104453921318,-0.006868292577564716,-0.001529187080450356
1772797926672815900,5.86381591796875,-0.0025720810517668724,-0.0054336474277079105,-0.0027510453946888447
1772797926682842600,5.873842529296875,-0.0023699470330029726,-0.008955944329500198,-0.0016391756944358349
1772797926692869600,5.88386962890625,-0.0017923073610290885,-0.00413482403382659,-0.002975017298012972
1772797926702896600,5.893896728515625,-0.001178182428702712,-0.0052136704325675964,-0.0018964370246976614
1772797926712923600,5.903923583984375,-0.002255697501823306,-0.0035063179675489664,-0.0022000374738126993
1772797926722949600,5.91394970703125,-0.002418416552245617,-0.00860121101140976,-0.0011294466676190495
1772797926732976600,5.9239765625,-0.001689509372226894,-0.007873902097344398,-0.0032032502349466085
1772797926743003600,5.934003662109375,-0.004640558268874884,-0.006701844744384289,-0.0020927118603140116
1772797926753030700,5.94403076171875,-0.0027838023379445076,-0.00509915454313159,-0.0016759273130446672
1772797926763057700,5.9540576171875,-0.0019864519126713276,-0.005695702508091927,-0.002555835759267211
1772797926773084700,5.964084716796875,-0.0028453213162720203,-0.004697815980762243,-0.004176901653409004
1772797926783112000,5.97411181640625,-0.0014319816837087274,-0.004002464935183525,-0.002121474128216505
1772797926793138700,5.984138671875,-0.0008223841432482004,-0.008054464124143124,-0.0025542378425598145
1772797926803164700,5.99416455078125,-0.0028517129831016064,-0.005927131045609713,-0.0013917679898440838
1772797926813191700,6.004191650390625,-0.0017771273851394653,-0.0070400661788880825,-0.0006317017832770944
1772797926823219000,6.014218994140625,-0.0036879454273730516,-0.006198773626238108,-0.0010548781137913465
1772797926833245700,6.02424560546875,-0.002823749789968133,-0.00532605592161417,-0.004283960908651352
1772797926843272700,6.034272705078125,-0.00267674308270216,-0.004553738981485367,0.0015592807903885841
1772797926853299700,6.0442998046875,-0.0032826124224811792,-0.005101284943521023,-0.0024639565963298082
1772797926863326700,6.05432666015625,-0.0006609965930692852,-0.004659466445446014,-0.0016325177857652307
1772797926873353700,6.064353759765625,-0.0006540723843500018,-0.004453337751328945,-0.0019765980541706085
1772797926883379700,6.074379638671875,-0.0034591800067573786,-0.006992129608988762,-0.00001704423084447626
1772797926893406700,6.08440673828125,0.0007984156836755574,-0.004780640359967947,-0.0041611893102526665
1772797926903433700,6.094433837890625,-0.002406698651611805,-0.005650429055094719,-0.0043777041137218475
1772797926913460700,6.104460693359375,-0.001976331928744912,-0.006761766038835049,-0.0024796691723167896
1772797926923487700,6.11448779296875,-0.0018394453218206763,-0.006126602180302143,-0.0031302794814109802
1772797926933514500,6.124514404296875,-0.0023121563717722893,-0.008049670606851578,-0.0033784860279411077
1772797926943541800,6.134541748046875,-0.0035111114848405123,-0.005281314719468355,-0.0015539544401690364
1772797926953567700,6.144567626953125,-0.0015611450653523207,-0.006102633662521839,-0.00003781688792514615
1772797926963594800,6.1545947265625,-0.0022309301421046257,-0.007570301648229361,-0.0006173207075335085
1772797926973621500,6.16462158203125,-0.003734284546226263,-0.0040735709480941296,-0.002112419344484806
1772797926983648800,6.174648681640625,-0.0018543590558692813,-0.0062219430692493916,-0.0018359832465648651
1772797926993675800,6.18467578125,-0.002141447737812996,-0.007645935285836458,-0.001406947965733707
1772797927003702500,6.19470263671875,-0.0017307883827015758,-0.004551342222839594,-0.0032684975303709507
1772797927013729800,6.204729736328125,-0.0008122641011141241,-0.0044115264900028706,-0.0000857537888805382
1772797927023756800,6.2147568359375,-0.0026077672373503447,-0.006384129635989666,-0.002033855998888612
1772797927033782800,6.22478271484375,-0.003631752682849765,-0.0038772961124777794,-0.0015638081822544336
1772797927043809500,6.2348095703125,-0.002957174088805914,-0.005507417023181915,-0.00487251952290535
1772797927053836800,6.2448369140625,-0.003495665267109871,-0.00387410051189363,-0.00310497940517962
1772797927063863800,6.25486376953125,-0.004748149774968624,-0.004056526813656092,-0.005657352972775698
1772797927073890600,6.264890625,-0.0018884475575760007,-0.007662447169423103,-0.0012775183422490954
1772797927083917600,6.27491748046875,-0.002216815249994397,-0.003087402554228902,-0.00001864212754298933
1772797927093944300,6.2849443359375,-0.0006815029191784561,-0.0033949976786971092,-0.004181961994618177
1772797927103971300,6.294971435546875,-0.0012727247085422277,-0.0028032432310283184,-0.0028751487843692303
1772797927113997300,6.304997314453125,-0.0013289173366501927,-0.009140768088400364,-0.0019291938515380025
1772797927124024300,6.3150244140625,-0.002234392100945115,-0.010249175131320953,-0.0005699164466932416
1772797927134051300,6.32505126953125,-0.002007490722462535,-0.009065666235983372,-0.0008245146600529552
1772797927144078300,6.335078369140625,0.000035952674807049334,-0.004500209353864193,-0.0006109291571192443
1772797927154105000,6.34510498046875,0.00010892329009948298,-0.005685582756996155,-0.0016266588354483247
1772797927164132400,6.35513232421875,-0.0027417242527008057,-0.005783320404589176,-0.002629871480166912
1772797927174159400,6.365159423828125,-0.0031824775505810976,-0.009920541197061539,-0.0031529164407402277
1772797927184185300,6.375185302734375,-0.0009840379934757948,-0.008450742810964584,-0.001802693703211844
1772797927194212000,6.385212158203125,-0.0016527577536180615,-0.005431250669062138,-0.002584864152595401
1772797927204239400,6.3952392578125,-0.001853560097515583,-0.0008471515611745417,-0.002487126039341092
1772797927214266400,6.405266357421875,-0.0029577065724879503,-0.0035633095540106297,-0.0037579864729195833
1772797927224293000,6.415293212890625,-0.001680720946751535,-0.0041404166258871555,-0.002397643867880106
1772797927234320400,6.4253203125,-0.0014389059506356716,-0.0073410035111010075,-0.003480751533061266
1772797927244347400,6.435347412109375,-0.0006053365068510175,-0.007496532052755356,-0.0009451558580622077
1772797927254374100,6.4453740234375,-0.0032208270858973265,-0.0027915253303945065,-0.004722583573311567
1772797927264400100,6.455400146484375,-0.003096990054473281,0.001371527905575931,-0.0020873856265097857
1772797927274427100,6.46542724609375,-0.002673813607543707,-0.0011084076249971986,-0.003300189273431897
1772797927284454400,6.475454345703125,-0.0007590008899569511,-0.005081577692180872,-0.003510312642902136
1772797927294481200,6.485481201171875,0.00006205165118444711,-0.0064834654331207275,-0.0006274407496675849
1772797927304508200,6.495508056640625,-0.0024088292848318815,-0.005272259935736656,-0.0036341496743261814
1772797927314535400,6.505535400390625,-0.0029374666046351194,-0.0007547398563474417,-0.004710599314421415
1772797927324562400,6.5155625,-0.002484196564182639,-0.0022274679504334927,-0.001582982949912548
1772797927334588400,6.52558837890625,-0.0023409186396747828,-0.005875732284039259,-0.0031459920573979616
1772797927344615200,6.535615234375,-0.001936650718562305,-0.008898420259356499,-0.0020479708909988403
1772797927354642400,6.545642333984375,-0.0033744913525879383,-0.008049137890338898,-0.0013544837711378932
1772797927364669400,6.55566943359375,-0.001686579897068441,-0.00683180708438158,-0.00304638990201056
1772797927374696200,6.5656962890625,-0.002569684060290456,-0.005252286326140165,-0.0038874163292348385
1772797927384723200,6.57572314453125,-0.0005936186062172055,-0.006324474699795246,-0.0015997608425095677
1772797927394750500,6.58575048828125,-0.004532167688012123,-0.008168714120984077,-0.0015901734586805105
1772797927404776400,6.5957763671875,-0.0005973470397293568,-0.007044327445328236,0.00029587719473056495
1772797927414803200,6.60580322265625,-0.004008856136351824,-0.004893025849014521,-0.002856240142136812
1772797927424830200,6.615830322265625,-0.0020125508308410645,-0.006966296583414078,-0.004664526786655188
1772797927434857500,6.625857421875,-0.0017547567840665579,-0.006732471287250519,-0.002919357270002365
1772797927444884200,6.63588427734375,-0.003176884725689888,-0.006967362016439438,-0.0035305526107549667
1772797927454911200,6.6459111328125,-0.0024887239560484886,-0.003373159794136882,-0.004269047174602747
1772797927464938500,6.6559384765625,-0.0025683525018393993,-0.004577441141009331,-0.004138019867241383
1772797927474964500,6.665964599609375,-0.0019078885670751333,-0.0019185412675142288,-0.002986468840390444
1772797927484991200,6.6759912109375,-0.0016815199051052332,-0.008165251463651657,0.0005499427788890898
1772797927495018200,6.686018310546875,-0.0048738508485257626,-0.007782289292663336,-0.0026791400741785765
1772797927505045200,6.696045166015625,-0.003201652318239212,-0.007778827100992203,-0.00013901700731366873
1772797927515072300,6.706072265625,-0.0007635282818228006,-0.004021639470010996,-0.0019004317000508308
1772797927525099300,6.716099365234375,-0.0013097425689920783,-0.004670385736972094,-0.003368099918588996
1772797927535126300,6.726126220703125,-0.0014170679496601224,-0.004280498716980219,-0.00339126936160028
1772797927545152300,6.73615234375,-0.0023148194886744022,-0.007012369576841593,-0.00318886898458004
1772797927555179300,6.74617919921875,-0.0033425334841012955,-0.005666407756507397,0.002168345730751753
1772797927565206300,6.756206298828125,-0.004746552091091871,-0.005715409759432077,-0.001493500778451562
1772797927575233300,6.7662333984375,-0.002246110001578927,-0.0036762275267392397,-0.002386725042015314
1772797927585260300,6.77626025390625,-0.004748682491481304,-0.006364422384649515,-0.0007986819837242365
1772797927595287300,6.786287353515625,-0.0008588694618083537,-0.01107342354953289,-0.004004328977316618
1772797927605314300,6.796314208984375,-0.003703658003360033,-0.010993795469403267,-0.0016359798610210419
1772797927615341300,6.80634130859375,-0.0014506238512694836,-0.008362059481441975,-0.0031193606555461884
1772797927625367300,6.8163671875,-0.0011768508702516556,-0.004151335451751947,-0.003952929750084877
1772797927635394300,6.826394287109375,-0.0010729875648394227,-0.004490888677537441,-0.0038088529836386442
1772797927645421300,6.83642138671875,-0.0028570392169058323,-0.0025097629986703396,-0.0028274781070649624
1772797927655448300,6.8464482421875,-0.0036794233601540327,-0.0035899411886930466,0.0001603222917765379
1772797927665475300,6.856475341796875,-0.0020815266761928797,-0.006116481963545084,-0.0031273500062525272
1772797927675502300,6.86650244140625,-0.000669252360239625,-0.005793706979602575,-0.0025592977181077003
1772797927685529300,6.876529296875,-0.0017235978739336133,-0.00455773388966918,-0.004378503188490868
1772797927695555300,6.886555419921875,-0.0027888622134923935,-0.007033142261207104,-0.0014927018200978637
1772797927705582300,6.896582275390625,-0.0019518306944519281,-0.0048738508485257626,-0.0017326525412499905
1772797927715609300,6.906609375,-0.0024583640042692423,-0.00743101816624403,-0.0024016385432332754
1772797927725636400,6.91663623046875,-0.0010104032699018717,-0.004018709994852543,-0.0011430287268012762
1772797927735663000,6.9266630859375,-0.00040772996726445854,-0.00862997304648161,-0.0019768644124269485
1772797927745690400,6.9366904296875,-0.0022564963437616825,-0.01073839794844389,-0.00267780851572752
1772797927755717400,6.94671728515625,-0.0016793893883004785,-0.010275008156895638,-0.003001915058121085
1772797927765743400,6.956743408203125,-0.002415220718830824,-0.0032051142770797014,-0.004358795937150717
1772797927775770000,6.96677001953125,-0.0020271982066333294,0.0016128103015944362,-0.001520398654974997
1772797927785797400,6.97679736328125,-0.004098072182387114,0.0020663465838879347,-0.00005752427750849165
1772797927795824400,6.986824462890625,-0.0008114652009680867,-0.0028280108235776424,-0.0014998923288658261
1772797927805851100,6.99685107421875,-0.0026144252624362707,-0.007163370493799448,-0.0031340080313384533
1772797927815878400,7.00687841796875,-0.0026530411560088396,-0.009245962835848331,-0.0015403723809868097
1772797927825905400,7.016905517578125,-0.0008375641773454845,-0.005820338614284992,-0.001919073867611587
1772797927835931400,7.026931396484375,0.00096086849225685,-0.0012053466634824872,-0.0007166566210798919
1772797927845958100,7.036958251953125,-0.0024639565963298082,-0.003909786697477102,-0.0005994775565341115
1772797927855985400,7.0469853515625,-0.0036597158759832382,-0.010217750445008278,-0.0027798074297606945
1772797927866012400,7.057012451171875,-0.001059405505657196,-0.00788428820669651,-0.004567853640764952
1772797927876039200,7.0670390625,-0.0008490157779306173,-0.006874950136989355,-0.0024825986474752426
1772797927886066200,7.077066162109375,-0.0020234698895365,-0.003123355330899358,-0.0027561055030673742
1772797927896093400,7.087093505859375,-0.0033017871901392937,-0.0014018879737704992,-0.00011105381418019533
1772797927906119400,7.097119384765625,-0.0017678063595667481,-0.0035459990613162518,-0.0017608820926398039
1772797927916146200,7.107146240234375,-0.002025600289925933,-0.006261890754103661,-0.0019443739438429475
1772797927926173200,7.117173095703125,0.0014535533264279366,-0.006256298162043095,-0.003668504301458597
1772797927936200400,7.127200439453125,-0.0037851508241146803,-0.00447011599317193,-0.002120675053447485
1772797927946227200,7.137227294921875,-0.004004328977316618,-0.001939846551977098,-0.0034224283881485462
1772797927956254200,7.147254150390625,-0.004424309358000755,-0.0051902346312999725,-0.0005041363765485585
1772797927966280200,7.1572802734375,-0.0007874967413954437,-0.003350256709381938,-0.002167813014239073
1772797927976307500,7.167307373046875,-0.001740642124786973,-0.006618754006922245,-0.0033449302427470684
1772797927986334200,7.177334228515625,-0.0013675332302227616,-0.005791043862700462,-0.004817125853151083
1772797927996361200,7.187361328125,-0.0039015309885144234,-0.004455468617379665,-0.0027718180790543556
1772797928006388200,7.19738818359375,-0.0011174624087288976,-0.006829410325735807,-0.004577973857522011
1772797928016415200,7.207415283203125,-0.0013872405979782343,-0.003640541108325124,-0.0008506136364303529
1772797928026442200,7.217442138671875,-0.0031214910559356213,-0.006316485349088907,-0.003466636873781681
1772797928036468200,7.22746826171875,-0.004052266012877226,-0.004132959526032209,-0.0037710361648350954
1772797928046495200,7.2374951171875,-0.0013483584625646472,-0.006058957893401384,-0.004388622939586639
1772797928056522500,7.2475224609375,-0.0006530070677399635,-0.005110073368996382,-0.0011608719360083342
1772797928066549200,7.25754931640625,-0.002049568807706237,-0.0036392095498740673,-0.0019076223252341151
1772797928076576300,7.267576171875,-0.002936934120953083,-0.004761998075991869,-0.0032176312524825335
1772797928086603500,7.277603515625,-0.0031678301747888327,-0.006709834095090628,-0.0013552826130762696
1772797928096630800,7.287630859375,-0.0018953717080876231,-0.004466920159757137,-0.0023031015880405903
1772797928106657000,7.297656982421875,-0.002639725338667631,-0.005298625212162733,-0.00436012726277113
1772797928116684000,7.30768408203125,-0.003413107246160507,-0.005203550215810537,-0.0004780374001711607
1772797928126710800,7.317710693359375,-0.004460528492927551,-0.006556968670338392,-0.0021172130946069956
1772797928136737800,7.32773779296875,-0.0014253237750381231,-0.006954045966267586,-0.0005094627267681062
1772797928146765000,7.33776513671875,-0.0033688987605273724,-0.005880525801330805,-0.0036107138730585575
1772797928156791800,7.347791748046875,-0.0017060210229828954,-0.004357197787612677,-0.0013712616637349129
1772797928166817800,7.35781787109375,-0.00042983421008102596,-0.007743673399090767,-0.002231462625786662
1772797928176844800,7.3678447265625,-0.0034669029992073774,-0.0044176517985761166,-0.0027047062758356333
1772797928186872000,7.3778720703125,-0.0027049726340919733,-0.003469299990683794,-0.003947603516280651
1772797928196898800,7.38789892578125,-0.0016207997687160969,-0.0070981234312057495,-0.003754258155822754
1772797928206925800,7.39792578125,-0.0010716560063883662,-0.005021123681217432,-0.00373108871281147
1772797928216952800,7.407952880859375,-0.002478870330378413,-0.006327138282358646,-0.0008159925346262753
1772797928226980000,7.41797998046875,-0.0028128307312726974,-0.0048826392740011215,-0.0010460896883159876
1772797928237005800,7.428005859375,-0.0015180017799139023,-0.006804110016673803,-0.001933454885147512
1772797928247032800,7.43803271484375,-0.0028280108235776424,-0.008496548980474472,-0.006505836267024279
1772797928257059800,7.448059814453125,-0.0006311691831797361,-0.007201720029115677,-0.002201635157689452
1772797928267087000,7.458087158203125,-0.002275138394907117,-0.005350556690245867,-0.004160123877227306
1772797928277113900,7.46811376953125,-0.002585130510851741,-0.0012964267516508698,-0.002013882389292121
1772797928287140900,7.478140869140625,-0.0007984156836755574,-0.0034533210564404726,-0.00035499935620464385
1772797928297168100,7.488168212890625,-0.0012298477813601494,-0.0028122980147600174,-0.0003818972909357399
1772797928307194000,7.498194091796875,-0.003299656556919217,-0.008984173648059368,-0.0011771172285079956
1772797928317220900,7.508220947265625,-0.0019265307346358895,-0.007979096844792366,-0.0023430490400642157
1772797928327248000,7.518247802734375,-0.005061071366071701,-0.006628607865422964,-0.0030517163686454296
1772797928337275100,7.528275146484375,-0.002016545506194234,-0.004249606281518936,-0.0008964200387708843
1772797928347302000,7.538302001953125,-0.0015299860388040543,-0.004240551497787237,-0.0008708536624908447
1772797928357329000,7.548328857421875,-0.0015326491557061672,-0.004056793171912432,-0.0006202502408996224
1772797928367355000,7.55835498046875,-0.002823749789968133,-0.008733037859201431,0.0002133192028850317
1772797928377382000,7.5683818359375,-0.002240783767774701,-0.007728759665042162,-0.004588626325130463
1772797928387409000,7.578408935546875,-0.0007688545738346875,-0.004057592246681452,-0.002781671704724431
1772797928397436000,7.588435791015625,-0.0020751350093632936,-0.005909554194658995,-0.0027001791168004274
1772797928407463000,7.598462890625,0.0010402307379990816,-0.004898618441075087,0.00019121496006846428
1772797928417490000,7.608489990234375,-0.0021046961192041636,-0.0028455876745283604,-0.0028756812680512667
1772797928427517000,7.618516845703125,-0.003376089269295335,-0.005514607764780521,-0.0006636597099713981
1772797928437543000,7.62854296875,-0.0007131945458240807,-0.003768639173358679,-0.0036019254475831985
1772797928447570000,7.63856982421875,-0.0041302964091300964,-0.0041310954838991165,0.03731434792280197
1772797928457597000,7.648596923828125,-0.002807770622894168,-0.00806245394051075,0.10811981558799744
1772797928467624000,7.6586240234375,-0.0017222663154825568,0.005499427672475576,0.13972540199756622
1772797928477651000,7.66865087890625,-0.001671932521276176,0.015839682891964912,0.12236399203538895
1772797928487677700,7.678677734375,-0.0033875408116728067,0.009368468075990677,0.07221826910972595
1772797928497704000,7.688703857421875,0.00006311691686278209,-0.001990180229768157,0.011752530001103878
1772797928507731000,7.69873095703125,-0.0027411917690187693,-0.014934208244085312,-0.02809981070458889
1772797928517758000,7.708758056640625,-0.0017230651574209332,-0.017347831279039383,-0.03951678425073624
1772797928527784700,7.71878466796875,-0.0019174759509041905,-0.00908670574426651,-0.03730076551437378
1772797928537812000,7.72881201171875,-0.003922037314623594,0.0011880361707881093,-0.03941052407026291
1772797928547839000,7.7388388671875,-0.0016322514275088906,-0.0015686018159613013,-0.05371835455298424
1772797928557866000,7.748865966796875,-0.002347842790186405,-0.014977085404098034,-0.07941599935293198
1772797928567891700,7.7588916015625,-0.0015781891997903585,-0.028918733820319176,-0.09814174473285675
1772797928577919000,7.7689189453125,-0.003501524217426777,-0.03183170035481453,-0.08023678511381149
1772797928587946000,7.778946044921875,-0.0012026835465803742,-0.022363362833857536,-0.03675508499145508
1772797928597973000,7.788972900390625,0.000483363721286878,-0.0019715381786227226,0.005914614535868168
1772797928607999700,7.798999755859375,-0.002983539365231991,0.018974490463733673,0.018513763323426247
1772797928618027000,7.809027099609375,-0.0012679309584200382,0.01444205641746521,0.003072755178436637
