time,seconds_elapsed,z,y,x
1772788775260963600,0.084963623046875,-0.09951368267536163,-0.05635470523275435,-0.1408839683366008
1772788775271029800,0.09502978515625,-0.10003040002584457,-0.0009293532719835639,-0.07308001365484669
1772788775281095000,0.105094970703125,-0.06725684219300747,0.01694032114595175,-0.02998940700702369
1772788775291160800,0.115160888671875,0.03509527877867222,-0.048306386801041656,-0.042589013801235705
1772788775301225700,0.125225830078125,0.022715689677000044,-0.0007329173844307661,-0.04662659875424578
1772788775311291600,0.135291748046875,-0.06673544866740704,0.036905506538413464,-0.04226721623465419
1772788775321357800,0.14535791015625,-0.09138590579926967,0.011730112216994165,-0.015755513541866092
1772788775331422700,0.155422607421875,-0.14197627535164356,-0.013917612323909997,0.02573290034001693
1772788775341488600,0.165488525390625,-0.18834055164158342,0.021790464590862393,0.13011490143779664
1772788775351553800,0.1755537109375,-0.1504056655228138,0.016839710315689444,0.1667444223127328
1772788775361619700,0.18561962890625,-0.08990881898403168,0.027438736143521963,0.1755021128565073
1772788775371684900,0.195684814453125,-0.1509539470553398,0.09684336748756468,0.10820886590955778
1772788775381750800,0.205750732421875,-0.1712228281021118,0.14262027234360575,0.1028477224688977
1772788775391815700,0.215815673828125,-0.22858254565894603,0.12041618545055388,0.09051169851431623
1772788775401881600,0.225881591796875,-0.23045769188106058,0.08615845347456634,0.08696509368233382
1772788775411946800,0.23594677734375,-0.24599486823081967,0.05721391587797552,0.045166390008572484
1772788775422013000,0.246012939453125,-0.21588205403983593,0.08141556979641318,0.07574782635830342
1772788775432077600,0.25607763671875,-0.12116378894746303,0.05885006571244448,0.1035991253580898
1772788775442143700,0.266143798828125,-0.06708674632310867,0.029285715717077252,0.07542484148163348
1772788775452208600,0.276208740234375,-0.021928923213481902,0.02996423603314906,0.038938491937052455
1772788775462274800,0.28627490234375,0.02082183875441551,-0.016974881002679465,-0.008562131439056247
1772788775472339700,0.296339599609375,0.07694704608023166,-0.030376250900141892,-0.03749640336995944
1772788775482405600,0.306405517578125,-0.022515783190727234,-0.057622204417921596,-0.0724683845625259
1772788775492470800,0.316470703125,-0.16806699441969394,-0.07558956705667078,-0.0911245331830345
1772788775502536700,0.32653662109375,-0.19817279434800147,-0.06223064806144684,-0.07276358638312667
1772788775512601600,0.3366015625,-0.1169645836919546,-0.04816664953678846,-0.04322645318824798
1772788775522667500,0.34666748046875,-0.13204291035830973,-0.054958501634001726,-0.005543806531187146
1772788775532732700,0.356732666015625,-0.16737316693663595,-0.045107517694495614,0.0008403415479697287
1772788775542798800,0.366798828125,-0.18205752584934234,-0.03870060979425907,0.008682104556914419
1772788775552863500,0.376863525390625,-0.19480185661017893,-0.018892624257504938,0.025142387100961058
1772788775562929700,0.3869296875,-0.1713631133556366,-0.007836611909791827,0.017401618514768777
1772788775572994800,0.396994873046875,-0.13957622847259044,0.01512117942739278,0.02261959062507376
1772788775583060700,0.407060791015625,-0.12052198391258716,0.026974918024055657,0.05613450487712398
1772788775593126000,0.4171259765625,-0.06884381912350654,0.032632286198623475,0.06855104672200978
1772788775603191600,0.427191650390625,-0.05697860928475856,0.053600036229752,0.06663211615709587
1772788775613257700,0.4372578125,-0.07322305712103844,0.040273740862496195,0.04152213348839432
1772788775623322600,0.447322509765625,-0.04860182608366012,0.028777327803522348,0.02303984359744936
1772788775633388800,0.457388916015625,-0.07586684962809086,0.029191425029747187,0.018743260648380965
1772788775643453700,0.46745361328125,-0.12744681473970412,0.03696154757458717,0.020606186709739266
1772788775653519600,0.47751953125,-0.08244564349651336,0.03901044292841106,0.053360528385452924
1772788775663584800,0.487584716796875,-0.08278057453930378,0.02812405152656138,0.04980468080108985
1772788775673650700,0.497650634765625,-0.10629121398627757,0.010779204700328409,0.035784959809575224
1772788775683715800,0.5077158203125,-0.09702537299096584,-0.004435644359886646,0.027365926635637878
1772788775693781500,0.517781494140625,-0.07654314145445823,-0.017797449431940914,0.007062540531065315
1772788775703846700,0.5278466796875,-0.06014847149252891,-0.004041165149584412,-0.029400409871619192
1772788775713912800,0.537912841796875,-0.06220306593477726,0.003884549815766513,-0.028826719903200862
1772788775723977700,0.547977783203125,-0.10987784030139446,-0.008302402790635825,0.0006376220501028001
1772788775734043600,0.558043701171875,-0.17289514522850513,-0.04307389297503978,0.02252122655082494
1772788775744108800,0.56810888671875,-0.18136019123494623,-0.048416386514157056,0.01412663369840011
1772788775754174700,0.5781748046875,-0.15825988615453243,-0.04931172791868448,0.0038995464554987844
1772788775764240000,0.588239990234375,-0.14060790960788727,-0.03412796811647713,-0.01804356968011707
1772788775774305800,0.598305908203125,-0.12496727288365363,-0.022523564638383686,-0.03744839950976893
1772788775784370700,0.60837060546875,-0.1376999132066965,-0.01794960778634995,-0.04589130674963817
1772788775794436600,0.6184365234375,-0.102028880366683,-0.01395469293128699,-0.04556238532252609
1772788775804501800,0.628501708984375,-0.09545184006392955,-0.01871967884339392,-0.015022139499709009
1772788775814567700,0.638567626953125,-0.11580196965336799,-0.0013509396849200129,0.006868278334289789
1772788775824632600,0.648632568359375,-0.11019523568749427,0.009676759883761406,-0.002318633939605206
1772788775834698800,0.65869873046875,-0.10274550420343875,0.009124240567535162,-0.0015096921768970786
1772788775844763600,0.668763671875,-0.08584171567559241,0.026452172791585325,-0.019289843414165078
1772788775854829800,0.678829833984375,-0.09794014974832534,0.022151187662035225,-0.010457114872802048
1772788775864894700,0.688894775390625,-0.09971768081486225,0.018777363847382364,-0.0032412286772392686
1772788775874960600,0.698960693359375,-0.10691606788635254,0.015315898281894624,-0.005224054791219532
1772788775885025800,0.70902587890625,-0.10321955145597457,0.022754962241463363,0.00047799277529120445
1772788775895091700,0.719091796875,-0.10314297908842562,0.015892529126070438,0.018914123703259973
1772788775905156600,0.729156494140625,-0.12791618581712244,0.011565496239811181,0.004553936977311969
1772788775915222500,0.739222412109375,-0.13559797249138356,0.023630576032213864,-0.004745660157129168
1772788775925287700,0.74928759765625,-0.1432470259398222,0.017437895404547453,-0.013299224697239697
1772788775935353900,0.759353759765625,-0.13606675904691218,-0.00012084990069270134,-0.00303871010877192
1772788775945419800,0.769419677734375,-0.1104816514134407,-0.0017359204145148395,0.024943887120485304
1772788775955484700,0.779484619140625,-0.08517652976512909,-0.003728409405983984,0.01327482090834528
1772788775965550600,0.789550537109375,-0.05988017594516277,0.002567037476412952,0.010841949471924453
1772788775975615700,0.79961572265625,-0.035491584619879724,0.022445202172547578,-0.0008728738443925976
1772788775985681700,0.809681640625,-0.07303893272578715,0.0043407326180487866,-0.009817246066685766
1772788775995746600,0.81974658203125,-0.11725918272435665,-0.01477141614165157,0.003488865029066801
1772788776005812700,0.829812744140625,-0.09394085097908973,-0.011238054383732378,0.02473316697925329
1772788776015877600,0.839877685546875,-0.04903378776013851,0.00528108220808208,0.010066745582036674
1772788776025943800,0.84994384765625,-0.07383095988631248,0.004957220548577606,-0.0078092307125218205
1772788776036008700,0.8600087890625,-0.08737842372357844,-0.00420607338771224,-0.0015698431326076386
1772788776046074600,0.87007470703125,-0.09239420605897902,-0.006371909652091562,0.017922938975133
1772788776056139800,0.880139892578125,-0.11928922724723816,-0.027869528776220974,0.022304624658077955
1772788776066205700,0.890205810546875,-0.18172025671899317,-0.0423057946793735,0.022411409500800072
1772788776076270800,0.900270751953125,-0.1857236471414566,-0.02706581117790192,0.02330298804566264
1772788776086336500,0.91033642578125,-0.12368658542335033,-0.025097287583909927,0.002107384075410664
1772788776096401700,0.920401611328125,-0.12592121260762215,-0.0007921002257615327,0.0038924773938953873
1772788776106467800,0.9304677734375,-0.1247246962994337,0.0008783537371084094,0.032540132669452576
1772788776116532700,0.94053271484375,-0.1542950741767883,-0.02746039998605847,0.0108118831272237
1772788776126598700,0.9505986328125,-0.10223930824697017,0.0011204553972929715,0.023314367956202477
1772788776136663600,0.96066357421875,-0.06257306829094886,-0.002121777926944196,0.033056448161136356
1772788776146729700,0.970729736328125,-0.07646832265257834,-0.007159333702735603,0.029609029387310144
1772788776156794600,0.980794677734375,-0.12220248434543608,-0.035520043529383837,0.031722258681617675
1772788776166860500,0.990860595703125,-0.12723171068429945,-0.0366661082919687,0.02718189357193187
1772788776176925700,1.00092578125,-0.11983984686732291,-0.005656089532934129,0.009226604963466525
1772788776186991600,1.01099169921875,-0.11605915928483009,0.012529080574959515,0.0006988324517384171
1772788776197056500,1.021056396484375,-0.1130611465126276,0.0026478841602802275,0.002486629183962941
1772788776207122700,1.031122802734375,-0.0952583633184433,-0.0038193025598302482,0.006195858965441585
1772788776217187600,1.0411875,-0.07866320234835147,0.0027254063758999107,-0.0027496823006309566
1772788776227253800,1.051253662109375,-0.08436755146980285,0.001741034981049597,0.007129376955889165
1772788776237318400,1.061318359375,-0.11386427958905697,0.007263743925280869,0.007828501668572425
1772788776247384600,1.071384521484375,-0.11073474939167499,-0.005443761956505477,0.0028399543999694287
1772788776257450500,1.081450439453125,-0.11624503724575042,0.0026222747949883342,0.010121781971212477
1772788776267515600,1.091515625,-0.11528232969343662,-0.002040346721187234,0.03236384452078491
1772788776277581600,1.10158154296875,-0.12166940038204192,-0.01814516689106822,0.01846873628962785
1772788776287646500,1.111646484375,-0.13272738549113272,-0.007951178200170397,0.008545216836873442
1772788776297712600,1.121712646484375,-0.13963234257400034,-0.020456512573361396,0.010450392871070652
1772788776307777500,1.131777587890625,-0.12219722364842892,-0.02117704540025443,0.01031927730469033
1772788776317843700,1.14184375,-0.10596388172805309,-0.00428998881150037,0.0018253157310187816
1772788776327908600,1.15190869140625,-0.07851590283215046,-0.012958411902934312,0.0022019852899946273
1772788776337974500,1.161974609375,-0.049552843198180194,0.00045011838767677545,0.010919051562435925
1772788776348039700,1.172039794921875,-0.06126373925805091,-0.006120419109053909,0.006112692460324615
1772788776358105600,1.182105712890625,-0.08927753534317016,-0.02345602318290621,0.004008578054234385
1772788776368170500,1.19217041015625,-0.11307166790664196,-0.01282824618462473,0.007109357081167399
1772788776378236400,1.202236328125,-0.1314694943845272,-0.019610417138040064,0.010026577968429774
1772788776388301600,1.212301513671875,-0.1472895793288946,-0.016868534551374614,0.029919099983479826
1772788776398367700,1.22236767578125,-0.13464052563607692,-0.005748370926268399,0.019546704252064225
1772788776408432400,1.232432373046875,-0.08996902473866938,0.006423384111002088,0.0008098185455426573
1772788776418498600,1.24249853515625,-0.069864978864789,0.03142079151701182,-0.021165154033061115
1772788776428563700,1.252563720703125,-0.02500467739701271,0.0166969773767516,-0.026644023835565894
1772788776438629600,1.262629638671875,-0.1400356626778841,0.016702384204231202,-0.04946680888254195
1772788776448694800,1.27269482421875,-0.16332009215354917,0.027218554054200646,0.03322172172544524
1772788776458760400,1.282760498046875,-0.09603694647550583,-0.01298844171501696,0.03821494516916573
1772788776468825600,1.29282568359375,-0.07735854949057101,0.003810059807449579,0.000521722319163382
1772788776478891500,1.3028916015625,-0.0926093101143837,0.024528986176662146,-0.02193889661822468
1772788776488956700,1.312956787109375,-0.1185813712388277,0.020553908533230424,0.018669610890280453
1772788776499022600,1.323022705078125,-0.13701894520521163,-0.019169760698452592,0.026591599528584628
1772788776509087500,1.33308740234375,-0.08239245200455188,-0.028205153938755393,0.019413287130743265
1772788776519153700,1.343153564453125,-0.03839022867083549,-0.007485058525763452,0.013582535150647163
1772788776529219600,1.353219482421875,-0.031496962025761605,0.01546728945132345,0.0008503332190215587
1772788776539284700,1.36328466796875,-0.07280278588235378,0.0035418373253196475,-0.015610113721806556
1772788776549350400,1.373350341796875,-0.10688801083564757,-0.00769574213437736,-0.016619162900187074
1772788776559415600,1.38341552734375,-0.12044599606692791,-0.014609430512972175,-0.01724229976721108
1772788776569481700,1.393481689453125,-0.1504886676311493,-0.028621954578720032,-0.017074267990235238
1772788776579546600,1.403546630859375,-0.15035539664030073,-0.02414915654622018,-0.016087686371989547
1772788776589612500,1.413612548828125,-0.16241057609319687,-0.010630882270820438,-0.016358977594040335
1772788776599677400,1.423677490234375,-0.15940262644886968,-0.020142989644780753,-0.015211214064713567
1772788776609743600,1.43374365234375,-0.1398123753160238,-0.023768742393888532,-0.011300324231293051
1772788776619808800,1.443808837890625,-0.10977788705825806,-0.0235653287762776,-0.0196221441084519
1772788776629874700,1.453874755859375,-0.0826093096256256,-0.032463176709413524,-0.01851971755819395
1772788776639939600,1.463939697265625,-0.11931962238550185,-0.015726086517982185,-0.01671033004866913
1772788776650005500,1.474005615234375,-0.13014379873871804,0.0008859890542924403,-0.019294135996792465
1772788776660070700,1.484070556640625,-0.1346674136430025,-0.006365589509159326,-0.024421762942522764
1772788776670136600,1.494136474609375,-0.16295125884115694,-0.0033227877471596,-0.010436565275117755
1772788776680201500,1.504201416015625,-0.1473766730904579,-0.002193674119375646,0.0033075536454096437
1772788776690267600,1.514267578125,-0.12133213125169276,-0.004913710200414061,-0.003016279081255197
1772788776700332500,1.52433251953125,-0.11073007321655749,0.002147168096527457,-0.026369992667157203
1772788776710398700,1.534398681640625,-0.09073007223904132,-0.0023607012493535875,-0.0151142199636437
1772788776720464600,1.544464599609375,-0.06627718350589275,-0.0029970994567498563,-0.010978654528874903
1772788776730529500,1.554529541015625,-0.07907938193380833,-0.006177446525916457,-0.00909554419601336
1772788776740595500,1.564595458984375,-0.10472235723435878,-0.012584427491389215,0.0019609796083532274
1772788776750660600,1.57466064453125,-0.09114274469316005,-0.016703553248010573,0.007602401295118033
1772788776760726800,1.584726806640625,-0.10282324561476706,-0.017757482747733592,0.00880828821985051
1772788776770791400,1.59479150390625,-0.105667529129982,-0.023650705504789947,0.0075228697855025525
1772788776780857600,1.604857666015625,-0.08636836989820003,-0.019490444020181893,0.003910232246294617
1772788776790922800,1.6149228515625,-0.09850713598132133,-0.015133637050166725,0.016072397471312432
1772788776800988700,1.62498876953125,-0.11829787812232971,-0.025584267383255064,0.007455942029133439
1772788776811053600,1.635053466796875,-0.1280968030810356,-0.04015880924593657,0.0005539075557142495
1772788776821119500,1.645119384765625,-0.14001461988985536,-0.01752915388457477,0.00041031610025092955
1772788776831184600,1.6551845703125,-0.12663959001004696,0.0007261223174631595,0.007805504385475069
1772788776841250600,1.66525048828125,-0.13330313955247403,0.002231193118169904,0.005398041384946555
1772788776851315500,1.6753154296875,-0.13711772940456868,0.001509856573678553,0.0025750198534689843
1772788776861381600,1.685381591796875,-0.127325818708539,0.006052833765558898,0.003069817633088678
1772788776871446500,1.695446533203125,-0.13730243832170963,0.008237411263026297,0.009820186942443252
1772788776881512700,1.7055126953125,-0.13307108436226844,-0.005218794094212353,0.027407409423496572
1772788776891578600,1.71557861328125,-0.1025122799694538,0.006658654171600937,0.025418025704566388
1772788776901643500,1.7256435546875,-0.043077509704232214,0.024999782026186582,0.014887626399844884
1772788776911709400,1.73570947265625,-0.03018295681774616,0.018788688958995044,-0.0009922259077429771
1772788776921774600,1.745774658203125,-0.04019990844130516,0.004064801753498614,-0.00017336553921923041
1772788776931840800,1.7558408203125,-0.06875088014304638,-0.00516436049323529,0.013120671526249498
1772788776941905400,1.765905517578125,-0.06690320644974708,-0.013171031740307808,0.014003208248130975
1772788776951971600,1.7759716796875,-0.05348959812521934,0.0030080957747995853,0.011001597013045102
1772788776962036700,1.78603662109375,-0.04735153376162052,0.014920250027813017,0.01080439394051209
1772788776972102700,1.7961025390625,-0.051772857335209845,0.02006459064632654,0.011534516579657792
1772788776982167600,1.80616748046875,-0.07479191387295722,0.018677995126135646,0.009586012860387563
1772788776992233500,1.8162333984375,-0.10793605858385562,0.014560148011147975,0.01676021533869207
1772788777002298600,1.826298583984375,-0.07390987034142017,0.016494002150557935,0.027989282698370515
1772788777012364500,1.836364501953125,-0.021163199537992478,-0.018246800634637475,-0.035593510624393816
1772788777022429700,1.8464296875,-0.19764672464728356,0.018813494606688616,-0.013263020872697233
1772788777032495600,1.85649560546875,-0.2748205652207136,-0.005742854500934481,0.0666967606248334
1772788777042561500,1.8665615234375,-0.20777122829854486,-0.03480144693125039,0.06462607356430962
1772788777052626700,1.876626708984375,-0.08817921871244906,0.019006606025993824,-0.0006731317549012601
1772788777062692600,1.886692626953125,-0.18626199180185793,0.04146404662560672,-0.04381608964446932
1772788777072757500,1.896757568359375,-0.21920798359215257,0.012486483542248607,0.01601493166303262
1772788777082823400,1.906823486328125,-0.1340577573120594,-0.024831037863157688,0.039408630199451
1772788777092888600,1.916888671875,-0.13537351608574388,-0.016196845834888517,0.03610604499010369
1772788777102954800,1.926954833984375,-0.1191261456400156,0.008394355390407145,0.0188089828283526
1772788777113019600,1.93701953125,-0.12064882516264915,-0.008935914921201766,0.03320082506788894
1772788777123086300,1.94708642578125,-0.1302180330187082,-0.041213944322057064,0.05324616302447393
1772788777133151200,1.957151123046875,-0.09564765489697456,-0.041460028037615115,0.03415666448799893
1772788777143217400,1.967217529296875,-0.08356266482770443,-0.024269202729314564,0.019459921017754823
1772788777153283300,1.977283447265625,-0.11042203018069266,-0.011070552329719065,0.020915855447109787
1772788777163348500,1.987348388671875,-0.096883334171772,-0.01051167633794248,0.0026803433914668858
1772788777173414100,1.9974140625,-0.06353986749649047,-0.0034038901593536138,0.022361524210777133
1772788777183479300,2.007479248046875,-0.07890285632312298,-0.001219312661886215,0.02781014500549063
1772788777193545200,2.017545166015625,-0.05172434201836586,-0.01859415276758373,0.004832078065257519
1772788777203610400,2.0276103515625,-0.03467500753998756,-0.016452099237591028,-0.009718881992436946
1772788777213676500,2.037676513671875,-0.062335167881846426,-0.013087591240555047,-0.007800061025377362
1772788777223741200,2.0477412109375,-0.10147826074659824,-0.01270261051096022,-0.011345094954781233
1772788777233807400,2.057807373046875,-0.0974754548460245,-0.009526026301458478,-0.02610790766486898
1772788777243872500,2.06787255859375,-0.057089668443799015,-0.000656125821173191,-0.022714666763693093
1772788777253938400,2.0779384765625,-0.07443067934513091,-0.0002764057885855436,-0.033730529764108355
1772788777264004400,2.08800439453125,-0.0836813227713108,-0.004493658157438039,-0.041065676691476254
1772788777274069200,2.0980693359375,-0.09114800539016724,-0.014259886422939598,-0.053465504863578824
1772788777284135400,2.108135498046875,-0.08743804495632648,-0.004490954743698239,-0.05319751984346658
1772788777294200300,2.118200439453125,-0.10174421820640564,0.0103686876706779,-0.059094468927569685
1772788777304266500,2.1282666015625,-0.13959727126061916,0.008646576585806906,-0.0380496898711659
1772788777314331400,2.138331298828125,-0.16940262693762778,-0.011726239759474993,-0.03703755368655547
1772788777324397300,2.148397216796875,-0.16690145777165888,-0.0057034723386168475,0.0012953370401635766
1772788777334462500,2.15846240234375,-0.16962942143082618,-0.008798625342361628,0.007662698381301015
1772788777344528400,2.1685283203125,-0.15619301675260067,-0.009578377543203532,0.0027880050170235333
1772788777354593300,2.17859326171875,-0.12121990304887294,-0.014899243772402405,0.0031508652463555333
1772788777364659200,2.1886591796875,-0.11557108350694179,-0.028339740103855728,0.0028702582066878674
1772788777374725400,2.198725341796875,-0.08448387132585049,-0.009580642565526067,0.006326627471949905
1772788777384790500,2.20879052734375,-0.05772913539111614,0.009573847498558462,0.011903569087758659
1772788777394856400,2.2188564453125,-0.08093933058679104,0.015557525018043816,-0.0007222863925620913
1772788777404921300,2.22892138671875,-0.0848188023686409,0.017282960571162402,-0.0087022340294905
1772788777414987300,2.2389873046875,-0.11678864260315894,0.0010701865147799254,0.0013960392019711433
1772788777425052400,2.249052490234375,-0.1256792205452919,-0.011155490666814148,0.008865096441004425
1772788777435118300,2.259118408203125,-0.12784779675602911,-0.010221351621858775,0.018983864471223206
1772788777445183200,2.269183349609375,-0.10521510918736457,0.004229892654716968,0.01846409664712846
1772788777455249400,2.27924951171875,-0.08591594995558262,-0.0007879720399156212,0.007730320257414132
1772788777465315300,2.2893154296875,-0.08878244530260562,-0.0025017902204766867,0.0022644012680277225
1772788777475380500,2.29938037109375,-0.08433364920020103,-0.013249978728033601,0.01145882099494338
1772788777485446400,2.3094462890625,-0.08978840747475623,-0.013027093224972485,0.005297339223138988
1772788777495511300,2.31951123046875,-0.13191314649879932,-0.02093841433878988,0.013432386090233922
1772788777505577200,2.3295771484375,-0.13917992263138293,-0.023073965062759817,0.017191647292207925
1772788777515642400,2.339642333984375,-0.15883973186910152,-0.004036196713522076,0.02313375069228932
1772788777525708500,2.34970849609375,-0.15275485899746416,-0.008462123396992684,0.024775197756383566
1772788777535773200,2.359773193359375,-0.1556909124493599,-0.014390161739103496,0.0023128800522536036
1772788777545839400,2.36983935546875,-0.16902853292822836,-0.019551672688126562,0.013106460337806491
1772788777555905300,2.3799052734375,-0.18097616035342215,-0.03083557550758123,0.03158633907595649
1772788777565970400,2.389970458984375,-0.17414485302865504,-0.036739904180541634,0.033677338272146876
1772788777576036400,2.400036376953125,-0.14867372716367244,-0.026056889863684773,0.03018436332354322
1772788777586101200,2.410101318359375,-0.1331283675074577,-0.032321284020692106,0.04718543821340426
1772788777596167400,2.42016748046875,-0.12111819624006748,-0.010729703002795576,0.034614180730842055
1772788777606232300,2.430232421875,-0.09302607422173023,-0.007994578950479626,0.02029695636378601
1772788777616298500,2.440298583984375,-0.05646773715317249,0.0008907382946461438,0.01657574388356879
1772788777626363400,2.45036328125,0.004823474633693695,0.007852467066049576,0.0017157909419387577
1772788777636429300,2.46042919921875,0.005711947906017303,0.007645400186628103,0.010688402878027409
1772788777646495200,2.4704951171875,-0.029384499916434288,0.004778247252479195,0.0006893522373400628
1772788777656560400,2.480560302734375,-0.05246025507748127,0.014698533568531274,0.001042147730384022
1772788777666626600,2.49062646484375,-0.08105915757417678,0.01838409021347761,0.013039733510836957
1772788777676691200,2.500691162109375,-0.10141630142629146,0.003426905708760023,0.02151906377095729
1772788777686757400,2.51075732421875,-0.10828852528333663,-0.005463672233372926,0.02733346740445122
1772788777696822500,2.520822509765625,-0.12590718408226967,0.007968494661152362,0.027042722563259302
1772788777706888400,2.530888427734375,-0.1197100830078125,-0.0038549218624830245,0.008451729867141693
1772788777716953300,2.540953369140625,-0.11318506515324116,-0.0037549686193466183,0.0034646073706448076
1772788777727019300,2.551019287109375,-0.08600655084848403,-0.010521686275303364,-0.007512805049214512
1772788777737085400,2.56108544921875,-0.09982172571122645,-0.011085676833614706,-0.009083652828820048
1772788777747150300,2.571150390625,-0.08862871604561805,-0.028265798084810376,0.005535952018294483
1772788777757216500,2.581216552734375,-0.09314999286234378,-0.011488485480844975,0.005847776180133223
1772788777767281400,2.591281494140625,-0.08989245237112045,-0.017983473523333668,0.00009584332359954714
1772788777777347300,2.601347412109375,-0.10051438415050507,-0.027521336393058298,0.00365877823587507
1772788777787412500,2.61141259765625,-0.0987701708316803,-0.031309111303463574,0.013996303583309054
1772788777797478400,2.621478515625,-0.07843406976759433,-0.016543576913326977,0.009879241919610648
1772788777807544300,2.63154443359375,-0.09656301617622375,-0.013343173436820507,-0.002319711651839316
1772788777817609200,2.641609130859375,-0.13376432732343674,-0.016765476035699247,0.004034023022744805
1772788777827675400,2.65167529296875,-0.16390286047756672,-0.014277604742720723,0.014813026793673634
1772788777837740500,2.661740478515625,-0.18427520189881325,-0.005226210215687752,0.01136551668830216
1772788777847806500,2.671806396484375,-0.19936346543729305,-0.0019967998404055833,0.032253808275051414
1772788777857871400,2.681871337890625,-0.1868389149069786,-0.012228563258424401,0.03709165849396959
1772788777867937300,2.691937255859375,-0.16444938844442367,-0.005399009499326348,0.03025262452047318
1772788777878003500,2.70200341796875,-0.14024609055817128,-0.0036720395762473343,0.036255225936137135
1772788777888068400,2.712068359375,-0.0895411547154188,0.0007991875536739826,0.008523918320517987
1772788777898134300,2.72213427734375,-0.08056991275250912,0.005078326177597046,0.0028049013528972863
1772788777908199400,2.732199462890625,-0.0480886158645153,0.0025415011763572693,0.0024012341891415418
1772788777918265300,2.742265380859375,-0.027243980756402015,-0.0013839286390691995,0.0062299073655158275
1772788777928330500,2.75233056640625,-0.06577098754942416,-0.006081438805535435,-0.010362696321308613
1772788777938396400,2.762396484375,-0.0629676205664873,-0.026746187302097678,-0.0028098515226505695
1772788777948461300,2.77246142578125,-0.06446867277920246,-0.03317943521998822,-0.0033493469605222342
1772788777958527200,2.78252734375,-0.06846855607032776,-0.011443111969158053,0.0028601934703998268
1772788777968593400,2.792593505859375,-0.04875906247198582,-0.004038169474899768,0.006152366883587092
1772788777978658600,2.802658447265625,-0.06000467910766601,-0.006945873615145683,-0.0009348331646993756
1772788777988724200,2.81272412109375,-0.10746142680943012,-0.024971578845009206,0.017786708842217922
1772788777998789400,2.822789306640625,-0.13878770844340324,-0.03494016128219664,0.024888174877874553
1772788778008855300,2.832855224609375,-0.14937106177806853,-0.02537570266649127,0.01547560062194243
1772788778018920400,2.84292041015625,-0.1521083777874708,-0.010124211390316485,0.010593710331898182
1772788778028986400,2.852986328125,-0.15983108099400997,-0.014694295784831047,0.027029808282759037
1772788778039052300,2.86305224609375,-0.14675065014660357,-0.016526333517581225,0.0071466751505620775
1772788778049117400,2.873117431640625,-0.13097908051908017,-0.022783055824786423,0.009004632775858045
1772788778059183400,2.883183349609375,-0.10351122787892818,-0.013839359455928206,0.0117475565421395
1772788778069248500,2.89324853515625,-0.07228957566320895,-0.012531345597282051,-0.004952160780970007
1772788778079314200,2.903314208984375,-0.05779927801787853,-0.021926731256395576,0.0024839805691502987
1772788778089379300,2.91337939453125,-0.08309855444729328,-0.01286401161774993,-0.0028449228360317644
1772788778099445200,2.9234453125,-0.08775602486431598,-0.0047588849648833274,-0.011001542214117943
1772788778109511400,2.933511474609375,-0.12535948707163333,-0.01669182627759874,0.004126742807496339
1772788778119575300,2.9435751953125,-0.12017419338822365,-0.024030644733086227,0.01723292915066704
1772788778129641200,2.95364111328125,-0.10483809256851673,-0.020237024603784085,0.0246306199202314
1772788778139706400,2.963706298828125,-0.08969254588484764,-0.002700198869407177,0.015683635615743697
1772788778149772300,2.973772216796875,-0.09459083932042121,-0.004881780692189932,0.015460403052810578
1772788778159838200,2.983838134765625,-0.08748714479506016,-0.025266908529773355,0.02293061106931418
1772788778169903400,2.9939033203125,-0.10278817430138587,-0.023401479984074828,0.025008842115476725
1772788778179969300,3.00396923828125,-0.14335691605508327,-0.03139313632510602,0.020689956003054975
1772788778190034200,3.0140341796875,-0.14636837283074855,-0.04186265402175486,0.040808742788340895
1772788778200100000,3.02410009765625,-0.1288899992853403,-0.04539755014963448,0.03059873454440385
1772788778210165200,3.034165283203125,-0.13612638027966023,-0.05007825531177222,0.039012890613824125
1772788778220231200,3.044231201171875,-0.12529518966376782,-0.05025222363919019,0.01687485469430685
1772788778230297300,3.05429736328125,-0.10850187577307224,-0.04103818589635193,0.007102141889091581
1772788778240362200,3.0643623046875,-0.10312778151929378,-0.022366145586967468,0.0036547048489563166
1772788778250428200,3.07442822265625,-0.09224398393332958,-0.02072042420655489,-0.006625957478396594
1772788778260493300,3.084493408203125,-0.08226444171071053,-0.021979776617884635,-0.0033529454234056174
1772788778270559200,3.094559326171875,-0.1132569613456726,-0.01760463027358055,0.01954288659347221
1772788778280624000,3.1046240234375,-0.10320143127739428,-0.023728008524700996,0.03873074920419604
1772788778290690300,3.114690185546875,-0.07932780373692512,-0.014859277088195086,0.030122349204309284
1772788778300756200,3.124756103515625,-0.09565057750642299,-0.012163535198196768,0.010609675086010247
1772788778310821400,3.1348212890625,-0.1096843635559082,-0.0049020928278565405,0.0020928623597137627
1772788778320887300,3.14488720703125,-0.09616612581312656,-0.0064398237891495225,-0.010025701185595244
1772788778330952200,3.1549521484375,-0.08357318622171879,0.0003461100239306688,-0.0018711093678139149
1772788778341018000,3.16501806640625,-0.08748188409805298,-0.005242649893835187,-0.008320175909344106
1772788778351083300,3.175083251953125,-0.12600713732540605,-0.0077845163963735095,0.009161704767402261
1772788778361149200,3.185149169921875,-0.12325520826876163,-0.016535612802579997,0.02377886192910373
1772788778371215400,3.19521533203125,-0.10058861843049526,-0.023414777857065198,0.007433912860415876
1772788778381280300,3.2052802734375,-0.08839666085541248,-0.0172255678281188,0.002786909038480371
1772788778391346200,3.21534619140625,-0.12755378224551678,-0.006441285093873739,0.006254603415355086
1772788778401411300,3.225411376953125,-0.11357611029744148,-0.017691870165616273,0.009591821546666324
1772788778411477200,3.235477294921875,-0.09407119936048984,-0.030664748985320327,0.011809406264591961
1772788778421543400,3.24554345703125,-0.10057458990514277,-0.03130531191118061,0.014967906828131526
1772788778431608300,3.2556083984375,-0.07890870154201984,-0.02504223292842507,0.011567158473934977
1772788778441674200,3.26567431640625,-0.05993745909035206,-0.004834726680070162,-0.012980696799978613
1772788778451739400,3.275739501953125,-0.09502630812823772,-0.006717544751986861,-0.02570157361999154
1772788778461805300,3.285805419921875,-0.12460428479015827,-0.014284399809688328,-0.00793789859348908
1772788778471870200,3.2958701171875,-0.13219839318096638,-0.026494915954768657,0.021604038640670477
1772788778481936100,3.30593603515625,-0.1273778411567211,-0.023581074334681033,0.003228606657683849
1772788778492002300,3.316002197265625,-0.1382704065710306,-0.008526128543913363,-0.008575666774064301
1772788778502067200,3.326067138671875,-0.13839724782109258,0.010012348513677716,0.0004010002826340496
1772788778512133400,3.33613330078125,-0.14616963538825511,-0.0027253333106637,-0.011055774885695428
1772788778522198300,3.3461982421875,-0.11870061370432376,-0.01581767379157245,-0.0041305056671611965
1772788778532264200,3.35626416015625,-0.10431319191157817,-0.02472417995519936,0.013792214112263172
1772788778542330400,3.366330322265625,-0.11463234135210514,-0.03366941069401801,0.019886238404735922
1772788778552395300,3.376395263671875,-0.10653086796104907,-0.022062121139094233,0.013965853646118192
1772788778562461200,3.386461181640625,-0.09838847803771496,0.005874883382767438,-0.00779295543115586
1772788778572526300,3.3965263671875,-0.10093173277974128,-0.0013152473170310259,-0.0003638283437117934
1772788778582592300,3.40659228515625,-0.07823650136888027,-0.011752470179274678,0.018358352984022348
1772788778592658200,3.416658203125,-0.06284136383831501,-0.012666297088563441,0.020863248477037993
1772788778602723300,3.426723388671875,-0.06946399684846401,0.007639189641550183,0.02511237555518746
1772788778612789200,3.436789306640625,-0.12155483409166336,0.008907236815989017,0.028326971953827888
1772788778622854100,3.446854248046875,-0.12601181350052357,-0.0014834434907883404,0.03051779652899131
1772788778632920300,3.45692041015625,-0.1329553490281105,0.006994169736281037,0.02574707499584183
1772788778642986200,3.466986328125,-0.1326028823286295,0.025341508135944605,0.031065986729972062
1772788778653051100,3.477051025390625,-0.10034370375871658,0.02296644956767559,-0.003117620563879609
1772788778663117000,3.487116943359375,-0.08706745807826519,0.01426233410835266,-0.02628613204229623
1772788778673182200,3.49718212890625,-0.08099544468820094,0.01741261483281851,-0.029780239502061157
1772788778683248400,3.507248291015625,-0.08036883722245693,-0.0031846944507211445,-0.029403880470339205
1772788778693313300,3.517313232421875,-0.09296762203276157,-0.01400565593354404,-0.032390129739511754
1772788778703379200,3.527379150390625,-0.10920622465014457,-0.013167889935150742,-0.022141798779182136
1772788778713445000,3.537445068359375,-0.11361293517649174,-0.023353476123884317,-0.003109035398624837
1772788778723510300,3.54751025390625,-0.11161679292321204,-0.04866619655676186,-0.00027677111476659774
1772788778733576200,3.557576171875,-0.11772037049531936,-0.04876651512607932,-0.008853424269519745
1772788778743641000,3.56764111328125,-0.11847907990813254,-0.04945844291299581,0.0024847842867486178
1772788778753707300,3.577707275390625,-0.12927870634198188,-0.055799701698496934,-0.007631426460202783
1772788778763773200,3.587773193359375,-0.09984335302114486,-0.05409319004155695,-0.0006348821037448942
1772788778773838300,3.59783837890625,-0.07998422181904316,-0.041029198872298,-0.0028577823176048696
1772788778783904300,3.607904296875,-0.08900456362068652,-0.01918904992081225,0.011110592079162597
1772788778793969200,3.61796923828125,-0.10234978288412093,-0.011873904601857065,0.013445483033824712
1772788778804035000,3.62803515625,-0.12272972308993339,-0.024817995718494055,0.02117578502492979
1772788778814101200,3.638101318359375,-0.14851181460022925,-0.015426701712608336,0.02266266258182004
1772788778824166400,3.64816650390625,-0.1410772806853056,0.0038572599500417705,0.01772343434765935
1772788778834232300,3.658232421875,-0.13783786037266255,0.022892434483394026,0.020135902316868303
1772788778844297200,3.668297119140625,-0.11617781722843647,0.010391337893903254,0.024697072752565143
1772788778854363100,3.678363037109375,-0.1079454109340906,0.009143895116075872,0.015993030358478426
1772788778864429300,3.68842919921875,-0.0938110871195793,0.018728227476030587,0.010679287989810108
1772788778874494200,3.698494140625,-0.07139642621576786,0.01440524971038103,0.012784699303843081
1772788778884560400,3.708560302734375,-0.09246610225141048,0.0025265958681702613,0.011224409450870007
1772788778894625300,3.718625244140625,-0.10315934570133685,0.0031954350404441354,0.0008707184199243783
1772788778904691200,3.728691162109375,-0.0787099640995264,-0.013361293615400791,-0.0036474348579533396
1772788778914757400,3.73875732421875,-0.1048825162321329,-0.0029970629241317507,-0.0022424816971644756
1772788778924822300,3.748822265625,-0.11137713894844055,-0.007554360902309418,0.0017527254188433288
1772788778934888400,3.758888427734375,-0.11525894881784915,-0.04079823966063559,-0.010769322627130895
1772788778944953000,3.768953125,-0.12229542332589625,-0.0500220681451261,-0.0030039127900265156
1772788778955019300,3.779019287109375,-0.11257131716907023,-0.046638928512856365,0.0009255356133915484
1772788778965085200,3.789085205078125,-0.10774316636025905,-0.03473090244568884,0.004288290044758469
1772788778975150300,3.799150390625,-0.095092943623662,-0.010782821429520844,-0.011182762266229837
1772788778985216300,3.80921630859375,-0.10292027624845504,-0.012314853302389383,-0.004074099304806441
1772788778995281200,3.81928125,-0.1197100830078125,-0.0181328919313848,0.0016465250980108976
1772788779005347300,3.829347412109375,-0.13411153332591055,-0.030439196601137516,0.0013714527499862014
1772788779015413200,3.839413330078125,-0.13268822252452372,-0.021736469381302595,-0.012777228383440524
1772788779025478400,3.849478515625,-0.09928747270405291,-0.01237673955745995,-0.030144926362298426
1772788779035544000,3.8595439453125,-0.09479600650370121,0.008730930401012301,-0.027745518804062157
1772788779045609200,3.869609130859375,-0.08014087368547916,0.014974793226644396,-0.026776637239288536
1772788779055675400,3.87967529296875,-0.08087503317892551,0.0012722849581390618,-0.013031294476054608
1772788779065741300,3.8897412109375,-0.08309387827217578,0.004738061372563242,0.014651479556411504
1772788779075806200,3.89980615234375,-0.08471066581904887,-0.003193535344302654,0.00041228886162862177
1772788779085872000,3.9098720703125,-0.13719605533778667,0.005937061898782849,0.009463372861407696
1772788779095937300,3.919937255859375,-0.14577508311271667,0.007408376560360193,0.026370230129174888
1772788779106003200,3.930003173828125,-0.11888123096823691,0.004990574828907847,0.016539174732845274
1772788779116069400,3.9400693359375,-0.11950374678075312,0.015735767661780118,0.015259674582630394
1772788779126134300,3.95013427734375,-0.1361620361149311,0.008294511745125055,0.03181612924383953
1772788779136200400,3.960200439453125,-0.12937632149755954,-0.00844495306648314,0.023779428184684363
1772788779146265300,3.970265380859375,-0.15078735831677914,-0.0028245559014379975,0.02405192498313263
1772788779156331300,3.980331298828125,-0.13989654646813868,-0.012964476317539811,0.03297892594551667
1772788779166397400,3.9903974609375,-0.1338052438557148,-0.018181188052520156,0.037034265750925985
1772788779176462300,4.00046240234375,-0.13383797708153725,-0.017401435851678252,0.03782570838956162
1772788779186527500,4.010527587890625,-0.11320143176615237,-0.009475392092764377,0.0258366529754363
1772788779196593400,4.020593505859375,-0.09597790976464748,0.008110022023692726,0.03106962172547355
1772788779206658300,4.030658203125,-0.08218494673371314,-0.002950374238193035,0.023750549150072037
1772788779216724500,4.040724365234375,-0.07768412818312645,-0.006298369491845369,0.022931067727040497
1772788779226790400,4.050790283203125,-0.09699263976514338,-0.0066108695071190595,0.018819102363567798
1772788779236855300,4.060855224609375,-0.08822890307307243,-0.0012997574869543314,0.009503686605487019
1772788779246921200,4.070921142578125,-0.0853325971096754,-0.0022655337791889904,0.000997870197240263
1772788779256986400,4.080986328125,-0.11712240460216998,0.003825695767998695,0.016383417915552853
1772788779267052300,4.09105224609375,-0.1491676481604576,-0.01192147007063031,0.03393622667035088
1772788779277118500,4.101118408203125,-0.15377484969496727,-0.01405811677314341,0.02612412814730778
1772788779287183400,4.111183349609375,-0.14626082080304623,0.002246317622065544,0.012656542879529296
1772788779297249300,4.121249267578125,-0.14519757548570633,0.007524696416407823,0.00969157386040315
1772788779307314400,4.131314453125,-0.13903203859329222,0.00527845185957849,-0.0070945431045256555
1772788779317380400,4.14138037109375,-0.09893208339512348,0.009740691965445875,-0.009122304338775575
1772788779327446500,4.151446533203125,-0.08267536059916018,0.022866496324539184,-0.011216354008577763
1772788779337511400,4.161511474609375,-0.10968085642457008,0.014261749586462974,-0.008186155999824404
1772788779347577300,4.171577392578125,-0.13164952712655068,0.005111497794836759,-0.0020850626457482573
1772788779357643300,4.181643310546875,-0.14632628725469113,0.00009549626372754574,0.0022934081668034194
1772788779367708400,4.19170849609375,-0.13945464791953563,0.003860913211852312,-0.003227309749741107
1772788779377774600,4.201774658203125,-0.13631167371869085,-0.002303016245365143,0.005544701580330729
1772788779387839200,4.211839111328125,-0.1263707099407911,0.0016080197185277937,0.017421821052581072
1772788779397905400,4.221905517578125,-0.13014379873871804,0.02259476671107113,0.03230844280542806
1772788779407971300,4.231971435546875,-0.14369710779488085,0.0029522739343345165,0.04793362623220309
1772788779418036500,4.242036376953125,-0.1489981368124485,0.012457915034890174,0.035403778472263364
1772788779428102400,4.252102294921875,-0.09134674283266067,0.003530219952762127,-0.01189600683581084
1772788779438167300,4.262167236328125,-0.08102233269512653,0.00872720407396555,-0.02621600768184289
1772788779448233500,4.2722333984375,-0.06460778898894787,0.0045086365308612585,-0.03597443623337895
1772788779458299400,4.28229931640625,-0.08382219254672527,0.010315350048243998,-0.030047037212084977
1772788779468364500,4.292364501953125,-0.08197218076586722,0.0031268998488783836,-0.020988062166795135
1772788779478430200,4.30243017578125,-0.07848901482522487,-0.0020271219134330746,-0.013028773725405335
1772788779488495400,4.312495361328125,-0.08879004408717155,0.001420826583355665,-0.008411032530572266
1772788779498561300,4.322561279296875,-0.08804127154648303,0.014455153266713022,-0.012328169441688805
1772788779508627500,4.33262744140625,-0.09853343946635723,0.004893032738566398,-0.01222984190005809
1772788779518692600,4.342692626953125,-0.11139525912702083,0.012097922616079448,-0.007613324547931551
1772788779528758300,4.35275830078125,-0.10928630414903164,0.02049969412796199,0.012566672638989983
1772788779538824200,4.36282421875,-0.09413315868079662,0.012853197962790728,0.015592760728206485
1772788779548889300,4.372889404296875,-0.09572130465507507,0.010114639844372868,0.013222652329690754
1772788779558955500,4.38295556640625,-0.08560147717893123,0.021517200607433912,0.00598371405210346
1772788779569020200,4.393020263671875,-0.08950549888014793,0.03180266697406769,0.013344196350127457
1772788779579086300,4.40308642578125,-0.09918459685146808,0.020987550710141658,0.020243125551007688
1772788779589152300,4.41315234375,-0.09880991832017898,0.007311638187617063,0.02287179355416447
1772788779599217400,4.423217529296875,-0.10174246464073658,0.021308672423288225,0.007177033756207674
1772788779609283300,4.433283447265625,-0.12189853296279907,0.016979045721143483,0.016673559968546033
1772788779619348200,4.44334814453125,-0.1247504152625799,-0.005671835091337561,0.022850969961844384
1772788779629414400,4.453414306640625,-0.14315817861258984,-0.004122340627014637,0.029182985994964838
1772788779639480300,4.463480224609375,-0.15512509526014326,-0.006662307433411479,0.03631340413047
1772788779649545500,4.47354541015625,-0.1367541567891836,-0.010163374356925487,0.020439981563668698
1772788779659611400,4.483611328125,-0.119627080899477,0.003238251268863678,0.015976535881403832
1772788779669677600,4.493677490234375,-0.10548924995362759,0.012300751711800693,0.008253047223575413
1772788779679742500,4.503742431640625,-0.12396189523339271,0.007390110251307487,0.014073497005365788
1772788779689808400,4.513808349609375,-0.13212065176963805,0.0056497693900018926,0.012922080214228481
1772788779699873500,4.52387353515625,-0.1265326225042343,-0.0008029869459569454,0.012347531729284673
1772788779709939500,4.533939453125,-0.14249474626779554,-0.004215133477002382,0.007474336202349514
1772788779720005400,4.54400537109375,-0.1361661277681589,0.0070906158480793235,0.03144925042651593
1772788779730070300,4.5540703125,-0.13989946907758713,0.016193156040459872,0.022901805099938062
1772788779740136400,4.564136474609375,-0.14064239639937876,0.01709149311967194,0.03152606025608256
1772788779750202400,4.574202392578125,-0.12432020715177058,0.012357888726517557,0.035848343901988114
1772788779760267500,4.584267578125,-0.09723580087125301,0.022006591559574008,0.024984931516926732
1772788779770333200,4.594333251953125,-0.07585048301517963,0.024076602766662833,0.018930252854153513
1772788779780398300,4.6043984375,-0.09679331780076027,0.010668401269614696,0.01336945865554735
1772788779790464500,4.614464599609375,-0.08150222516655921,-0.009024871846288442,0.0189156580732204
1772788779800530400,4.624530517578125,-0.07019055755734444,-0.012716639036312698,0.037678171411342914
1772788779810596400,4.634596435546875,-0.06945464449822902,0.0024541882190853358,0.012346947207394987
1772788779820661200,4.6446611328125,-0.11417875236570835,-0.027404505080357192,0.024188812703173607
1772788779830727400,4.6547275390625,-0.15254326207339763,-0.034093189064040776,0.0042924364969134324
1772788779840793300,4.66479345703125,-0.10725099892914294,-0.028991847337037323,0.000765139153599739
1772788779850858500,4.6748583984375,-0.07443944717347621,-0.02279343108832836,-0.00977839362733066
1772788779860924400,4.68492431640625,-0.07717500961720943,-0.011661723155900834,-0.026575305980909614
1772788779870990300,4.694990234375,-0.03841302502453327,0.00868643367215991,-0.0559908586227335
1772788779881055200,4.70505517578125,-0.04930559043884277,-0.017523747057095168,-0.050115244587603955
1772788779891121400,4.715121337890625,-0.11679273425638675,-0.022125980155542492,-0.048178559170290826
1772788779901186600,4.7251865234375,-0.13556757735311983,-0.04354308138936758,0.02208236020952463
1772788779911252500,4.73525244140625,-0.13775076661109922,0.021505948561057447,0.07063161585573106
1772788779921318400,4.745318359375,-0.126973352009058,0.022056056724488734,0.016965163326263428
1772788779931383300,4.75538330078125,-0.1290337916702032,-0.01887596538364887,-0.002191390830744058
1772788779941449500,4.765449462890625,-0.1565051514416933,-0.017455138800293205,0.0037770708533003926
1772788779951515400,4.775515380859375,-0.10853694708645344,-0.002908653988316655,0.0400597693182528
1772788779961580300,4.785580322265625,-0.1008481461495161,0.008643836639449,0.012782836140319704
1772788779971646200,4.795646240234375,-0.11337971094250679,0.022834932142496107,0.012839169437438248
1772788779981711400,4.80571142578125,-0.1207335808366537,0.003522401972487569,0.043716775722149756
1772788779991777500,4.815777587890625,-0.13903613024652003,-0.0023141952265053984,0.053475971458666026
1772788780001843500,4.825843505859375,-0.1503191562831402,0.001327887602895498,0.04418954433305189
1772788780011908400,4.835908447265625,-0.14724281757771968,0.008250015016272663,0.029098522581905126
1772788780021974300,4.845974365234375,-0.16777999417185782,0.0019319909758865833,0.030910869233496487
1772788780032040400,4.85604052734375,-0.15863456468582152,-0.01742708174958825,0.028856092128157613
1772788780042105300,4.866105224609375,-0.1396867031097412,-0.032662571739032864,0.029638748672138896
1772788780052171500,4.876171630859375,-0.10558511154353618,-0.048615270087122915,0.032576464358158405
1772788780062237200,4.8862373046875,-0.06772212161719798,-0.05484934217110276,0.009186528681404888
1772788780072302300,4.89630224609375,-0.03674889120459556,-0.0644230800718069,-0.00711496483804658
1772788780082368300,4.9063681640625,-0.04172609509527683,-0.07081935698017477,-0.037765210373979057
1772788780092433400,4.916433349609375,-0.07350538119375705,-0.079024509941414,-0.031256084208283574
1772788780102499600,4.92649951171875,-0.1198234802544117,-0.06939991863630712,-0.01605239586289972
1772788780112565200,4.936565185546875,-0.09209785346090793,-0.07300649176090955,-0.03634381753504276
1772788780122630100,4.946630126953125,-0.09355565105378627,-0.0645904725279659,-0.03807246795855462
1772788780132696000,4.956696044921875,-0.12552549128830431,-0.04284194738268852,-0.03279633592022583
1772788780142762200,4.96676220703125,-0.12097206576764583,-0.03845956757999956,-0.03338763461057097
1772788780152827100,4.9768271484375,-0.11735387527048587,-0.02555858495272696,-0.03474473004164174
1772788780162893000,4.98689306640625,-0.11978081015646456,-0.02633643745742738,-0.06232260066121816
1772788780172958200,4.996958251953125,-0.14007307207882402,-0.012634659841284155,-0.05556103410441428
1772788780183024000,5.007024169921875,-0.1295879184216261,-0.003499970944970846,-0.03302641834905371
1772788780193090300,5.01709033203125,-0.10698971764445304,-0.005952551728859543,-0.03008322277031839
1772788780203155000,5.027155029296875,-0.10367372496426105,-0.0019528145682066677,-0.031929563023056835
1772788780213221000,5.03722119140625,-0.11466390553414821,0.0010173603489995002,-0.010553360055200755
1772788780223287000,5.047287109375,-0.10540917045474052,-0.0035092502299696204,-0.006007387188635766
1772788780233352200,5.057352294921875,-0.10273147567808627,-0.006155746150761842,-0.00004751066984608769
1772788780243417900,5.06741796875,-0.08210662080049515,-0.01417355984635651,-0.009045932900626212
1772788780253484000,5.077484130859375,-0.04605564873218536,-0.009901216289401054,0.01134372498160228
1772788780263549200,5.087549072265625,-0.06342705477178097,-0.018205884102359415,0.016990535229537636
1772788780273615000,5.097614990234375,-0.06341594885587692,-0.030900822763517497,0.006131342361867427
1772788780283680300,5.10768017578125,-0.06909867066740989,-0.025948899444565174,0.019338906720280647
1772788780293746000,5.117745849609375,-0.09797112940847873,-0.024578049482777715,0.032137908544112
1772788780303812000,5.12781201171875,-0.11171323903501033,-0.03146612849608064,0.041801589750591665
1772788780313877000,5.137876953125,-0.10646715507507323,-0.030558877458050845,0.04251196650965139
1772788780323943200,5.147943115234375,-0.1159235502064228,-0.024713658561185,0.04225254838848486
1772788780334009000,5.158009033203125,-0.13122048805952072,-0.023119740433245897,0.05556298859948292
1772788780344074000,5.168073974609375,-0.12899521322548388,-0.030932752271741627,0.048260921957809476
1772788780354140200,5.17814013671875,-0.12316694546341896,-0.023213775392249225,0.044455629657022655
1772788780364206000,5.1882060546875,-0.11120587403476237,-0.021694968327134845,0.03273682428533211
1772788780374271200,5.198271240234375,-0.08831833492219447,-0.014188172893598675,0.018461484564933926
1772788780384337200,5.208337158203125,-0.11497077952623366,-0.013735606820508837,0.0013275405430234967
1772788780394402000,5.218402099609375,-0.11766834804713726,-0.01350508600026369,0.0012396978627890348
1772788780404468000,5.228468017578125,-0.13175357202291488,-0.02858136684000492,-0.0024281221960671243
1772788780414534100,5.2385341796875,-0.14196926108896732,-0.025811975191906093,-0.00952198944715783
1772788780424599300,5.248599365234375,-0.11510054338574409,0.0025445699162781237,-0.02421336262254044
1772788780434665200,5.258665283203125,-0.11897241638302802,-0.003815101308748126,-0.030890356168430298
1772788780444731000,5.26873095703125,-0.1406762986689806,-0.008700023806095122,-0.007787968728784471
1772788780454796000,5.278796142578125,-0.12493980035483837,-0.01654810695797205,0.000473736725281924
1772788780464862200,5.2888623046875,-0.10827040510475634,-0.01666895685866475,-0.0008041011908091605
1772788780474928000,5.29892822265625,-0.08646773861944675,-0.014492781863361595,-0.0080048628824763
1772788780484993000,5.308992919921875,-0.05776654479205608,-0.009154854901507496,-0.01546095104208216
1772788780495059000,5.319058837890625,-0.05267009843587875,-0.012416998502612114,-0.007673548568878323
1772788780505124000,5.3291240234375,-0.03674538407325744,-0.011812602868676185,-0.007987838682439177
1772788780515190000,5.33918994140625,-0.06551788957118988,0.0014434037413448095,-0.009122487001866101
1772788780525256200,5.349256103515625,-0.09500351177453994,-0.006372603771835565,0.001255078095011413
1772788780535321000,5.359321044921875,-0.09559154079556464,-0.01879500910192728,0.0025844452689401803
1772788780545387000,5.369386962890625,-0.10831482876837253,-0.008259002040326594,0.0012878113208338617
1772788780555453200,5.379453125,-0.13499182329177856,-0.012681348527222872,0.008705576764047145
1772788780565518000,5.38951806640625,-0.12024725862443446,-0.020033684051409362,0.003059259706456214
1772788780575584300,5.399584228515625,-0.09969839159250259,-0.021785569220036268,-0.007093995115254074
1772788780585650200,5.409650146484375,-0.10027414565384388,-0.011917451482638716,-0.0010825893386267125
1772788780595715000,5.419715087890625,-0.1186205342054367,0.0009806085351854563,0.0053182541470043355
1772788780605781000,5.429781005859375,-0.1287023677587509,0.0015842004515230655,0.005686320274416357
1772788780615847200,5.43984716796875,-0.15460545530021189,-0.024429946248978374,0.02758824588311836
1772788780625912000,5.449912109375,-0.1599953316450119,-0.04127477113120258,0.02561126498803496
1772788780635978000,5.45997802734375,-0.1342892279803753,-0.03658646718449891,-0.012868322466686366
1772788780646043100,5.470043212890625,-0.11534545805752276,0.00020648235753178596,-0.024717549285013227
1772788780656109000,5.480109130859375,-0.09240063579976558,0.0012279343597590923,-0.04053679397916421
1772788780666175200,5.49017529296875,-0.048532267978787416,-0.0067230246447026725,-0.050799683187808836
1772788780676240100,5.500240234375,-0.03893149594068527,0.006593772241845727,-0.06240717367213219
1772788780686306000,5.51030615234375,-0.05267302104532719,0.003579538987204432,-0.036907661962881685
1772788780696372000,5.5203720703125,-0.07555062328577042,0.0010106383472681046,-0.014913984683807939
1772788780706437000,5.53043701171875,-0.10871931791603565,0.0034542321071028706,0.005144742477312684
1772788780716503000,5.5405029296875,-0.14270458962619303,0.01303987964130938,0.025699673923850058
1772788780726569200,5.5505693359375,-0.16060615701973438,0.026535540226101873,0.0157855981528759
1772788780736634000,5.560634033203125,-0.12927870634198188,0.03748779993839562,0.00557853078469634
1772788780746700000,5.570699951171875,-0.11551029323041438,0.0433771502379328,-0.0011283464428037404
1772788780756766200,5.58076611328125,-0.1239490357518196,0.030443361319601535,-0.0036647513189353048
1772788780766831000,5.5908310546875,-0.12436112368404864,0.028852000474929806,-0.012273973302729427
1772788780776897300,5.600897216796875,-0.1120937627851963,0.028768267714232205,0.0047255489508621394
1772788780786962000,5.6109619140625,-0.12438625812530517,0.01044862103909254,0.008402063772827387
1772788780797028000,5.621028076171875,-0.13159224398136138,-0.003760813838243484,0.0023397315265610815
1772788780807094000,5.631093994140625,-0.12277063962221145,0.01212378770969808,-0.005040094792749732
1772788780817159200,5.6411591796875,-0.10091887329816818,0.008762421517819165,-0.006813899532239884
1772788780827225000,5.65122509765625,-0.12184241886138915,-0.0029155221205204723,0.0035863157878629863
1772788780837291000,5.661291015625,-0.07691665094196797,-0.01898972795642912,-0.016178689123690127
1772788780847356200,5.671356201171875,-0.04368716603517532,0.002163753905147314,-0.018593075055349618
1772788780857422000,5.681422119140625,-0.07336509594023227,0.020942177198454738,-0.025303642077278345
1772788780867488300,5.69148828125,-0.11322715072929858,-0.000901844210550189,-0.019246771457418797
1772788780877553000,5.701552978515625,-0.11434417206048965,-0.023599559839442372,-0.004058737338893116
1772788780887619000,5.711619140625,-0.04304360743463039,0.02287241460867226,-0.03261537159644067
1772788780897685000,5.72168505859375,-0.11038812791109084,0.028269743607565758,-0.00854939982164651
1772788780907750100,5.731750244140625,-0.10716215160191059,0.0046058863602578635,-0.0013974822403863072
1772788780917816000,5.741816162109375,-0.11072539704144001,0.009757496969774364,0.017244765718933193
1772788780927882200,5.75188232421875,-0.12578034283220768,0.014368570961803197,0.005040734113566577
1772788780937947100,5.761947021484375,-0.11723287923932074,0.006245104934647679,-0.01245113823423162
1772788780948013000,5.772012939453125,-0.10846505089402197,0.013523790700733661,-0.022811021543946115
1772788780958078200,5.782078125,-0.0987257471680641,0.02044891378879547,-0.03025525486897677
1772788780968144100,5.79214404296875,-0.10483692352473735,0.009972308764234184,-0.023000461435131726
1772788780978210000,5.8022099609375,-0.0977805752724409,0.002759893167391419,-0.023062201559729874
1772788780988275000,5.81227490234375,-0.09772679925858974,0.012988660910725593,-0.017660981837008146
1772788780998341000,5.822341064453125,-0.09136427848935126,-0.0032909313041716813,-0.0054960218667052686
1772788781008407000,5.832406982421875,-0.10008359151780605,-0.008338277821615338,0.011182743999920785
1772788781018472200,5.84247216796875,-0.1171434473901987,-0.011915405656024813,-0.0034609723751433193
1772788781028538000,5.8525380859375,-0.11503624597787857,-0.01578844769708812,0.0158507540772669
1772788781038604000,5.86260400390625,-0.1102507652670145,-0.01542078342847526,0.013324596600513905
1772788781048669200,5.872669189453125,-0.11312427487671374,0.0025434008724987507,0.0004535341874696314
1772788781058735000,5.882735107421875,-0.12707622786164283,0.0027816666077822446,-0.002345960337948054
1772788781068801300,5.89280126953125,-0.12665011140406132,0.005682210354879498,-0.0043851014827378096
1772788781078866000,5.902865966796875,-0.10021920059621334,-0.002268310258165002,0.01280210709637031
1772788781088932000,5.91293212890625,-0.11704524771273135,0.00949066272713244,0.022640560347866264
1772788781098998000,5.922998046875,-0.12507014873623848,0.00324643457531929,0.023077490460406986
1772788781109063200,5.933063232421875,-0.12040157240331172,-0.0060059624165296555,0.024631679366156456
1772788781119129000,5.943129150390625,-0.1280143854945898,-0.006142521343007684,0.029255941633321344
1772788781129194200,5.9531943359375,-0.09611527240872382,0.0038193390924483534,0.022588848426938056
1772788781139260400,5.963260498046875,-0.08320610647499561,0.002350070257484913,0.026084672919753936
1772788781149326300,5.973326416015625,-0.08433014206886291,-0.00019954116009175777,0.02250049429005012
1772788781159391200,5.98339111328125,-0.0766360804349184,-0.008291077679023146,0.022884598236810414
1772788781169457200,5.99345703125,-0.07583060927093029,-0.010867357907816767,0.018658249246049672
1772788781179523300,6.0035234375,-0.1055751746714115,-0.006918620282039046,0.01839190819375217
1772788781189588200,6.013588134765625,-0.1395212834149599,-0.0016150339812040328,0.021597407970484345
1772788781199654100,6.023654052734375,-0.1258873103380203,-0.0185865539830178,0.05097756050536409
1772788781209720000,6.033719970703125,-0.12242051101028918,-0.04147212033420801,0.05863874278301373
1772788781219785200,6.04378515625,-0.13722586595416067,-0.03280168794877827,0.03433446874031797
1772788781229851100,6.05385107421875,-0.11944646363556384,0.000301028773188591,0.006348145184013992
1772788781239917300,6.063917236328125,-0.12459259435236453,-0.007711816486343741,0.025759897944796828
1772788781249982200,6.073982177734375,-0.13269465226531027,-0.025614041467010972,0.03611671251459047
1772788781260048100,6.084048095703125,-0.06804945387542248,-0.003269084798544645,0.014272380578331648
1772788781270114300,6.0941142578125,-0.11683715792000293,-0.018996449958160518,0.049762650023959576
1772788781280179200,6.10417919921875,-0.14081892201006413,-0.049046354980766774,0.0616690503896214
1772788781290245400,6.114245361328125,-0.1254658700555563,-0.036845045055449006,0.039166236278321595
1772788781300311300,6.124311279296875,-0.09771627786457537,-0.004984437349066138,0.010499310046713799
1772788781310376200,6.134376220703125,-0.11738017875552177,0.004562850936129689,0.010807882805541158
1772788781320442000,6.144442138671875,-0.11595745247602463,-0.0200751120403409,0.009387512879911809
1772788781330508300,6.15450830078125,-0.08701309754252433,-0.02543174370266497,0.003545344456657767
1772788781340573200,6.1645732421875,-0.08410100948810577,-0.015717866678908465,0.009280253113154321
1772788781350639000,6.17463916015625,-0.09334756126105785,-0.004678001748397946,0.012007047728542239
1772788781360704300,6.184704345703125,-0.11145195775032042,-0.021966259549185633,0.025233645580988374
1772788781370770200,6.194770263671875,-0.10682955864667892,-0.04972440037280321,0.028389424464479087
1772788781380836400,6.20483642578125,-0.125966220793128,-0.033856238503009076,0.04308748310897499
1772788781390901200,6.2149013671875,-0.11873334693014621,-0.03729724580235779,0.03946805050279945
1772788781400967200,6.22496728515625,-0.13856091395020484,-0.018493761133030057,0.019778156654071063
1772788781411033000,6.235033203125,-0.14133505483865738,0.010553834979236126,0.01478464094940573
1772788781421098200,6.24509814453125,-0.1441132873803377,-0.018839067439362405,0.02318917067395523
1772788781431164200,6.2551640625,-0.15499533140063285,-0.0462212876226753,0.025305870566982774
1772788781441230300,6.265230224609375,-0.14183365201056003,-0.0573515342503786,0.02056631135707721
1772788781451295200,6.275295166015625,-0.09863163914382457,-0.05161021411940455,0.0064723560855723915
1772788781461361200,6.285361083984375,-0.05904372512102127,-0.022871830086782573,-0.018622885671723634
1772788781471427300,6.29542724609375,-0.0523673160970211,-0.02600157947987318,-0.014156444314774126
1772788781481492200,6.3054921875,-0.038059973803162575,-0.03144866590462625,-0.018609569532424212
1772788781491558400,6.315558349609375,-0.06427636507749557,-0.033566680971905585,-0.0063052376240491865
1772788781501624000,6.3256240234375,-0.11003215408027171,-0.052050943624228234,0.009747231304086744
1772788781511689200,6.335689208984375,-0.11723229471743106,-0.03999861371554434,0.020089725087583065
1772788781521755100,6.345755126953125,-0.10639525888264179,-0.012942191420495509,-0.008678579159267246
1772788781531821300,6.3558212890625,-0.03601648527681827,-0.019162381109595297,0.00747249130513519
1772788781541886200,6.36588623046875,-0.09079086251556873,-0.001630231550335884,-0.008547719321213662
1772788781551952100,6.3759521484375,-0.13779928192794322,0.05652012492753565,-0.02951981673389673
1772788781562018000,6.38601806640625,-0.22713585398197172,0.050341874684020876,0.003299626067280769
1772788781572083200,6.396083251953125,-0.10585808326601981,-0.025744535978883504,0.002495579675398767
1772788781582149400,6.4061494140625,-0.20563012461662292,0.02022051186040044,0.030971732575260102
1772788781592215300,6.41621533203125,-0.21634674894213676,-0.012370236751437187,0.05342270690146833
1772788781602280200,6.4262802734375,-0.14405191258192063,-0.030009134620800612,0.00839399006422609
1772788781612346000,6.43634619140625,-0.14317162261605262,-0.00043437282927334306,0.003891710208915174
1772788781622412300,6.446412353515625,-0.1225683950483799,-0.021990590272843835,-0.005915142327919602
1772788781632477200,6.456477294921875,-0.09792319861352443,-0.028899858204647896,-0.0071545479297637935
1772788781642543400,6.46654345703125,-0.07002104620933532,-0.02740355523228645,-0.003223857417330146
1772788781652609000,6.476609130859375,-0.028840310037136076,-0.01976874950490892,-0.019506299176439642
1772788781662674200,6.486674072265625,-0.05486030195653438,0.005124722602590918,-0.010118073910474777
1772788781672740000,6.496739990234375,-0.030720716956257818,-0.010514964273571967,0.0025536300055682658
1772788781682806300,6.50680615234375,-0.023848493099212643,-0.023648732743412254,0.017276421232521533
1772788781692871400,6.516871337890625,-0.0865524942934513,-0.0272526755195111,0.029569391496665775
1772788781702937000,6.52693701171875,-0.12504326072931288,-0.043095483752340076,0.025529468456096945
1772788781713002200,6.537002197265625,-0.16315876411199567,-0.03718940151371061,0.010027947941608726
1772788781723068200,6.547068115234375,-0.13110942890048027,-0.038019203401356935,0.026481618081778287
1772788781733134300,6.55713427734375,-0.09917115284800529,-0.038208588493615386,0.020068243908137082
1772788781743199200,6.56719921875,-0.13170681027173994,-0.02494191435910761,0.013357092364318668
1772788781753265200,6.57726513671875,-0.11409048956036567,-0.006525237050279974,-0.011196334133855998
1772788781763331000,6.5873310546875,-0.12991115902662276,-0.008564926184341312,-0.016438801364600658
1772788781773396200,6.597396240234375,-0.1681944201916456,-0.025110037467628715,0.006672755762189626
1772788781783462400,6.60746240234375,-0.14974398674368858,-0.028614100065827368,0.007459522225707769
1772788781793528300,6.6175283203125,-0.1252653790473938,-0.018518457182869315,0.01716265865974128
1772788781803593200,6.62759326171875,-0.10585983683168887,0.0016040741957724094,-0.007848631141148508
1772788781813659100,6.6376591796875,-0.10525134954452514,0.00576492020227015,0.0013296046359464525
1772788781823725300,6.647725341796875,-0.06554127044677734,0.007257058456167578,0.0018165479026734828
1772788781833790200,6.657790283203125,-0.13225216919481753,0.004541150560975074,0.020291604335233568
1772788781843856100,6.667856201171875,-0.12797872965931892,-0.012672726829349994,0.018750366242602467
1772788781853922000,6.677922119140625,-0.12713994074761867,-0.02650324539169669,0.007794672464206814
1772788781863987200,6.6879873046875,-0.1332031863093376,-0.031721491496637465,0.006730440766178071
1772788781874053000,6.69805322265625,-0.14002397224009036,-0.03238828484229743,0.015231982858106494
1772788781884119300,6.708119384765625,-0.1033452236622572,-0.027870953548327086,0.01236985315894708
1772788781894184200,6.71818408203125,-0.08483458445966244,-0.01394011641666293,0.009964015859924256
1772788781904250000,6.72825,-0.1073445224314928,-0.008066621273383498,0.02427484701881185
1772788781914316300,6.73831640625,-0.10651976204514503,-0.028499241514503955,0.03988189200069755
1772788781924381200,6.748381103515625,-0.08103577669858932,-0.03011201047338545,0.03428613608656451
1772788781934447400,6.758447265625,-0.07964110746979713,-0.013511954132467507,0.031814010351989414
1772788781944513300,6.76851318359375,-0.08482581663131714,-0.016838102880492804,0.017568609112128614
1772788781954578200,6.778578125,-0.054105684196949,-0.014110577612742781,0.015485172167886047
1772788781964644000,6.78864404296875,-0.04075403519272804,-0.000012201894447207451,0.005547952983342111
1772788781974710300,6.798710205078125,-0.05462707772254943,-0.0010374532889574765,0.005054470377974212
1772788781984775400,6.808775390625,-0.1265069035410881,-0.00002557283267378807,0.010585472226515411
1772788781994841000,6.818841064453125,-0.09970774394273757,-0.016562866135686635,0.03420682377265766
1772788782004907000,6.828906982421875,-0.09610884266793727,-0.04348419080898165,0.048203291752748186
1772788782014972200,6.83897216796875,-0.1477075124800205,-0.047620486896112556,0.041251244125142694
1772788782025038300,6.849038330078125,-0.09215981278121471,-0.009057020550221204,0.009248908126819878
1772788782035104300,6.859104248046875,-0.06013795009851455,0.0006976999405771493,-0.0022361615542322395
1772788782045169200,6.869169189453125,-0.08409165713787078,-0.004709200604259968,-0.01068537067072466
1772788782055235000,6.879235107421875,-0.09949965415000915,-0.001232610534876585,-0.012806746738869695
1772788782065301200,6.88930126953125,-0.10695523085296153,0.007580664387345314,0.005647157307807356
1772788782075366100,6.8993662109375,-0.09783201319873333,0.0011083265680819749,-0.0038455329796299336
1772788782085432300,6.909432373046875,-0.09114625182449818,0.00395304847471416,-0.0023802279337309298
1772788782095498200,6.919498291015625,-0.12862287278175352,0.00034866730719804764,0.016827983345277606
1772788782105563100,6.929563232421875,-0.1454156021505594,-0.02189575159624219,0.03469436982758343
1772788782115629300,6.93962939453125,-0.12358546313643455,-0.002727817528694868,0.04044445778690278
1772788782125695000,6.949695068359375,-0.08764964188039302,0.005302928713709115,0.02258928681835532
1772788782135760100,6.959760009765625,-0.07068681664168834,0.008500190385058521,0.006093129243329167
1772788782145825800,6.96982568359375,-0.08434300155043602,0.009732947050407528,0.006006364275328815
1772788782155892000,6.97989208984375,-0.12187456756532192,-0.017455211865529417,0.01660807525059208
1772788782165956900,6.989956787109375,-0.11940145545005798,-0.04468158390000462,0.009444668160937727
1772788782176023000,7.00002294921875,-0.12589841625392437,-0.037950375948846336,0.0018903255249373614
1772788782186089000,7.0100888671875,-0.13626374292373655,-0.03276113674268126,-0.003503057951200753
1772788782196153900,7.02015380859375,-0.13498247094154356,-0.03277501913756132,-0.00035038434024900196
1772788782206220000,7.030219970703125,-0.12374269952476023,-0.034292291832715274,-0.01243844314943999
1772788782216286000,7.040285888671875,-0.0938987654030323,-0.030897900154069066,-0.031365919524617494
1772788782226351000,7.05035107421875,-0.1046779335707426,-0.027763766846805808,-0.02747062911912799
1772788782236417000,7.0604169921875,-0.12015665773153304,-0.012856632028892636,-0.01329142498327419
1772788782246483000,7.07048291015625,-0.13612404219210147,-0.003203764477372169,0.0023471111154183743
1772788782256547800,7.0805478515625,-0.15388532433211802,-0.0042838147990405554,0.014276015573833137
1772788782266614000,7.090614013671875,-0.151067344301939,0.004169833030551672,0.020642481865826994
1772788782276680000,7.100679931640625,-0.11496201169788836,0.004085442682728171,0.013933010822441428
1772788782286745000,7.1107451171875,-0.1084381628870964,0.011553002084419131,0.010998181213252245
1772788782296810800,7.120810791015625,-0.1044429557710886,0.016580328727141023,-0.00731202178010717
1772788782306877000,7.130876953125,-0.11032733763456344,0.006102700789272785,-0.0007351276078261435
1772788782316942000,7.140942138671875,-0.11235621311366557,-0.01310381172299385,0.0012868432064540684
1772788782327008000,7.151008056640625,-0.1124947448015213,-0.011815233217179774,-0.006132566204573958
1772788782337074000,7.161073974609375,-0.12332535089552402,-0.012715616123005747,-0.011541494309715926
1772788782347138800,7.171138916015625,-0.1440571732789278,-0.011769421314075589,-0.010750672725588082
1772788782357205000,7.181205078125,-0.1320534317523241,-0.0160536014392972,-0.0060086658302694555
1772788782367271000,7.19127099609375,-0.09672902039289474,-0.021426599714532493,-0.004487977335322648
1772788782377336000,7.201336181640625,-0.08305529982745646,-0.015380159157142042,-0.0020439634503796695
1772788782387402000,7.211402099609375,-0.08928513412773609,-0.014135054466873407,0.0038182248475961385
1772788782397468000,7.221468017578125,-0.08085399039089679,-0.010783552081882954,-0.004416154208127409
1772788782407533000,7.231532958984375,-0.08960954377651215,0.003032499563694,0.001204736147262156
1772788782417599000,7.241598876953125,-0.11803425875008106,0.002022591868788004,0.013774404460936784
1772788782427665000,7.251664794921875,-0.11720248410105705,0.007479615165665745,0.012044237933773547
1772788782437730000,7.26172998046875,-0.11993863106667994,0.007885930944234133,-0.01695548218246549
1772788782447796000,7.2717958984375,-0.14213409626185894,0.010451105257123708,-0.009387585945148021
1772788782457862000,7.28186181640625,-0.1487625744909048,0.021425138409808277,0.006410323700029402
1772788782467927000,7.291927001953125,-0.11205635338425636,0.011194251774623989,-0.004526866307295859
1772788782477993000,7.301992919921875,-0.11403788259029388,0.004354176621511579,-0.01083679837277159
1772788782488059100,7.31205908203125,-0.12581190701425074,0.010526873907074331,-0.0038367103523574766
1772788782498123800,7.322123779296875,-0.11169161172509193,0.0009320201531052589,0.0006923479120247066
1772788782508190000,7.33218994140625,-0.09154255766570568,-0.0032391280516982078,-0.0014927593084052204
1772788782518255900,7.342255859375,-0.06292670403420925,-0.0020804595358669756,0.0075040737534873185
1772788782528322000,7.352322021484375,-0.06640110214650631,-0.008937339693307875,0.007777995324041694
1772788782538387000,7.362386962890625,-0.07801964374780654,-0.007951835787296295,0.006551558801624923
1772788782548452900,7.372452880859375,-0.08448445584774017,0.0003283551715314388,0.009050426412653178
1772788782558518800,7.382518798828125,-0.09095686673223972,-0.010196619039401411,0.01029253542823717
1772788782568584000,7.392583984375,-0.10751695638895034,-0.02641710147820413,-0.0030519166502170265
1772788782578650000,7.402650146484375,-0.11877952415943145,-0.010209186260029673,-0.023961890345811844
1772788782588716000,7.412716064453125,-0.1407230604201555,0.0036054040808230635,-0.0007394749893806875
1772788782598781000,7.422781005859375,-0.1749620146304369,0.00022920564599335192,0.015689279905240983
1772788782608846800,7.432846923828125,-0.17165303621292113,0.0030775077491998672,-0.0008280848545953631
1772788782618913000,7.4429130859375,-0.1496416954129934,0.02110401669666171,0.01492978504113853
1772788782628978000,7.45297802734375,-0.1291430972635746,0.018742036805674434,0.0074730575607158236
1772788782639044000,7.463044189453125,-0.12573767273426056,-0.001050093574821949,-0.00996538583310321
1772788782649110000,7.473110107421875,-0.13136720305383204,-0.004140753066539764,-0.003654869245737791
1772788782659175000,7.4831748046875,-0.1376256789267063,-0.014523177001625299,-0.004694076100364327
1772788782669240800,7.49324072265625,-0.11682839009165763,-0.010527823755145072,0.006925360550079494
1772788782679307000,7.50330712890625,-0.09797755914926529,-0.018297361778095364,0.015101159552671014
1772788782689372200,7.5133720703125,-0.07866846304535866,-0.0013505378261208533,-0.004993753166683018
1772788782699437800,7.523437744140625,-0.051852352312207216,0.004961348734423518,-0.011729783423431218
1772788782709504000,7.53350390625,-0.06240940216183662,-0.008821019837260245,-0.0008360489653423428
1772788782719569000,7.54356884765625,-0.09389701183736324,-0.009494827445596456,0.007335658384021371
1772788782729635000,7.553635009765625,-0.10665069494843482,-0.006361059464514255,0.002825633613672107
1772788782739701000,7.563700927734375,-0.10707096618711948,-0.004477510740235447,0.02353765531806275
1772788782749767200,7.57376708984375,-0.10097732548713684,-0.002274813064187765,0.032915633184649046
1772788782759831800,7.583831787109375,-0.1112964749276638,-0.013882541010528802,0.036876042981911446
1772788782769898000,7.59389794921875,-0.12891864085793495,-0.022532734325528145,0.025873094261996448
1772788782779964000,7.6039638671875,-0.09974047716856002,-0.003414046227186918,0.0006930420317687093
1772788782790029000,7.614029052734375,-0.08079729176759719,0.00023614684343338012,-0.004560567647498101
1772788782800095000,7.624094970703125,-0.12139642865955828,0.006538973314687609,-0.0065492572466842825
1772788782810161000,7.634160888671875,-0.13698796554505824,0.002174129168689251,-0.0067340026964433485
1772788782820226000,7.64422607421875,-0.12059329558312892,-0.014378507833927868,0.00250809209709987
1772788782830292000,7.6542919921875,-0.14626082080304623,-0.012128463884815572,0.0013209646717645227
1772788782840358100,7.664358154296875,-0.13711071514189244,-0.0032598055135458705,0.0005582366709597408
1772788782850422800,7.6744228515625,-0.10538929671049117,0.0052425768285989756,-0.012314908101316541
1772788782860489000,7.684489013671875,-0.10735562834739684,-0.017877382800355553,-0.016338135735411197
1772788782870555000,7.694554931640625,-0.10054010311365127,-0.024676614486426114,-0.013512867447920143
1772788782880620000,7.7046201171875,-0.09012684564888476,-0.014044234378263354,-0.00034874037243425845
1772788782890686000,7.71468603515625,-0.068152914249897,-0.00544094894491136,-0.009790832983795553
1772788782900752100,7.724752197265625,-0.06751403182446956,0.004996785373985767,0.019040416964050382
1772788782910817000,7.734817138671875,-0.10211305151879786,-0.01294489483423531,0.02088602656442672
1772788782920883000,7.744883056640625,-0.10713234098553658,-0.03462656528837978,0.010287329530157149
1772788782930948900,7.754948974609375,-0.101353757584095,-0.030496333615854382,-0.005269537900760769
1772788782941015000,7.76501513671875,-0.09871873290538788,-0.025178353463485837,-0.005458557666838169
1772788782951080200,7.775080078125,-0.1240624329984188,-0.024755524941533803,-0.008665281286276876
1772788782961145900,7.785145751953125,-0.15379296987354754,-0.024461729626730083,-0.005184435166884213
1772788782971212000,7.7952119140625,-0.15200900906622408,-0.02097615253329277,-0.0127169860961847
1772788782981277000,7.80527685546875,-0.1348854403078556,-0.014412190907821058,-0.00561201292918995
1772788782991343000,7.815343017578125,-0.1350380005210638,-0.006322627150267362,0.0012109649586491285
1772788783001409000,7.825408935546875,-0.13582418246269226,-0.0037442280296236274,-0.01502268748898059
1772788783011474000,7.835473876953125,-0.11176292339563369,-0.001477890532836318,-0.018159980867709962
1772788783021539800,7.845539794921875,-0.11912965277135372,0.0030235856048762798,-0.0027823607275262474
1772788783031606000,7.85560595703125,-0.10505904184281825,0.00930266587436199,0.0030354952383786437
1772788783041671000,7.8656708984375,-0.10396481686532497,0.010272022363170982,0.014274134144000708
1772788783051737000,7.875737060546875,-0.09207622615098952,0.01467427591010928,0.013759426087513566
1772788783061802800,7.885802734375,-0.09020341801643371,0.00886135184764862,-0.001274129855353385
1772788783071868000,7.895867919921875,-0.12932663713693618,-0.008406886078417301,0.019976857563946394
1772788783081934000,7.90593408203125,-0.11995324411392211,-0.015381547396630047,0.022865948335267602
1772788783092000000,7.916,-0.11255319699048995,-0.01361504918076098,-0.0037827151427976785
1772788783102066000,7.92606591796875,-0.1161193650394678,-0.012329174088686704,-0.015045995299331844
1772788783112130800,7.936130859375,-0.12284078224897384,-0.019973112970590592,-0.003551810730062425
1772788783122197000,7.946197021484375,-0.12254209156334399,-0.02817921577990055,-0.005460165102034807
1772788783132267000,7.95626708984375,-0.12178688928186893,-0.03028407910466194,-0.002532568951230496
1772788783142332200,7.966332275390625,-0.12311959919035434,-0.031949308903142806,0.0033270620634779334
1772788783152398000,7.976398193359375,-0.09964929175376891,-0.03519340539090335,-0.014857980180252342
1772788783162464300,7.98646435546875,-0.11213409479558467,-0.011959756254404782,-0.01129031429393217
1772788783172529000,7.99652880859375,-0.11223112542927265,-0.010641147936508059,-0.011360950111038982
1772788783182594000,8.006593994140625,-0.11051789177060127,0.009893398309126496,0.011972396540269254
1772788783192660000,8.016659912109375,-0.12386778720915317,0.013713321923464536,0.005489756522700191
1772788783202726100,8.02672607421875,-0.12115268303155899,0.018235548588261007,0.004656301373243332
1772788783212792000,8.0367919921875,-0.11257365525662898,0.01775017622411251,0.011523666392080485
1772788783222857000,8.04685693359375,-0.08245207323729992,0.007326251234859227,0.005880692069046199
1772788783232923100,8.056923095703125,-0.07405950794517993,0.005929024722799658,-0.009756254860758781
1772788783242989000,8.066989013671876,-0.09381459425091743,0.010046104652807116,-0.008886358424741773
1772788783253054200,8.07705419921875,-0.0929272900223732,0.014524419110640882,0.010995349935349076
1772788783263120100,8.0871201171875,-0.08618073837161064,0.010947218210995197,0.014708963631000369
1772788783273186300,8.097186279296874,-0.09932079045176505,0.004508709596097469,0.013783318419754505
1772788783283251000,8.1072509765625,-0.11858663193583488,-0.0037922318898141382,0.015719017456378787
1772788783293317000,8.117317138671876,-0.11584288618564605,-0.010244184508174657,0.021823563142865893
1772788783303383000,8.127383056640625,-0.07940203801691531,-0.018763591050356625,0.0170750169089064
1772788783313448200,8.1374482421875,-0.0976934815108776,-0.01975128691345453,0.01107226936277002
1772788783323514000,8.14751416015625,-0.10249825144410132,-0.026297566751763223,0.012577011369913816
1772788783333580000,8.157580078125,-0.11418576662838459,-0.047027197178080675,0.017909385373815895
1772788783343646000,8.16764599609375,-0.12471709751486777,-0.04017338576056063,0.027553978287335485
1772788783353711000,8.177711181640625,-0.13306114749014378,-0.026432006786391137,0.02869553127158433
1772788783363777300,8.18777734375,-0.1314519587278366,-0.02226801897473633,0.02442512394338846
1772788783373843200,8.19784326171875,-0.10372340932488441,-0.018213994343578815,0.037074798690713937
1772788783383908000,8.207908203125,-0.10056640659868717,-0.0173295396592468,0.02575929515659809
1772788783393974000,8.21797412109375,-0.09052607409954071,-0.005154606284201145,0.00955824807062745
1772788783404040200,8.228040283203125,-0.13820377107560633,0.0015709025785326956,-0.003465264957770705
1772788783414105000,8.23810498046875,-0.14544365920126437,0.006146832191944122,-0.017239139695744962
1772788783424171300,8.248171142578125,-0.1182148760139942,0.021281199894472955,-0.022580226729065178
1772788783434237000,8.25823681640625,-0.10847615680992603,0.026382906947657464,-0.004501001213677227
1772788783444303000,8.26830322265625,-0.10787409926354885,0.011658873611688613,0.004214932547602802
1772788783454368000,8.278367919921875,-0.13093582589924335,0.00034333354495465755,-0.0028455986894667146
1772788783464434200,8.28843408203125,-0.14022154063880443,0.005139335649833083,0.013300448539946228
1772788783474500000,8.2985,-0.1361708039432764,-0.00184117088727653,0.008534019589424133
1772788783484565000,8.30856494140625,-0.12584405571818352,-0.011304872542247175,0.004483575154840946
1772788783494631200,8.318631103515624,-0.11658932063877582,-0.0007131897706538438,0.0006532945432700216
1772788783504697000,8.328697021484375,-0.12694997113347053,0.0010780775602906943,0.01729821293922141
1772788783514762200,8.33876220703125,-0.1442179167985916,-0.0044313335109502075,0.0216750580502674
1772788783524828200,8.348828125,-0.1447410638898611,-0.009019245823100208,-0.006945782283600419
1772788783534894000,8.35889404296875,-0.14049100522994995,0.006679696959629654,0.0029291670533828436
1772788783544959000,8.368958984375,-0.14207389050722122,-0.0039054099407047032,0.00814279178213328
1772788783555025200,8.379025146484375,-0.12584113310873507,-0.010797945933416484,0.007975600255373866
1772788783565091000,8.389091064453124,-0.09924363356232642,-0.008859817477688194,0.009152699477039276
1772788783575157200,8.3991572265625,-0.08304594747722148,0.0005841565635055303,0.01034870432857424
1772788783585222000,8.409221923828126,-0.07358370712697505,0.007808262598142027,0.002200633583124727
1772788783595288000,8.4192880859375,-0.05216448700129986,-0.01742985822856426,-0.01484689253065735
1772788783605354000,8.42935400390625,-0.07163958732187747,0.012750979697331785,-0.03225671261819079
1772788783615419100,8.439419189453124,-0.1026478890478611,0.016577917574346065,-0.03057721683233976
1772788783625485000,8.449485107421875,-0.11569967832267283,-0.008406301556527614,-0.0418504338609986
1772788783635551000,8.459551025390626,-0.11407821460068225,-0.0036326574139297005,-0.016757438859716058
1772788783645616000,8.4696162109375,-0.09762275436222553,0.011024082839488983,0.00590540638519451
1772788783655682000,8.47968212890625,-0.10763444528877734,0.016313494484499095,-0.0013448935366235672
1772788783665748200,8.489748291015625,-0.11598550952672958,0.006026932139322161,0.00829434734834358
1772788783675814100,8.499814208984375,-0.11133154624104499,-0.0020309943709522485,0.014728563380613922
1772788783685879000,8.509879150390624,-0.11325462325811385,-0.0039276948377490045,0.014088000454753636
1772788783695945000,8.519945068359375,-0.11968904021978377,0.022221330288797615,0.017180157783813772
1772788783706011100,8.53001123046875,-0.148749130487442,0.02608582369722426,0.013131868773698806
1772788783716076000,8.540075927734375,-0.18350655561387538,0.00623809067197144,-0.002437255350593477
1772788783726142200,8.55014208984375,-0.20688217050433158,-0.007299290162697434,0.0031065329142846167
1772788783736208100,8.5602080078125,-0.17921733398735523,-0.020845877217128873,-0.004631660122331231
1772788783746274000,8.570274169921875,-0.14973171178400516,-0.011017360837757588,-0.028812819242011754
1772788783756339200,8.580339111328126,-0.09675766196548938,0.011252338637411593,-0.035473190446663645
1772788783766405000,8.590405029296875,-0.035549452286958695,-0.004804623802751302,-0.05796100791823119
1772788783776471000,8.600470947265626,-0.007711597290635109,-0.007796499095112085,-0.0640473968935199
1772788783786536000,8.610535888671874,-0.012812135300040245,-0.014901289599016309,-0.04078470432562753
1772788783796602000,8.62060205078125,-0.0641658904403448,-0.021386559965088963,-0.021229287044145166
1772788783806668000,8.63066796875,-0.14213877243697642,-0.02154620750620961,-0.008035130156576633
1772788783816733200,8.640733154296875,-0.17716040145754813,-0.0063721653804183,-0.0039194201997481285
1772788783826799000,8.650799072265626,-0.15276713395714758,0.009665142511203885,0.014345171819906681
1772788783836865300,8.660865234375,-0.1517208397746086,0.024741350285708903,0.015205752438306807
1772788783846931000,8.670930908203125,-0.1645002418488264,0.020880802400037646,0.00859733061660081
1772788783856996000,8.68099609375,-0.159646372076869,0.023305106937512754,0.005183887177612632
1772788783867062000,8.69106201171875,-0.1410948163419962,0.032129560840874906,0.02001496108463034
1772788783877128200,8.701128173828126,-0.11867898639440536,0.0241189075384289,0.01483264480959624
1772788783887193000,8.711193115234375,-0.12093640993237495,0.0115892424415797,0.01721206902572885
1772788783897259000,8.721259033203125,-0.10565233156085013,-0.006393646559864282,0.01913640641812235
1772788783907325000,8.731324951171874,-0.0609942746669054,2.1919570863246918e-7,0.013572397349122911
1772788783917391000,8.74139111328125,-0.0765706139832735,0.008680880714207887,0.0006045234980992972
1772788783927456300,8.751456298828124,-0.10008008438646793,-0.003229191179573536,0.00649064066093415
1772788783937522200,8.761522216796875,-0.11745792016685008,-0.02389306289330125,0.009277860226668417
1772788783947588000,8.771588134765626,-0.1448585527896881,-0.01613645741716027,0.00753797602308914
1772788783957653000,8.781653076171875,-0.12138123109042644,-0.004302373369038105,0.01916928577441722
1772788783967719200,8.79171923828125,-0.09446107546091079,0.0003879764042794704,0.016187475218344478
1772788783977785000,8.80178515625,-0.11151333254873752,-0.0018657938718795776,-0.0005111643925309181
1772788783987850200,8.811850341796875,-0.1186772328287363,0.0020450959615409374,-0.005099131503608078
1772788783997916000,8.821916015625,-0.1062163951843977,0.016631766653433442,-0.008181370226852596
1772788784007982000,8.831982177734375,-0.1027174471527338,0.02168729647733271,0.010484167276509106
1772788784018048000,8.842048095703126,-0.09925298591256142,0.014543489137291907,0.023519663003645837
1772788784028113200,8.852113037109374,-0.09432955803573131,0.01283653908893466,0.02262859591543674
1772788784038179000,8.862178955078125,-0.10979016201794146,0.012718392601981758,0.032954777884948994
1772788784048245200,8.872245361328124,-0.1327373223632574,-0.0042728550136089324,0.040354751943144945
1772788784058310100,8.88231005859375,-0.13354454709291458,-0.006866232507675886,0.03304013634715229
1772788784068376000,8.8923759765625,-0.12565583966970442,-0.007969882900640367,0.015763477652613073
1772788784078442000,8.90244189453125,-0.11969722352623939,-0.010776318623498081,0.01969964805776253
1772788784088508200,8.912508056640625,-0.11596972743570803,-0.008426979018375276,0.014240012678690253
1772788784098573300,8.9225732421875,-0.08219488360583782,-0.026627310162782667,0.0007667648551054298
1772788784108639000,8.932638916015625,-0.06370061101615429,-0.028704335632547734,-0.004324968793336301
1772788784118705200,8.942705078125,-0.08482990828454494,-0.02030855547003448,0.004108202503807843
1772788784128770000,8.95277001953125,-0.10200023879408836,-0.025601839572563765,-0.004551909417007118
1772788784138832000,8.962831787109375,-0.09491174183785915,-0.027961992832645773,-0.0035192601673305034
1772788784148897800,8.972897705078125,-0.06401800640225411,-0.03072955784983933,0.000598513882420957
1772788784158964000,8.9829638671875,-0.06345686538815498,-0.006372019249945879,0.005815737074054778
1772788784169028900,8.99302880859375,-0.08050152369141578,0.007280220136046409,0.020803499380126593
1772788784179094800,9.0030947265625,-0.1035363623201847,-0.0013579174149781464,0.004536602250020951
1772788784189160700,9.01316064453125,-0.10986790342926979,-0.010456146758422255,0.023664313905034214
1772788784199225900,9.023225830078125,-0.12346505162715911,-0.014382526421919464,0.030270470704417674
1772788784209292000,9.0332919921875,-0.10780863281190395,-0.010515621860697865,0.009681216863170266
1772788784219357700,9.043357666015625,-0.12840601516067982,-0.01849244595877826,-0.01072701785536483
1772788784229423900,9.053423828125,-0.1736848343014717,-0.019953312291577457,-0.0019316804486326873
1772788784239488800,9.06348876953125,-0.20518062728345393,-0.019841376349702476,0.019590251132845876
1772788784249555000,9.073554931640626,-0.14060790960788727,-0.028785876436159014,0.02636215642057359
1772788784259620900,9.083620849609375,-0.13686696951389313,-0.018456570927798746,0.014134488211292772
1772788784269685800,9.093685791015625,-0.14566343943178653,-0.009090119102224707,0.009556677168048918
1772788784279751700,9.103751708984374,-0.07425532277822494,-0.024855697380378843,0.008040719647146762
1772788784289817900,9.11381787109375,-0.08526479257047176,-0.021377572941035032,0.010779716156981884
1772788784299883800,9.1238837890625,-0.12561083148419858,-0.003715440326556563,0.016183858489152044
1772788784309949000,9.133948974609375,-0.12062018359005451,-0.02389927343837917,0.020622224529087543
1772788784320014800,9.144014892578125,-0.1412473765552044,-0.01635901412665844,0.024285331880208105
1772788784330080800,9.154080810546875,-0.11745032138228416,-0.0010354074623435735,0.019402966666128486
1772788784340146000,9.16414599609375,-0.1256745443701744,0.0009006751667708158,0.009676029231399296
1772788784350211800,9.1742119140625,-0.12959843981564045,-0.00032755145393311975,0.000700640816334635
1772788784360278000,9.184278076171875,-0.138937346047163,-0.016770809797942637,0.005021645820606499
1772788784370344000,9.194343994140626,-0.12751111214756966,-0.025535131011903283,0.005603025905136018
1772788784380408800,9.204408935546875,-0.12118424721360206,-0.029813977374881503,-0.011571852915361523
1772788784390474800,9.214474853515625,-0.11876198850274085,-0.04287519206516444,-0.01687748504281044
1772788784400541000,9.224541015625,-0.1063251162558794,-0.03450082001686096,-0.02048329098243266
1772788784410605800,9.234605712890625,-0.08791735290586948,-0.03046243134625256,-0.027457459110300987
1772788784420672000,9.244672119140626,-0.09419219539165496,-0.02954633941464126,-0.036827947790175675
1772788784430737700,9.254737548828125,-0.09268588248193263,-0.03158661307059228,-0.021356146560516206
1772788784440803800,9.264803955078126,-0.08309446279406547,-0.03803688518851995,-0.013392364607099442
1772788784450868700,9.27486865234375,-0.08770575598180294,-0.01947868051715195,-0.014562760093342512
1772788784460935000,9.284934814453125,-0.09633329907357692,-0.010421659966930747,-0.00006137479841709136
1772788784471000800,9.295000732421874,-0.09027239159941673,-0.009865341258421539,0.00005717354733496904
1772788784481065700,9.305065673828125,-0.08624562030136584,0.0006266074657440185,-0.004400591312814504
1772788784491132000,9.3151318359375,-0.103418288898468,0.0014184884957969188,0.012572682254668325
1772788784501197800,9.32519775390625,-0.10543839654922485,-0.005081248787045478,0.01915301049305126
1772788784511263700,9.335263671875,-0.0938420667797327,0.0016651567332446574,0.008636712778918445
1772788784521329000,9.345328857421874,-0.10841185940206051,0.02225888582020998,0.002388593903277069
1772788784531395000,9.35539501953125,-0.1332739134579897,0.01872486647516489,0.020563991535827518
1772788784541460700,9.365460693359376,-0.15440204168260097,-0.00798420368693769,0.024407862281333653
1772788784551526000,9.37552587890625,-0.13215455403923987,-0.018719094321504235,0.025419834069162605
1772788784561591800,9.385591796875,-0.11022095465064048,-0.004885360888764262,0.014168043421022593
1772788784571658000,9.395657958984375,-0.09055763828158378,-0.017579349701851606,0.0010671177748590708
1772788784581724000,9.405723876953125,-0.09279577259719371,-0.01232091771699488,-0.02279560477910563
1772788784591788800,9.415788818359376,-0.07564180870056152,-0.022764278059080243,-0.029683537661936134
1772788784601854700,9.425854736328125,-0.07313187170624733,-0.030958105908706783,-0.020199085479881612
1772788784611921000,9.4359208984375,-0.11055062499642372,-0.02495236268788576,0.002322615994978696
1772788784621985800,9.44598583984375,-0.11127718570530414,-0.019748802695423364,-0.0011810447444207965
1772788784632052000,9.456052001953125,-0.10134791236519813,-0.010869184538722038,-0.004879168609995395
1772788784642117600,9.46611767578125,-0.12083762573301791,-0.01472922096773982,0.006774097244814038
1772788784652183800,9.476183837890625,-0.10978548584282398,-0.012519362898543477,0.025292572693992404
1772788784662249000,9.4862490234375,-0.10293430477380752,-0.011206453669071198,0.02004573981538415
1772788784672315000,9.49631494140625,-0.1194528933763504,0.002874751718714833,0.02315223619705066
1772788784682380800,9.506380859375,-0.13150281213223933,0.002737316009402275,0.023596838159393518
1772788784692445700,9.51644580078125,-0.15571896950006484,0.008297069028392433,0.007784625994227826
1772788784702511900,9.526511962890625,-0.1361012458384037,0.0039472763210535045,0.008503441788069903
1772788784712577800,9.536577880859374,-0.1344271751463413,0.010552373674511908,-0.006938822819851339
1772788784722644000,9.54664404296875,-0.11898586038649081,0.004193067775666713,-0.007990231568925083
1772788784732708900,9.556708984375,-0.11372633242309092,-0.0042057811267673965,-0.006609207272995263
1772788784742774800,9.56677490234375,-0.09064064038991927,-0.01727700575441122,0.012168448835331946
1772788784752840700,9.5768408203125,-0.0964390975356102,-0.03891790580675006,-0.0063597808228805655
1772788784762907000,9.586906982421874,-0.06931903541982173,-0.024677418204024432,-0.022814254680648446
1772788784772971800,9.5969716796875,-0.06119125854372978,-0.0025784721858799456,-0.037571496166475114
1772788784783038000,9.607037841796876,-0.0828401957720518,-0.025280644794180986,-0.02075951410792768
1772788784793104000,9.617103759765625,-0.11299684910476207,-0.03963810984008014,-0.0029482553463429212
1772788784803168800,9.627168701171875,-0.1151478896588087,-0.04232523003220558,0.019058920735120773
1772788784813234700,9.637234619140624,-0.11894611289799213,-0.02732362186387181,0.016516798504255713
1772788784823300900,9.64730078125,-0.12665712566673754,-0.0249141495693475,0.011739775094483047
1772788784833366800,9.65736669921875,-0.1533756212443113,-0.031443770533800125,0.007402695738244801
1772788784843432000,9.667431884765625,-0.13133505434989928,-0.027163389800861477,-0.002466956369113177
1772788784853497900,9.677497802734376,-0.09885551102757453,-0.011801204691827296,-0.005478906335122883
1772788784863563800,9.687563720703125,-0.10861351945400237,-0.0018917320307344197,-0.002491341891698539
1772788784873629000,9.69762890625,-0.11122983943223953,-0.01328223702982068,0.0156296404061839
1772788784883694800,9.70769482421875,-0.10355331345498561,-0.013117401856929063,0.00278082635756582
1772788784893761000,9.717760986328125,-0.1058498999595642,0.0020610972482711077,0.011735628642328083
1772788784903827000,9.727826904296874,-0.10570376948714255,-0.0055457975588738915,0.025057832356356082
1772788784913891800,9.737891845703125,-0.09667933603227138,-0.01766125583164394,0.022923907333891838
1772788784923957800,9.747957763671875,-0.09915946241021156,-0.014214914770051837,0.022979966636374593
1772788784934024000,9.75802392578125,-0.10802256782352923,-0.026208354098349807,0.020815061953756958
1772788784944089900,9.76808984375,-0.13437339913249016,-0.026175036350637674,0.01821450580023229
1772788784954154800,9.77815478515625,-0.14279986669421196,-0.03128112731799483,0.006682583036459982
1772788784964220700,9.788220703125,-0.1495043327689171,-0.044990869044885036,0.00018534823795780537
1772788784974286800,9.798286865234376,-0.12856617415845392,-0.03582973053306341,-0.009846618291642517
1772788784984352000,9.80835205078125,-0.13340133922994135,-0.02065203514546156,-0.025520006508007644
1772788784994418000,9.81841796875,-0.12268763751387596,-0.023884295064955947,-0.018102862119302152
1772788785004483800,9.82848388671875,-0.1083896475702524,-0.019940160549059508,-0.013422942408453672
1772788785014549800,9.8385498046875,-0.10650514899790287,-0.022718100829795,0.005148651467449963
1772788785024615000,9.848614990234376,-0.12105915952920913,-0.019075214282795787,0.008161204221658409
1772788785034680800,9.858680908203125,-0.13217442778348923,-0.035291605068370695,0.00491248635770753
1772788785044746800,9.868746826171876,-0.1403220784038305,-0.030589126465842126,0.01673632300645113
1772788785054812000,9.87881201171875,-0.10988193195462226,-0.021436244325712322,0.0008811484823934734
1772788785064877800,9.8888779296875,-0.10098609331548214,-0.006666983608528972,-0.009159987734351307
1772788785074943700,9.89894384765625,-0.08038695740103721,-0.005656199130788445,0.008339903523121028
1772788785085010000,9.909010009765625,-0.09701251350939273,-0.00837049959078431,0.0065304064157418905
1772788785095074800,9.91907470703125,-0.10270283410549164,-0.010186901362985373,0.007312387106288224
1772788785105141000,9.92914111328125,-0.0878770208954811,-0.021543065701052546,0.010079568530991673
1772788785115207000,9.93920703125,-0.09880407310128211,-0.03241181184835732,0.017399590954463928
1772788785125272800,9.94927294921875,-0.10673077444732189,-0.0195499191224575,0.02277547530652955
1772788785135338200,9.959338134765625,-0.08798749553263187,-0.02539543028026819,0.013990367032866925
1772788785145404400,9.969404296875,-0.09107903180718421,-0.02407696809284389,0.00503521768823266
1772788785155470300,9.97947021484375,-0.1207949556350708,-0.02150974795334041,0.0019488690454512834
1772788785165535500,9.989535400390626,-0.1138537581950426,-0.025578385631740093,0.001665613390970975
1772788785175601200,9.99960107421875,-0.1220446634352207,-0.03596979659087956,0.013651764461956917
1772788785185667300,10.009667236328125,-0.11109306131005287,-0.032639556189626454,0.012633929188922047
1772788785195733200,10.019733154296874,-0.12529402061998843,-0.014661489493772387,-0.004677435492817312
1772788785205798400,10.02979833984375,-0.13307634505927562,-0.014990940643846987,-0.001240483314078301
1772788785215864300,10.0398642578125,-0.1273912851601839,-0.020910320755466817,0.004982172326743603
1772788785225930500,10.049930419921875,-0.11288286733627319,-0.011031608558818698,0.009010167467501013
1772788785235995400,10.059995361328125,-0.10408756646215915,-0.005659340935945511,0.015979056632053106
1772788785246061300,10.070061279296874,-0.09306815979778767,-0.01360087452493608,0.0007118380637839436
1772788785256127200,10.080127197265625,-0.12455167782008647,-0.016014438472688197,0.00523032013522461
1772788785266193400,10.090193359375,-0.13686930760145186,-0.019200009706243873,0.012594656624458729
1772788785276258300,10.10025830078125,-0.0878074627906084,-0.015576631577312946,0.010000822472665458
1772788785286324200,10.11032421875,-0.09275953224003314,0.0014053367532789705,0.0018271058293059467
1772788785296390400,10.120390380859375,-0.12645137396156786,-0.005292991841584444,0.014064783975947648
1772788785306456300,10.130456298828125,-0.13562895215153695,-0.010592267293483018,0.019653562160022557
1772788785316521500,10.140521484375,-0.1521352657943964,-0.005925006134808063,0.022003687216434628
1772788785326587400,10.15058740234375,-0.13646364941000938,-0.01717566427178681,0.02257576974965632
1772788785336653300,10.1606533203125,-0.10163140548169612,-0.01857756695896387,0.007971599933691322
1772788785346718200,10.17071826171875,-0.09416822999417782,-0.014677636910974979,-0.014817337642610073
1772788785356784400,10.180784423828126,-0.09432838899195194,-0.009399038920924066,-0.006591342822741717
1772788785366850300,10.190850341796875,-0.08131400911808014,-0.01539601431339979,-0.012243450300302355
1772788785376916500,10.20091650390625,-0.04945873517394066,-0.017050284326449037,-0.020901863454375415
1772788785386981400,10.2109814453125,-0.07160977670550346,0.0007438771698623896,-0.009556202244013547
1772788785397047300,10.22104736328125,-0.1151432134836912,-0.0024215280584990975,0.003986000896245241
1772788785407113200,10.23111328125,-0.13008417750596998,-0.002192760803923011,0.004372607327345759
1772788785417179400,10.241179443359375,-0.1396253283113241,0.004581482571363449,-0.004038808795716613
1772788785427244500,10.25124462890625,-0.16010405271649358,0.006439093136787414,0.01930942489746958
1772788785437310500,10.261310546875,-0.15560674129724503,-0.008330094515159725,0.036881778602953996
1772788785447376100,10.271376220703125,-0.1473848563969135,-0.013336889826506375,0.028481450129486618
1772788785457441300,10.281441162109376,-0.123334703245759,0.0004578998353332281,0.022753555735666304
1772788785467507500,10.291507568359375,-0.11515373487770557,0.015622224284708499,0.01761787334764376
1772788785477573400,10.301573486328126,-0.11598317143917083,0.003959112889319658,0.010384341897536068
1772788785487639600,10.3116396484375,-0.0874888983607292,-0.0024310265392065047,0.0011071757906116544
1772788785497704200,10.3217041015625,-0.12151216399371623,0.006604512831568717,0.0017162658659741281
1772788785507770400,10.331770263671874,-0.127521633541584,-0.00637479572892189,0.008144253086857497
1772788785517836300,10.341836181640625,-0.1071831943899393,-0.017012728795036673,0.023886925413459537
1772788785527902500,10.35190234375,-0.081163202470541,-0.00935585736632347,0.022180925213173032
1772788785537967400,10.36196728515625,-0.0516875171393156,0.0029869068562984463,-0.009810578863881527
1772788785548033300,10.372033203125,-0.0569119737893343,-0.003636602936685085,-0.005367134790029376
1772788785558099200,10.38209912109375,-0.08739479033648967,-0.010969503108039498,-0.00023402795158326625
1772788785568164400,10.392164306640625,-0.13848492610454557,-0.015645532095059752,0.020269502101279795
1772788785578230300,10.402230224609376,-0.1362397775262594,-0.011248612310364841,0.031919900145567955
1772788785588296400,10.41229638671875,-0.1599725352913141,-0.006462912403792142,0.04039495608936995
1772788785598362400,10.4223623046875,-0.21328853041529655,0.0006335486631840467,0.06974253979520872
1772788785608427300,10.43242724609375,-0.12690554746985436,-0.030703911951929327,0.0174426263785921
1772788785618493400,10.442493408203125,-0.06876081701517105,0.018128069625794885,-0.048271187623497094
1772788785628559400,10.452559326171874,-0.11080080036520958,0.011513473791629075,-0.007943689013458788
1772788785638625300,10.462625244140625,-0.11205226173102854,-0.034007483541965484,-0.002018975139595568
1772788785648690200,10.472690185546876,-0.09910685544013977,-0.020660364582389592,-0.01413704549456015
1772788785658756400,10.48275634765625,-0.09335749813318252,-0.011303045911341904,-0.018091537007689475
1772788785668822300,10.492822265625,-0.07168518002927303,-0.022457257936522364,-0.006226199304778129
1772788785678887400,10.502887451171874,-0.08600713537037372,-0.014519596805050968,0.01116475168550387
1772788785688953300,10.512953369140625,-0.11046645384430885,-0.023693887059390545,0.021414580483175814
1772788785699019500,10.52301953125,-0.09567571194767951,-0.022256839993596074,0.007719378738291561
1772788785709085200,10.533085205078125,-0.12657704616785048,-0.022240765641629693,-0.007127130199875683
1772788785719150300,10.543150390625,-0.1317740302890539,-0.01635214599445462,-0.004694788486417383
1772788785729216300,10.55321630859375,-0.14385492870509622,-0.006059080843254924,-0.0015385894778184592
1772788785739282400,10.563282470703125,-0.15397884783446789,-0.013621113595366477,0.00937664442602545
1772788785749348400,10.573348388671874,-0.1289677406966686,-0.006787906574457884,0.012167170193698257
1772788785759413200,10.583413330078125,-0.09453004904389381,-0.011072890417277813,-0.001970423290133476
1772788785769479200,10.593479248046876,-0.10227379503846168,0.001166924887523055,-0.009978884635493158
1772788785779545300,10.60354541015625,-0.1098673189073801,0.00031695699468255043,0.00040878173029050227
1772788785789610500,10.613610595703125,-0.10893734458088875,-0.012973828667774795,-0.0025657405684702097
1772788785799676400,10.623676513671874,-0.11506488755047321,-0.01503382993750274,0.009835220114793628
1772788785809742300,10.633742431640625,-0.1117757828772068,-0.013233356386795639,0.004912194096762686
1772788785819808300,10.643808349609374,-0.12718962510824203,-0.02060059721916914,0.015041282591596246
1772788785829873400,10.653873291015625,-0.10935936938524246,-0.021458967614173888,0.005495711339451372
1772788785839939300,10.663939208984376,-0.08508008365333079,-0.01901347415819764,0.010244147975556553
1772788785850005500,10.674005615234375,-0.08458148648142814,-0.012592282004281878,0.0042187319398857654
1772788785860071400,10.684071533203126,-0.09574760814011096,-0.015227306682989,0.0018412622188217938
1772788785870136300,10.69413623046875,-0.11051555368304251,-0.02013641377352178,-0.0013574972898699343
1772788785880202200,10.7042021484375,-0.11871522675156593,-0.017407646396756172,0.007146748215798288
1772788785890268400,10.714268310546874,-0.11196224536001681,-0.00900426744967699,0.012498557572532444
1772788785900333300,10.724333251953125,-0.09999708227813243,-0.019945494311302898,0.024184410522691904
1772788785910399500,10.7343994140625,-0.12320260129868983,-0.018452260078862307,0.01418928713845089
1772788785920465200,10.744465087890624,-0.1701993302732706,-0.01221175825409591,0.01753624121248722
1772788785930531300,10.75453125,-0.17800562011003493,-0.018363339686393736,0.022021222873125225
1772788785940596200,10.76459619140625,-0.1472065772205591,-0.019473858211562035,0.009717256290931254
1772788785950662400,10.774662353515625,-0.11281973897218704,0.001958952048048377,0.0031247626907192167
1772788785960728300,10.784728271484376,-0.09475099831819533,-0.01127425820827484,-0.006583853636030108
1772788785970793200,10.794793212890625,-0.06201075823307037,-0.011301219280436633,-0.0046834268421866
1772788785980859400,10.804859375,-0.0859773247539997,-0.0072631959360092875,-0.005432948301546275
1772788785990925300,10.81492529296875,-0.09554477904438972,0.001304872053489089,0.0008001374017447232
1772788786000991200,10.8249912109375,-0.18617957421541212,-0.005873714338988065,-0.004550393313355744
1772788786011056400,10.835056396484376,-0.23765724799633026,-0.025854718355089425,0.061181047676969316
1772788786021122600,10.84512255859375,-0.16623101116418837,-0.017439722035452722,0.037458847838547076
1772788786031188200,10.855188232421876,0.1921849521100521,0.006048851710185408,-0.034113629063870755
1772788786041254400,10.86525439453125,0.005212181690335273,0.05883899632915854,-0.005354476237855852
1772788786051319300,10.8753193359375,-0.25399580385684967,-0.0068309419985860586,0.06882237447667866
1772788786061385500,10.885385498046874,-0.1514899536281824,-0.07754464664719998,0.03392300186259672
1772788786071451400,10.895451416015625,-0.10129413635134696,-0.01686791349686682,0.023717870723176746
1772788786081516300,10.905516357421876,-0.16204174278080463,0.008001447082683443,0.0013548121424391865
1772788786091582200,10.915582275390625,-0.19794716889858244,-0.027127880096063015,0.025749157355073837
1772788786101648400,10.9256484375,-0.22874621178805826,-0.007668123475089669,0.027994744324777273
1772788786111714300,10.93571435546875,-0.1977753194630146,-0.041755613450706004,0.011069675546884535
1772788786121779500,10.945779541015625,-0.13776947131156922,-0.01760185379460454,0.003984740520920604
1772788786131845000,10.95584521484375,-0.03199614371955395,0.009868556128814815,-0.016955975372809916
1772788786141910800,10.965910888671875,0.00710544809103012,0.01308518008776009,-0.02245435359338298
1772788786151976000,10.975975830078125,0.06205109024345874,0.012874167685583233,-0.06167257578726858
1772788786162041900,10.986041748046874,0.05007774385511875,0.010958908648788929,-0.059418714179564264
