time,seconds_elapsed,z,y,x
1772808692254207700,0.071207763671875,-0.880218505859375,-0.3238677978515625,0.0551300048828125
1772808692264231700,0.081231689453125,-0.88714599609375,-0.32232666015625,0.059234619140625
1772808692274256000,0.091255859375,-0.9030609130859375,-0.3207244873046875,0.06329345703125
1772808692284278500,0.101278564453125,-0.919158935546875,-0.315521240234375,0.066253662109375
1772808692294302700,0.111302734375,-0.9207000732421875,-0.3124237060546875,0.0669097900390625
1772808692304326700,0.12132666015625,-0.929168701171875,-0.3095703125,0.0643768310546875
1772808692314350800,0.131350830078125,-0.9349365234375,-0.309722900390625,0.0625152587890625
1772808692324373800,0.141373779296875,-0.9352569580078125,-0.3084259033203125,0.0594635009765625
1772808692334397700,0.151397705078125,-0.9410552978515625,-0.3063507080078125,0.0586090087890625
1772808692344422000,0.161421875,-0.9443511962890625,-0.3077392578125,0.0600738525390625
1772808692354444800,0.17144482421875,-0.947418212890625,-0.3078460693359375,0.060302734375
1772808692364468700,0.18146875,-0.9523468017578125,-0.3050079345703125,0.0611419677734375
1772808692374492700,0.19149267578125,-0.9540557861328125,-0.30401611328125,0.0604705810546875
1772808692384516600,0.2015166015625,-0.9595794677734375,-0.3078765869140625,0.0603790283203125
1772808692394539800,0.211539794921875,-0.9591217041015625,-0.3066558837890625,0.0544891357421875
1772808692404563700,0.221563720703125,-0.9551849365234375,-0.3023681640625,0.0496978759765625
1772808692414587600,0.231587646484375,-0.946380615234375,-0.3045196533203125,0.04833984375
1772808692424611800,0.24161181640625,-0.9395599365234375,-0.3100128173828125,0.0540618896484375
1772808692434634800,0.251634765625,-0.94024658203125,-0.31451416015625,0.061065673828125
1772808692444658700,0.26165869140625,-0.94061279296875,-0.318450927734375,0.0697784423828125
1772808692454683000,0.271682861328125,-0.94158935546875,-0.3278656005859375,0.0761260986328125
1772808692464706600,0.28170654296875,-0.937042236328125,-0.3278045654296875,0.0774383544921875
1772808692474729700,0.291729736328125,-0.9294891357421875,-0.3299560546875,0.07427978515625
1772808692484754000,0.30175390625,-0.9232940673828125,-0.3325958251953125,0.0732879638671875
1772808692494777600,0.311777587890625,-0.92022705078125,-0.3314208984375,0.0728607177734375
1772808692504797400,0.32179736328125,-0.92437744140625,-0.3287811279296875,0.0721282958984375
1772808692514821400,0.3318212890625,-0.9224090576171875,-0.3266143798828125,0.067474365234375
1772808692524845300,0.34184521484375,-0.913330078125,-0.3236846923828125,0.060577392578125
1772808692534869500,0.351869384765625,-0.90252685546875,-0.3213653564453125,0.0507659912109375
1772808692544892400,0.361892333984375,-0.88983154296875,-0.316497802734375,0.0401763916015625
1772808692554916400,0.371916259765625,-0.8768157958984375,-0.3108062744140625,0.0311431884765625
1772808692564940500,0.3819404296875,-0.872711181640625,-0.31390380859375,0.028228759765625
1772808692574964200,0.391964111328125,-0.875030517578125,-0.3184356689453125,0.0240631103515625
1772808692584987400,0.4019873046875,-0.8825225830078125,-0.314361572265625,0.02490234375
1772808692595011600,0.412011474609375,-0.8815155029296875,-0.315338134765625,0.023101806640625
1772808692605035300,0.42203515625,-0.873138427734375,-0.3170166015625,0.0172576904296875
1772808692615059500,0.4320595703125,-0.857147216796875,-0.315673828125,0.011383056640625
1772808692625082400,0.442082275390625,-0.838623046875,-0.3127593994140625,0.013824462890625
1772808692635106300,0.452106201171875,-0.8280181884765625,-0.3072662353515625,0.02117919921875
1772808692645130500,0.462130615234375,-0.826171875,-0.29779052734375,0.0305023193359375
1772808692655154400,0.472154541015625,-0.8220062255859375,-0.2985076904296875,0.0406036376953125
1772808692665177300,0.48217724609375,-0.82275390625,-0.3051910400390625,0.0463409423828125
1772808692675201500,0.492201416015625,-0.8159027099609375,-0.307525634765625,0.039947509765625
1772808692685225500,0.5022255859375,-0.8048095703125,-0.29412841796875,0.0276947021484375
1772808692695249400,0.51224951171875,-0.8062591552734375,-0.281402587890625,0.015106201171875
1772808692705272300,0.522272216796875,-0.809326171875,-0.27459716796875,0.0114593505859375
1772808692715296300,0.532296142578125,-0.815460205078125,-0.266265869140625,0.011199951171875
1772808692725320400,0.542320556640625,-0.81475830078125,-0.26068115234375,0.0133056640625
1772808692735343400,0.55234326171875,-0.8120269775390625,-0.26214599609375,0.01580810546875
1772808692745367300,0.5623671875,-0.7996673583984375,-0.255767822265625,0.0117034912109375
1772808692755391200,0.57239111328125,-0.777801513671875,-0.2506866455078125,0.004974365234375
1772808692765415400,0.58241552734375,-0.77734375,-0.26507568359375,-0.0033111572265625
1772808692775438300,0.592438232421875,-0.796661376953125,-0.2309722900390625,0.0181884765625
1772808692785462300,0.602462158203125,-0.85784912109375,-0.247039794921875,0.01025390625
1772808692795486500,0.612486572265625,-0.8687896728515625,-0.27130126953125,0.013336181640625
1772808692805510400,0.622510498046875,-0.876617431640625,-0.2548675537109375,0.015289306640625
1772808692815533300,0.632533203125,-0.9074554443359375,-0.2464599609375,0.0117645263671875
1772808692825557500,0.6425576171875,-0.9370880126953125,-0.25390625,0.0137481689453125
1772808692835581200,0.652581298828125,-0.9733428955078125,-0.2590179443359375,0.0133819580078125
1772808692845605400,0.66260546875,-0.9898223876953125,-0.2594451904296875,0.010284423828125
1772808692855628500,0.672628662109375,-0.9909515380859375,-0.248870849609375,0.0057220458984375
1772808692865652200,0.68265234375,-0.98541259765625,-0.23956298828125,0.002166748046875
1772808692875676400,0.692676513671875,-0.9965667724609375,-0.237884521484375,0.0052642822265625
1772808692885700400,0.702700439453125,-1.0330963134765625,-0.2468109130859375,0.0114898681640625
1772808692895723300,0.71272314453125,-1.064605712890625,-0.263458251953125,0.0118255615234375
1772808692905747500,0.72274755859375,-1.11102294921875,-0.28448486328125,0.0109710693359375
1772808692915771400,0.732771484375,-1.1561126708984375,-0.3140106201171875,0.0103302001953125
1772808692925795300,0.74279541015625,-1.19580078125,-0.337860107421875,0.00897216796875
1772808692935818500,0.752818603515625,-1.2180633544921875,-0.34271240234375,0.0077362060546875
1772808692945842200,0.76284228515625,-1.2057342529296875,-0.350372314453125,-0.0143585205078125
1772808692955866400,0.772866455078125,-1.157501220703125,-0.319427490234375,-0.035003662109375
1772808692965889500,0.7828896484375,-1.111297607421875,-0.3087921142578125,-0.067657470703125
1772808692975913200,0.792913330078125,-1.063385009765625,-0.3227691650390625,-0.0864410400390625
1772808692985937400,0.8029375,-1.0342559814453125,-0.306182861328125,-0.08746337890625
1772808692995961300,0.81296142578125,-1.0446929931640625,-0.283660888671875,-0.0814971923828125
1772808693005984300,0.822984375,-1.06292724609375,-0.27825927734375,-0.0659027099609375
1772808693016008400,0.833008544921875,-1.082183837890625,-0.27386474609375,-0.0430145263671875
1772808693026032400,0.843032470703125,-1.1153411865234375,-0.2880401611328125,-0.0186309814453125
1772808693036056300,0.853056396484375,-1.1114959716796875,-0.31109619140625,-0.01055908203125
1772808693046079500,0.86307958984375,-1.0948638916015625,-0.317840576171875,-0.012176513671875
1772808693056103400,0.873103515625,-1.0704345703125,-0.32720947265625,-0.0194244384765625
1772808693066127400,0.88312744140625,-1.0516815185546875,-0.336181640625,-0.02984619140625
1772808693076151300,0.8931513671875,-1.050262451171875,-0.345184326171875,-0.0373687744140625
1772808693086174500,0.903174560546875,-1.0498809814453125,-0.3566741943359375,-0.037689208984375
1772808693096198400,0.913198486328125,-1.059967041015625,-0.3719482421875,-0.037872314453125
1772808693106222300,0.923222412109375,-1.057891845703125,-0.3874664306640625,-0.041107177734375
1772808693116246500,0.93324658203125,-1.0599212646484375,-0.3861541748046875,-0.04486083984375
1772808693126269400,0.94326953125,-1.07391357421875,-0.385986328125,-0.043609619140625
1772808693136293400,0.95329345703125,-1.0906219482421875,-0.394195556640625,-0.0418548583984375
1772808693146317600,0.963317626953125,-1.1034698486328125,-0.40106201171875,-0.037628173828125
1772808693156341200,0.97334130859375,-1.12493896484375,-0.403564453125,-0.02557373046875
1772808693166364400,0.983364501953125,-1.165496826171875,-0.41265869140625,-0.0113525390625
1772808693176388400,0.993388427734375,-1.1876068115234375,-0.4315185546875,-0.009063720703125
1772808693186412300,1.003412353515625,-1.1964111328125,-0.446868896484375,-0.014068603515625
1772808693196436500,1.0134365234375,-1.1970672607421875,-0.4598541259765625,-0.0213623046875
1772808693206459400,1.02345947265625,-1.1976318359375,-0.4651031494140625,-0.0244598388671875
1772808693216483300,1.0334833984375,-1.203826904296875,-0.47210693359375,-0.024383544921875
1772808693226507500,1.043507568359375,-1.19720458984375,-0.4740753173828125,-0.0278472900390625
1772808693236531200,1.05353125,-1.198760986328125,-0.4817352294921875,-0.0344696044921875
1772808693246554400,1.063554443359375,-1.182373046875,-0.505523681640625,-0.0352630615234375
1772808693256578600,1.07357861328125,-1.1810760498046875,-0.5369110107421875,-0.0293121337890625
1772808693266602200,1.083602294921875,-1.1928253173828125,-0.5692138671875,-0.0162200927734375
1772808693276626400,1.09362646484375,-1.19976806640625,-0.59490966796875,-0.009521484375
1772808693286649300,1.1036494140625,-1.2177734375,-0.6316986083984375,-0.0074920654296875
1772808693296673300,1.11367333984375,-1.2440643310546875,-0.659942626953125,-0.014984130859375
1772808693306697500,1.123697509765625,-1.2888031005859375,-0.670867919921875,-0.0210418701171875
1772808693316720400,1.133720458984375,-1.30535888671875,-0.6621551513671875,-0.028533935546875
1772808693326744300,1.143744384765625,-1.30120849609375,-0.6456756591796875,-0.0311126708984375
1772808693336768500,1.1537685546875,-1.290313720703125,-0.63201904296875,-0.0279998779296875
1772808693346792400,1.16379248046875,-1.26324462890625,-0.6059722900390625,-0.01739501953125
1772808693356815400,1.1738154296875,-1.242462158203125,-0.5706329345703125,-0.00567626953125
1772808693366839300,1.18383935546875,-1.204071044921875,-0.5274200439453125,0.007598876953125
1772808693376863500,1.193863525390625,-1.165618896484375,-0.49163818359375,0.0272979736328125
1772808693386887400,1.203887451171875,-1.1153106689453125,-0.4886016845703125,0.0334930419921875
1772808693396910300,1.213910400390625,-1.078887939453125,-0.496368408203125,0.016326904296875
1772808693406934300,1.223934326171875,-1.040374755859375,-0.50372314453125,-0.013397216796875
1772808693416958200,1.233958251953125,-0.9783782958984375,-0.497161865234375,-0.041290283203125
1772808693426982400,1.243982421875,-0.894012451171875,-0.5019378662109375,-0.0577545166015625
1772808693437005300,1.25400537109375,-0.80645751953125,-0.51763916015625,-0.0595245361328125
1772808693447029200,1.264029296875,-0.7494659423828125,-0.50311279296875,-0.0589752197265625
1772808693457053400,1.274053466796875,-0.713775634765625,-0.4652862548828125,-0.0594635009765625
1772808693467077400,1.284077392578125,-0.679290771484375,-0.420135498046875,-0.05743408203125
1772808693477100300,1.294100341796875,-0.65606689453125,-0.3628692626953125,-0.045745849609375
1772808693487124500,1.30412451171875,-0.62335205078125,-0.3034515380859375,-0.02374267578125
1772808693497148200,1.314148193359375,-0.5797119140625,-0.2534637451171875,0.003936767578125
1772808693507173000,1.324173095703125,-0.5339813232421875,-0.2152557373046875,0.0355682373046875
1772808693517196300,1.3341962890625,-0.46942138671875,-0.19189453125,0.0575103759765625
1772808693527220000,1.344219970703125,-0.3892669677734375,-0.178680419921875,0.0724334716796875
1772808693537244200,1.354244140625,-0.3313140869140625,-0.187408447265625,0.0560302734375
1772808693547268000,1.36426806640625,-0.31121826171875,-0.188262939453125,0.0299835205078125
1772808693557291000,1.374291015625,-0.326171875,-0.1778717041015625,0.012969970703125
1772808693567315200,1.384315185546875,-0.3350372314453125,-0.1846923828125,0.01251220703125
1772808693577339100,1.394339111328125,-0.33184814453125,-0.1953887939453125,0.016693115234375
1772808693587363000,1.404363037109375,-0.3353424072265625,-0.189849853515625,0.02288818359375
1772808693597386200,1.41438623046875,-0.3291473388671875,-0.1786956787109375,0.0195159912109375
1772808693607410200,1.42441015625,-0.3089752197265625,-0.1598358154296875,0.0110321044921875
1772808693617434000,1.43443408203125,-0.2859344482421875,-0.13916015625,0.0029449462890625
1772808693627458000,1.4444580078125,-0.2591400146484375,-0.121612548828125,0.0035552978515625
1772808693637481000,1.45448095703125,-0.2451324462890625,-0.11029052734375,0.019866943359375
1772808693647505200,1.464505126953125,-0.2426910400390625,-0.1070404052734375,0.0370941162109375
1772808693657529000,1.474529052734375,-0.239990234375,-0.10699462890625,0.04949951171875
1772808693667553300,1.48455322265625,-0.236663818359375,-0.1076812744140625,0.0556488037109375
1772808693677576200,1.494576171875,-0.2319793701171875,-0.1117095947265625,0.057586669921875
1772808693687600000,1.50460009765625,-0.2383575439453125,-0.1187286376953125,0.0622406005859375
1772808693697624000,1.5146240234375,-0.260711669921875,-0.128936767578125,0.07073974609375
1772808693707648000,1.52464794921875,-0.2899932861328125,-0.139434814453125,0.0851898193359375
1772808693717671200,1.534671142578125,-0.311920166015625,-0.160888671875,0.098480224609375
1772808693727695000,1.544695068359375,-0.3201141357421875,-0.2103118896484375,0.0981292724609375
1772808693737719000,1.554718994140625,-0.337005615234375,-0.26025390625,0.0936431884765625
1772808693747743200,1.5647431640625,-0.3963623046875,-0.294219970703125,0.091705322265625
1772808693757766000,1.574765869140625,-0.510589599609375,-0.3282012939453125,0.07501220703125
1772808693767790000,1.5847900390625,-0.6539154052734375,-0.351287841796875,0.05419921875
1772808693777814300,1.594814208984375,-0.8069915771484375,-0.3703765869140625,0.0574798583984375
1772808693787838000,1.604837890625,-0.9243621826171875,-0.4333953857421875,0.06365966796875
1772808693797861000,1.614861083984375,-0.993133544921875,-0.5264129638671875,0.06964111328125
1772808693807885000,1.624885009765625,-1.08953857421875,-0.56829833984375,0.0395355224609375
1772808693817909000,1.634908935546875,-1.1395111083984375,-0.486114501953125,-0.0218048095703125
1772808693827932200,1.64493212890625,-1.207977294921875,-0.38427734375,-0.06390380859375
1772808693837956000,1.6549560546875,-1.278564453125,-0.4354248046875,-0.074737548828125
1772808693847980000,1.66497998046875,-1.2955780029296875,-0.5448150634765625,-0.0589599609375
1772808693858004000,1.67500390625,-1.2924041748046875,-0.5832366943359375,-0.0418548583984375
1772808693868028200,1.685028076171875,-1.3060455322265625,-0.602081298828125,-0.0321197509765625
1772808693878051000,1.695051025390625,-1.3714447021484375,-0.6462860107421875,-0.0312957763671875
1772808693888075000,1.705074951171875,-1.4486541748046875,-0.71319580078125,-0.0385589599609375
1772808693898099200,1.71509912109375,-1.5158233642578125,-0.7736968994140625,-0.0486907958984375
1772808693908122000,1.7251220703125,-1.5536956787109375,-0.8224029541015625,-0.0593719482421875
1772808693918146000,1.73514599609375,-1.55120849609375,-0.8654022216796875,-0.069183349609375
1772808693928170000,1.745169921875,-1.5131072998046875,-0.89190673828125,-0.0806427001953125
1772808693938194000,1.75519384765625,-1.4686126708984375,-0.8916473388671875,-0.0947113037109375
1772808693948217000,1.765217041015625,-1.4267425537109375,-0.8577117919921875,-0.1020965576171875
1772808693958241000,1.775240966796875,-1.4194793701171875,-0.8235626220703125,-0.09228515625
1772808693968265000,1.785264892578125,-1.448150634765625,-0.8447265625,-0.05718994140625
1772808693978289200,1.7952890625,-1.4809417724609375,-0.820037841796875,-0.0314483642578125
1772808693988312000,1.80531201171875,-1.5315399169921875,-0.7983551025390625,-0.022796630859375
1772808693998336000,1.8153359375,-1.580657958984375,-0.765289306640625,-0.027587890625
1772808694008360200,1.825360107421875,-1.6018218994140625,-0.7326812744140625,-0.0283355712890625
1772808694018384000,1.8353837890625,-1.612457275390625,-0.7162017822265625,-0.02191162109375
1772808694028407000,1.845406982421875,-1.5908203125,-0.696563720703125,-0.01751708984375
1772808694038431200,1.85543115234375,-1.5686187744140625,-0.6851043701171875,-0.0021514892578125
1772808694048455000,1.865454833984375,-1.5352020263671875,-0.6796417236328125,0.01507568359375
1772808694058479000,1.87547900390625,-1.4968109130859375,-0.6681976318359375,0.02337646484375
1772808694068502300,1.885502197265625,-1.447906494140625,-0.655487060546875,0.0200958251953125
1772808694078526000,1.89552587890625,-1.3794403076171875,-0.6345062255859375,0.0128173828125
1772808694088550100,1.905550048828125,-1.3269195556640625,-0.6167144775390625,0.0152587890625
1772808694098574000,1.915573974609375,-1.2678375244140625,-0.60028076171875,0.018798828125
1772808694108597000,1.925596923828125,-1.204345703125,-0.5777740478515625,0.007965087890625
1772808694118621200,1.93562109375,-1.1685791015625,-0.552093505859375,-0.0194091796875
1772808694128645000,1.94564501953125,-1.1399993896484375,-0.5282440185546875,-0.056640625
1772808694138669000,1.9556689453125,-1.131622314453125,-0.5005645751953125,-0.0966644287109375
1772808694148692200,1.965692138671875,-1.0897979736328125,-0.4625244140625,-0.12786865234375
1772808694158716000,1.9757158203125,-1.02264404296875,-0.4373931884765625,-0.1494140625
1772808694168740000,1.985739990234375,-0.9453887939453125,-0.414031982421875,-0.1653289794921875
1772808694178764000,1.995763916015625,-0.869659423828125,-0.3818359375,-0.16717529296875
1772808694188787000,2.005786865234375,-0.8184051513671875,-0.354583740234375,-0.156646728515625
1772808694198811100,2.01581103515625,-0.7597503662109375,-0.33868408203125,-0.1433258056640625
1772808694208835000,2.0258349609375,-0.6955718994140625,-0.3152313232421875,-0.1312103271484375
1772808694218859300,2.035859375,-0.628387451171875,-0.2801513671875,-0.1228485107421875
1772808694228882200,2.045882080078125,-0.563385009765625,-0.251251220703125,-0.1103363037109375
1772808694238906000,2.055906005859375,-0.497039794921875,-0.2314453125,-0.0922088623046875
1772808694248930000,2.065929931640625,-0.4250030517578125,-0.2122039794921875,-0.0820465087890625
1772808694258954000,2.0759541015625,-0.3632965087890625,-0.196441650390625,-0.077301025390625
1772808694268977200,2.08597705078125,-0.2938079833984375,-0.191009521484375,-0.0716400146484375
1772808694279001000,2.0960009765625,-0.23876953125,-0.1931610107421875,-0.064361572265625
1772808694289025000,2.10602490234375,-0.2035980224609375,-0.19415283203125,-0.0608673095703125
1772808694299049200,2.11604931640625,-0.1710205078125,-0.192108154296875,-0.058990478515625
1772808694309072100,2.126072021484375,-0.143310546875,-0.1843414306640625,-0.05596923828125
1772808694319096000,2.136095947265625,-0.122314453125,-0.1718902587890625,-0.0477294921875
1772808694329120300,2.146120361328125,-0.113983154296875,-0.1522064208984375,-0.03851318359375
1772808694339144000,2.15614404296875,-0.120880126953125,-0.1379547119140625,-0.0315093994140625
1772808694349167000,2.1661669921875,-0.1308746337890625,-0.1357269287109375,-0.025390625
1772808694359191300,2.17619140625,-0.1237945556640625,-0.1149139404296875,-0.0054931640625
1772808694369215000,2.186215087890625,-0.1403656005859375,-0.100677490234375,0.009735107421875
1772808694379239200,2.1962392578125,-0.172119140625,-0.1018829345703125,0.023895263671875
1772808694389262000,2.206261962890625,-0.1821746826171875,-0.1056365966796875,0.037078857421875
1772808694399286000,2.2162861328125,-0.195587158203125,-0.09661865234375,0.04718017578125
1772808694409310200,2.226310302734375,-0.2125244140625,-0.0961151123046875,0.0410919189453125
1772808694419334100,2.236334228515625,-0.2141265869140625,-0.107940673828125,0.0530242919921875
1772808694429357000,2.246357177734375,-0.2195281982421875,-0.1387786865234375,0.05902099609375
1772808694439381200,2.25638134765625,-0.241943359375,-0.172943115234375,0.0610504150390625
1772808694449405200,2.2664052734375,-0.2752685546875,-0.19677734375,0.0565338134765625
1772808694459429000,2.27642919921875,-0.305206298828125,-0.2227020263671875,0.0585479736328125
1772808694469452000,2.2864521484375,-0.334869384765625,-0.2575836181640625,0.060882568359375
1772808694479476000,2.29647607421875,-0.3826751708984375,-0.28680419921875,0.0754547119140625
1772808694489500200,2.306500244140625,-0.4862213134765625,-0.3169097900390625,0.094573974609375
1772808694499524000,2.316524169921875,-0.6245880126953125,-0.3506317138671875,0.108673095703125
1772808694509546500,2.32654638671875,-0.786865234375,-0.4034423828125,0.1179351806640625
1772808694519570400,2.3365703125,-0.9542236328125,-0.47406005859375,0.1305694580078125
1772808694529594400,2.346594482421875,-1.1382598876953125,-0.5088043212890625,0.105224609375
1772808694539618600,2.35661865234375,-1.3311767578125,-0.466461181640625,0.0498504638671875
1772808694549641500,2.366641357421875,-1.46673583984375,-0.39306640625,0.0119171142578125
1772808694559665400,2.37666552734375,-1.5722198486328125,-0.34796142578125,0.0019073486328125
1772808694569689600,2.386689697265625,-1.5891571044921875,-0.3762054443359375,0.0147247314453125
1772808694579713300,2.39671337890625,-1.5284423828125,-0.450714111328125,0.0523529052734375
1772808694589736400,2.406736328125,-1.421844482421875,-0.5244598388671875,0.09234619140625
1772808694599760600,2.4167607421875,-1.30889892578125,-0.5825958251953125,0.0909423828125
1772808694609784300,2.426784423828125,-1.277923583984375,-0.613189697265625,0.071380615234375
1772808694619808500,2.43680859375,-1.3468170166015625,-0.635955810546875,0.06561279296875
1772808694629831700,2.446831787109375,-1.4659423828125,-0.6769866943359375,0.0498199462890625
1772808694639855400,2.45685546875,-1.55291748046875,-0.722442626953125,0.0306396484375
1772808694649879600,2.466879638671875,-1.6093902587890625,-0.7239532470703125,0.016937255859375
1772808694659903500,2.476903564453125,-1.682891845703125,-0.7050323486328125,0.01141357421875
1772808694669926400,2.486926513671875,-1.698211669921875,-0.685455322265625,0.0121307373046875
1772808694679950600,2.49695068359375,-1.690216064453125,-0.6628265380859375,0.01214599609375
1772808694689974500,2.506974609375,-1.635009765625,-0.6626129150390625,0.02093505859375
1772808694699998500,2.51699853515625,-1.6041412353515625,-0.691375732421875,0.030120849609375
1772808694710021400,2.527021484375,-1.60198974609375,-0.716400146484375,0.0338134765625
1772808694720045600,2.537045654296875,-1.58502197265625,-0.7396697998046875,0.024932861328125
1772808694730069500,2.547069580078125,-1.5770721435546875,-0.7536468505859375,-0.0024261474609375
1772808694740093400,2.557093505859375,-1.5696868896484375,-0.7546844482421875,-0.0301361083984375
1772808694750116400,2.567116455078125,-1.5593414306640625,-0.759063720703125,-0.050994873046875
1772808694760140500,2.577140625,-1.55029296875,-0.7672271728515625,-0.0620880126953125
1772808694770164500,2.58716455078125,-1.5139312744140625,-0.7528228759765625,-0.078948974609375
1772808694780188700,2.597188720703125,-1.517547607421875,-0.7225189208984375,-0.09027099609375
1772808694790211300,2.60721142578125,-1.551513671875,-0.6920318603515625,-0.0953521728515625
1772808694800235500,2.617235595703125,-1.51019287109375,-0.6285858154296875,-0.101837158203125
1772808694810259500,2.627259521484375,-1.4633636474609375,-0.5718231201171875,-0.093353271484375
1772808694820283400,2.637283447265625,-1.402862548828125,-0.553253173828125,-0.0641021728515625
1772808694830307600,2.6473076171875,-1.326385498046875,-0.5223388671875,-0.0308074951171875
1772808694840330200,2.657330322265625,-1.239532470703125,-0.4854278564453125,0.003082275390625
1772808694850354400,2.6673544921875,-1.16375732421875,-0.4583892822265625,0.0328369140625
1772808694860378600,2.677378662109375,-1.0840606689453125,-0.424163818359375,0.040283203125
1772808694870401300,2.6874013671875,-1.0016326904296875,-0.3907470703125,0.0377655029296875
1772808694880425500,2.697425537109375,-0.93170166015625,-0.383270263671875,0.0339508056640625
1772808694890449400,2.707449462890625,-0.8812103271484375,-0.3912200927734375,0.0210113525390625
1772808694900473300,2.717473388671875,-0.88226318359375,-0.40277099609375,-0.0064697265625
1772808694910497500,2.72749755859375,-0.8563690185546875,-0.401092529296875,-0.0570831298828125
1772808694920520400,2.7375205078125,-0.833709716796875,-0.3839111328125,-0.119537353515625
1772808694930544400,2.74754443359375,-0.8122711181640625,-0.329986572265625,-0.1678924560546875
1772808694940568300,2.757568359375,-0.7980499267578125,-0.2660369873046875,-0.180755615234375
1772808694950592500,2.767592529296875,-0.7915802001953125,-0.235565185546875,-0.164031982421875
1772808694960615400,2.777615478515625,-0.73565673828125,-0.2444000244140625,-0.1436767578125
1772808694970639400,2.787639404296875,-0.652252197265625,-0.2410125732421875,-0.1329345703125
1772808694980663600,2.79766357421875,-0.55963134765625,-0.2094268798828125,-0.12469482421875
1772808694990687500,2.8076875,-0.458160400390625,-0.1783294677734375,-0.121337890625
1772808695000710400,2.81771044921875,-0.3610382080078125,-0.1578521728515625,-0.1192626953125
1772808695010734600,2.827734619140625,-0.2777557373046875,-0.1448516845703125,-0.11065673828125
1772808695020758300,2.83775830078125,-0.2104644775390625,-0.141632080078125,-0.09130859375
1772808695030782500,2.847782470703125,-0.1654815673828125,-0.14385986328125,-0.0709991455078125
1772808695040805400,2.857805419921875,-0.1438446044921875,-0.139862060546875,-0.045684814453125
1772808695050829300,2.867829345703125,-0.1280517578125,-0.127777099609375,-0.0140228271484375
1772808695060853500,2.877853515625,-0.116973876953125,-0.14044189453125,0.0011444091796875
1772808695070877400,2.88787744140625,-0.106048583984375,-0.1452178955078125,0.02630615234375
1772808695080900400,2.897900390625,-0.0861053466796875,-0.1291961669921875,0.0533294677734375
1772808695090924500,2.907924560546875,-0.0802459716796875,-0.1145477294921875,0.06292724609375
1772808695100948500,2.917948486328125,-0.0768585205078125,-0.1037139892578125,0.0721435546875
1772808695110972400,2.927972412109375,-0.06842041015625,-0.0984344482421875,0.0825958251953125
1772808695120995600,2.93799560546875,-0.072021484375,-0.104034423828125,0.083892822265625
1772808695131019300,2.948019287109375,-0.0899200439453125,-0.1169281005859375,0.08221435546875
1772808695141043500,2.95804345703125,-0.1097259521484375,-0.129791259765625,0.082794189453125
1772808695151067400,2.9680673828125,-0.1464080810546875,-0.1385040283203125,0.083984375
1772808695161090300,2.97809033203125,-0.196807861328125,-0.1414642333984375,0.0807037353515625
1772808695171114500,2.988114501953125,-0.238983154296875,-0.1423187255859375,0.084075927734375
1772808695181138400,2.998138427734375,-0.2781219482421875,-0.152069091796875,0.0857086181640625
1772808695191162400,3.008162353515625,-0.29351806640625,-0.179046630859375,0.0849151611328125
1772808695201186300,3.018186279296875,-0.27899169921875,-0.219207763671875,0.08917236328125
1772808695211209500,3.02820947265625,-0.266754150390625,-0.265899658203125,0.0971527099609375
1772808695221233400,3.0382333984375,-0.335693359375,-0.295318603515625,0.085693359375
1772808695231257300,3.04825732421875,-0.501800537109375,-0.289794921875,0.057037353515625
1772808695241281500,3.058281494140625,-0.686676025390625,-0.296051025390625,0.0187835693359375
1772808695251304400,3.068304443359375,-0.8319244384765625,-0.3840179443359375,-0.0044097900390625
1772808695261328400,3.078328369140625,-0.9459075927734375,-0.548858642578125,-0.0225067138671875
1772808695271352600,3.0883525390625,-1.0888519287109375,-0.6582489013671875,-0.04095458984375
1772808695281376300,3.098376220703125,-1.287384033203125,-0.63262939453125,-0.054718017578125
1772808695291399400,3.1083994140625,-1.4274444580078125,-0.5724945068359375,-0.071563720703125
1772808695301423600,3.118423583984375,-1.4990692138671875,-0.570709228515625,-0.0906982421875
1772808695311447300,3.128447265625,-1.5385589599609375,-0.6332550048828125,-0.09832763671875
1772808695321471500,3.138471435546875,-1.5284271240234375,-0.683685302734375,-0.0812835693359375
1772808695331494700,3.14849462890625,-1.4620208740234375,-0.6957244873046875,-0.0591278076171875
1772808695341518300,3.158518310546875,-1.41400146484375,-0.69598388671875,-0.0464935302734375
1772808695351542500,3.16854248046875,-1.4058837890625,-0.7113494873046875,-0.039794921875
1772808695361566500,3.17856640625,-1.440155029296875,-0.7456817626953125,-0.0402069091796875
1772808695371589400,3.18858935546875,-1.4751129150390625,-0.7916717529296875,-0.0324554443359375
1772808695381613600,3.198613525390625,-1.4794921875,-0.8207550048828125,-0.0351409912109375
1772808695391637500,3.208637451171875,-1.50006103515625,-0.8300323486328125,-0.0665435791015625
1772808695401661400,3.218661376953125,-1.4793243408203125,-0.81610107421875,-0.095794677734375
1772808695411684600,3.2286845703125,-1.476715087890625,-0.7840576171875,-0.1103973388671875
1772808695421708300,3.238708251953125,-1.4766998291015625,-0.770355224609375,-0.1120452880859375
1772808695431732500,3.248732421875,-1.4626007080078125,-0.781890869140625,-0.09954833984375
1772808695441756400,3.25875634765625,-1.440948486328125,-0.78045654296875,-0.0734100341796875
1772808695451779300,3.268779296875,-1.487640380859375,-0.79644775390625,-0.0241546630859375
1772808695461803500,3.278803466796875,-1.5126800537109375,-0.8252105712890625,0.01934814453125
1772808695471827500,3.288827392578125,-1.520355224609375,-0.8233489990234375,0.045745849609375
1772808695481851400,3.298851318359375,-1.5594329833984375,-0.8120269775390625,0.057861328125
1772808695491875300,3.308875244140625,-1.5749053955078125,-0.8033599853515625,0.0429840087890625
1772808695501898500,3.3188984375,-1.57940673828125,-0.791259765625,0.0058135986328125
1772808695511922700,3.328922607421875,-1.5484619140625,-0.8031768798828125,-0.0243682861328125
1772808695521946600,3.338946533203125,-1.5104217529296875,-0.8173828125,-0.0418853759765625
1772808695531970800,3.348970703125,-1.469207763671875,-0.82464599609375,-0.048370361328125
1772808695541993700,3.35899365234375,-1.4129486083984375,-0.82421875,-0.052337646484375
1772808695552017700,3.369017578125,-1.359100341796875,-0.8072967529296875,-0.0501251220703125
1772808695562041600,3.37904150390625,-1.298614501953125,-0.7777862548828125,-0.0391845703125
1772808695572065500,3.3890654296875,-1.2314605712890625,-0.7394866943359375,-0.018768310546875
1772808695582088700,3.399088623046875,-1.1880645751953125,-0.7000579833984375,0.0106353759765625
1772808695592112600,3.409112548828125,-1.1284027099609375,-0.655181884765625,0.033050537109375
1772808695602136600,3.419136474609375,-1.0517120361328125,-0.6123046875,0.046356201171875
1772808695612160800,3.429160888671875,-0.9684295654296875,-0.5785980224609375,0.0472564697265625
1772808695622183700,3.43918359375,-0.8945159912109375,-0.54620361328125,0.0300750732421875
1772808695632207600,3.44920751953125,-0.7843170166015625,-0.506683349609375,0.0064849853515625
1772808695642231800,3.459231689453125,-0.6901397705078125,-0.47076416015625,-0.006195068359375
1772808695652255500,3.46925537109375,-0.6157989501953125,-0.4395294189453125,-0.0064697265625
1772808695662278700,3.479278564453125,-0.554168701171875,-0.4119110107421875,0.0041351318359375
1772808695672302800,3.489302734375,-0.5078277587890625,-0.376190185546875,0.01806640625
1772808695682326500,3.499326416015625,-0.467254638671875,-0.34283447265625,0.0281829833984375
1772808695692350700,3.509350830078125,-0.4369049072265625,-0.3102569580078125,0.0332794189453125
1772808695702374700,3.519374755859375,-0.4140472412109375,-0.271636962890625,0.0380096435546875
1772808695712397600,3.5293974609375,-0.3896026611328125,-0.2314300537109375,0.0364532470703125
1772808695722421800,3.539421875,-0.3638153076171875,-0.1942901611328125,0.0279541015625
1772808695732445700,3.54944580078125,-0.3301239013671875,-0.1617584228515625,0.0179901123046875
1772808695742469600,3.5594697265625,-0.2929229736328125,-0.124969482421875,0.00469970703125
1772808695752492500,3.569492431640625,-0.256011962890625,-0.09771728515625,-0.0094451904296875
1772808695762516700,3.579516845703125,-0.2270050048828125,-0.0912628173828125,-0.0225677490234375
1772808695772540700,3.589540771484375,-0.19866943359375,-0.09478759765625,-0.033843994140625
1772808695782564600,3.599564697265625,-0.1724395751953125,-0.0990142822265625,-0.04290771484375
1772808695792587500,3.60958740234375,-0.165863037109375,-0.1016845703125,-0.043670654296875
1772808695802611700,3.61961181640625,-0.1711578369140625,-0.1147308349609375,-0.0420684814453125
1772808695812635600,3.6296357421875,-0.18035888671875,-0.126800537109375,-0.036956787109375
1772808695822659800,3.639659912109375,-0.1859893798828125,-0.1199951171875,-0.0301361083984375
1772808695832682500,3.6496826171875,-0.201690673828125,-0.1090240478515625,-0.0168914794921875
1772808695842706700,3.659706787109375,-0.2152557373046875,-0.1011810302734375,-0.0020294189453125
1772808695852730600,3.669730712890625,-0.2132415771484375,-0.093505859375,0.011383056640625
1772808695862754600,3.679754638671875,-0.2083282470703125,-0.087677001953125,0.0178070068359375
1772808695872778800,3.68977880859375,-0.2081451416015625,-0.0820770263671875,0.0222625732421875
1772808695882801400,3.699801513671875,-0.2126922607421875,-0.0767974853515625,0.023773193359375
1772808695892825600,3.70982568359375,-0.2180023193359375,-0.0761871337890625,0.02203369140625
1772808695902849800,3.719849853515625,-0.247283935546875,-0.081573486328125,0.02105712890625
1772808695912873500,3.72987353515625,-0.287811279296875,-0.09649658203125,0.02288818359375
1772808695922896600,3.739896728515625,-0.2950439453125,-0.13079833984375,0.0292816162109375
1772808695932920600,3.749920654296875,-0.3160247802734375,-0.1807861328125,0.0241241455078125
1772808695942944500,3.759944580078125,-0.3708648681640625,-0.22265625,0.015533447265625
1772808695952968700,3.76996875,-0.428558349609375,-0.23529052734375,-0.004638671875
1772808695962991600,3.77999169921875,-0.53057861328125,-0.2375335693359375,-0.0330657958984375
1772808695973015600,3.790015625,-0.7097930908203125,-0.2713470458984375,-0.05596923828125
1772808695983039700,3.800039794921875,-0.8990631103515625,-0.3547821044921875,-0.0502166748046875
1772808695993063700,3.810063720703125,-1.0573577880859375,-0.4871673583984375,-0.0433349609375
1772808696003087600,3.820087646484375,-1.2014617919921875,-0.595672607421875,-0.0409088134765625
1772808696013110500,3.830110595703125,-1.2887420654296875,-0.60894775390625,-0.049285888671875
1772808696023134700,3.840134765625,-1.385101318359375,-0.539398193359375,-0.0789947509765625
1772808696033158700,3.85015869140625,-1.4727935791015625,-0.480865478515625,-0.1176300048828125
1772808696043182600,3.8601826171875,-1.51739501953125,-0.50634765625,-0.163848876953125
1772808696053205800,3.870205810546875,-1.5733642578125,-0.5266265869140625,-0.18927001953125
1772808696063229400,3.8802294921875,-1.5905914306640625,-0.584625244140625,-0.1594085693359375
1772808696073253600,3.890253662109375,-1.56683349609375,-0.6887664794921875,-0.1084136962890625
1772808696083277800,3.90027783203125,-1.58636474609375,-0.7523956298828125,-0.0728302001953125
1772808696093300500,3.910300537109375,-1.6081695556640625,-0.7676849365234375,-0.072906494140625
1772808696103324700,3.92032470703125,-1.649932861328125,-0.7712860107421875,-0.098541259765625
1772808696113348600,3.9303486328125,-1.6705169677734375,-0.780426025390625,-0.11138916015625
1772808696123372500,3.94037255859375,-1.6598968505859375,-0.7798614501953125,-0.123443603515625
1772808696133395700,3.950395751953125,-1.633636474609375,-0.789276123046875,-0.138671875
1772808696143419400,3.96041943359375,-1.58111572265625,-0.7985382080078125,-0.1489410400390625
1772808696153443600,3.970443603515625,-1.5496063232421875,-0.7938995361328125,-0.1445770263671875
1772808696163467500,3.980467529296875,-1.531585693359375,-0.808929443359375,-0.1270904541015625
1772808696173491700,3.99049169921875,-1.5283355712890625,-0.820648193359375,-0.11328125
1772808696183514600,4.0005146484375,-1.5134735107421875,-0.8300933837890625,-0.1111602783203125
1772808696193538600,4.01053857421875,-1.4777374267578125,-0.8217315673828125,-0.1117706298828125
1772808696203562800,4.020562744140625,-1.464141845703125,-0.79913330078125,-0.0971527099609375
1772808696213586700,4.030586669921875,-1.448822021484375,-0.785797119140625,-0.071624755859375
1772808696223609600,4.040609619140625,-1.449615478515625,-0.7646331787109375,-0.0428314208984375
1772808696233633500,4.050633544921875,-1.44866943359375,-0.7289581298828125,-0.026031494140625
1772808696243657500,4.060657470703125,-1.4106903076171875,-0.68658447265625,-0.023345947265625
1772808696253681700,4.070681640625,-1.3984222412109375,-0.6696929931640625,-0.0222015380859375
1772808696263704600,4.08070458984375,-1.3870697021484375,-0.6781005859375,-0.01275634765625
1772808696273728500,4.090728515625,-1.361328125,-0.668304443359375,-0.011474609375
1772808696283752700,4.100752685546875,-1.327911376953125,-0.6569976806640625,-0.0245819091796875
1772808696293776600,4.110776611328125,-1.2733154296875,-0.643035888671875,-0.0434417724609375
1772808696303800600,4.120800537109375,-1.219970703125,-0.626739501953125,-0.0591583251953125
1772808696313823700,4.13082373046875,-1.162811279296875,-0.606353759765625,-0.07708740234375
1772808696323847400,4.140847412109375,-1.10040283203125,-0.5796966552734375,-0.0986175537109375
1772808696333871600,4.15087158203125,-1.03631591796875,-0.5435028076171875,-0.1225128173828125
1772808696343895600,4.1608955078125,-0.985809326171875,-0.4905242919921875,-0.1400909423828125
1772808696353918500,4.17091845703125,-0.934722900390625,-0.4336700439453125,-0.150604248046875
1772808696363942700,4.180942626953125,-0.873931884765625,-0.380889892578125,-0.143585205078125
1772808696373966600,4.190966552734375,-0.844268798828125,-0.341461181640625,-0.104461669921875
1772808696383990500,4.200990478515625,-0.852874755859375,-0.3224639892578125,-0.0556640625
1772808696394014700,4.2110146484375,-0.84075927734375,-0.3051605224609375,-0.02813720703125
1772808696404037600,4.22103759765625,-0.800048828125,-0.278411865234375,-0.0244903564453125
1772808696414061600,4.2310615234375,-0.7465667724609375,-0.245513916015625,-0.034271240234375
1772808696424085500,4.24108544921875,-0.6809234619140625,-0.2136688232421875,-0.0538787841796875
1772808696434109700,4.251109619140625,-0.604248046875,-0.193359375,-0.0661773681640625
1772808696444132600,4.261132568359375,-0.5057830810546875,-0.1856536865234375,-0.0767669677734375
1772808696454156500,4.271156494140625,-0.406341552734375,-0.1792755126953125,-0.091033935546875
1772808696464180700,4.2811806640625,-0.307464599609375,-0.167449951171875,-0.102447509765625
1772808696474204400,4.291204345703125,-0.223358154296875,-0.155670166015625,-0.1096954345703125
1772808696484227600,4.3012275390625,-0.1613922119140625,-0.140533447265625,-0.11102294921875
1772808696494251800,4.311251708984375,-0.1202239990234375,-0.124664306640625,-0.105316162109375
1772808696504275500,4.321275390625,-0.0929718017578125,-0.1104888916015625,-0.0916900634765625
1772808696514303200,4.33130322265625,-0.075469970703125,-0.09490966796875,-0.072235107421875
1772808696524327200,4.3413271484375,-0.06939697265625,-0.0797576904296875,-0.0471649169921875
1772808696534350000,4.35135009765625,-0.0619049072265625,-0.0652618408203125,-0.0244598388671875
1772808696544374300,4.361374267578125,-0.0573272705078125,-0.060546875,0.0017547607421875
1772808696554398200,4.371398193359375,-0.0697784423828125,-0.0597076416015625,0.01953125
1772808696564422100,4.381422119140625,-0.0874481201171875,-0.0560150146484375,0.0335235595703125
1772808696574445300,4.3914453125,-0.0907440185546875,-0.0603485107421875,0.0404205322265625
1772808696584469200,4.40146923828125,-0.0959625244140625,-0.0675201416015625,0.0423736572265625
1772808696594493200,4.4114931640625,-0.109344482421875,-0.07513427734375,0.0488739013671875
1772808696604517000,4.42151708984375,-0.126434326171875,-0.0896148681640625,0.0514373779296875
1772808696614541300,4.431541259765625,-0.1428680419921875,-0.1063385009765625,0.0493621826171875
1772808696624564200,4.441564208984375,-0.1671600341796875,-0.11944580078125,0.0457000732421875
1772808696634588200,4.451588134765625,-0.1880645751953125,-0.1406402587890625,0.047119140625
1772808696644612400,4.4616123046875,-0.2007904052734375,-0.1771392822265625,0.041961669921875
1772808696654636000,4.471635986328125,-0.1970062255859375,-0.2257843017578125,0.0325164794921875
1772808696664659200,4.4816591796875,-0.2132415771484375,-0.2752838134765625,0.0294647216796875
1772808696674683400,4.491683349609375,-0.29107666015625,-0.3244171142578125,0.0206146240234375
1772808696684707000,4.50170703125,-0.424072265625,-0.3683319091796875,0.001190185546875
1772808696694731300,4.511731201171875,-0.63140869140625,-0.4071044921875,-0.020233154296875
1772808696704754400,4.52175439453125,-0.8424530029296875,-0.45556640625,-0.0272979736328125
1772808696714778000,4.531778076171875,-0.9895172119140625,-0.546112060546875,-0.0315093994140625
1772808696724802300,4.54180224609375,-1.1031951904296875,-0.641845703125,-0.076690673828125
1772808696734826200,4.551826171875,-1.24560546875,-0.6487274169921875,-0.141143798828125
1772808696744850200,4.56185009765625,-1.372344970703125,-0.5813751220703125,-0.16375732421875
1772808696754873300,4.571873291015625,-1.4717559814453125,-0.5253448486328125,-0.15838623046875
1772808696764897300,4.581897216796875,-1.541015625,-0.55120849609375,-0.1703033447265625
1772808696774921200,4.591921142578125,-1.610443115234375,-0.602447509765625,-0.18634033203125
1772808696784945200,4.601945068359375,-1.637298583984375,-0.6374053955078125,-0.19036865234375
1772808696794968000,4.611968017578125,-1.63714599609375,-0.68927001953125,-0.190887451171875
1772808696804992300,4.6219921875,-1.649627685546875,-0.7358856201171875,-0.1681365966796875
1772808696815016200,4.63201611328125,-1.6257476806640625,-0.7941741943359375,-0.1230621337890625
1772808696825040400,4.642040283203125,-1.5928802490234375,-0.880615234375,-0.082672119140625
1772808696835063300,4.652063232421875,-1.5397796630859375,-0.9415740966796875,-0.0762176513671875
1772808696845087200,4.662087158203125,-1.471893310546875,-0.932861328125,-0.0902557373046875
1772808696855111400,4.672111328125,-1.45458984375,-0.9108428955078125,-0.0850372314453125
1772808696865135000,4.682135009765625,-1.47705078125,-0.8906707763671875,-0.04827880859375
1772808696875158300,4.692158203125,-1.5151214599609375,-0.8647308349609375,-0.0037994384765625
1772808696885182200,4.70218212890625,-1.5452880859375,-0.8375701904296875,0.0316162109375
1772808696895206100,4.7122060546875,-1.590606689453125,-0.8023834228515625,0.053863525390625
1772808696905230300,4.722230224609375,-1.646636962890625,-0.7788848876953125,0.076904296875
1772808696915254300,4.732254150390625,-1.6609039306640625,-0.768890380859375,0.0897369384765625
1772808696925277200,4.742277099609375,-1.650177001953125,-0.7396697998046875,0.083709716796875
1772808696935301400,4.75230126953125,-1.612518310546875,-0.7184600830078125,0.0702972412109375
1772808696945325000,4.762324951171875,-1.5740966796875,-0.705047607421875,0.05633544921875
1772808696955349200,4.772349365234375,-1.501617431640625,-0.66888427734375,0.0434722900390625
1772808696965372400,4.782372314453125,-1.43304443359375,-0.64691162109375,0.0484771728515625
1772808696975396000,4.79239599609375,-1.3969879150390625,-0.6452484130859375,0.0747222900390625
1772808696985420300,4.802420166015625,-1.3547210693359375,-0.6273193359375,0.1050567626953125
1772808696995444200,4.8124443359375,-1.3111114501953125,-0.598541259765625,0.135772705078125
1772808697005468200,4.82246826171875,-1.26416015625,-0.5759124755859375,0.1643218994140625
1772808697015491300,4.8324912109375,-1.217559814453125,-0.5486297607421875,0.182525634765625
1772808697025515300,4.842515380859375,-1.1808624267578125,-0.525054931640625,0.1926727294921875
1772808697035539200,4.852539306640625,-1.1615753173828125,-0.5073089599609375,0.1885833740234375
1772808697045563100,4.862563232421875,-1.092803955078125,-0.4782257080078125,0.171173095703125
1772808697055586300,4.87258642578125,-1.0414581298828125,-0.43701171875,0.1510009765625
1772808697065610200,4.8826103515625,-0.97662353515625,-0.4023590087890625,0.1325836181640625
1772808697075634200,4.89263427734375,-0.8988037109375,-0.3709869384765625,0.113037109375
1772808697085658400,4.902658447265625,-0.8260650634765625,-0.331787109375,0.096221923828125
1772808697095682000,4.91268212890625,-0.7398529052734375,-0.29510498046875,0.07855224609375
1772808697105705200,4.922705322265625,-0.648956298828125,-0.2637176513671875,0.0536346435546875
1772808697115729400,4.9327294921875,-0.576446533203125,-0.23419189453125,0.0306549072265625
1772808697125753000,4.942753173828125,-0.50537109375,-0.216033935546875,0.0189666748046875
1772808697135777300,4.95277734375,-0.4409027099609375,-0.2034149169921875,0.0167083740234375
1772808697145800400,4.962800537109375,-0.3911895751953125,-0.1864471435546875,0.0169525146484375
1772808697155824000,4.97282421875,-0.3446502685546875,-0.1637420654296875,0.0147857666015625
1772808697165848300,4.982848388671875,-0.305999755859375,-0.1421356201171875,0.00408935546875
1772808697175872300,4.992872314453125,-0.2745361328125,-0.1204681396484375,-0.0083465576171875
1772808697185895200,5.002895263671875,-0.2421875,-0.099761962890625,-0.015960693359375
1772808697195919400,5.01291943359375,-0.2063446044921875,-0.0801544189453125,-0.0189056396484375
1772808697205943300,5.022943359375,-0.17413330078125,-0.0713348388671875,-0.0151824951171875
1772808697215967200,5.03296728515625,-0.145904541015625,-0.07080078125,-0.00286865234375
1772808697225991200,5.0429912109375,-0.137847900390625,-0.080108642578125,0.0179290771484375
1772808697236014000,5.05301416015625,-0.125244140625,-0.0905609130859375,0.0336151123046875
1772808697246038300,5.063038330078125,-0.103179931640625,-0.0947723388671875,0.0385894775390625
1772808697256062200,5.073062255859375,-0.096099853515625,-0.0975494384765625,0.0453643798828125
1772808697266086400,5.08308642578125,-0.0909423828125,-0.105621337890625,0.0483551025390625
1772808697276109300,5.093109375,-0.0884552001953125,-0.1134185791015625,0.04852294921875
1772808697286133200,5.10313330078125,-0.0961761474609375,-0.1173858642578125,0.0493927001953125
1772808697296157400,5.113157470703125,-0.1128082275390625,-0.1153564453125,0.0442047119140625
1772808697306181000,5.12318115234375,-0.13726806640625,-0.114410400390625,0.0371551513671875
1772808697316205300,5.133205322265625,-0.1703338623046875,-0.1186065673828125,0.0265960693359375
1772808697326228200,5.143228271484375,-0.195953369140625,-0.1243896484375,0.01434326171875
1772808697336252200,5.153252197265625,-0.2095947265625,-0.1366424560546875,0.0005950927734375
1772808697346276400,5.1632763671875,-0.2118988037109375,-0.1676788330078125,-0.005279541015625
1772808697356300300,5.17330029296875,-0.2153472900390625,-0.2251434326171875,0.00152587890625
1772808697366323200,5.1833232421875,-0.243988037109375,-0.2791595458984375,0.009735107421875
1772808697376347400,5.193347412109375,-0.3124542236328125,-0.3173828125,-0.007354736328125
1772808697386371000,5.20337109375,-0.4306793212890625,-0.3571624755859375,-0.0204925537109375
1772808697396395300,5.213395263671875,-0.613616943359375,-0.4121856689453125,-0.0216064453125
1772808697406419200,5.223419189453125,-0.805389404296875,-0.4863128662109375,-0.0205078125
1772808697416442000,5.233442138671875,-0.9702301025390625,-0.5740509033203125,-0.00860595703125
1772808697426466300,5.24346630859375,-1.1069488525390625,-0.6512603759765625,-0.0357666015625
1772808697436490200,5.253490234375,-1.222808837890625,-0.6815948486328125,-0.1138153076171875
1772808697446514200,5.26351416015625,-1.332275390625,-0.6115264892578125,-0.1861114501953125
1772808697456537300,5.273537353515625,-1.429412841796875,-0.5150909423828125,-0.2399139404296875
1772808697466561300,5.283561279296875,-1.4650421142578125,-0.4768829345703125,-0.251220703125
1772808697476585200,5.293585205078125,-1.6009674072265625,-0.51641845703125,-0.2249603271484375
1772808697486609200,5.303609130859375,-1.6994781494140625,-0.5444183349609375,-0.198089599609375
1772808697496633300,5.31363330078125,-1.702880859375,-0.5317230224609375,-0.19451904296875
1772808697506656500,5.323656494140625,-1.6721649169921875,-0.5644683837890625,-0.2125396728515625
1772808697516680200,5.33368017578125,-1.6539764404296875,-0.7121734619140625,-0.185516357421875
1772808697526704400,5.343704345703125,-1.6558074951171875,-0.88482666015625,-0.11700439453125
1772808697536728300,5.353728271484375,-1.6904144287109375,-0.9518585205078125,-0.05242919921875
1772808697546751200,5.363751220703125,-1.66937255859375,-0.9346923828125,-0.026031494140625
1772808697556775400,5.373775390625,-1.6832122802734375,-0.9305267333984375,-0.003997802734375
1772808697566799400,5.38379931640625,-1.757720947265625,-0.8997344970703125,0.035675048828125
1772808697576823300,5.3938232421875,-1.7757720947265625,-0.8055877685546875,0.037200927734375
1772808697586847200,5.40384716796875,-1.7610015869140625,-0.704620361328125,0.0030517578125
1772808697596870400,5.413870361328125,-1.7562103271484375,-0.6438140869140625,-0.0140228271484375
1772808697606894300,5.423894287109375,-1.735321044921875,-0.6131439208984375,-0.020233154296875
1772808697616918300,5.433918212890625,-1.7100372314453125,-0.5868072509765625,-0.0279541015625
1772808697626942500,5.4439423828125,-1.68988037109375,-0.5886077880859375,-0.0266571044921875
1772808697636965400,5.45396533203125,-1.6460723876953125,-0.6033172607421875,-0.031768798828125
1772808697646989300,5.4639892578125,-1.5838775634765625,-0.6033172607421875,-0.0447540283203125
1772808697657013500,5.474013427734375,-1.511688232421875,-0.5945587158203125,-0.056671142578125
1772808697667037200,5.484037109375,-1.43829345703125,-0.575653076171875,-0.060699462890625
1772808697677061400,5.494061279296875,-1.368316650390625,-0.5603179931640625,-0.0486907958984375
1772808697687084500,5.50408447265625,-1.300537109375,-0.543304443359375,-0.0259857177734375
1772808697697108200,5.514108154296875,-1.2550811767578125,-0.5173492431640625,0.003082275390625
1772808697707132400,5.52413232421875,-1.217926025390625,-0.498565673828125,0.03466796875
1772808697717156400,5.53415625,-1.175750732421875,-0.475067138671875,0.06005859375
1772808697727180300,5.54418017578125,-1.1164398193359375,-0.4562225341796875,0.073974609375
1772808697737203500,5.554203369140625,-1.0337982177734375,-0.445281982421875,0.0747528076171875
1772808697747227400,5.564227294921875,-0.9459075927734375,-0.4341583251953125,0.063690185546875
1772808697757251300,5.574251220703125,-0.8632354736328125,-0.4337310791015625,0.054107666015625
1772808697767275300,5.584275146484375,-0.8006134033203125,-0.423736572265625,0.0478973388671875
1772808697777298200,5.594298095703125,-0.7783203125,-0.3995361328125,0.0462646484375
1772808697787322400,5.604322265625,-0.75921630859375,-0.36395263671875,0.0435791015625
1772808697797346300,5.61434619140625,-0.72674560546875,-0.3400421142578125,0.038604736328125
1772808697807370500,5.62437060546875,-0.6788482666015625,-0.3118438720703125,0.031524658203125
1772808697817394200,5.634394287109375,-0.600372314453125,-0.26666259765625,0.011749267578125
1772808697827417300,5.644417236328125,-0.4948577880859375,-0.2180633544921875,-0.0221710205078125
1772808697837441500,5.654441650390625,-0.3915863037109375,-0.1865997314453125,-0.0537567138671875
1772808697847465200,5.66446533203125,-0.2994537353515625,-0.1766815185546875,-0.0830535888671875
1772808697857489400,5.674489501953125,-0.22845458984375,-0.169464111328125,-0.1101531982421875
1772808697867512300,5.68451220703125,-0.1934967041015625,-0.168548583984375,-0.114013671875
1772808697877536300,5.694536376953125,-0.206787109375,-0.179595947265625,-0.1016845703125
1772808697887560400,5.704560546875,-0.249053955078125,-0.1886138916015625,-0.079132080078125
1772808697897584400,5.71458447265625,-0.2764739990234375,-0.191741943359375,-0.05206298828125
1772808697907608300,5.7246083984375,-0.2875823974609375,-0.1944427490234375,-0.0251922607421875
1772808697917631500,5.734631591796875,-0.2943572998046875,-0.18994140625,0.00067138671875
1772808697927655200,5.7446552734375,-0.266021728515625,-0.1750640869140625,0.0149688720703125
1772808697937679400,5.754679443359375,-0.2391357421875,-0.1543426513671875,0.0215911865234375
1772808697947703300,5.764703369140625,-0.2142791748046875,-0.1469573974609375,0.0333709716796875
1772808697957726200,5.774726318359375,-0.1919097900390625,-0.145782470703125,0.043670654296875
1772808697967750400,5.78475048828125,-0.1702728271484375,-0.1405792236328125,0.041473388671875
1772808697977774300,5.7947744140625,-0.1504364013671875,-0.134368896484375,0.0341644287109375
1772808697987798300,5.80479833984375,-0.143829345703125,-0.1318206787109375,0.0276031494140625
1772808697997822200,5.814822265625,-0.15008544921875,-0.129852294921875,0.0207672119140625
1772808698007845400,5.824845458984375,-0.1602020263671875,-0.1280364990234375,0.0194854736328125
1772808698017869300,5.834869384765625,-0.1873321533203125,-0.1279144287109375,0.0223846435546875
1772808698027893200,5.844893310546875,-0.237762451171875,-0.123443603515625,0.03204345703125
1772808698037917400,5.85491748046875,-0.29449462890625,-0.1205902099609375,0.045074462890625
1772808698047940400,5.8649404296875,-0.34112548828125,-0.1318206787109375,0.0684356689453125
1772808698057964300,5.87496435546875,-0.406982421875,-0.15789794921875,0.083648681640625
1772808698067988500,5.884988525390625,-0.469757080078125,-0.1839447021484375,0.081207275390625
1772808698078012200,5.89501220703125,-0.5452117919921875,-0.1959991455078125,0.0568695068359375
1772808698088036400,5.905036376953125,-0.6710968017578125,-0.2145538330078125,0.010284423828125
1772808698098059500,5.9150595703125,-0.8578033447265625,-0.2465362548828125,-0.0362548828125
1772808698108083200,5.925083251953125,-1.02630615234375,-0.2870635986328125,-0.053955078125
1772808698118107400,5.935107421875,-1.168487548828125,-0.3804931640625,-0.0466156005859375
1772808698128131300,5.94513134765625,-1.3173980712890625,-0.4986114501953125,-0.0313262939453125
1772808698138154200,5.955154296875,-1.4692840576171875,-0.514617919921875,-0.04058837890625
1772808698148178400,5.965178466796875,-1.5731658935546875,-0.4194183349609375,-0.0631561279296875
1772808698158202400,5.975202392578125,-1.669158935546875,-0.36016845703125,-0.080322265625
1772808698168226300,5.985226318359375,-1.68115234375,-0.4071502685546875,-0.0906219482421875
1772808698178250200,5.995250244140625,-1.6194610595703125,-0.464508056640625,-0.0821685791015625
1772808698188273400,6.0052734375,-1.5257415771484375,-0.5314178466796875,-0.0582733154296875
1772808698198297300,6.01529736328125,-1.4788970947265625,-0.59033203125,-0.048797607421875
1772808698208321300,6.0253212890625,-1.4829254150390625,-0.586822509765625,-0.05389404296875
1772808698218345500,6.035345458984375,-1.5471954345703125,-0.574005126953125,-0.0543365478515625
1772808698228369200,6.045369140625,-1.6077117919921875,-0.603851318359375,-0.0583038330078125
1772808698238392300,6.055392333984375,-1.616302490234375,-0.6361236572265625,-0.07708740234375
1772808698248416500,6.06541650390625,-1.6136627197265625,-0.6421051025390625,-0.0886077880859375
1772808698258440200,6.075440185546875,-1.6128692626953125,-0.64825439453125,-0.0859527587890625
1772808698268464400,6.08546435546875,-1.6091156005859375,-0.645172119140625,-0.0740814208984375
1772808698278487600,6.095487548828125,-1.598663330078125,-0.623748779296875,-0.0607757568359375
1772808698288511200,6.10551123046875,-1.5667572021484375,-0.596282958984375,-0.05511474609375
1772808698298535400,6.115535400390625,-1.52862548828125,-0.5569000244140625,-0.0589599609375
1772808698308559400,6.125559326171875,-1.49932861328125,-0.5249176025390625,-0.06439208984375
1772808698318583300,6.135583251953125,-1.4857177734375,-0.5060882568359375,-0.069000244140625
1772808698328606500,6.1456064453125,-1.487457275390625,-0.485931396484375,-0.0792236328125
1772808698338630400,6.15563037109375,-1.4980316162109375,-0.4681396484375,-0.09332275390625
1772808698348654300,6.165654296875,-1.52447509765625,-0.462738037109375,-0.09698486328125
1772808698358678300,6.17567822265625,-1.5241851806640625,-0.456817626953125,-0.089691162109375
1772808698368701200,6.185701171875,-1.52294921875,-0.4577789306640625,-0.0825653076171875
1772808698378725400,6.195725341796875,-1.5164031982421875,-0.4554290771484375,-0.0776824951171875
1772808698388749300,6.205749267578125,-1.48883056640625,-0.434814453125,-0.0768890380859375
1772808698398773500,6.2157734375,-1.4446258544921875,-0.422760009765625,-0.0736236572265625
1772808698408797200,6.225797119140625,-1.371612548828125,-0.416290283203125,-0.0662384033203125
1772808698418820400,6.2358203125,-1.2775726318359375,-0.4034271240234375,-0.0504150390625
1772808698428844300,6.24584423828125,-1.1972808837890625,-0.3914337158203125,-0.016387939453125
1772808698438868200,6.2558681640625,-1.1347198486328125,-0.3843994140625,0.024566650390625
1772808698448892400,6.265892333984375,-1.0775909423828125,-0.371673583984375,0.057037353515625
1772808698458916400,6.275916259765625,-1.0433502197265625,-0.35894775390625,0.077392578125
1772808698468939300,6.285939208984375,-1.026580810546875,-0.3397369384765625,0.0864715576171875
1772808698478963500,6.29596337890625,-1.0174560546875,-0.3201904296875,0.0807342529296875
1772808698488987400,6.3059873046875,-0.9891510009765625,-0.31402587890625,0.0641021728515625
1772808698499011300,6.31601123046875,-0.9468536376953125,-0.3102264404296875,0.043060302734375
1772808698509031000,6.326031005859375,-0.8921966552734375,-0.3065032958984375,0.019012451171875
1772808698519054800,6.336054931640625,-0.7983856201171875,-0.3051605224609375,-0.010467529296875
1772808698529078800,6.346078857421875,-0.6851348876953125,-0.291259765625,-0.0480804443359375
1772808698539102700,6.356102783203125,-0.5746917724609375,-0.267608642578125,-0.079833984375
1772808698549127000,6.366126953125,-0.47064208984375,-0.2435760498046875,-0.10211181640625
1772808698559149800,6.37614990234375,-0.372406005859375,-0.2271575927734375,-0.11260986328125
1772808698569173800,6.386173828125,-0.300262451171875,-0.227935791015625,-0.1070404052734375
1772808698579198000,6.396197998046875,-0.27099609375,-0.243621826171875,-0.087188720703125
1772808698589221600,6.4062216796875,-0.2728424072265625,-0.24761962890625,-0.067352294921875
1772808698599244800,6.416244873046875,-0.2960968017578125,-0.22772216796875,-0.05670166015625
1772808698609269000,6.42626904296875,-0.2966461181640625,-0.2083740234375,-0.0523529052734375
1772808698619292700,6.436292724609375,-0.2674407958984375,-0.1905670166015625,-0.0534515380859375
1772808698629316900,6.44631689453125,-0.243438720703125,-0.173675537109375,-0.046966552734375
1772808698639340800,6.4563408203125,-0.21234130859375,-0.1641387939453125,-0.0263214111328125
1772808698649363700,6.46636376953125,-0.1726837158203125,-0.1614990234375,-0.00421142578125
1772808698659388000,6.476387939453125,-0.1154937744140625,-0.15374755859375,0.0012664794921875
1772808698669411800,6.486411865234375,-0.0753631591796875,-0.1395111083984375,0.005462646484375
1772808698679435800,6.496435791015625,-0.0628204345703125,-0.12371826171875,0.0203704833984375
1772808698689459700,6.506459716796875,-0.0765228271484375,-0.103424072265625,0.0375518798828125
1772808698699483000,6.51648291015625,-0.10015869140625,-0.087127685546875,0.0527801513671875
1772808698709506800,6.5265068359375,-0.1298675537109375,-0.0800018310546875,0.064483642578125
1772808698719530800,6.53653076171875,-0.1647186279296875,-0.076812744140625,0.069580078125
1772808698729555000,6.546554931640625,-0.192535400390625,-0.0839080810546875,0.08026123046875
1772808698739577900,6.556577880859375,-0.22607421875,-0.0933074951171875,0.0899810791015625
1772808698749601800,6.566601806640625,-0.276580810546875,-0.0936279296875,0.0865325927734375
1772808698759626000,6.5766259765625,-0.3029022216796875,-0.110809326171875,0.0748748779296875
1772808698769649700,6.586649658203125,-0.306793212890625,-0.1298065185546875,0.052581787109375
1772808698779673900,6.596673828125,-0.3474884033203125,-0.147125244140625,0.0278167724609375
1772808698789697000,6.606697021484375,-0.415374755859375,-0.183624267578125,0.002593994140625
1772808698799720700,6.616720703125,-0.5232696533203125,-0.2201385498046875,-0.011383056640625
1772808698809745000,6.626744873046875,-0.68768310546875,-0.2448883056640625,-0.01611328125
1772808698819768800,6.636768798828125,-0.8323822021484375,-0.30596923828125,0.0095672607421875
1772808698829791700,6.646791748046875,-0.9658203125,-0.406463623046875,0.030242919921875
1772808698839816000,6.65681591796875,-1.0906219482421875,-0.4739227294921875,-0.00238037109375
1772808698849839900,6.66683984375,-1.197723388671875,-0.4321441650390625,-0.0544891357421875
1772808698859863800,6.67686376953125,-1.3394775390625,-0.350921630859375,-0.1047821044921875
1772808698869887700,6.6868876953125,-1.4573974609375,-0.361358642578125,-0.1182098388671875
1772808698879911000,6.696910888671875,-1.516082763671875,-0.5002593994140625,-0.0889892578125
1772808698889934800,6.706934814453125,-1.550445556640625,-0.61639404296875,-0.048004150390625
1772808698899958800,6.716958740234375,-1.5832061767578125,-0.686920166015625,-0.0236663818359375
1772808698909983000,6.72698291015625,-1.6149749755859375,-0.7121429443359375,-0.0161285400390625
1772808698920006700,6.737006591796875,-1.6774139404296875,-0.7360687255859375,-0.0010223388671875
1772808698930029800,6.74702978515625,-1.75836181640625,-0.7632293701171875,0.007415771484375
1772808698940054000,6.757053955078125,-1.82220458984375,-0.7858428955078125,0.0063018798828125
1772808698950077700,6.76707763671875,-1.8343505859375,-0.7926483154296875,-0.0042572021484375
1772808698960102000,6.777101806640625,-1.8272705078125,-0.768646240234375,-0.012603759765625
1772808698970124800,6.787124755859375,-1.8034210205078125,-0.7545166015625,-0.021209716796875
1772808698980148700,6.797148681640625,-1.7597808837890625,-0.7265167236328125,-0.0498504638671875
1772808698990173000,6.8071728515625,-1.71331787109375,-0.6924896240234375,-0.0853424072265625
1772808699000196900,6.81719677734375,-1.666229248046875,-0.666656494140625,-0.111724853515625
1772808699010220800,6.827220703125,-1.630767822265625,-0.6253204345703125,-0.113250732421875
1772808699020244000,6.837243896484375,-1.60980224609375,-0.584686279296875,-0.085784912109375
1772808699030267600,6.847267578125,-1.57940673828125,-0.558563232421875,-0.040435791015625
1772808699040291800,6.857291748046875,-1.5335540771484375,-0.532989501953125,0.0036773681640625
1772808699050315800,6.867315673828125,-1.475189208984375,-0.5014801025390625,0.0425872802734375
1772808699060340000,6.877340087890625,-1.4460906982421875,-0.485107421875,0.06781005859375
1772808699070363000,6.88736279296875,-1.4122772216796875,-0.4882659912109375,0.0733184814453125
1772808699080386800,6.89738671875,-1.358306884765625,-0.484588623046875,0.0570068359375
1772808699090411000,6.907410888671875,-1.305877685546875,-0.477752685546875,0.0329742431640625
1772808699100434700,6.9174345703125,-1.2631988525390625,-0.4791107177734375,-0.0074920654296875
1772808699110457900,6.927457763671875,-1.19110107421875,-0.4793701171875,-0.0540771484375
1772808699120481800,6.937481689453125,-1.119720458984375,-0.4697418212890625,-0.0893096923828125
1772808699130505700,6.947505615234375,-1.0642242431640625,-0.4587554931640625,-0.10430908203125
1772808699140530000,6.957530029296875,-1.0174713134765625,-0.456024169921875,-0.0992279052734375
1772808699150553900,6.967553955078125,-0.9755859375,-0.4754486083984375,-0.074127197265625
1772808699160576800,6.97757666015625,-0.9597625732421875,-0.510406494140625,-0.0508575439453125
1772808699170601000,6.98760107421875,-0.94317626953125,-0.524383544921875,-0.0333251953125
1772808699180624600,6.997624755859375,-0.9449615478515625,-0.499542236328125,-0.0224761962890625
1772808699190648800,7.00764892578125,-0.9879302978515625,-0.467620849609375,-0.015411376953125
1772808699200672000,7.017672119140625,-1.01715087890625,-0.4279022216796875,-0.01422119140625
1772808699210695700,7.02769580078125,-1.0221099853515625,-0.3695220947265625,-0.0127410888671875
1772808699220719900,7.037719970703125,-1.001708984375,-0.320526123046875,-0.01287841796875
1772808699230743800,7.047743896484375,-0.912353515625,-0.2781524658203125,-0.0275726318359375
1772808699240767700,7.057767822265625,-0.7758026123046875,-0.2381439208984375,-0.0600128173828125
1772808699250791000,7.067791015625,-0.6320953369140625,-0.2059783935546875,-0.0949554443359375
1772808699260814800,7.07781494140625,-0.4874114990234375,-0.178680419921875,-0.1135406494140625
1772808699270838800,7.0878388671875,-0.3521575927734375,-0.168243408203125,-0.1123199462890625
1772808699280862700,7.09786279296875,-0.26116943359375,-0.1679534912109375,-0.0963592529296875
1772808699290887000,7.107886962890625,-0.2003631591796875,-0.166595458984375,-0.0764617919921875
1772808699300909800,7.117909912109375,-0.1405181884765625,-0.1583404541015625,-0.061981201171875
1772808699310933800,7.127933837890625,-0.112457275390625,-0.144866943359375,-0.0506744384765625
1772808699320958000,7.1379580078125,-0.1142425537109375,-0.134735107421875,-0.0288543701171875
1772808699330981600,7.147981689453125,-0.1374359130859375,-0.12518310546875,-0.002197265625
1772808699341004800,7.1580048828125,-0.1708221435546875,-0.115020751953125,0.0316314697265625
1772808699351029000,7.168029052734375,-0.1973724365234375,-0.1079254150390625,0.05877685546875
1772808699361052700,7.178052734375,-0.200164794921875,-0.11138916015625,0.07684326171875
1772808699371076900,7.188076904296875,-0.1932525634765625,-0.1161956787109375,0.0848388671875
1772808699381100800,7.198100830078125,-0.167755126953125,-0.1152191162109375,0.0775299072265625
1772808699391123700,7.208123779296875,-0.1465911865234375,-0.1091156005859375,0.0675048828125
1772808699401148000,7.21814794921875,-0.12890625,-0.1032257080078125,0.052398681640625
1772808699411171800,7.228171875,-0.1139373779296875,-0.09588623046875,0.0410919189453125
1772808699421195800,7.23819580078125,-0.1446685791015625,-0.089599609375,0.045013427734375
1772808699431219700,7.2482197265625,-0.194122314453125,-0.100189208984375,0.051666259765625
1772808699441243000,7.258242919921875,-0.2313079833984375,-0.1087799072265625,0.0526885986328125
1772808699451266800,7.268266845703125,-0.2527618408203125,-0.115753173828125,0.0526123046875
1772808699461290800,7.278290771484375,-0.252777099609375,-0.149688720703125,0.0582427978515625
1772808699471315000,7.28831494140625,-0.2447662353515625,-0.198699951171875,0.0612640380859375
1772808699481337900,7.298337890625,-0.2415313720703125,-0.2427978515625,0.053924560546875
1772808699491361800,7.30836181640625,-0.292572021484375,-0.2757720947265625,0.0396270751953125
1772808699501386000,7.318385986328125,-0.42022705078125,-0.30377197265625,0.0242462158203125
1772808699511409400,7.328409423828125,-0.5445709228515625,-0.3668975830078125,0.010986328125
1772808699521433000,7.33843310546875,-0.666107177734375,-0.4672088623046875,0.0057525634765625
1772808699531456300,7.348456298828125,-0.812469482421875,-0.5419464111328125,-0.039794921875
1772808699541480200,7.358480224609375,-1.0090789794921875,-0.518707275390625,-0.1041412353515625
1772808699551504100,7.368504150390625,-1.2073822021484375,-0.4976806640625,-0.1350555419921875
1772808699561528300,7.3785283203125,-1.4017181396484375,-0.48828125,-0.147430419921875
1772808699571552300,7.38855224609375,-1.5314788818359375,-0.4842987060546875,-0.1475982666015625
1772808699581575200,7.3985751953125,-1.5805511474609375,-0.515960693359375,-0.1330413818359375
1772808699591599000,7.40859912109375,-1.5876312255859375,-0.57470703125,-0.124847412109375
1772808699601623300,7.418623291015625,-1.534027099609375,-0.6231689453125,-0.1288604736328125
1772808699611647200,7.428647216796875,-1.4785308837890625,-0.6292572021484375,-0.1434783935546875
1772808699621670100,7.438670166015625,-1.5070037841796875,-0.622650146484375,-0.153289794921875
1772808699631694300,7.4486943359375,-1.632080078125,-0.640716552734375,-0.15948486328125
1772808699641718300,7.45871826171875,-1.8173980712890625,-0.6775054931640625,-0.1423797607421875
1772808699651742200,7.4687421875,-1.90484619140625,-0.7213287353515625,-0.1085357666015625
1772808699661766400,7.478766357421875,-1.9261016845703125,-0.7571258544921875,-0.095123291015625
1772808699671789000,7.4887890625,-1.902252197265625,-0.7740631103515625,-0.09161376953125
1772808699681813200,7.498813232421875,-1.8331298828125,-0.76812744140625,-0.095245361328125
1772808699691837200,7.508837158203125,-1.7153167724609375,-0.75323486328125,-0.118377685546875
1772808699701861000,7.518861083984375,-1.57965087890625,-0.7107391357421875,-0.1463775634765625
1772808699711885300,7.52888525390625,-1.5256500244140625,-0.6728057861328125,-0.14215087890625
1772808699721908000,7.538907958984375,-1.4760589599609375,-0.6553192138671875,-0.12738037109375
1772808699731932200,7.54893212890625,-1.4421844482421875,-0.6405029296875,-0.10565185546875
1772808699741956400,7.558956298828125,-1.4706573486328125,-0.619384765625,-0.0640716552734375
1772808699751980300,7.568980224609375,-1.5146942138671875,-0.611419677734375,-0.0225982666015625
1772808699762003200,7.579003173828125,-1.51483154296875,-0.6055755615234375,-0.0027008056640625
1772808699772027100,7.589027099609375,-1.4944610595703125,-0.5931549072265625,-0.00115966796875
1772808699782051000,7.599051025390625,-1.457427978515625,-0.575469970703125,-0.019256591796875
1772808699792075300,7.6090751953125,-1.3999786376953125,-0.54840087890625,-0.0521240234375
1772808699802099200,7.61909912109375,-1.3229217529296875,-0.5286102294921875,-0.0861968994140625
1772808699812122000,7.6291220703125,-1.2682952880859375,-0.5248565673828125,-0.1079254150390625
1772808699822146300,7.639146240234375,-1.22607421875,-0.52069091796875,-0.1106414794921875
1772808699832170200,7.649170166015625,-1.209686279296875,-0.5048065185546875,-0.11187744140625
1772808699842194400,7.6591943359375,-1.1949615478515625,-0.4910888671875,-0.11895751953125
1772808699852218000,7.669218017578125,-1.178466796875,-0.47442626953125,-0.1280364990234375
1772808699862241300,7.6792412109375,-1.164825439453125,-0.461761474609375,-0.1282196044921875
1772808699872265200,7.68926513671875,-1.1294403076171875,-0.4519500732421875,-0.119415283203125
1772808699882289200,7.6992890625,-1.1013336181640625,-0.4270477294921875,-0.1078033447265625
1772808699892313300,7.709313232421875,-1.0828704833984375,-0.399993896484375,-0.0876312255859375
1772808699902337300,7.719337158203125,-1.062957763671875,-0.363494873046875,-0.0717315673828125
1772808699912360200,7.729360107421875,-1.0447235107421875,-0.3204193115234375,-0.067840576171875
1772808699922384400,7.73938427734375,-1.0113067626953125,-0.2900390625,-0.068756103515625
1772808699932408000,7.749407958984375,-0.94378662109375,-0.269317626953125,-0.07379150390625
1772808699942432300,7.759432373046875,-0.8316192626953125,-0.2389678955078125,-0.0909423828125
1772808699952455200,7.769455078125,-0.69024658203125,-0.205902099609375,-0.1140289306640625
1772808699962479000,7.77947900390625,-0.55218505859375,-0.1833038330078125,-0.12725830078125
1772808699972503300,7.78950341796875,-0.4204559326171875,-0.1743927001953125,-0.134246826171875
1772808699982527200,7.79952734375,-0.3446502685546875,-0.1622467041015625,-0.1389312744140625
1772808699992551200,7.80955126953125,-0.2986602783203125,-0.1496124267578125,-0.1411895751953125
1772808700002574000,7.819573974609375,-0.264251708984375,-0.1364288330078125,-0.136566162109375
1772808700012598300,7.829598388671875,-0.24725341796875,-0.1236724853515625,-0.12567138671875
1772808700022622200,7.839622314453125,-0.2466888427734375,-0.114776611328125,-0.112823486328125
1772808700032646100,7.849646240234375,-0.2384490966796875,-0.1049346923828125,-0.1017913818359375
1772808700042670300,7.85967041015625,-0.21337890625,-0.1035003662109375,-0.09478759765625
1772808700052693200,7.869693359375,-0.19476318359375,-0.1043548583984375,-0.0829315185546875
1772808700062717200,7.87971728515625,-0.1996002197265625,-0.1062164306640625,-0.0679779052734375
1772808700072741400,7.889741455078125,-0.210205078125,-0.1177825927734375,-0.0462799072265625
1772808700082765000,7.89976513671875,-0.1988983154296875,-0.110443115234375,-0.0276641845703125
1772808700092789200,7.909789306640625,-0.20635986328125,-0.0749664306640625,-0.0210113525390625
1772808700102812400,7.9198125,-0.178619384765625,-0.0846405029296875,-0.010223388671875
1772808700112836000,7.929836181640625,-0.151885986328125,-0.1141815185546875,0.009124755859375
1772808700122860300,7.9398603515625,-0.1482391357421875,-0.105438232421875,0.0209503173828125
1772808700132884200,7.94988427734375,-0.12530517578125,-0.0867767333984375,0.020904541015625
1772808700142907100,7.9599072265625,-0.1145782470703125,-0.0760955810546875,0.019866943359375
1772808700152931300,7.969931396484375,-0.1333770751953125,-0.0810394287109375,0.0293121337890625
1772808700162955300,7.979955322265625,-0.166107177734375,-0.1057281494140625,0.0430145263671875
1772808700172979200,7.989979248046875,-0.192138671875,-0.14556884765625,0.0519866943359375
1772808700183003100,8.000003173828125,-0.2249603271484375,-0.1794281005859375,0.0516510009765625
1772808700193026300,8.0100263671875,-0.276397705078125,-0.19659423828125,0.0353851318359375
1772808700203050200,8.02005029296875,-0.3724365234375,-0.200714111328125,-0.001220703125
1772808700213074200,8.03007421875,-0.523895263671875,-0.2126922607421875,-0.0566253662109375
1772808700223098400,8.040098388671876,-0.6731109619140625,-0.242645263671875,-0.105621337890625
1772808700233122000,8.0501220703125,-0.755767822265625,-0.2953033447265625,-0.14642333984375
1772808700243145200,8.060145263671876,-0.8311004638671875,-0.3809051513671875,-0.20452880859375
1772808700253169400,8.07016943359375,-0.9334564208984375,-0.3847198486328125,-0.2607574462890625
1772808700263193000,8.080193115234374,-1.03125,-0.3365478515625,-0.2719879150390625
1772808700273217300,8.09021728515625,-1.085296630859375,-0.354339599609375,-0.237152099609375
1772808700283241200,8.1002412109375,-1.1024627685546875,-0.4369659423828125,-0.180816650390625
1772808700293264100,8.11026416015625,-1.1250762939453125,-0.5305023193359375,-0.1369476318359375
1772808700303288300,8.120288330078125,-1.19281005859375,-0.56097412109375,-0.105560302734375
1772808700313312300,8.130312255859375,-1.3036956787109375,-0.566497802734375,-0.0848236083984375
1772808700323336200,8.140336181640626,-1.4123992919921875,-0.6025390625,-0.0818939208984375
1772808700333360000,8.150360107421875,-1.5131378173828125,-0.615203857421875,-0.08612060546875
1772808700343383300,8.16038330078125,-1.6184844970703125,-0.6475372314453125,-0.0724639892578125
1772808700353407200,8.1704072265625,-1.7273101806640625,-0.7344970703125,-0.039764404296875
1772808700363431200,8.18043115234375,-1.7966156005859375,-0.816986083984375,-0.012786865234375
1772808700373455400,8.190455322265626,-1.785614013671875,-0.8436279296875,-0.012847900390625
1772808700383478300,8.200478271484375,-1.749603271484375,-0.8156280517578125,-0.030120849609375
1772808700393502200,8.210502197265624,-1.701385498046875,-0.774566650390625,-0.046478271484375
1772808700403526400,8.2205263671875,-1.6489715576171875,-0.7215728759765625,-0.0632476806640625
1772808700413550000,8.230550048828125,-1.6120147705078125,-0.67626953125,-0.079345703125
1772808700423574300,8.24057421875,-1.590911865234375,-0.6368255615234375,-0.0898895263671875
1772808700433597200,8.25059716796875,-1.6060943603515625,-0.6156768798828125,-0.0882415771484375
1772808700443621000,8.26062109375,-1.63116455078125,-0.62060546875,-0.0714263916015625
1772808700453645300,8.270645263671875,-1.6334228515625,-0.6373291015625,-0.0428314208984375
1772808700463669200,8.280669189453125,-1.6270599365234375,-0.656646728515625,-0.0009002685546875
1772808700473693200,8.290693115234374,-1.60223388671875,-0.6826019287109375,0.0341796875
1772808700483716400,8.30071630859375,-1.537322998046875,-0.697357177734375,0.0601806640625
1772808700493740300,8.310740234375,-1.454559326171875,-0.7154083251953125,0.07763671875
1772808700503764200,8.32076416015625,-1.38568115234375,-0.7234954833984375,0.089385986328125
1772808700513791700,8.330791748046876,-1.338226318359375,-0.7152862548828125,0.10479736328125
1772808700523815700,8.340815673828125,-1.3206024169921875,-0.703704833984375,0.1215057373046875
1772808700533838800,8.3508388671875,-1.306610107421875,-0.68804931640625,0.1340179443359375
1772808700543862800,8.36086279296875,-1.2942352294921875,-0.6707611083984375,0.14501953125
1772808700553886700,8.37088671875,-1.2755279541015625,-0.656280517578125,0.14892578125
1772808700563910700,8.38091064453125,-1.2360992431640625,-0.644287109375,0.1407928466796875
1772808700573933800,8.390933837890625,-1.18365478515625,-0.6244354248046875,0.1204071044921875
1772808700583957800,8.400957763671874,-1.1406402587890625,-0.6029815673828125,0.0955352783203125
1772808700593981700,8.410981689453125,-1.0831146240234375,-0.5718231201171875,0.0618896484375
1772808700604006000,8.421005859375,-1.0169830322265625,-0.5318450927734375,0.0186920166015625
1772808700614029600,8.431029541015626,-0.9497833251953125,-0.48321533203125,-0.019775390625
1772808700624052700,8.441052734375,-0.880523681640625,-0.429656982421875,-0.0567474365234375
1772808700634077000,8.451076904296874,-0.79736328125,-0.3560791015625,-0.0963134765625
1772808700644100600,8.4611005859375,-0.6987457275390625,-0.2687225341796875,-0.1268463134765625
1772808700654124800,8.471124755859375,-0.6160888671875,-0.1896514892578125,-0.1450042724609375
1772808700664148700,8.481148681640626,-0.54876708984375,-0.134552001953125,-0.150482177734375
1772808700674171600,8.491171630859375,-0.477996826171875,-0.0944061279296875,-0.154449462890625
1772808700684195800,8.50119580078125,-0.420196533203125,-0.0500335693359375,-0.1601715087890625
1772808700694219800,8.5112197265625,-0.387664794921875,-0.015106201171875,-0.152801513671875
1772808700704243700,8.52124365234375,-0.3593597412109375,-0.0045013427734375,-0.1336669921875
1772808700714267600,8.531267578125,-0.3239288330078125,-0.0033721923828125,-0.1175537109375
1772808700724290800,8.541290771484375,-0.290924072265625,-0.0027923583984375,-0.1015625
1772808700734314800,8.551314697265624,-0.249969482421875,-0.000030517578125,-0.0850982666015625
1772808700744338700,8.561338623046876,-0.2083740234375,0.003753662109375,-0.07025146484375
1772808700754363000,8.57136279296875,-0.1786041259765625,0.0052032470703125,-0.059600830078125
1772808700764386600,8.581386474609374,-0.1511383056640625,-0.002166748046875,-0.051483154296875
1772808700774409700,8.59140966796875,-0.12799072265625,-0.013885498046875,-0.0486602783203125
1772808700784434000,8.601433837890625,-0.1103668212890625,-0.02508544921875,-0.0435333251953125
1772808700794457600,8.61145751953125,-0.0985260009765625,-0.0326690673828125,-0.033447265625
1772808700804481800,8.621481689453125,-0.1018218994140625,-0.0332489013671875,-0.021392822265625
1772808700814505700,8.631505615234374,-0.1030426025390625,-0.0330047607421875,-0.0111083984375
1772808700824528600,8.641528564453125,-0.1147003173828125,-0.0302276611328125,-0.0074920654296875
1772808700834552800,8.651552734375,-0.1458740234375,-0.0336456298828125,-0.0063629150390625
1772808700844576800,8.66157666015625,-0.1799468994140625,-0.0466766357421875,-0.0027923583984375
1772808700854600700,8.6716005859375,-0.213897705078125,-0.0594940185546875,-0.01177978515625
1772808700864623900,8.681623779296874,-0.2525482177734375,-0.0744781494140625,-0.0186309814453125
1772808700874647800,8.691647705078125,-0.30670166015625,-0.0961456298828125,-0.0195465087890625
1772808700884671700,8.701671630859375,-0.347747802734375,-0.1357269287109375,-0.0180511474609375
1772808700894695700,8.71169580078125,-0.3484954833984375,-0.1866912841796875,-0.0203704833984375
1772808700904720000,8.721719970703125,-0.3386993408203125,-0.2392120361328125,-0.033660888671875
1772808700914742800,8.73174267578125,-0.3624725341796875,-0.3055419921875,-0.0587310791015625
1772808700924766700,8.7417666015625,-0.4615478515625,-0.3704986572265625,-0.0884246826171875
1772808700934791000,8.751791015625,-0.6093292236328125,-0.4229736328125,-0.096038818359375
1772808700944814600,8.761814697265624,-0.804412841796875,-0.4715423583984375,-0.0681915283203125
1772808700954838800,8.7718388671875,-0.9930572509765625,-0.522369384765625,-0.069549560546875
1772808700964861700,8.78186181640625,-1.1402587890625,-0.556365966796875,-0.0950927734375
1772808700974885600,8.7918857421875,-1.3306884765625,-0.545989990234375,-0.111846923828125
1772808700984909800,8.801909912109375,-1.4801025390625,-0.503814697265625,-0.0939483642578125
1772808700994933800,8.811933837890624,-1.5706787109375,-0.492645263671875,-0.0533905029296875
1772808701004957700,8.821957763671875,-1.58660888671875,-0.5548858642578125,-0.0203399658203125
1772808701014980900,8.83198095703125,-1.519561767578125,-0.604736328125,-0.01300048828125
1772808701025004800,8.8420048828125,-1.3719940185546875,-0.64276123046875,-0.0119476318359375
1772808701035028700,8.85202880859375,-1.2731475830078125,-0.6727142333984375,-0.0453643798828125
1772808701045052700,8.862052734375,-1.2561492919921875,-0.6737060546875,-0.0892791748046875
1772808701055075600,8.87207568359375,-1.3128204345703125,-0.699676513671875,-0.1140289306640625
1772808701065099800,8.882099853515625,-1.418701171875,-0.7685089111328125,-0.1141204833984375
1772808701075123700,8.892123779296876,-1.5485992431640625,-0.8389892578125,-0.0826263427734375
1772808701085148000,8.90214794921875,-1.6350860595703125,-0.9034576416015625,-0.0310821533203125
1772808701095171600,8.912171630859374,-1.6629486083984375,-0.95587158203125,0.008270263671875
1772808701105194800,8.92219482421875,-1.6656036376953125,-0.940887451171875,0.0289306640625
1772808701115218700,8.93221875,-1.6576995849609375,-0.8868408203125,0.0431976318359375
1772808701125242600,8.94224267578125,-1.636749267578125,-0.82720947265625,0.0267791748046875
1772808701135266800,8.952266845703125,-1.6036834716796875,-0.7691802978515625,-0.0068359375
1772808701145290800,8.962290771484374,-1.588043212890625,-0.728118896484375,-0.0331268310546875
1772808701155313700,8.972313720703125,-1.5787811279296875,-0.71929931640625,-0.0523681640625
1772808701165337900,8.982337890625,-1.5906829833984375,-0.7340087890625,-0.0543670654296875
1772808701175361500,8.992361572265626,-1.5826263427734375,-0.751678466796875,-0.046295166015625
1772808701185385700,9.0023857421875,-1.57318115234375,-0.7533721923828125,-0.0324554443359375
1772808701195409700,9.01240966796875,-1.5361785888671875,-0.756011962890625,-0.0065155029296875
1772808701205432600,9.0224326171875,-1.502532958984375,-0.7541046142578125,0.0223236083984375
1772808701215456800,9.032456787109375,-1.4825897216796875,-0.741790771484375,0.0481414794921875
1772808701225480700,9.042480712890624,-1.463897705078125,-0.719879150390625,0.0613861083984375
1772808701235505000,9.0525048828125,-1.4342803955078125,-0.6922149658203125,0.0559234619140625
1772808701245527800,9.06252783203125,-1.3786773681640625,-0.6625518798828125,0.0417327880859375
1772808701255551700,9.0725517578125,-1.311004638671875,-0.633148193359375,0.028411865234375
1772808701265575700,9.08257568359375,-1.2478179931640625,-0.61083984375,0.0133819580078125
1772808701275599600,9.092599609375,-1.179046630859375,-0.5881500244140625,-0.0063018798828125
1772808701285623800,9.102623779296875,-1.1079559326171875,-0.56231689453125,-0.0256805419921875
1772808701295646700,9.112646728515625,-1.0338134765625,-0.5447845458984375,-0.0455169677734375
1772808701305670700,9.122670654296876,-0.9535980224609375,-0.5332489013671875,-0.0659637451171875
1772808701315694800,9.13269482421875,-0.87518310546875,-0.5205535888671875,-0.0787200927734375
1772808701325718500,9.142718505859374,-0.817626953125,-0.49993896484375,-0.0878143310546875
1772808701335742700,9.15274267578125,-0.7833099365234375,-0.4770965576171875,-0.0888671875
1772808701345766000,9.162765869140625,-0.7592010498046875,-0.462646484375,-0.079132080078125
1772808701355789600,9.17278955078125,-0.731353759765625,-0.4370880126953125,-0.0697021484375
1772808701365813800,9.182813720703125,-0.7130126953125,-0.3946533203125,-0.0616607666015625
1772808701375837700,9.192837646484374,-0.679962158203125,-0.35479736328125,-0.050750732421875
1772808701385861600,9.202861572265626,-0.6308135986328125,-0.3101043701171875,-0.0449371337890625
1772808701395884800,9.212884765625,-0.5908966064453125,-0.2584381103515625,-0.0377655029296875
1772808701405908700,9.22290869140625,-0.548675537109375,-0.2256927490234375,-0.039337158203125
1772808701415932700,9.2329326171875,-0.471221923828125,-0.20672607421875,-0.060699462890625
1772808701425956600,9.24295654296875,-0.3790435791015625,-0.18621826171875,-0.086761474609375
1772808701435980800,9.252980712890626,-0.2955780029296875,-0.166168212890625,-0.11297607421875
1772808701446003700,9.263003662109375,-0.22625732421875,-0.154266357421875,-0.1318359375
1772808701456027600,9.273027587890626,-0.1642608642578125,-0.15234375,-0.14239501953125
1772808701466051800,9.2830517578125,-0.125213623046875,-0.1531524658203125,-0.1404571533203125
1772808701476075800,9.29307568359375,-0.1147613525390625,-0.151214599609375,-0.122314453125
1772808701486098700,9.3030986328125,-0.1241912841796875,-0.1532135009765625,-0.092010498046875
1772808701496123000,9.313122802734375,-0.1434326171875,-0.1585693359375,-0.0565185546875
1772808701506146600,9.323146484375,-0.1698150634765625,-0.1660919189453125,-0.027984619140625
1772808701516167200,9.333167236328125,-0.2020416259765625,-0.1812896728515625,-0.0033111572265625
1772808701526191400,9.34319140625,-0.216796875,-0.202789306640625,0.0260467529296875
1772808701536214000,9.353214111328125,-0.207000732421875,-0.1988983154296875,0.041717529296875
1772808701546238200,9.36323828125,-0.2115936279296875,-0.181243896484375,0.0446014404296875
1772808701556262100,9.37326220703125,-0.2039031982421875,-0.1759033203125,0.050445556640625
1772808701566286000,9.3832861328125,-0.181793212890625,-0.1643218994140625,0.04937744140625
1772808701576310300,9.393310302734376,-0.148468017578125,-0.1439361572265625,0.0407867431640625
1772808701586333000,9.4033330078125,-0.10015869140625,-0.130706787109375,0.021209716796875
1772808701596357000,9.413357177734374,-0.0688629150390625,-0.119232177734375,-0.000732421875
1772808701606381000,9.423381103515625,-0.062713623046875,-0.11358642578125,-0.0092926025390625
1772808701616405000,9.433405029296875,-0.0662841796875,-0.123809814453125,-0.003387451171875
1772808701626429200,9.44342919921875,-0.0824127197265625,-0.147705078125,-0.0034332275390625
1772808701636452000,9.4534521484375,-0.1132049560546875,-0.177734375,0.0059356689453125
1772808701646476000,9.46347607421875,-0.1691436767578125,-0.2031097412109375,0.0234375
1772808701656500200,9.473500244140626,-0.2558746337890625,-0.24456787109375,0.0486602783203125
1772808701666524200,9.483524169921875,-0.329132080078125,-0.3215179443359375,0.063720703125
1772808701676547000,9.493547119140626,-0.4416656494140625,-0.409027099609375,0.056549072265625
1772808701686571000,9.503571044921875,-0.591552734375,-0.506378173828125,0.025421142578125
1772808701696595200,9.51359521484375,-0.836822509765625,-0.5382232666015625,-0.0764007568359375
1772808701706619100,9.523619140625,-1.1517181396484375,-0.5037841796875,-0.1703338623046875
1772808701716643000,9.53364306640625,-1.335418701171875,-0.5276947021484375,-0.188385009765625
1772808701726666200,9.543666259765626,-1.4435577392578125,-0.6078338623046875,-0.1491851806640625
1772808701736690000,9.55368994140625,-1.5748291015625,-0.6598663330078125,-0.1167144775390625
1772808701746714000,9.563714111328125,-1.6108245849609375,-0.64190673828125,-0.1116180419921875
1772808701756738300,9.57373828125,-1.6495513916015625,-0.6080322265625,-0.1273040771484375
1772808701766762000,9.583761962890625,-1.6269073486328125,-0.6340789794921875,-0.1375274658203125
1772808701776785200,9.59378515625,-1.5750885009765625,-0.6829071044921875,-0.150909423828125
1772808701786809000,9.60380908203125,-1.5958251953125,-0.6876678466796875,-0.16778564453125
1772808701796833000,9.6138330078125,-1.661895751953125,-0.72174072265625,-0.16326904296875
1772808701806857200,9.623857177734376,-1.73687744140625,-0.797149658203125,-0.138092041015625
1772808701816881200,9.633881103515625,-1.7774658203125,-0.85516357421875,-0.11212158203125
1772808701826904000,9.643904052734374,-1.8204193115234375,-0.873779296875,-0.09033203125
1772808701836928300,9.65392822265625,-1.879974365234375,-0.8694000244140625,-0.06890869140625
1772808701846952200,9.6639521484375,-1.925994873046875,-0.883331298828125,-0.073638916015625
1772808701856976100,9.67397607421875,-1.9025115966796875,-0.877685546875,-0.1190185546875
1772808701866999000,9.6839990234375,-1.896148681640625,-0.841156005859375,-0.1769866943359375
1772808701877023200,9.694023193359374,-1.8961334228515625,-0.8447265625,-0.2217864990234375
1772808701887047200,9.704047119140625,-1.8735809326171875,-0.865966796875,-0.2461395263671875
1772808701897071000,9.714071044921875,-1.8367767333984375,-0.879425048828125,-0.2522735595703125
1772808701907095300,9.72409521484375,-1.7942047119140625,-0.8769073486328125,-0.2433319091796875
1772808701917118000,9.734117919921875,-1.741241455078125,-0.8581390380859375,-0.2212066650390625
1772808701927142100,9.74414208984375,-1.6611328125,-0.81561279296875,-0.20263671875
1772808701937166300,9.754166259765626,-1.5828857421875,-0.761627197265625,-0.187774658203125
1772808701947190000,9.76418994140625,-1.5288543701171875,-0.718353271484375,-0.1655120849609375
1772808701957214200,9.774214111328124,-1.4883575439453125,-0.67071533203125,-0.13360595703125
1772808701967237000,9.784237060546875,-1.4595947265625,-0.6209716796875,-0.1037750244140625
1772808701977261000,9.794260986328124,-1.4124298095703125,-0.584259033203125,-0.075347900390625
1772808701987285200,9.80428515625,-1.329559326171875,-0.5540618896484375,-0.0515289306640625
1772808701997309200,9.81430908203125,-1.2121124267578125,-0.54241943359375,-0.0411834716796875
1772808702007332000,9.82433203125,-1.0707855224609375,-0.5402069091796875,-0.0528717041015625
1772808702017356000,9.83435595703125,-0.9093017578125,-0.533966064453125,-0.079498291015625
1772808702027380200,9.844380126953125,-0.7775421142578125,-0.51837158203125,-0.1040802001953125
1772808702037404200,9.854404052734376,-0.7044219970703125,-0.5056610107421875,-0.1107940673828125
1772808702047428000,9.864427978515625,-0.67242431640625,-0.495819091796875,-0.1027679443359375
1772808702057451000,9.874450927734374,-0.6470794677734375,-0.467010498046875,-0.0923614501953125
1772808702067475200,9.88447509765625,-0.611968994140625,-0.4200592041015625,-0.0862884521484375
1772808702077499100,9.8944990234375,-0.5769195556640625,-0.361541748046875,-0.083526611328125
1772808702087523300,9.9045234375,-0.542510986328125,-0.312774658203125,-0.07806396484375
1772808702097547000,9.914547119140625,-0.46563720703125,-0.2691650390625,-0.0765838623046875
1772808702107570200,9.924570068359374,-0.3901519775390625,-0.214630126953125,-0.08111572265625
1772808702117594000,9.934593994140625,-0.3106689453125,-0.169708251953125,-0.084869384765625
1772808702127618000,9.9446181640625,-0.222686767578125,-0.139923095703125,-0.096038818359375
1772808702137642200,9.954642333984374,-0.1395416259765625,-0.1157379150390625,-0.1051483154296875
1772808702147666200,9.964666259765625,-0.0733489990234375,-0.1041259765625,-0.105926513671875
1772808702157689000,9.974689208984374,-0.0206146240234375,-0.09716796875,-0.0912933349609375
1772808702167713300,9.98471337890625,-0.0099334716796875,-0.0852813720703125,-0.06292724609375
1772808702177737200,9.9947373046875,-0.032623291015625,-0.0820770263671875,-0.041046142578125
1772808702187761200,10.00476123046875,-0.052337646484375,-0.0829010009765625,-0.0203399658203125
1772808702197784000,10.0147841796875,-0.077484130859375,-0.0850982666015625,-0.0057220458984375
1772808702207808000,10.02480810546875,-0.098052978515625,-0.0806732177734375,0.0042724609375
1772808702217832200,10.034832275390626,-0.120025634765625,-0.085357666015625,-0.00677490234375
1772808702227856100,10.044856201171875,-0.1355133056640625,-0.0813140869140625,0.0028076171875
1772808702237880300,10.05488037109375,-0.1386260986328125,-0.062530517578125,0.0081634521484375
1772808702247903200,10.0649033203125,-0.1453857421875,-0.0455169677734375,0.0067901611328125
1772808702257927200,10.07492724609375,-0.15301513671875,-0.0348968505859375,0.008819580078125
1772808702267951000,10.084951171875,-0.13287353515625,-0.0247802734375,0.012481689453125
1772808702277975000,10.09497509765625,-0.0991058349609375,-0.0062713623046875,0.0069580078125
1772808702287999200,10.104999267578124,-0.0931549072265625,-0.003021240234375,-0.0038909912109375
1772808702298022100,10.115022216796875,-0.109710693359375,-0.0080108642578125,0.0025482177734375
1772808702308046000,10.125046142578125,-0.1277923583984375,-0.0292205810546875,0.009735107421875
1772808702318070300,10.1350703125,-0.1614227294921875,-0.064300537109375,0.02374267578125
1772808702328094000,10.145093994140625,-0.1986541748046875,-0.100738525390625,0.041961669921875
1772808702338118100,10.1551181640625,-0.2155303955078125,-0.1463775634765625,0.05767822265625
1772808702348141300,10.165141357421875,-0.2401275634765625,-0.2053985595703125,0.0660247802734375
1772808702358165000,10.1751650390625,-0.28277587890625,-0.27789306640625,0.0713043212890625
1772808702368189200,10.185189208984376,-0.386627197265625,-0.359710693359375,0.0780792236328125
1772808702378213000,10.195213134765625,-0.5050201416015625,-0.4447021484375,0.079193115234375
1772808702388236000,10.205236083984374,-0.596923828125,-0.531982421875,0.0838623046875
1772808702398260200,10.21526025390625,-0.7313079833984375,-0.579071044921875,0.0278778076171875
1772808702408284200,10.2252841796875,-0.991912841796875,-0.505462646484375,-0.0699005126953125
1772808702418308000,10.23530810546875,-1.158660888671875,-0.4749298095703125,-0.1090545654296875
1772808702428332000,10.24533203125,-1.246826171875,-0.57977294921875,-0.10675048828125
1772808702438355200,10.255355224609374,-1.34991455078125,-0.6909637451171875,-0.112274169921875
1772808702448379100,10.265379150390626,-1.4419403076171875,-0.6953887939453125,-0.1256103515625
1772808702458403000,10.275403076171875,-1.531768798828125,-0.6841888427734375,-0.1285552978515625
1772808702468427300,10.28542724609375,-1.645751953125,-0.777984619140625,-0.1168365478515625
1772808702478451000,10.295450927734375,-1.65283203125,-0.9269866943359375,-0.11175537109375
1772808702488474000,10.30547412109375,-1.676544189453125,-0.9641571044921875,-0.108734130859375
1772808702498498300,10.315498291015626,-1.763580322265625,-0.984375,-0.083831787109375
1772808702508522000,10.32552197265625,-1.861114501953125,-1.04925537109375,-0.0536041259765625
1772808702518546200,10.335546142578124,-1.9427642822265625,-1.0679473876953125,-0.009521484375
1772808702528570000,10.345570068359375,-2.00537109375,-1.06060791015625,0.0223846435546875
1772808702538593300,10.35559326171875,-2.032989501953125,-1.037872314453125,0.0445098876953125
1772808702548617200,10.3656171875,-2.0342864990234375,-1.026031494140625,0.0535125732421875
1772808702558641200,10.37564111328125,-1.980224609375,-1.0121307373046875,0.03411865234375
1772808702568665300,10.385665283203124,-1.9185028076171875,-0.97625732421875,0.001434326171875
1772808702578688300,10.395688232421875,-1.8812255859375,-0.9423980712890625,-0.030242919921875
1772808702588712200,10.405712158203125,-1.8335113525390625,-0.907958984375,-0.0578765869140625
1772808702598736400,10.415736328125,-1.76226806640625,-0.864898681640625,-0.093505859375
1772808702608760000,10.425760009765625,-1.6881866455078125,-0.82501220703125,-0.127410888671875
1772808702618784300,10.4357841796875,-1.6014404296875,-0.7812652587890625,-0.1479644775390625
1772808702628807400,10.445807373046875,-1.526336669921875,-0.742431640625,-0.1597900390625
1772808702638831000,10.4558310546875,-1.49267578125,-0.7200164794921875,-0.174072265625
1772808702648855300,10.465855224609374,-1.453338623046875,-0.6878814697265625,-0.18896484375
1772808702658879200,10.475879150390625,-1.4372406005859375,-0.6547088623046875,-0.1972503662109375
1772808702668903200,10.485903076171875,-1.398590087890625,-0.6362152099609375,-0.1995697021484375
1772808702678926300,10.49592626953125,-1.3390655517578125,-0.604888916015625,-0.1939697265625
1772808702688950300,10.5059501953125,-1.26080322265625,-0.56976318359375,-0.1735992431640625
1772808702698974200,10.51597412109375,-1.160736083984375,-0.5480194091796875,-0.1425323486328125
1772808702708998100,10.525998046875,-1.0543212890625,-0.52044677734375,-0.115020751953125
1772808702719021300,10.536021240234374,-0.9609375,-0.484466552734375,-0.094818115234375
1772808702729045200,10.546045166015626,-0.8914642333984375,-0.457061767578125,-0.080841064453125
1772808702739069200,10.556069091796875,-0.821075439453125,-0.444000244140625,-0.081634521484375
1772808702749093400,10.56609326171875,-0.7437591552734375,-0.423614501953125,-0.0893707275390625
1772808702759117000,10.576116943359375,-0.6703643798828125,-0.39532470703125,-0.0924530029296875
1772808702769140200,10.58614013671875,-0.6140899658203125,-0.3733978271484375,-0.091339111328125
1772808702779164400,10.596164306640626,-0.560394287109375,-0.3566436767578125,-0.0871734619140625
1772808702789188000,10.60618798828125,-0.5049896240234375,-0.3354949951171875,-0.083587646484375
1772808702799212300,10.61621240234375,-0.44024658203125,-0.3176727294921875,-0.0778350830078125
1772808702809236200,10.626236328125,-0.3553314208984375,-0.29888916015625,-0.080108642578125
1772808702819259100,10.636259033203125,-0.24908447265625,-0.2604827880859375,-0.0909271240234375
1772808702829283300,10.646283447265626,-0.2979888916015625,-0.19818115234375,-0.0760040283203125
1772808702839307300,10.656307373046875,-0.2364349365234375,-0.164703369140625,-0.075439453125
1772808702849331200,10.666331298828124,-0.1623992919921875,-0.146270751953125,-0.057159423828125
1772808702859355100,10.676355224609376,-0.158203125,-0.1240081787109375,-0.0483551025390625
1772808702869378000,10.6863779296875,-0.1466522216796875,-0.104522705078125,-0.03936767578125
1772808702879402200,10.69640234375,-0.1180572509765625,-0.0986480712890625,-0.0225677490234375
1772808702889426200,10.70642626953125,-0.1045684814453125,-0.1096038818359375,0.004486083984375
1772808702899450400,10.716450439453125,-0.1017913818359375,-0.12774658203125,0.0275115966796875
1772808702909473300,10.726473388671875,-0.0975341796875,-0.1451416015625,0.0386962890625
1772808702919497200,10.736497314453125,-0.10919189453125,-0.1472320556640625,0.0419921875
1772808702929521400,10.746521484375,-0.129638671875,-0.1271209716796875,0.0442962646484375
1772808702939545000,10.756545166015625,-0.1435089111328125,-0.0992279052734375,0.0345458984375
1772808702949569300,10.7665693359375,-0.1672821044921875,-0.0731048583984375,0.0167388916015625
1772808702959592200,10.77659228515625,-0.20318603515625,-0.051849365234375,0.0034637451171875
1772808702969616100,10.7866162109375,-0.2068634033203125,-0.0670013427734375,0.0059661865234375
1772808702979640300,10.796640380859374,-0.266204833984375,-0.1002044677734375,0.0280303955078125
1772808702989664300,10.806664306640625,-0.3520050048828125,-0.13677978515625,0.0443115234375
1772808702999688200,10.816688232421875,-0.3580169677734375,-0.2076568603515625,0.080352783203125
1772808703009711400,10.82671142578125,-0.2234954833984375,-0.2793426513671875,0.136138916015625
1772808703019735000,10.836735107421875,-0.1607818603515625,-0.294525146484375,0.134521484375
1772808703029759200,10.84675927734375,-0.22314453125,-0.2725830078125,0.1111297607421875
1772808703039783200,10.856783203125,-0.540496826171875,-0.28790283203125,0.07769775390625
1772808703049806000,10.86680615234375,-0.98797607421875,-0.3943939208984375,0.0032806396484375
1772808703059830300,10.876830322265626,-1.018157958984375,-0.5155029296875,-0.0150299072265625
1772808703069854200,10.886854248046875,-0.9648895263671875,-0.5713653564453125,0.0571136474609375
1772808703079878100,10.896878173828124,-1.0147857666015625,-0.6033172607421875,0.1282958984375
1772808703089902000,10.906902099609376,-0.8690032958984375,-0.6736602783203125,0.11578369140625
1772808703099925200,10.91692529296875,-0.736297607421875,-0.6086273193359375,-0.0680999755859375
1772808703109949200,10.92694921875,-1.0089569091796875,-0.4098052978515625,-0.1900787353515625
1772808703119973000,10.93697314453125,-1.3530426025390625,-0.2219390869140625,-0.1287689208984375
1772808703129997300,10.946997314453125,-1.497100830078125,-0.3612060546875,0.0554656982421875
1772808703140021200,10.957021240234376,-1.63836669921875,-0.5836639404296875,0.1760406494140625
1772808703150044200,10.967044189453125,-1.91290283203125,-0.5264892578125,0.200103759765625
1772808703160068400,10.977068359375,-2.0399932861328125,-0.351654052734375,0.1177978515625
1772808703170092000,10.987092041015625,-1.99298095703125,-0.334381103515625,0.0111236572265625
1772808703180116200,10.9971162109375,-1.7244720458984375,-0.4594573974609375,-0.1037445068359375
1772808703190140200,11.00714013671875,-1.39520263671875,-0.53887939453125,-0.2011566162109375
1772808703200163000,11.0171630859375,-1.2045135498046875,-0.6191253662109375,-0.270050048828125
1772808703210187300,11.027187255859374,-1.178497314453125,-0.705108642578125,-0.2576904296875
1772808703220211200,11.037211181640625,-1.2913360595703125,-0.7683563232421875,-0.15435791015625
1772808703230235100,11.047235107421875,-1.517913818359375,-0.7866058349609375,-0.01068115234375
1772808703240258300,11.05725830078125,-1.582275390625,-0.7956695556640625,0.12481689453125
1772808703250282200,11.0672822265625,-1.2553558349609375,-0.7762451171875,0.19342041015625
1772808703260306200,11.07730615234375,-1.0035858154296875,-0.6915435791015625,0.1797332763671875
1772808703270330000,11.087330078125,-0.9996795654296875,-0.6029205322265625,0.111541748046875
1772808703280354300,11.097354248046875,-1.0078277587890625,-0.5329742431640625,0.0382080078125
1772808703290377200,11.107377197265626,-0.991790771484375,-0.476654052734375,0.0011138916015625
1772808703300401200,11.117401123046875,-0.98406982421875,-0.4334869384765625,0.0059661865234375
1772808703310425300,11.12742529296875,-0.9882659912109375,-0.4109649658203125,0.044769287109375
1772808703320449000,11.137448974609375,-1.0151824951171875,-0.425506591796875,0.063507080078125
1772808703330473200,11.14747314453125,-1.0183563232421875,-0.4305572509765625,0.071380615234375
1772808703340496400,11.157496337890626,-1.0025787353515625,-0.40234375,0.088287353515625
1772808703350520000,11.16752001953125,-0.9775543212890625,-0.3708648681640625,0.115081787109375
1772808703360544300,11.177544189453124,-0.9393157958984375,-0.339935302734375,0.140655517578125
1772808703370568200,11.187568115234376,-0.89007568359375,-0.296051025390625,0.15899658203125
1772808703380592000,11.197592041015625,-0.8475341796875,-0.2898406982421875,0.16387939453125
1772808703390615300,11.207615234375,-0.8383636474609375,-0.310333251953125,0.1591949462890625
1772808703400639200,11.21763916015625,-0.849578857421875,-0.3254241943359375,0.1324310302734375
1772808703410663200,11.2276630859375,-0.815826416015625,-0.3128814697265625,0.1128082275390625
1772808703420687000,11.23768701171875,-0.8182525634765625,-0.3100738525390625,0.100982666015625
1772808703430710300,11.247710205078125,-0.8447418212890625,-0.3292236328125,0.0897979736328125
1772808703440734200,11.257734130859374,-0.8715667724609375,-0.3432769775390625,0.0879974365234375
1772808703450758100,11.267758056640625,-0.896270751953125,-0.3437957763671875,0.085540771484375
1772808703460782300,11.2777822265625,-0.9005279541015625,-0.3419647216796875,0.0861663818359375
1772808703470806000,11.287805908203126,-0.8897857666015625,-0.340301513671875,0.0884552001953125
1772808703480829200,11.2978291015625,-0.87353515625,-0.34661865234375,0.090576171875
1772808703490853400,11.307853271484374,-0.8636474609375,-0.354156494140625,0.087860107421875
1772808703500877000,11.317876953125,-0.8614654541015625,-0.3507843017578125,0.0870819091796875
1772808703510901200,11.3279013671875,-0.8671875,-0.3519134521484375,0.0922088623046875
1772808703520925400,11.337925537109374,-0.8711700439453125,-0.3609771728515625,0.086273193359375
1772808703530948600,11.347948486328125,-0.8470306396484375,-0.36566162109375,0.07373046875
1772808703540972500,11.35797265625,-0.84552001953125,-0.360198974609375,0.0701904296875
1772808703550996500,11.36799658203125,-0.8717041015625,-0.3813018798828125,0.0629730224609375
1772808703561020700,11.378020751953125,-0.8674163818359375,-0.3980865478515625,0.0517578125
1772808703571044600,11.388044677734374,-0.860687255859375,-0.4000091552734375,0.04656982421875
1772808703581067500,11.398067626953125,-0.8801727294921875,-0.40289306640625,0.0421905517578125
1772808703591091700,11.408091796875,-0.887481689453125,-0.4040069580078125,0.03289794921875
1772808703601115400,11.418115478515626,-0.8906097412109375,-0.3983306884765625,0.0288238525390625
1772808703611139600,11.4281396484375,-0.8936309814453125,-0.3830108642578125,0.0444183349609375
1772808703621162800,11.438162841796874,-0.9269256591796875,-0.3589019775390625,0.0805511474609375
