time,seconds_elapsed,z,y,x
1772797822875992600,0.10299267578125,0.15105273125469684,-0.011578629716020077,0.026461890468001365
1772797822886018600,0.1130185546875,0.1400923613011837,-0.007036218779720366,0.029480142310634255
1772797822896044500,0.12304443359375,0.06320610549747943,-0.0010000804206356407,0.023085253641754386
1772797822906071600,0.133071533203125,0.025983167040348053,0.022695030481461435,-0.005856215214915573
1772797822916097300,0.14309716796875,0.018026655077934266,0.04155305834962055,-0.0254954200560227
1772797822926123300,0.153123291015625,-0.0008744447469711303,0.04532485023960471,-0.01827551527246833
1772797822936150500,0.163150634765625,0.021038696375489233,0.020688713894039392,-0.006190890529379248
1772797822946176500,0.173176513671875,0.07642039185762405,0.00991259619994089,0.012521847116574645
1772797822956202500,0.183202392578125,0.1162590657711029,-0.007695413340814411,0.02641932996790856
1772797822966228500,0.193228515625,0.09129355134069919,0.005518617291003465,0.026543906195648014
1772797822976255500,0.20325537109375,0.06605915684103965,0.0026449980834499,0.01556559872664511
1772797822986281500,0.213281494140625,0.039832244172692294,0.031781204060930754,0.0013004150740802288
1772797822996307000,0.223306884765625,0.021995558708906172,0.04818913536323234,-0.018429682920873165
1772797823006334000,0.233333984375,0.024704233145713805,0.04087766157239675,-0.019249219142831862
1772797823016360000,0.24335986328125,0.03847030816972256,0.02640840671509504,-0.011927059561200439
1772797823026386000,0.253385986328125,0.08027648276388645,0.015526709754671901,0.0034613925002515314
1772797823036412000,0.263411865234375,0.09257131619155406,0.008427435676101595,0.017238792635872958
1772797823046439000,0.27343896484375,0.08161445336937904,0.0018481851499527692,0.019330394620262085
1772797823056465000,0.28346484375,0.06258300516307354,0.009918697147164493,0.0037639921760186552
1772797823066491000,0.293490966796875,0.05127192207574844,0.03527368581918999,-0.0018101546945050357
1772797823076518100,0.30351806640625,0.03492693647444248,0.03959763169921934,-0.005306033986248075
1772797823086544100,0.313544189453125,0.02960135753750801,0.02496715839821845,-0.010247253248095512
1772797823096570000,0.323570068359375,0.0537485413223505,0.021807050399482247,0.00001841243952512741
1772797823106596000,0.33359619140625,0.06178630182743072,0.01277889061756432,0.008689027488045394
1772797823116622800,0.343622802734375,0.08141863853633403,0.01485317614097148,0.0039131548557430505
1772797823126648800,0.35364892578125,0.08000701817274093,0.010591664505284279,0.012093611767143011
1772797823136674800,0.3636748046875,0.06183247905671596,0.01752659660130739,-0.0021342355497181416
1772797823146702000,0.3737021484375,0.05033493348658084,0.015246961231529712,-0.005679908799938857
1772797823156728000,0.38372802734375,0.039677930393815036,0.021484065522812304,-0.006605901071056723
1772797823166754000,0.393754150390625,0.04725158051848411,0.021493965862318873,-0.007030921550095081
1772797823176781000,0.403781005859375,0.06456044271588325,0.009695135790668427,-0.004339015584997832
1772797823186807000,0.41380712890625,0.06753449009060859,0.0057725189868360754,-0.00399349008295685
1772797823196832800,0.423832763671875,0.07220423546731472,0.014519030549470334,0.01112012709248811
1772797823206858800,0.433858642578125,0.05131693026125431,0.013337236886378378,0.008009411193430424
1772797823216886000,0.443885986328125,0.04897708913683891,0.020796357253286987,0.008837203787080944
1772797823226912000,0.453912109375,0.054827568730711936,0.019384590759221464,-0.009672302904352545
1772797823236938000,0.46393798828125,0.0456792166352272,0.020086839010752738,-0.00428593369089067
1772797823246965000,0.473965087890625,0.03606149346232414,0.02433309827838093,0.0017554288325831292
1772797823256991000,0.483990966796875,0.050236149287223815,0.027327530854009092,0.00017086305487900972
1772797823267017000,0.494016845703125,0.07147533667087555,0.01870481006782502,-0.005254303799010813
1772797823277043000,0.50404296875,0.06865618759691715,0.015849219707306475,0.011700959187746046
1772797823287070000,0.514070068359375,0.06165829153358936,0.016789130905922503,0.01462707576751709
1772797823297096000,0.524095947265625,0.045827100673317904,0.012089666244387625,0.0019112404488027094
1772797823307122000,0.534121826171875,0.05616086316108703,0.022505407927185295,0.0021192206436768174
1772797823317149000,0.54414892578125,0.06572481032013892,0.029894020341150462,-0.0035765067799016833
1772797823327175000,0.5541748046875,0.05268120435178279,0.01682025669654831,0.0036074499074369667
1772797823337201000,0.564200927734375,0.051018239575624465,0.014978592618927358,0.003089380850084126
1772797823347227000,0.574226806640625,0.06537994240522384,0.01956467830017209,0.004117664451897144
1772797823357254100,0.584254150390625,0.05162088164389133,0.023922544716112316,-0.005724332463555038
1772797823367280000,0.594280029296875,0.0583715249478817,0.026800876631401477,0.001971555801294744
1772797823377306000,0.60430615234375,0.05793664066195488,0.023709888346120714,-0.0020569325298070906
1772797823387332900,0.614332763671875,0.05000175600945949,0.01672740904763341,-0.007505882118083536
1772797823397358800,0.62435888671875,0.046994975408911704,0.015954561511613428,-0.004310483610257506
1772797823407384800,0.634384765625,0.06433890891969203,0.02125354470256716,-0.00044967999625951046
1772797823417412000,0.644412109375,0.05386369213461876,0.021092801182903347,0.007015943176671862
1772797823427438000,0.65443798828125,0.04054945253133774,0.016752671353053302,-0.000389181980676949
1772797823437464000,0.664464111328125,0.06225742647051811,0.0012789704272523521,-0.0011836568266153334
1772797823447490000,0.674489990234375,0.06900982334017754,0.01121248155105859,0.003118606944568455
1772797823457516800,0.684516845703125,0.05675006122589111,0.015364833723846822,-0.001310023152641952
1772797823467542800,0.694542724609375,0.05675532192289829,0.022048622336704283,0.003721102882362902
1772797823477568800,0.70456884765625,0.05434942982494831,0.024032800157554445,-0.00519771477356553
1772797823487596000,0.714595947265625,0.05253507387936115,0.029161285619810223,0.0030770328251644966
1772797823497622000,0.7246220703125,0.048779520738124846,0.02963763442728668,0.003758731479011476
1772797823507648000,0.73464794921875,0.04398351863324642,0.024385266857035456,0.0032336116263642907
1772797823517675000,0.744675048828125,0.06494096646606921,0.026065401963703334,0.000797360922768712
1772797823527701000,0.754700927734375,0.0549205077111721,0.02412962986184284,0.0027598201021552084
1772797823537727000,0.76472705078125,0.0483370376676321,0.0195789260212332,0.0010874299105256796
1772797823547753000,0.7747529296875,0.04863163670003414,0.03229021302899346,0.0005327186372131109
1772797823557780000,0.784780029296875,0.04878068978190422,0.02024159118104726,0.00699979575946927
1772797823567806000,0.794805908203125,0.039485038170218464,0.017690518458746373,-0.007681859739497304
1772797823577832000,0.80483203125,0.05219254405200481,0.017600757816061376,0.00690258246269077
1772797823587859000,0.81485888671875,0.05803367129564285,0.019245620679948477,0.0028301819246262312
1772797823597885000,0.824885009765625,0.06327566360235214,0.012076295306161045,0.008534165719896554
1772797823607911000,0.834910888671875,0.057740241307020185,0.014344459433853625,0.00023994623571634292
1772797823617938000,0.84493798828125,0.05564414581060409,0.01825129414666444,0.006016191549599171
1772797823627964000,0.8549638671875,0.04428162479698658,0.023718692707084117,-0.002779401585459709
1772797823637990000,0.864989990234375,0.051913142588734626,0.022061335687804967,0.0016973785024136305
1772797823648016000,0.875015869140625,0.06642857467532158,0.025666904165409503,0.005609035520814359
1772797823658043000,0.88504296875,0.048017888715863224,0.02069863249985501,-0.004303615478053689
1772797823668068900,0.89506884765625,0.05072305602133274,0.017381397710647433,0.00418386155590415
1772797823678094800,0.9050947265625,0.0595610269933939,0.017119404039904473,0.007715944672189653
1772797823688122000,0.9151220703125,0.05073533098101616,0.023413955873157827,0.0022451120456680653
1772797823698148000,0.925148193359375,0.048936757126450535,0.013646832558512687,0.003352525298297405
1772797823708174000,0.935174072265625,0.053721653315424917,0.015946889661811292,-0.0048683001561090344
1772797823718200800,0.945200927734375,0.05357669188678264,0.02750752706341445,0.008472754388861357
1772797823728226800,0.955226806640625,0.043994040027260775,0.024714279615692794,-0.0019498554261401294
1772797823738252800,0.965252685546875,0.06074760642945766,0.015992080510407684,0.006070625150576233
1772797823748280000,0.975280029296875,0.06583294686973094,0.015323405734915285,0.004267411653511226
1772797823758306000,0.98530615234375,0.0626981559753418,0.01654690138157457,-0.000026705343835055828
1772797823768332000,0.99533203125,0.046691608548164364,0.025222630996629594,0.0012843041894957422
1772797823778358000,1.00535791015625,0.04743687395751476,0.017691230844799427,0.002324716620519757
1772797823788385000,1.015385009765625,0.0589507861405611,0.02811663540508598,-0.010510507294163108
1772797823798411000,1.025410888671875,0.054153030470013616,0.022359313987381755,-0.001995192405208945
1772797823808437000,1.03543701171875,0.04605623325407505,0.01723718520067632,0.0038426103701815007
1772797823818464000,1.045464111328125,0.050098786643147465,0.01928345020599663,0.005806202060729265
1772797823828490000,1.055489990234375,0.05653612621426582,0.013778788375109433,-0.008714709918573498
1772797823838516000,1.065515869140625,0.058492520979046815,0.012713022307120262,0.0008526347739621997
1772797823848543000,1.07554296875,0.058653849020600314,0.022713497719913718,0.001597644454985857
1772797823858569000,1.08556884765625,0.05910802252888679,0.02308276942372322,-0.004771598315984011
1772797823868595000,1.095594970703125,0.042947161322832106,0.018241138078831137,0.002784370021522045
1772797823878622000,1.1056220703125,0.051180152139067646,0.028056594047229735,0.0035465500330552455
1772797823888648000,1.11564794921875,0.06434826126992702,0.027084662008844313,-0.004473894011043012
1772797823898674000,1.125673828125,0.04638765716552734,0.02630180453546345,0.001187602349370718
1772797823908700000,1.135699951171875,0.03261749048829078,0.026639384193066506,-0.0029076310750097037
1772797823918727000,1.145726806640625,0.0483282698392868,0.029668011299241334,-0.004544949953258037
1772797823928753000,1.1557529296875,0.0547591796696186,0.024201763516291976,0.005596614430658519
1772797823938779000,1.16577880859375,0.049528877800703044,0.03008715002676472,0.0047820466447621585
1772797823948806100,1.17580615234375,0.05552081169188022,0.02235765175325796,0.004577938907407224
1772797823958832000,1.18583203125,0.039356443354487416,0.021817644858732818,0.004228248686902225
1772797823968858000,1.195858154296875,0.05072831671833992,0.01205459493100643,-0.002090250277519226
1772797823978884900,1.205884765625,0.0556698647737503,0.022344682673830538,0.005898812247626483
1772797823988910600,1.21591064453125,0.05686170490682125,0.008163834570161997,0.0035569983618333936
1772797823998936600,1.2259365234375,0.052075639674067496,0.016515008405968545,-0.00030435324143618343
1772797824008963800,1.2359638671875,0.048043607679009434,0.009947411784995346,0.005624415753036737
1772797824018989800,1.24598974609375,0.048052375507354736,0.017409820087533442,0.00012782763075083493
1772797824029015800,1.256015869140625,0.03982522991001606,0.0250903463864699,-0.003453537987358868
1772797824039042800,1.266042724609375,0.04821194998323917,0.017822474275343118,-0.005849968137219548
1772797824049068800,1.27606884765625,0.047458501267433166,0.02209310079924762,0.0017661694223061204
1772797824059094800,1.2860947265625,0.039379239708185194,0.023361294104158877,-0.00590074847638607
1772797824069120800,1.296120849609375,0.05164718512892723,0.01651369323171675,-0.002030446381680667
1772797824079147800,1.306147705078125,0.051043374016880985,0.014840462789870798,0.005750855144299566
1772797824089173800,1.316173828125,0.04983867440223694,0.015381711793411522,0.010033099040761589
1772797824099199700,1.32619970703125,0.05059329216182232,0.011169939317274839,-0.0023992431614547967
1772797824109226800,1.336226806640625,0.04865151044428348,0.018335063439980148,-0.0017414003072306512
1772797824119252700,1.346252685546875,0.05283902526199817,0.01955846775509417,-0.007606748676672577
1772797824129278700,1.35627880859375,0.04117722904086113,0.03249828455541283,0.0006944850701838731
1772797824139305700,1.3663056640625,0.02831774746775627,0.03661779390452429,-0.006730659961886704
1772797824149331700,1.376331787109375,0.049262335819005965,0.029209380811545997,0.00029134762939065696
1772797824159357700,1.386357666015625,0.037575405156612396,0.0214826772833243,-0.003609532266668975
1772797824169384700,1.396384765625,0.032469021928310395,0.02378730096388608,-0.0028427491452544928
1772797824179410700,1.40641064453125,0.03904313962161541,0.02252758322637528,0.0005790419969707727
1772797824189436700,1.416436767578125,0.052209495186805725,0.02294566250797361,-0.002781447412073612
1772797824199464000,1.4264638671875,0.052364393487572665,0.019379421393759547,-0.00258504805713892
1772797824209490000,1.436489990234375,0.04338613726198673,0.01563716612551361,0.008078457841649652
1772797824219516000,1.446515869140625,0.033064065212011336,0.022467998526245356,0.006809241623431443
1772797824229542000,1.4565419921875,0.04952829327881336,0.025618498446419835,0.0012742577195167541
1772797824239568600,1.466568603515625,0.04427577957808971,0.019285751760937272,0.002933861494809389
1772797824249594600,1.4765947265625,0.04471884717047214,0.016783760611061006,0.00238090378716588
1772797824259620600,1.48662060546875,0.042913259053230284,0.013266820264980196,0.002255523841828108
1772797824269648000,1.49664794921875,0.0373702379733324,0.010972717978432774,0.01359656367599964
1772797824279673900,1.506673828125,0.048448681348562235,0.01727167199216783,0.0029935557927936313
1772797824289699800,1.516699951171875,0.050996027743816376,0.022517171430215237,0.003585822597518563
1772797824299726800,1.526726806640625,0.04681494266688824,0.019414163913577795,-0.0015236659033223987
1772797824309752600,1.536752685546875,0.04980769474208355,0.026694457114860414,0.009215316384471952
1772797824319778600,1.546778564453125,0.04636486081182956,0.016687040504626927,0.010847411098331212
1772797824329805600,1.5568056640625,0.04771101472377777,0.02284899720046669,0.006505071045085787
1772797824339831800,1.566831787109375,0.05489245066046714,0.022150858868472276,-0.0012642843147739767
1772797824349857800,1.57685791015625,0.03888181158006191,0.03188544988669455,0.006285510010272264
1772797824359884800,1.586884765625,0.04442249457240104,0.027150512052979317,0.0036244010422378774
1772797824369910800,1.596910888671875,0.0400894338041544,0.0317602526044473,0.004248487757332622
1772797824379936800,1.606936767578125,0.04443360048830509,0.016219185530859975,-0.0029143530767410993
1772797824389963500,1.616963623046875,0.046826633104681964,0.02676533039398491,0.0014409925885498522
1772797824399989800,1.62698974609375,0.03739712598025799,0.018715989048965275,0.005850333463400602
1772797824410015700,1.637015625,0.04621756129562855,0.01850830111503601,-0.0001052504727616906
1772797824420041700,1.647041748046875,0.05668868642747402,0.008704480785503984,0.004800386019051074
1772797824430068700,1.65706884765625,0.04217500790655613,0.01386403723945841,0.012208799112029373
1772797824440094700,1.6670947265625,0.03648936348557472,0.022636523493565618,0.003797821380384266
1772797824450120700,1.67712060546875,0.04263093498051166,0.016196626639179885,0.01007752270437777
1772797824460147700,1.687147705078125,0.053859015959501266,0.013349219585116952,-0.0035635377004742622
1772797824470174000,1.697174072265625,0.05281856699585914,0.015025537033192813,-0.005036934721283614
1772797824480200000,1.707199951171875,0.04623334338665008,0.016232611268013716,0.005076974470727145
1772797824490226700,1.717226806640625,0.04204232143759727,0.026551833773776887,-0.0015852964300662278
1772797824500252700,1.727252685546875,0.036654783180356025,0.014913601091317832,-0.001724156911484897
1772797824510278700,1.737278564453125,0.04233984307944774,0.012471505168825387,0.001805113193206489
1772797824520305700,1.7473056640625,0.049530631366372105,0.023851178246643394,0.0027429420325905084
1772797824530331600,1.75733154296875,0.048636897397041315,0.017861217116843908,0.007030702354386449
1772797824540358000,1.76735791015625,0.05178396325111389,0.02431218335451558,0.0019125921556726096
1772797824550384600,1.777384521484375,0.04206161065995693,0.016530406904499976,-0.0011474164694547653
1772797824560410600,1.78741064453125,0.037568390893936154,0.020428492055274545,0.0014648118555545806
1772797824570436600,1.7974365234375,0.04415186093747615,0.022276896400935945,0.008367211655154824
1772797824580462600,1.807462646484375,0.0447469042211771,0.017765446858480572,-0.0023543811064213513
1772797824590489600,1.817489501953125,0.03427461004555225,0.02358880098341033,0.001129369356110692
1772797824600515800,1.827515869140625,0.03741933781206608,0.0227356364864856,-0.002768295669555664
1772797824610541800,1.837541748046875,0.046099487873911854,0.025633367221988737,-0.0007182312719523907
1772797824620568800,1.84756884765625,0.04670096089839935,0.02092350903060287,-0.0004508125074207782
1772797824630594800,1.8575947265625,0.0444593194514513,0.02429976226435974,0.008758987451717257
1772797824640620800,1.867620849609375,0.04879530282914638,0.02143697497807443,0.005660838773287833
1772797824650647600,1.8776474609375,0.0495353075414896,0.012568681932985782,0.003509725154004991
1772797824660673500,1.887673583984375,0.04863397478759288,0.017630641497671604,0.00400368268340826
1772797824670699800,1.89769970703125,0.045181788507103915,0.021335085506178436,0.0023919366378337146
1772797824680726800,1.907726806640625,0.034847441497445106,0.015223817817959933,0.01551226110421121
1772797824690752800,1.917752685546875,0.03619125732183456,0.02795808384250849,0.012006006548926234
1772797824700778800,1.92777880859375,0.03887479731738567,0.0193163295622915,-0.00121354050822556
1772797824710804700,1.9378046875,0.042917935228347776,0.021425522002298383,-0.0038332214873284098
1772797824720831700,1.947831787109375,0.04232698359787464,0.02964408243438229,-0.006306735461391508
1772797824730857700,1.957857666015625,0.04906242933273315,0.020551753108762203,0.00024608371555805207
1772797824740883700,1.9678837890625,0.039326632738113404,0.014454093820787965,0.0031465178648009897
1772797824750910700,1.97791064453125,0.04905073889493942,0.008660312850214541,-0.0030080957747995853
1772797824760936700,1.987936767578125,0.0447118329077959,0.013406100871507077,0.005304207355342805
1772797824770962700,1.997962646484375,0.04831131870448589,0.020367847909219562,0.002406001695804298
1772797824780989700,2.00798974609375,0.048317163923382755,0.029224304386042056,0.00599127630405128
1772797824791015700,2.018015625,0.043995793592929835,0.019584953903220594,0.002829012880846858
1772797824801042000,2.0280419921875,0.048341713842749594,0.024405286731757223,0.006435220679268241
1772797824811068700,2.038068603515625,0.036217560806870455,0.024795637756213545,0.0009330795990303159
1772797824821094700,2.0480947265625,0.051774610900878905,0.03333838864136487,-0.0018733561238273976
1772797824831120600,2.05812060546875,0.057307110586762425,0.030193606075923887,-0.0033214360402896996
1772797824841147600,2.068147705078125,0.03351356254518032,0.03249554460905492,-0.008341419626772404
1772797824851173600,2.078173583984375,0.04413432528078556,0.025508754461631176,-0.0019107289921492336
1772797824861199600,2.08819970703125,0.03753624219000339,0.030600634240545332,0.003115392074175179
1772797824871225900,2.098225830078125,0.04665478366911411,0.02010375361293554,0.0017761428270488976
1772797824881252900,2.1082529296875,0.051582887721061704,0.012801887900661677,0.004821392274461687
1772797824891278800,2.11827880859375,0.03108136696219444,0.02460051704291254,0.0008915420122444629
1772797824901304800,2.128304931640625,0.03901508257091045,0.02121850992180407,0.0008407982056960463
1772797824911331600,2.13833154296875,0.0493523521900177,0.010197532354854046,-0.004183605827577412
1772797824921357600,2.148357666015625,0.06073007077276706,0.009950096932426095,-0.001874707830697298
1772797824931383600,2.158383544921875,0.05907938095629215,0.011328509146161377,-0.00255932909399271
1772797824941410800,2.168410888671875,0.032899230039119716,0.014648611745890229,0.003442176343128085
1772797824951436800,2.178436767578125,0.038430560681223865,0.01748838348276913,0.0023699074691161514
1772797824961462800,2.188462890625,0.050102878296375275,0.022106837063655255,0.002525719085335731
1772797824971489800,2.19848974609375,0.040975568988919256,0.03012841361891478,0.00324690949935466
1772797824981515500,2.208515625,0.04427285696864128,0.01980500812837854,0.005907616608589887
1772797824991542300,2.218542236328125,0.03261515240073204,0.014496544723026453,0.007486044906452298
1772797825001569300,2.2285693359375,0.04189794453084469,0.02533427467755973,0.007093282729201018
1772797825011595300,2.23859521484375,0.05177694898843765,0.028706819850578904,0.002630640764534473
1772797825021621200,2.248621337890625,0.028135376638174055,0.016299301562365143,0.0020117416812106964
1772797825031647200,2.258647216796875,0.04489361921548843,0.018212587837781756,-0.000871485604904592
1772797825041674200,2.26867431640625,0.04339139795899391,0.009789718738943338,-0.0017934227554127573
1772797825051700200,2.2787001953125,0.022743162205815314,0.012065974841546267,-0.0080065616492182
1772797825061726200,2.288726318359375,0.04743979656696319,0.024200704070366917,0.00396236429233104
1772797825071753200,2.298753173828125,0.05672317321896553,0.024495796293113378,-0.006528159659728408
1772797825081779200,2.308779296875,0.03532382683753967,0.015389548039995133,0.010220255643315612
1772797825091805200,2.31880517578125,0.04385609286129474,0.021125735338125378,-0.0013013283895328641
1772797825101832200,2.328832275390625,0.048642158094048496,0.030175138837471603,0.0010852379534393548
1772797825111858200,2.338858154296875,0.039360535007715226,0.015107077836804091,0.012352116572856902
1772797825121884200,2.34888427734375,0.05042904151082039,0.02233954984098673,-0.010072444670461117
1772797825131911200,2.3589111328125,0.05386544570028782,0.013495952845737338,0.009807254395633935
1772797825141937200,2.368937255859375,0.04862520695924759,0.006168605632334947,0.014980126988887786
1772797825151963100,2.378963134765625,0.04055295966267586,0.019098156766965985,-0.008542458624206483
1772797825161989000,2.388989013671875,0.04341244074702263,0.01549538303464651,0.005499876057915389
1772797825172016000,2.39901611328125,0.0449123239159584,0.024987653196975587,0.005969174070097506
1772797825182042000,2.4090419921875,0.04611468544304371,0.021634762572497128,0.0006597060177475214
1772797825192068400,2.419068359375,0.040427871978282924,0.021726824770122766,0.0019131401449441908
1772797825202095400,2.429095458984375,0.046105917614698406,0.02622409965675324,-0.0011239990612491966
1772797825212121300,2.439121337890625,0.05238134462237358,0.018762969995848835,-0.0026712285032495856
1772797825222147300,2.449147216796875,0.036972763088345524,0.011039828397892415,-0.00367876157797873
1772797825232174000,2.459174072265625,0.032794016098976135,0.0210003188601695,0.00002539016958326101
1772797825242200000,2.469199951171875,0.0390869787633419,0.028034930204693227,-0.0036421924272552132
1772797825252226000,2.47922607421875,0.04403320299386978,0.030465627950336784,0.004097863772884011
1772797825262252300,2.489252197265625,0.04778407995998859,0.028669629645347593,-0.00015643267072737216
1772797825272279300,2.499279296875,0.04479425049424171,0.0149177840760909,0.010095241024158895
1772797825282305300,2.50930517578125,0.0453916318655014,0.02521928826207295,0.00027867081090807914
1772797825292331300,2.519331298828125,0.045373511686921116,0.017936967500485478,-0.0011942878184840083
1772797825302358300,2.529358154296875,0.04132978925406933,0.013580160530470311,0.01167856469284743
1772797825312384300,2.53938427734375,0.04358078305125236,0.022308661512378602,0.002139277051016688
1772797825322410200,2.54941015625,0.04298807785511016,0.015267711758613585,0.0003228752788156271
1772797825332437200,2.559437255859375,0.03760813838243484,0.016257654377724973,0.0037287747321650385
1772797825342463200,2.569463134765625,0.046885669815540314,0.018200148481316864,0.008518383628875017
1772797825352489200,2.5794892578125,0.04973053785264492,0.01871365096140653,0.012044292732700706
1772797825362516200,2.58951611328125,0.05047229613065719,0.020128961119428277,-0.0007718611553311348
1772797825372542200,2.599542236328125,0.03804828336536884,0.023929723375570026,-0.004577500515989959
1772797825382568200,2.609568115234375,0.04882102179229259,0.021360658338852225,0.010253463793173432
1772797825392595200,2.61959521484375,0.04776537525951862,0.01397001836458221,0.007421820563822984
1772797825402621200,2.62962109375,0.0414747506827116,0.009710077631473541,0.004210128508321941
1772797825412647200,2.639647216796875,0.04625321713089943,0.02310423233686015,0.004188391600549221
1772797825422673200,2.649673095703125,0.0426642527282238,0.026834486640058455,0.0037845235073938966
1772797825432700200,2.6597001953125,0.03937631709873676,0.022605324637703598,0.016872407008893787
1772797825442726100,2.66972607421875,0.04357552235424518,0.021585114744491873,0.0019786431292071935
1772797825452752100,2.679752197265625,0.049561026504635806,0.020639650587923823,0.0028511516474187372
1772797825462779400,2.689779296875,0.03803483936190605,0.025455636034905908,0.0019272052029147744
1772797825472805400,2.699805419921875,0.031005963638424873,0.020384981707110998,0.009514555059373379
1772797825482831400,2.709831298828125,0.04462649271190166,0.02681799216298386,-0.0004900120066478848
1772797825492858000,2.719858154296875,0.054801849767565726,0.028875527480989694,0.005175174148194492
1772797825502884000,2.729884033203125,0.03833411456942558,0.02242521883044392,-0.0029772622451186177
1772797825512910000,2.73991015625,0.034431261911988253,0.026280286823399363,-0.0007991510210558772
1772797825522936300,2.749936279296875,0.033521161329746245,0.02415865502692759,0.0030520079817622898
1772797825532963300,2.75996337890625,0.03455634959638119,0.007140665534883737,-0.0008449994567781686
1772797825542989300,2.7699892578125,0.03784779235720634,0.019169979894161224,-0.00247541367020458
1772797825553015300,2.780015380859375,0.0529687891215086,0.01628646034710109,0.007746705136634409
1772797825563042000,2.7900419921875,0.051481765434145926,0.018626356270443647,0.0030444457298144695
1772797825573068000,2.800068115234375,0.05268588052690029,0.021729345520772037,0.004420739051699638
1772797825583094000,2.810093994140625,0.037279637080430986,0.019208083414845166,-0.0029969167936593293
1772797825593121300,2.820121337890625,0.03129296388626098,0.024474516043066975,0.001480813142284751
1772797825603147300,2.830147216796875,0.03502747423946857,0.017143807828798888,0.002235430901870131
1772797825613173200,2.84017333984375,0.04144727815389633,0.014256415824219583,0.0063073565158993
1772797825623200300,2.8502001953125,0.043236499658226964,0.008786971437186002,0.002470993223413825
1772797825633226200,2.860226318359375,0.03425648986697197,0.02158712403848767,0.0016262129623442888
1772797825643252200,2.870252197265625,0.038756139373779294,0.02073461712868884,0.0052472530037164684
1772797825653278200,2.8802783203125,0.04758183538615703,0.019112879412062463,0.0024988676110282537
1772797825663305200,2.89030517578125,0.03366612275838852,0.018208806711807846,0.00520034512206912
1772797825673331200,2.900331298828125,0.028275661891698837,0.014386691140383481,-0.0046667131694033736
1772797825683357200,2.910357177734375,0.04457505478560924,0.017143296372145414,0.009338650503195822
1772797825693384200,2.92038427734375,0.05175532167851925,0.01450131222968921,0.011567907392606139
1772797825703410200,2.93041015625,0.05010638542771339,0.009185359637625515,0.0054139878727495665
1772797825713436200,2.940436279296875,0.05385433978438377,0.021755941266752777,0.007067381102964281
1772797825723463400,2.95046337890625,0.06344166781902313,0.027459304007515308,0.004532200069539249
1772797825733489200,2.9604892578125,0.05567044929563999,0.018996249028760938,-0.0018840601809322834
1772797825743515100,2.97051513671875,0.04041442797482014,0.02404335808418691,-0.0004969166714698076
1772797825753542100,2.980542236328125,0.03981763112545013,0.027721589939203112,-0.0039480435060337184
1772797825763568000,2.990568115234375,0.04535480698645115,0.014894384934194385,0.0014782193263992666
1772797825773594000,3.000593994140625,0.04265022420287132,0.017991766427643597,0.0012957388989627361
1772797825783620000,3.0106201171875,0.04459259044229984,0.031764088529348374,-0.0012023249944671988
1772797825793647400,3.0206474609375,0.06210603530108928,0.0194027292041108,0.007393617382645607
1772797825803673300,3.03067333984375,0.05732815337479114,0.0195397630546242,0.003936206937767565
1772797825813699300,3.04069921875,0.047613399568200106,0.019347345755062997,0.004624992919526994
1772797825823726000,3.05072607421875,0.04388181182444095,0.017603461229801175,0.004174691868759691
1772797825833752000,3.060751953125,0.04523439547717571,0.020043693988770244,0.005237206533737481
1772797825843778000,3.070778076171875,0.044186347728967665,0.017635646466352045,0.012800262199155985
1772797825853805300,3.080805419921875,0.05196984121203422,0.028663656562287358,0.014858217642270027
1772797825863831300,3.090831298828125,0.038655017086863516,0.033116032861266284,-0.00260017256103456
1772797825873857300,3.100857177734375,0.04390285461246967,0.029190073322877288,0.001064925817772746
1772797825883884300,3.11088427734375,0.0457096117734909,0.016860625239554793,0.0012722118929028511
1772797825893910300,3.12091015625,0.04930383687317371,0.016233908175956456,-0.003019165158085525
1772797825903936300,3.130936279296875,0.05049626152813434,0.01012437578709796,0.001631546724587679
1772797825913962200,3.140962158203125,0.04750117136538028,0.019909747144486754,0.008455693656206131
1772797825923989200,3.1509892578125,0.044507250246405596,0.014872648026421666,0.01026566568762064
1772797825934015200,3.16101513671875,0.04286825086772442,0.026080416869744657,0.010859466862305997
1772797825944041200,3.171041259765625,0.04483575154840946,0.03146744367033243,0.002042940537072718
1772797825954068200,3.181068115234375,0.03483282845020294,0.031667021363042294,-0.003285962868109345
1772797825964094200,3.19109423828125,0.03708674485683441,0.01602642117142677,-0.0032696693204343316
1772797825974120200,3.2011201171875,0.043813422763347626,0.012433036321960389,0.0034084932692348955
1772797825984147200,3.211147216796875,0.03766191439628601,0.026064945305977014,0.0017354089578613637
1772797825994173000,3.2211728515625,0.05275368506610393,0.025821053547505288,0.0011751081939786671
1772797826004199000,3.231198974609375,0.05229834251403808,0.025981760534550993,0.012415098806470631
1772797826014224600,3.241224609375,0.034492052188515664,0.020130769484024494,0.00852178116235882
1772797826024251600,3.251251708984375,0.04034311630427837,0.027799861073493956,0.006261069688759744
1772797826034277600,3.261277587890625,0.051284781557321545,0.014918752190470695,-0.0005617986012250185
1772797826044303600,3.2713037109375,0.04768821837007999,0.018170392663870005,-0.004603036816045641
1772797826054331000,3.281330810546875,0.041839492341876026,0.01309557361761108,-0.004801335867121816
1772797826064356900,3.29135693359375,0.04990063372254371,0.020314455487858502,0.0028195874653756618
1772797826074382800,3.3013828125,0.0337234059035778,0.022136044891830534,-0.0020772446654736994
1772797826084409600,3.31140966796875,0.04044716120064258,0.008421243397332728,0.008201207438483835
1772797826094435600,3.321435546875,0.05048398656845093,0.019620609738491473,0.00723992465827614
1772797826104461600,3.331461669921875,0.04211480215191841,0.022157197277713567,0.0007935615304857492
1772797826114488800,3.34148876953125,0.04721650920510292,0.021939901265222578,-0.003963606401346624
1772797826124514800,3.351514892578125,0.03480126426815987,0.012542707241512834,-0.008479805184155703
1772797826134540800,3.361540771484375,0.04376841457784176,0.005796630514785647,-0.00011102262642234563
1772797826144566800,3.37156689453125,0.045997196543216705,0.01841006490495056,0.014165851463936268
1772797826154593800,3.38159375,0.04420271434187889,0.02957741040633991,0.0056239042963832616
1772797826164619800,3.391619873046875,0.05184299996197223,0.03801969659170135,-0.002860796258598566
1772797826174645800,3.401645751953125,0.04751578441262245,0.036913068790361284,0.006715498925372957
1772797826184672800,3.4116728515625,0.043190322428941726,0.03071039649164304,-0.0019380188578739762
1772797826194698800,3.42169873046875,0.04409574683606624,0.0243339202622883,-0.0034668358603492377
1772797826204724700,3.431724853515625,0.05156769015192985,0.014148461937718092,0.005674648102931678
1772797826214751700,3.441751708984375,0.040783261287212366,0.022915924956835806,-0.006036138359084725
1772797826224777700,3.45177783203125,0.03463993622660637,0.015360175815038382,-0.0010815116263926028
1772797826234803700,3.4618037109375,0.04047814086079597,0.022331183871440587,0.00845737415663898
1772797826244829700,3.47182958984375,0.04138999500870704,0.017603369898255915,0.006320508258417248
1772797826254856700,3.481856689453125,0.05486906978487968,0.016555468280520288,-0.0050334641225636
1772797826264882700,3.491882568359375,0.047238136515021324,0.011061729702446609,0.003092303459532559
1772797826274908700,3.50190869140625,0.0437970561504364,0.01889269732274115,0.00778539317920804
1772797826284935700,3.511935791015625,0.04035714482963085,0.02399097030982375,0.0028942966694012282
1772797826294961700,3.521961669921875,0.04889116441905498,0.02406124080074951,-0.0033920901237055657
1772797826304987600,3.531987548828125,0.04605564873218536,0.016776271424349395,0.009535415184311568
1772797826315015000,3.542014892578125,0.049804187610745426,0.02029843593481928,-0.00020293869357556103
1772797826325041000,3.552041015625,0.046665889585018154,0.019783033758588135,0.003286108998581767
1772797826335067000,3.56206689453125,0.03514262505173683,0.014323453178443014,0.0043622868627309795
1772797826345093600,3.57209375,0.047722120639681814,0.01579869509646669,-0.00261171686835587
1772797826355119600,3.58211962890625,0.051609775727987285,0.013531042425427586,-0.006282295139878988
1772797826365145600,3.5921455078125,0.044433015966415405,0.019664174885582177,0.0011804784888401628
1772797826375171600,3.602171630859375,0.02648819395303726,0.014357337181735782,0.005293284102529287
1772797826385198800,3.61219873046875,0.03697159404456615,0.014805902933143078,-0.006167400055937469
1772797826395224800,3.622224853515625,0.04490881678462028,0.01915982382632792,0.0027671266257762906
1772797826405250800,3.632250732421875,0.04371171595454216,0.019970829681959002,0.005650098183564841
1772797826415277800,3.64227783203125,0.03023965544104576,0.0216524626259692,0.00676405077483505
1772797826425303800,3.6523037109375,0.03307400208413601,0.023791100356169045,0.0037555166086181997
1772797826435329800,3.662329833984375,0.04654430903196335,0.030317141124047337,0.007817505350522697
1772797826445356500,3.6723564453125,0.05431961920857429,0.01738232929240912,0.012733517105877399
1772797826455382800,3.6823828125,0.03965630308389664,0.012377598073985427,-0.000015855156257748602
1772797826465408800,3.69240869140625,0.04204465952515602,0.02502292543975636,0.011872187568806111
1772797826475434800,3.702434814453125,0.04039163162112236,0.021037235070765017,0.01399513453952968
1772797826485461800,3.712461669921875,0.04023439523279667,0.014842947007901966,-0.006623217532038688
1772797826495487700,3.72248779296875,0.046515667459368706,0.02300248899543658,0.011012903858348726
1772797826505513700,3.732513671875,0.04382686676681041,0.025998054082226007,0.012819551421515642
1772797826515540700,3.742540771484375,0.04862111530601978,0.036877394688781345,-0.005341214897483587
1772797826525566700,3.752566650390625,0.036955811953544616,0.019056856642197816,0.002478007486090064
1772797826535592700,3.7625927734375,0.035005262407660484,0.01565557856503874,0.010472257643006742
1772797826545619700,3.77261962890625,0.042485389029979705,0.01730144607592374,-0.00947035059146583
1772797826555645700,3.782645751953125,0.03679857556521892,0.030123499981779604,0.005090929930843413
1772797826565671700,3.792671630859375,0.04412263484299182,0.025424839037843046,0.00642184974104166
1772797826575697700,3.80269775390625,0.05114683439135551,0.019438293707836417,-0.0002252966558560729
1772797826585725000,3.812724853515625,0.050696168014407156,0.020184289769548922,0.0013834537150338292
1772797826595751000,3.8227509765625,0.04276303692758083,0.025591318178549406,0.004186674567498267
1772797826605777000,3.83277685546875,0.054288639548420906,0.013855506873130797,0.008114734731428324
1772797826615803600,3.8428037109375,0.050254269465804094,0.020645514073129742,0.0014941110152751206
1772797826625829600,3.85282958984375,0.045918286088109016,0.022096827126294374,-0.0007007686804980039
1772797826635855600,3.862855712890625,0.04023264166712761,0.015354129666741937,0.00020385200902819632
1772797826645883000,3.8728828125,0.03829495160281658,0.021223898482974617,-0.0012413418306037782
1772797826655908900,3.882908935546875,0.03934475291669368,0.02933545487662777,0.0006377864468842745
1772797826665934800,3.892934814453125,0.05146422977745533,0.025422665347065776,0.0005965776536613702
1772797826675961900,3.9029619140625,0.048909869119524954,0.023653116657584905,0.007700126048550009
1772797826685987600,3.912987548828125,0.037380174845457075,0.016244356504734606,0.00008676496800035237
1772797826696013600,3.923013671875,0.04291384357511997,0.020144085623323916,0.0022713059328496456
1772797826706039600,3.93303955078125,0.051743631240725514,0.016107304387912153,-0.002940254702977836
1772797826716066800,3.94306689453125,0.05025193137824535,0.01712822666717693,-0.006584712152555585
1772797826726092800,3.9530927734375,0.03589373567998409,0.023501688955537975,0.002965717937797308
1772797826736118800,3.963118896484375,0.03530862926840782,0.02345439748140052,-0.0005041135972365737
1772797826746145800,3.973145751953125,0.043237668702006335,0.018578699470125137,0.0033883637966588137
1772797826756171800,3.983171875,0.0451695135474205,0.024725148069579154,0.008871763643808662
1772797826766197800,3.99319775390625,0.03633504970669746,0.024743323047086596,0.008760375691205262
1772797826776223700,4.0032236328125,0.04172200344204902,0.01691096718730405,0.0066218292925506825
1772797826786250800,4.013250732421875,0.04696048861742019,0.022274941905867308,0.002141030616685748
1772797826796276700,4.02327685546875,0.048910453641414636,0.015515055849496273,0.010468239055015146
1772797826806302700,4.033302734375,0.04323708418011665,0.027101540078409016,0.002629179459810257
1772797826816329700,4.043329833984375,0.04833177697062492,0.01639629566343501,0.003184913646429777
1772797826826355700,4.053355712890625,0.049531800410151476,0.013207747021503746,0.00037573797721415753
1772797826836381700,4.063381591796875,0.0453437010705471,0.021950879316963254,-0.0020277429679408667
1772797826846409000,4.073408935546875,0.044297406888008116,0.02770151526555419,-0.0010142185438424347
1772797826856435000,4.08343505859375,0.0438490785986185,0.02549973090495914,-0.00006970423534512519
1772797826866461000,4.0934609375,0.047585342517495154,0.027784809634834526,0.0028373423177748915
1772797826876486700,4.103486572265625,0.04098959751427173,0.03326767975902185,0.00427358566597104
1772797826886513700,4.113513671875,0.03829027542769909,0.03355678063239902,0.008473156247660518
1772797826896539600,4.12353955078125,0.045315644019842144,0.016269838005863128,-0.004966938224993646
1772797826906565600,4.133565673828125,0.06087094054818153,0.01616076987450942,-0.0009172609753906727
1772797826916593000,4.143593017578125,0.04829962826669216,0.020124431074783206,0.003779445473477244
1772797826926619000,4.153618896484375,0.04994797999560833,0.019930808198824524,-0.002179024539515376
1772797826936644900,4.163644775390625,0.03617956688404083,0.01374879509564489,0.005380633592419326
1772797826946671600,4.173671630859375,0.04395604610443115,0.014529953802283852,0.005433532823435962
1772797826956697600,4.183697509765625,0.04887538232803344,0.02136232057297602,-0.0037627865996211767
1772797826966723600,4.1937236328125,0.04243453562557697,0.029859825810603795,0.003961743237823247
1772797826976749600,4.20374951171875,0.04481704684793949,0.021222181449923664,0.0002741042336449027
1772797826986776800,4.21377685546875,0.038978842213749886,0.019364369955100116,0.010205606063455342
1772797826996802300,4.22380224609375,0.04153378739356994,0.023455584791488945,-0.006219093710556626
1772797827006828300,4.233828369140625,0.0430389312595129,0.02198520171167329,0.0022827406423166392
1772797827016855300,4.243855224609375,0.04125380140841007,0.0318912220403552,0.008122077787667513
1772797827026881500,4.253881591796875,0.03796177412569523,0.026680373790580778,0.0006598886808380485
1772797827036907500,4.263907470703125,0.03871463831961155,0.03191869456917047,0.009608115094341337
1772797827046934300,4.273934326171875,0.040514965739846226,0.031068215219676492,0.002412029577791691
1772797827056960300,4.283960205078125,0.047696401676535605,0.017317958819307387,0.012377872068621218
1772797827066986200,4.293986328125,0.045746436652541154,0.00939136707112193,0.010726999589055776
1772797827077012200,4.30401220703125,0.04380231684744358,0.024969259023759512,0.01464490368515253
1772797827087039200,4.314039306640625,0.043209027129411694,0.01712780654206872,0.01113850299939513
1772797827097065500,4.3240654296875,0.031241525959968566,0.03169118768991902,0.0008316650511696935
1772797827107091500,4.334091552734375,0.04696282670497894,0.03417387135112658,0.007982303990796209
1772797827117118500,4.344118408203125,0.03679214582443237,0.029529223883058873,0.01482036984991282
1772797827127144400,4.35414453125,0.032606969094276426,0.02234828113671392,-0.0005212473951280117
1772797827137170400,4.36417041015625,0.0481628501445055,0.01308187388582155,-0.0017650369111448525
1772797827147196400,4.374196533203125,0.047553778335452074,0.00930292160268873,0.009402509519644081
1772797827157223400,4.384223388671875,0.03707739250659942,0.021337094800174233,0.011799378060922025
1772797827167249400,4.39424951171875,0.04486673120856285,0.01699583245916292,0.006889248057082295
1772797827177275400,4.404275390625,0.058795887839794156,0.013884696434997021,0.004267667381837964
1772797827187302400,4.414302490234375,0.04548807797729969,0.01225778935290873,0.009945639953017234
1772797827197328400,4.424328369140625,0.029479192462563513,0.019498079337365925,-0.0006847308611497283
1772797827207354400,4.434354248046875,0.03786357444822788,0.01690347800059244,-0.007799385171942412
1772797827217381000,4.444381103515625,0.048483752661943436,0.01714030069746077,-0.0015017463324591516
1772797827227407400,4.454407470703125,0.05072656315267086,0.017834749235026537,0.0007756240149959921
1772797827237433300,4.464433349609375,0.03726911568641662,0.02117719153072685,-0.0004122340627014637
1772797827247459300,4.474459228515625,0.036220483416318894,0.022456929142959416,0.0068544324720278375
1772797827257486300,4.484486328125,0.04639642499387264,0.02081785669904202,0.002879427893832326
1772797827267512300,4.49451220703125,0.048940264257788656,0.03437607939234003,0.006580182107910513
1772797827277538300,4.504538330078125,0.03771802849769592,0.026495189949404446,0.006928045697510242
1772797827287565600,4.514565673828125,0.03861468507647514,0.015777323514875024,-0.007134966446459293
1772797827297591600,4.524591552734375,0.0562625699698925,0.01187669934714213,-0.008553601072728633
1772797827307617500,4.534617431640625,0.04668225619792938,0.018345639632921663,-0.003977379198372364
1772797827317643500,4.5446435546875,0.024529461100697515,0.012285462811123578,0.017474501087889074
1772797827327670300,4.554670166015625,0.047587096083164214,0.03571788592273369,-0.007688764404319226
1772797827337696300,4.5646962890625,0.037110125732421874,0.020218502566404638,0.00267517402600497
1772797827347722200,4.57472216796875,0.037110125732421874,0.01960566789768636,-0.0036261546079069374
1772797827357749500,4.58474951171875,0.037411154505610465,0.020826697592623532,0.00555591709408909
1772797827367775500,4.594775390625,0.040700259178876874,0.019279102824442087,0.00935315395258367
1772797827377801500,4.604801513671875,0.03844751181602478,0.011867694056779145,-0.0005150003174319863
1772797827387828200,4.614828125,0.04233458238244057,0.017733279888238758,0.0031528380077332258
1772797827397854200,4.624854248046875,0.04368307438194752,0.013572251218650489,0.009350304408371448
1772797827407880200,4.634880126953125,0.03845569512248039,0.025110037467628715,0.012791823164373635
1772797827417906200,4.64490625,0.025442484292387962,0.022296806677803396,0.0035023820977658033
1772797827427933400,4.654933349609375,0.05043605577349662,0.014263028228096664,0.002732639834284782
1772797827437959400,4.66495947265625,0.051631987559795374,0.01324970473339781,-0.007203245909698307
1772797827447985400,4.6749853515625,0.03815525087118148,0.02210254448102787,-0.005207103656418621
1772797827458012400,4.685012451171875,0.04308803109824657,0.02017064483668655,0.011593845551460981
1772797827468038400,4.695038330078125,0.052364978009462354,0.010536774246580899,0.011346885053068398
1772797827478064400,4.705064453125,0.03262508927285671,0.016084928159322588,-0.0007324789930135011
1772797827488090400,4.71509033203125,0.041460722157359124,0.012806344880070536,0.009056362963095307
1772797827498117400,4.725117431640625,0.044460488495230675,0.029863186811469492,0.006833060890436172
1772797827508143400,4.735143310546875,0.04252805912792682,0.027800463861692694,0.011335852202400564
1772797827518169300,4.74516943359375,0.03668985449373722,0.024221545928996054,0.004858436349220573
1772797827528196400,4.7551962890625,0.04611117831170559,0.01893704792112112,0.0021503099016845226
1772797827538222300,4.765222412109375,0.04252396747469902,0.022588519633375107,0.0011397811522707343
1772797827548248300,4.775248291015625,0.02846855411529541,0.02786017642598599,-0.0015378770917654036
1772797827558274300,4.7852744140625,0.05361176320016384,0.018718071408197284,-0.002449804304912686
1772797827568301300,4.79530126953125,0.047024201503396035,0.034477694869600235,0.00008194266241043806
1772797827578327300,4.805327392578125,0.029362872606515884,0.027050595342461018,-0.0020692805547267196
1772797827588353300,4.815353271484375,0.034145430707931516,0.01957994893454015,0.004941949914209544
1772797827598380300,4.82538037109375,0.0523848517537117,0.014027283243462443,-0.00028857115041464564
1772797827608406300,4.83540625,0.04383095842003822,0.007439027426950633,-0.0062981868287548416
1772797827618432300,4.845432373046875,0.021974515920877454,0.02310403140746057,0.0038845863483846187
1772797827628459500,4.85545947265625,0.04502046046555042,0.018976631012838332,0.005808284419961274
1772797827638485500,4.865485595703125,0.05834229885339737,0.005657916163839399,0.01678312129024416
1772797827648511500,4.875511474609375,0.041727264139056204,0.04042799984244629,-0.014279796699807046
1772797827658537500,4.885537353515625,0.03062836249768734,0.013120945520885288,0.00861892139390111
1772797827668564200,4.895564208984375,0.05768997242450714,0.034036179913487286,0.0077250412940979
1772797827678590200,4.905590087890625,0.04750000232160091,0.026750023226998744,0.0009805720025673507
1772797827688616200,4.9156162109375,0.024148352828621863,-0.008985124357789755,0.01712269197553396
1772797827698643500,4.9256435546875,0.04479951119124889,0.033876751568075264,-0.008205262559093535
1772797827708669400,4.93566943359375,0.04600947150290012,0.024676486622262746,0.01239679596479982
1772797827718695400,4.9456953125,0.02491875267922878,0.021727372759394348,0.01142155772447586
1772797827728721400,4.955721435546875,0.030909517526626584,0.0204133310187608,0.000987330536916852
1772797827738748400,4.96574853515625,0.0457183796018362,0.02228542676726356,0.002411262392811477
1772797827748774400,4.9757744140625,0.04735445637106895,0.020885752569790927,0.004952544373460114
1772797827758800400,4.98580029296875,0.0454003996938467,0.016949198572151363,0.0021745310274884104
1772797827768827400,4.995827392578125,0.050476387783884996,0.020708222312107682,0.005149491717666387
1772797827778853400,5.005853271484375,0.032360885378718375,0.02096102802939713,0.015338658102974296
1772797827788879400,5.01587939453125,0.03984568817615509,0.01800095438109711,0.015322328022681176
1772797827798905300,5.0259052734375,0.04269815499782562,0.015324410381913183,0.0016855054015293717
1772797827808932400,5.035932373046875,0.05138356575667858,0.020427743136603383,0.005322144870832562
1772797827818958300,5.045958251953125,0.05108721315860748,0.027656178286485374,0.005131700332649052
1772797827828984300,5.055984375,0.03133680302798748,0.02126872400538996,0.0000611556027084589
1772797827839011300,5.06601123046875,0.0346165553510189,0.018671400988567618,-0.0020007088305428623
1772797827849037300,5.076037353515625,0.054499651950597756,0.01548256008569151,0.005670446851849555
1772797827859063300,5.086063232421875,0.051496963003277774,0.009044197601266206,0.014533588797785341
1772797827869089300,5.09608935546875,0.02905482957065105,0.023681940893270075,0.006665522303804755
1772797827879116300,5.1061162109375,0.03669394614696502,0.022807514412607997,0.0009017346126958727
1772797827889142300,5.116142333984375,0.04088087644279003,0.023790698497369884,-0.00023994623571634292
1772797827899168300,5.126168212890625,0.0518009143859148,0.01962853731662035,0.007974814804084598
1772797827909195500,5.136195556640625,0.042370238217711444,0.02222350397957489,0.005386844137497246
1772797827919221500,5.146221435546875,0.04430559019446373,0.026309549450501797,0.003990859734453261
1772797827929247500,5.15624755859375,0.047290743485093115,0.0190206345513463,0.008133914355933665
1772797827939273500,5.1662734375,0.04130816194415092,0.0135399198516272,0.010186864830367267
1772797827949300200,5.17630029296875,0.04281739746332169,0.019764475188590584,0.006096819037757813
1772797827959326200,5.186326171875,0.04253039721548557,0.015702212452050297,0.0013173296762630342
1772797827969352200,5.196352294921875,0.0408779538333416,0.02068142563672736,-0.0005893441952764987
1772797827979379500,5.20637939453125,0.02755260831415653,0.01023190954849124,-0.007483670286275446
1772797827989405400,5.216405517578125,0.035171266624331475,0.02281752434996888,0.006095430798269808
1772797827999432000,5.226431884765625,0.042781741628050804,0.01664153912877664,-0.0050883726475760335
1772797828009458000,5.2364580078125,0.037089082944393156,0.025850864163879304,0.00005669862329959869
1772797828019485000,5.24648486328125,0.050420273682475085,0.01437364899571985,0.0017966010931879282
1772797828029511000,5.256510986328125,0.04354921886920929,0.024295487948041407,0.004997589091584086
1772797828039537000,5.266536865234375,0.043406011006236075,0.016379728121124208,-0.002570435009896755
1772797828049564000,5.27656396484375,0.03801905727088451,0.02294237457234412,-0.0015429185930639505
1772797828059590000,5.28658984375,0.03516249879598617,0.016267463385686277,0.0020763678826391696
1772797828069615900,5.296615966796875,0.025272388422489165,0.014357483312208204,0.002781958868727088
1772797828079641900,5.306641845703125,0.04231003246307373,0.020472879186272618,-0.00035900603812187906
1772797828089668900,5.3166689453125,0.05262742833793163,0.018901647814176976,0.009099690648168325
1772797828099694800,5.32669482421875,0.04095744881033897,0.02012832179861143,0.004060490904562175
1772797828109720800,5.336720947265625,0.033793548530340195,0.021707316352054477,-0.004921820441633463
1772797828119747800,5.346747802734375,0.0451736052006483,0.024600608374457805,-0.004327179016731679
1772797828129773800,5.35677392578125,0.03634031040370464,0.02441336044035852,0.0058698053488507864
1772797828139799800,5.3667998046875,0.031847675159573555,0.037048897064477206,0.006434490026906132
1772797828149825800,5.37682568359375,0.03857201497852802,0.021958094509039072,-0.0018553820757195353
1772797828159853000,5.38685302734375,0.04813713118135929,0.013514895008224993,-0.006697049953229725
1772797828169879000,5.396879150390625,0.041996728730201716,0.027656342683266846,0.015221351866237819
1772797828179905000,5.406905029296875,0.03467383849620819,0.014157211499754338,0.010639759697020053
1772797828189931800,5.416931884765625,0.039622985336184496,0.013969853967800736,0.011010163911990821
1772797828199957800,5.426957763671875,0.053096799415349956,0.018499058362655342,0.000019471885450184345
1772797828209983700,5.436983642578125,0.044862055033445356,0.021598029024992138,0.0004786138297989964
1772797828220009700,5.447009765625,0.036328035444021224,0.03485807248931378,0.0086593630021438
1772797828230037000,5.457037109375,0.03513327270150184,0.02312023362359032,0.008326806579530239
1772797828240063000,5.46706298828125,0.04291384357511997,0.02410904373154044,0.004930369074270129
1772797828250089000,5.4770888671875,0.043963644888997074,0.017847499118745325,0.006645538961701095
1772797828260116000,5.487115966796875,0.039616555595397944,0.025073029925487933,0.007096388001739978
1772797828270142000,5.497141845703125,0.04933598557710647,0.012541465132497251,0.006464446773752569
1772797828280168000,5.50716796875,0.04977788412570953,0.01531823636945337,-0.0005244257329031825
1772797828290194000,5.51719384765625,0.04902151280045509,0.016809205579571426,0.00466459427755326
1772797828300221000,5.527220947265625,0.044533553731441494,0.01734210687987506,0.00031008886247873305
1772797828310247000,5.537246826171875,0.03480710948705673,0.03278375043328851,0.009011464375443756
1772797828320273000,5.54727294921875,0.03345686392188072,0.026448574328701943,0.004206292583420873
1772797828330300000,5.5572998046875,0.03973462901711464,0.028197865681443363,-0.009494937043450773
1772797828340326000,5.567325927734375,0.039270518636703486,0.023280136893037706,0.009415843925252557
1772797828350352000,5.577351806640625,0.027288404420018196,0.021908501479960978,0.012199227566085755
1772797828360377900,5.5873779296875,0.045538346859812735,0.02995086509492248,0.006705562053248286
1772797828370404900,5.59740478515625,0.06079553722441196,0.0173099581759423,0.008711020124144852
1772797828380430800,5.607430908203125,0.03087269264757633,0.027007906978204845,0.005555259506963193
1772797828390456800,5.617456787109375,0.035817747834324835,0.013619944551587104,-0.006745857531018555
1772797828400482800,5.62748291015625,0.043891748696565626,0.03226571790855378,0.0015961100850254296
1772797828410509800,5.637509765625,0.053904608666896815,0.02720350261554122,0.008752484645694494
1772797828420535800,5.647535888671875,0.03712356973588466,0.027513427081238478,-0.0018072686176747084
1772797828430561800,5.657561767578125,0.02408873159587383,0.02311106393644586,0.007300714934803545
1772797828440589000,5.667589111328125,0.05040858324468136,0.020055146964546293,0.007725881544314324
1772797828450615000,5.677614990234375,0.04023614879846572,0.01710369501411915,-0.0006558335602283477
1772797828460641000,5.68764111328125,0.03098199824094772,0.024451080368552355,0.0029772257125005126
1772797828470667000,5.6976669921875,0.044460488495230675,0.02303186122039333,-0.009333353273570537
1772797828480693800,5.70769384765625,0.034140754532814024,0.01761710616266355,-0.002157543360069394
1772797828490719700,5.7177197265625,0.04041793510615825,0.021406981698609887,-0.007240764908492564
1772797828500746000,5.72774609375,0.034410219123959536,0.02037243275279179,-0.0034503231169655917
1772797828510773000,5.73777294921875,0.045320904716849325,0.030567974079959093,-0.0034240561645478007
1772797828520799000,5.747799072265625,0.036487025398015974,0.024397340887319294,0.0004627586735412478
1772797828530825000,5.757824951171875,0.05190145215094089,0.020761103276815265,0.012447174445167183
1772797828540851000,5.767850830078125,0.050258361119031904,0.02092851399928331,0.00569612928237766
1772797828550877700,5.777877685546875,0.04249240329265594,0.015223379426542668,0.0017346052402630447
1772797828560903700,5.787903564453125,0.043840895292162896,0.021464100447017697,0.003392382384650409
1772797828570930000,5.797929931640625,0.043537528431415555,0.015269465324282645,0.011890344280004501
1772797828580957000,5.80795703125,0.04098550586104393,0.020353764584939926,0.005511566495709121
1772797828590983000,5.81798291015625,0.04366670776903629,0.015558694061823189,0.01042498443517834
1772797828601009000,5.8280087890625,0.03692950846850872,0.01884936963766813,0.008249101700820029
1772797828611035000,5.838034912109375,0.039625323423743246,0.01903919312134385,-0.0016470000220462678
1772797828621062000,5.848061767578125,0.043073418051004404,0.024645306032709775,0.0059200011661276215
1772797828631087900,5.858087890625,0.03933656961023807,0.013648092933837324,0.008204714569821954
1772797828641114000,5.868114013671875,0.03919336174726486,0.010575115229282528,0.006955591291561722
1772797828651140000,5.87814013671875,0.036495208704471586,0.020797635894920674,0.011222528021037579
1772797828661166800,5.888166748046875,0.03753682671189308,0.026291082212049514,0.0032272184181958434
1772797828671192800,5.89819287109375,0.030500352203845976,0.02307427559001371,0.007496822028793394
1772797828681218800,5.90821875,0.06267009892463683,0.014875588902179151,0.0013278510702773927
1772797828691245800,5.918245849609375,0.060577510559558866,0.013077142911776899,0.005871193588338792
1772797828701272000,5.92827197265625,0.038136546170711515,0.023582316443696617,0.004048763934150338
1772797828711298000,5.938298095703125,0.03964169003665447,0.023045414821710436,0.012814729115925728
1772797828721324000,5.948323974609375,0.04233399786055088,0.02475285806041211,0.014775836588442325
1772797828731350800,5.958350830078125,0.04158756340742111,0.025389585061371324,0.003626227673143148
1772797828741376800,5.968376708984375,0.03680149817466736,0.018288411286659537,0.004682897119224071
1772797828751402800,5.97840283203125,0.04473170665204525,0.027725772923976183,-0.004753332006931304
1772797828761429800,5.9884296875,0.03485796289145946,0.020558639507275073,-0.003046893415227532
1772797828771456000,5.9984560546875,0.042782326149940486,0.02567274938430637,-0.0016767741058021782
1772797828781482000,6.00848193359375,0.03963058412075043,0.015996994147542864,0.004271539839357137
1772797828791508000,6.018508056640625,0.039627661511301995,0.019464323198236523,0.01275803049262613
1772797828801535000,6.028534912109375,0.04965455000698566,0.025557123648002743,0.006316124344244599
1772797828811561000,6.03856103515625,0.04890285485684871,0.011903477756213397,0.01608607893679291
1772797828821587000,6.0485869140625,0.047853638064861294,0.02510662166783586,-0.004121609974652529
1772797828831613000,6.058613037109375,0.04636836794316768,0.030578239745646715,-0.0004681289684027433
1772797828841640000,6.068639892578125,0.0523497804403305,0.031268213037494566,-0.005450630088709295
1772797828851666000,6.078666015625,0.05414134003221988,0.015550218494422733,0.0028438085911795495
1772797828861692000,6.08869189453125,0.05293021067678928,0.014255301579367368,-0.0005882847493514418
1772797828871719000,6.098718994140625,0.03436871806979179,0.019690058245509862,0.0055802843503654
1772797828881745000,6.108744873046875,0.046478842580318445,0.015221132670529186,0.006400551224686205
1772797828891771000,6.11877099609375,0.050661681222915644,0.028598171844333407,0.00553721239361912
1772797828901796900,6.128796875,0.037052842587232585,0.01677022527605295,0.008263239824026823
1772797828911824000,6.138823974609375,0.04738543603122234,0.0075115081412717695,0.005006539583019912
1772797828921849900,6.148849853515625,0.04708849891126156,0.012875756854470819,0.015527568271197377
1772797828931875800,6.158875732421875,0.04500058672130108,0.027176870336942372,0.009251775937341153
1772797828941901800,6.16890185546875,0.03782908765673637,0.02327241024430841,0.00475249175671488
1772797828951928800,6.1789287109375,0.04860416417121887,0.04139068912845105,-0.007733297665789723
1772797828961954800,6.188954833984375,0.04665653723478317,0.03142411598525941,-0.002010536104813218
1772797828971980800,6.198980712890625,0.021807927182316778,0.027546690030023455,-0.0020539003225043414
1772797828982008000,6.209008056640625,0.028977088159322737,0.03515005943952128,0.015087496353499591
1772797828992034000,6.219033935546875,0.03747895904481411,0.01024487862791866,0.016261983492970467
1772797829002060500,6.229060546875,0.04598725967109203,0.011560272075422108,-0.0006063683953136205
1772797829012086500,6.23908642578125,0.037602877685427666,0.022476108767464757,-0.004009381771832704
1772797829022113800,6.24911376953125,0.04059679880440235,0.03329458603225648,0.0028312048379331824
1772797829032139800,6.259139892578125,0.05407821166813373,0.016153024959471077,-0.003884367152675986
1772797829042165800,6.269165771484375,0.03657645724713802,0.02231795906368643,-0.009079195849411189
1772797829052192800,6.27919287109375,0.036272505864500995,0.02077639217749238,0.007494958865270018
1772797829062218800,6.28921875,0.03670505206286907,0.017408523179590702,0.004587985377386212
1772797829072244700,6.29924462890625,0.04776303717195987,0.010236804919317364,0.004002842433191835
1772797829082270700,6.309270751953125,0.05898819554150104,0.0162875380593352,0.003941211906448006
1772797829092297700,6.319297607421875,0.05092179346382618,0.025522929117456076,0.010566913656517863
1772797829102323700,6.32932373046875,0.03447802366316318,0.013851963209174572,0.009847878666967153
1772797829112349700,6.339349609375,0.03853635914325714,0.017285590919665993,0.01613240229655057
1772797829122375700,6.349375732421875,0.046617374268174167,0.029864867311902344,0.005978343757241964
1772797829132402700,6.359402587890625,0.04406476717591285,0.021088928725384176,-0.006944594973511993
1772797829142428700,6.3694287109375,0.03312193287909031,0.010722889669518917,0.0001147124208509922
1772797829152454700,6.37945458984375,0.04567863211333752,0.015079203449189662,0.011008885270357132
1772797829162481000,6.38948095703125,0.04417874894440174,0.01940313106290996,0.015408143142610787
1772797829172507600,6.399507568359375,0.04029109385609626,0.017617891613952816,0.0087916841449216
1772797829182533600,6.40953369140625,0.03849778069853783,0.01732259846180677,0.005163154916837811
1772797829192559600,6.4195595703125,0.042837855729460715,0.02820710843382403,0.010078509085066616
1772797829202586600,6.429586669921875,0.039998832911252974,0.02780581589024514,-0.00006502806022763252
1772797829212612600,6.439612548828125,0.03401274423897266,0.02873759858133271,0.008176219127699733
1772797829222638600,6.449638671875,0.03655366089344025,0.0122943767699413,0.005118438992276787
1772797829232664800,6.459664794921875,0.05030161573886871,0.009157667913101613,-0.007463760009407997
1772797829242691800,6.46969189453125,0.038024902489781374,0.020138678795844314,-0.009173997993394733
1772797829252717800,6.4797177734375,0.03129179484248161,0.030098310741595923,0.0035200638849288224
1772797829262743800,6.489743896484375,0.04461655583977699,0.02215909697385505,0.0014651041164994239
1772797829272769800,6.499769775390625,0.04267068246901035,0.023569895353540777,0.007640504815801977
1772797829282796500,6.509796630859375,0.05090016615390777,0.019609686485677957,0.0012497808653861285
1772797829292822800,6.51982275390625,0.05343348402380943,0.026703626802004873,0.008222286759130656
1772797829302848800,6.529848876953125,0.04983107561767101,0.017478939800988882,0.007704729158431291
1772797829312875800,6.539875732421875,0.03546060495972633,0.010762691956944763,0.00581062250752002
1772797829322901800,6.54990185546875,0.05251461561322212,0.01926494643492624,0.0055371758610010145
1772797829332927700,6.559927734375,0.05461772537231445,0.019750044804438947,0.005347169714234769
1772797829342953700,6.56995361328125,0.04354980339109897,0.017847499118745325,-0.0011901231000199914
1772797829352980700,6.579980712890625,0.034120296266674996,0.027483433801773934,0.0040720352118834855
1772797829363006700,6.5900068359375,0.035760464689135546,0.021927096582576633,0.0076307506067678325
1772797829373032700,6.60003271484375,0.04458206904828548,0.02023483264669776,0.009634162851050496
1772797829383058700,6.61005859375,0.05251695370078086,0.013362901050597429,0.005588686852529645
1772797829393085700,6.620085693359375,0.03276888165771961,0.022131039923150093,0.006834777923487126
1772797829403111700,6.630111572265625,0.04549567676186561,0.018078513129334894,-0.005713043884560466
1772797829413137700,6.6401376953125,0.03817395557165146,0.01741263309912756,-0.005626899971067905
1772797829423165000,6.6501650390625,0.03430032900869846,0.031864553229138254,0.014928141073323785
1772797829433191000,6.66019091796875,0.033707623812556264,0.018610555913113058,0.008262363041192293
1772797829443217000,6.670216796875,0.04104512709379196,0.00821178363142535,-0.003682232176698744
1772797829453243000,6.680242919921875,0.04209200579822063,0.021714860337693244,0.0015619520870968698
1772797829463269600,6.69026953125,0.04358662827014923,0.018951204310636967,0.007855608871206642
1772797829473295600,6.700295654296875,0.04238426674306393,0.026222985411901024,0.0009129866590723395
1772797829483321600,6.710321533203125,0.04492401435375214,0.008230196070950479,0.003990567473508418
1772797829493347600,6.72034765625,0.04492693696320057,0.01832684360090643,0.0031117388123646375
1772797829503374800,6.730374755859375,0.03774783911406994,0.018092614719923586,-0.001563997913710773
1772797829513400800,6.74040087890625,0.05585808082222938,0.017429273706674575,0.009417378295212983
1772797829523426800,6.7504267578125,0.051370121753215786,0.018264098829310387,0.0017197729973122476
1772797829533452800,6.760452880859375,0.04449555980861187,0.018323226871713994,0.007395517078787088
1772797829543479800,6.770479736328125,0.04136076891422272,0.01791738601718098,0.009735613931529224
1772797829553505500,6.780505615234375,0.04001052334904671,0.018816088422574102,0.005925663721933961
1772797829563531500,6.790531494140625,0.04301087420880794,0.0126626438267529,-0.005292991841584444
1772797829573558800,6.800558837890625,0.03821954827904701,0.018105127141624686,-0.014441453534923493
1772797829583584800,6.810584716796875,0.05316694204211235,0.01296217476259917,0.011023607915453612
1772797829593610800,6.82061083984375,0.04194704436957836,0.012352902024146168,0.011538900493830441
1772797829603636700,6.83063671875,0.043751463443040844,0.014933584433421491,0.006074132281914353
1772797829613663700,6.840663818359375,0.046747722649574275,0.007779748889710753,0.00497391595505178
1772797829623689700,6.850689697265625,0.047644379228353496,0.016594247654639183,0.014814597696252166
1772797829633715700,6.8607158203125,0.03178630036115646,0.027244674876146017,0.013571100441180168
1772797829643741700,6.87074169921875,0.04182371025085449,0.020338311287481335,0.015609949325025081
1772797829653768700,6.880768798828125,0.055147302204370495,0.020598551392555235,0.010832286594435572
1772797829663794700,6.890794677734375,0.03958206880390644,0.031076215863041576,0.0029861031387001273
1772797829673820700,6.900820556640625,0.027594693890213965,0.031051373682729897,0.0029513971514999863
1772797829683846700,6.9108466796875,0.05057049580812454,0.015247436155565081,0.00173551855571568
1772797829693873700,6.920873779296875,0.042940147060155864,0.02316810961961746,-0.006459149544127285
1772797829703899600,6.930899658203125,0.009677928927540779,0.018546897826064376,-0.00481507213152945
1772797829713926000,6.94092578125,0.02700023512840271,0.02122588951066136,-0.0019205562664195894
1772797829723953000,6.950952880859375,0.07051788981556892,0.0031416407602839172,0.0012636632602661846
1772797829733978600,6.960978515625,0.060325581625103944,0.01986563400812447,0.004707264375500381
1772797829744004600,6.971004638671875,0.01466799229979515,0.02516366735100746,0.0037106545535847543
1772797829754030600,6.981030517578125,0.01751169129312038,0.015529175706394015,0.00701930417753756
1772797829764057600,6.9910576171875,0.058849079331755635,0.02058536311741918,0.004763816868327558
1772797829774083600,7.00108349609375,0.05821779569089412,0.012232362650707363,0.010414499573782085
1772797829784109800,7.01110986328125,0.0331529125392437,0.0008530731653794646,0.02292703087273985
1772797829794135800,7.0211357421875,0.04663315635919571,0.004607274599745869,0.00881309225913137
1772797829804162800,7.031162841796875,0.05704407573640346,0.01885267583960667,0.0068514733299613
1772797829814188800,7.041188720703125,0.048176878669857974,0.025065686869248746,0.016147599865682424
1772797829824214800,7.05121484375,0.03361936100721359,0.0180660372402519,0.020928733194991944
1772797829834240800,7.06124072265625,0.022009002712368962,0.02405934110460803,0.007957096484303474
1772797829844267800,7.071267822265625,0.04504150325357914,0.025777561465650797,-0.010227452569082378
1772797829854293800,7.081293701171875,0.04795242226421833,0.017642076207138598,0.00025744535978883504
1772797829864319700,7.09131982421875,0.03462064700424671,0.02293095812918618,0.0029114304672926664
1772797829874346800,7.1013466796875,0.018386136040091514,0.024631058311648666,0.009807510123960674
1772797829884372700,7.111372802734375,0.031472412106394766,0.01870157693112269,0.0033155542887747286
1772797829894398700,7.121398681640625,0.06137655198276042,0.017486995243281126,0.007455247909389436
1772797829904424700,7.1314248046875,0.0630681583315134,0.006990753936488181,0.0072730232102796435
1772797829914451700,7.14145166015625,0.04490121800005436,0.023282566312141716,0.008425006256997585
1772797829924477700,7.151477783203125,0.042738487008214,0.02435668008336797,0.009648337506875396
1772797829934503700,7.161503662109375,0.04471358647346496,0.016576858128421006,-0.009878456468321382
1772797829944529700,7.17152978515625,0.042137598505616186,0.020809472463186828,-0.0009540127892047166
1772797829954556700,7.181556640625,0.02695873407423496,0.021671843179874122,0.0063719827173277736
1772797829964582700,7.191582763671875,0.04621756129562855,0.018864293212164193,-0.0050888110389932985
1772797829974608600,7.201608642578125,0.063565001937747,0.003351557183917612,0.008018215554393828
1772797829984634600,7.211634521484375,0.033515900632739064,0.005999605740979313,0.016359342920221388
1772797829994661000,7.2216611328125,0.0397013112694025,0.01108333874605596,0.0037856925511732696
1772797830004687000,7.23168701171875,0.036439094603061675,0.013461794847808777,0.0050507805835455655
1772797830014713000,7.241713134765625,0.029252982491254804,0.024665910429321227,0.009594780688732861
1772797830024739000,7.251739013671875,0.0373182155251503,0.0282949876466766,-0.0041433834150433535
1772797830034766000,7.26176611328125,0.037733226066827774,0.029646146527305243,-0.005254376864247024
1772797830044792000,7.2717919921875,0.0442892235815525,0.032129085916839537,0.0036429961448535323
1772797830054818000,7.281818115234375,0.04294657680094242,0.013120141803286968,0.013459420227631925
1772797830064845000,7.291844970703125,0.03787877201735973,0.006302150617819279,0.002974156972579658
1772797830074871000,7.30187109375,0.04688099364042282,0.0100267606315203,0.004058591208420693
1772797830084897000,7.31189697265625,0.04360182583928108,0.015043090956192462,0.013781272593140602
1772797830094923000,7.321923095703125,0.02220131041407585,0.02328132420312613,0.007602145566791296
1772797830104950300,7.3319501953125,0.034597850650548934,0.028272611418087033,-0.0009227408681064844
1772797830114976300,7.341976318359375,0.054932198148965834,0.01782262040581554,-0.006055244918353855
1772797830125002200,7.352002197265625,0.09881050284206867,0.07937093049259857,-0.0570186490342021
1772797830135028200,7.3620283203125,-0.16074994940459728,0.08389525778293609,-0.0677911317327991
1772797830145055000,7.372054931640625,-0.2108019742965698,0.03700392541158944,-0.025574878500401972
1772797830155081000,7.3820810546875,0.2265828962743282,-0.010717683771438896,0.013354388950578867
1772797830165107000,7.39210693359375,0.33978549708426,-0.02522138888761401,0.0525151636024937
1772797830175133000,7.4021328125,0.04310147510170936,-0.011043993116356432,0.05541420951224863
1772797830185160200,7.41216015625,-0.07004501160681248,0.00575425267778337,0.019290172207728027
1772797830195186200,7.422186279296875,0.045637131059169764,0.0350438408523798,-0.01483534822333604
1772797830205212200,7.432212158203125,0.05861410153210163,0.02780267408508807,-0.00022361615542322395
1772797830215238100,7.442238037109375,-0.030966216149926184,0.0011088014921173453,0.024408757330477236
1772797830225265200,7.45226513671875,0.04716273319125175,-0.011039864930510521,0.03792798145394772
1772797830235291000,7.462290771484375,0.1460533155322075,-0.03849398130625486,0.07047580423951148
1772797830245316900,7.47231689453125,0.15827975989878176,-0.02912374835470691,0.053964887486770745
1772797830255343000,7.482343017578125,0.07776713029146194,-0.011154668682906776,0.016314736593514678
1772797830265370000,7.4923701171875,-0.0008855506628751755,0.04678662988785654,-0.04081836913321167
1772797830275396000,7.50239599609375,-0.1069780272066593,0.09535952213797717,-0.0715654991723597
1772797830285422000,7.512422119140625,-0.14891805731356142,0.08819978657644241,-0.05739993996936828
1772797830295448000,7.522447998046875,-0.0064507835745811455,0.04206252397540956,-0.03358374170456081
1772797830305475000,7.53247509765625,0.15641279698312283,-0.0055666028848849235,0.025862207541801033
1772797830315501300,7.542501220703125,0.18291969563663005,-0.030032826023641972,0.0714507867515087
1772797830325527300,7.55252734375,0.14251754262149333,-0.027989976818114517,0.072882573120296
1772797830335554000,7.562553955078125,0.06952011094987393,-0.0028623123622499407,0.03621946050301194
1772797830345580000,7.572580078125,-0.00978898808658123,0.04536063393903896,-0.022654461009055375
1772797830355606000,7.58260595703125,-0.07081716502308845,0.06207898289738223,-0.042116994109004734
1772797830365632000,7.592632080078125,-0.0600227992862463,0.06786982299219817,-0.04223992636892945
1772797830375659000,7.602658935546875,0.010898995155096054,0.03335802492359653,-0.008816964716650545
1772797830385685200,7.612685302734375,0.11002221720814705,-0.0033526714287698267,0.01756236203443259
1772797830395711200,7.622711181640625,0.13184183482825756,-0.01563053545532748,0.03816551653686911
1772797830405737200,7.6327373046875,0.10827975745499134,-0.010041465010307728,0.027927506041154265
1772797830415764000,7.642763916015625,0.05583236185908317,-0.0017521043643355368,0.013792524639517068
1772797830425790000,7.6527900390625,-0.008354571369290352,0.028047150365449487,-0.012511983309686184
1772797830435816000,7.66281591796875,-0.03105097182393074,0.052580136863794175,-0.027713424899056552
1772797830445842000,7.672842041015625,-0.022044658547639845,0.0501901547210291,-0.011203056135587393
1772797830455869200,7.682869140625,0.03859422681033611,0.02813201563730836,0.0013596709806472061
1772797830465895200,7.692895263671875,0.08846855704784393,0.007117814382258802,0.012024930445104836
1772797830475921200,7.702921142578125,0.1038368065714836,-0.00017944822013378142,0.035263182691484686
1772797830485947100,7.712947021484375,0.07550152344703674,0.0034764074062928556,0.04654595299977809
1772797830495974100,7.72297412109375,0.04249941755533218,0.02433695246959105,0.014735394980199634
1772797830506000100,7.733000244140625,0.005301613539457321,0.034220066846720874,-0.012830657337419688
1772797830516026000,7.743026123046875,-0.0073667293757200235,0.05155508639868348,-0.019991087018698454
1772797830526052000,7.753052001953125,0.014299158987402916,0.02860410839477554,-0.0015089432582259176
1772797830536079000,7.7630791015625,0.031191841599345207,0.028501488270517437,0.013910378865525125
1772797830546105000,7.77310498046875,0.06361059464514256,0.010717428043112159,0.018380254288576543
1772797830556131000,7.783131103515625,0.08360124327242374,-0.0009421762209385633,0.022481259866617618
1772797830566157000,7.793156982421875,0.06446107399463653,0.011052980140410363,0.022117541120760142
1772797830576184000,7.80318408203125,0.03960778776705265,0.02780008026920259,0.004207388561964035
1772797830586210000,7.8132099609375,0.02676058115363121,0.03493407860128209,0.003116999509371817
1772797830596236000,7.823236083984375,0.006324526846408844,0.029348022097256034,-0.004054061163775623
1772797830606262300,7.83326220703125,0.018020225337147713,0.02406865692222491,-0.009031191989220679
1772797830616289000,7.8432890625,0.04963584530651569,0.02316208173763007,0.009334887643530965
1772797830626315000,7.85331494140625,0.07759177372455596,0.005109305837750435,0.014359510872513056
1772797830636341000,7.863341064453125,0.055504445078969,0.0033045579707249996,0.025515001539327203
1772797830646367000,7.873366943359375,0.045430210310220716,0.016415694483648983,0.01948638889957219
1772797830656394000,7.88339404296875,0.0660918900668621,0.03394198055770248,-0.016123744066059587
1772797830666420000,7.893419921875,0.04917524205744266,0.1040480381693691,-0.1082188210479915
1772797830676446200,7.9034462890625,-0.2915332150906324,0.0819030610524118,-0.07685038077272474
1772797830686472200,7.91347216796875,-0.13490063787698744,0.024508418312668798,-0.015504771917499601
1772797830696499200,7.923499267578125,0.3548936343669891,-0.017081738910637793,0.03397124318480491
1772797830706525200,7.933525146484375,0.2952899372756481,-0.03613466829638928,0.07636920965965836
1772797830716551200,7.94355126953125,-0.021311083576083183,-0.03196034175381064,0.06435925758797675
1772797830726577200,7.9535771484375,-0.03552548688948154,0.017407755994610488,0.0028212679658085106
1772797830736604200,7.963604248046875,0.0634077655494213,0.028903803727403282,-0.016422032892890275
1772797830746630100,7.973630126953125,-0.0013210194706916808,0.02229048653487116,0.01829242987465113
1772797830756656000,7.98365625,0.003775426885485649,0.019068674944154918,0.01741210337616503
1772797830766683100,7.99368310546875,0.10798749651014804,0.007086012738198042,0.009444522030465304
1772797830776709000,8.003709228515625,0.09184475548267364,0.0023620164236053823,0.015346768344193696
1772797830786735000,8.013735107421875,0.00824175864458084,0.009243008108995854,0.028556963051110506
1772797830796761000,8.023760986328124,0.04045300641953945,0.005695325564779341,0.01777381282802671
1772797830806788000,8.0337880859375,0.09846680397093295,-0.002400850596651435,0.008579137372784316
1772797830816814000,8.04381396484375,0.058304304930567735,0.009911080096289515,0.015365399979427456
1772797830826840000,8.053840087890626,0.004044306954741478,0.008181023166980593,0.03648896162677556
