time,seconds_elapsed,z,y,x
1772797822855939300,0.082939208984375,-0.0014759238110855222,0.04440101981163025,0.04404335841536522
1772797822865966600,0.092966552734375,-0.004357197787612677,0.011138671077787876,0.00806005671620369
1772797822875992600,0.10299267578125,-0.0020572920329868793,-0.03111930377781391,-0.023623837158083916
1772797822886018600,0.1130185546875,-0.0026008430868387222,-0.052386507391929626,-0.046301450580358505
1772797822896044500,0.12304443359375,-0.00038163099088706076,-0.049805641174316406,-0.0402374342083931
1772797822906071600,0.133071533203125,-0.0025925873778760433,-0.01635979861021042,-0.01483513880521059
1772797822916097300,0.14309716796875,-0.0007672567153349519,0.01407533884048462,0.014211426489055157
1772797822926123300,0.153123291015625,-0.0019536949694156647,0.028713935986161232,0.03166897967457771
1772797822936150500,0.163150634765625,-0.0014325142838060856,0.023505859076976776,0.025543177500367165
1772797822946176500,0.173176513671875,-0.0014958975370973349,0.00321922916918993,0.003564907470718026
1772797822956202500,0.183202392578125,-0.000303334032651037,-0.02328188717365265,-0.02008662559092045
1772797822966228500,0.193228515625,-0.002112685702741146,-0.0388009250164032,-0.03092755563557148
1772797822976255500,0.20325537109375,-0.0005499427788890898,-0.030252443626523018,-0.02418975904583931
1772797822986281500,0.213281494140625,-0.0037883466575294733,-0.010604707524180412,-0.007193197961896658
1772797822996307000,0.223306884765625,-0.0023840616922825575,0.007472829893231392,0.011950402520596981
1772797823006334000,0.233333984375,-0.001900964416563511,0.01607670448720455,0.017790447920560837
1772797823016360000,0.24335986328125,-0.002108957152813673,0.011240670457482338,0.01480397954583168
1772797823026386000,0.253385986328125,-0.001537975505925715,0.000535561703145504,0.0024948492646217346
1772797823036412000,0.263411865234375,-0.0037822213489562273,-0.016382701694965363,-0.014796522445976734
1772797823046439000,0.27343896484375,-0.0015241270884871483,-0.026156237348914146,-0.020538298413157463
1772797823056465000,0.28346484375,-0.0007395598222501576,-0.020505808293819427,-0.01435230765491724
1772797823066491000,0.293490966796875,-0.0009779128013178706,-0.008950351737439632,-0.00427117757499218
1772797823076518100,0.30351806640625,-0.0012327772565186024,0.005250954534858465,0.007734884973615408
1772797823086544100,0.313544189453125,-0.0021172130946069956,0.009198558516800404,0.012821256183087826
1772797823096570000,0.323570068359375,-0.001332645770162344,0.006016347091645002,0.007860319688916206
1772797823106596000,0.33359619140625,-0.0011800467036664486,-0.005293831694871187,-0.0010841728653758764
1772797823116622800,0.343622802734375,-0.002037318190559745,-0.016925454139709473,-0.011198326013982296
1772797823126648800,0.35364892578125,-0.00230816169641912,-0.02105601690709591,-0.013320865109562874
1772797823136674800,0.3636748046875,-0.0028937908355146646,-0.014809305779635906,-0.010719755664467812
1772797823146702000,0.3737021484375,-0.0006807039608247578,-0.0017307883827015758,-0.0021933794487267733
1772797823156728000,0.38372802734375,-0.0009345032158307731,0.00047883635852485895,0.003906590864062309
1772797823166754000,0.393754150390625,-0.0027353328187018633,0.0020652813836932182,0.007876564748585224
1772797823176781000,0.403781005859375,-0.002061286708340049,0.0007877630414441228,0.0008045409340411425
1772797823186807000,0.41380712890625,-0.001817341079004109,-0.00640916358679533,-0.002257561543956399
1772797823196832800,0.423832763671875,-0.0023587618488818407,-0.014512363821268082,-0.01062068622559309
1772797823206858800,0.433858642578125,-0.0036453348584473133,-0.016290290281176567,-0.008955944329500198
1772797823216886000,0.443885986328125,-0.0020937772933393717,-0.01474379189312458,-0.007408647798001766
1772797823226912000,0.453912109375,-0.00005299690383253619,-0.003746002446860075,-0.0024114924017339945
1772797823236938000,0.46393798828125,-0.0016953683225437999,0.0014985607704147696,0.0009129316313192248
1772797823246965000,0.473965087890625,-0.0033454629592597485,-0.0012631373247131705,0.0032858080230653286
1772797823256991000,0.483990966796875,-0.0020868529099971056,-0.0010673949727788568,0.0014767227694392204
1772797823267017000,0.494016845703125,-0.001677525113336742,-0.0076182386837899685,-0.003907123580574989
1772797823277043000,0.50404296875,-0.0028189560398459435,-0.009441970847547054,-0.007459514308720827
1772797823287070000,0.514070068359375,-0.0020477045327425003,-0.01290248241275549,-0.006963633466511965
1772797823297096000,0.524095947265625,-0.002280997345224023,-0.00823928788304329,-0.005130313336849213
1772797823307122000,0.534121826171875,-0.0015339808305725455,-0.00520674604922533,-0.0025561018846929073
1772797823317149000,0.54414892578125,-0.0016354472609236836,-0.0030450583435595036,0.001514273346401751
1772797823327175000,0.5541748046875,-0.0033963292371481657,-0.003029345767572522,-0.0003944141499232501
1772797823337201000,0.564200927734375,-0.0036093820817768574,-0.005185707006603479,-0.0014138722326606512
1772797823347227000,0.574226806640625,-0.0025888588279485703,-0.005979062989354134,-0.0016045545926317573
1772797823357254100,0.584254150390625,-0.00028575718170031905,-0.008713596500456333,-0.004547347314655781
1772797823367280000,0.594280029296875,-0.003689809702336788,-0.007035805378109217,-0.004830441437661648
1772797823377306000,0.60430615234375,-0.003498861100524664,-0.005840045865625143,-0.004832572303712368
1772797823387332900,0.614332763671875,-0.003364105010405183,-0.004750546533614397,0.00041305628838017583
1772797823397358800,0.62435888671875,-0.002266349969431758,-0.002813895931467414,-0.0002990729990415275
1772797823407384800,0.634384765625,-0.0017054883064702153,-0.005502090789377689,-0.0021044297609478235
1772797823417412000,0.644412109375,-0.004348409362137318,-0.004294081125408411,-0.0016735304379835725
1772797823427438000,0.65443798828125,-0.0023158849216997623,-0.007348194252699614,-0.004307396709918976
1772797823437464000,0.664464111328125,-0.00005619269722956233,-0.007212639320641756,-0.0065500447526574135
1772797823447490000,0.674489990234375,-0.00213612150400877,-0.008958607912063599,-0.005366535857319832
1772797823457516800,0.684516845703125,-0.002870887517929077,-0.009093363769352436,-0.0021286646369844675
1772797823467542800,0.694542724609375,-0.0041705104522407055,-0.004477039910852909,-0.0024956483393907547
1772797823477568800,0.70456884765625,0.00030839405371807516,-0.0009339706157334149,-0.0015414375811815262
1772797823487596000,0.714595947265625,-0.0007502124644815922,-0.003477555699646473,-0.0018394453218206763
1772797823497622000,0.7246220703125,-0.0005986785981804132,-0.0057401773519814014,0.0011941614793613553
1772797823507648000,0.73464794921875,-0.002578738844022155,-0.007758320774883032,-0.004637895151972771
1772797823517675000,0.744675048828125,-0.0024623586796224117,-0.0062887887470424175,-0.0029316076543182135
1772797823527701000,0.754700927734375,-0.002525475574657321,-0.005321528296917677,-0.003434146288782358
1772797823537727000,0.76472705078125,-0.0018442390719428658,-0.005269596818834543,-0.0010045443195849657
1772797823547753000,0.7747529296875,-0.0008689894457347691,-0.005980127956718206,-0.0016101471846923232
1772797823557780000,0.784780029296875,-0.0006639260682277381,-0.004729241598397493,-0.0008729841792955995
1772797823567806000,0.794805908203125,-0.0012064119800925255,-0.0031497206073254347,-0.0018405106384307146
1772797823577832000,0.80483203125,-0.00387276872061193,-0.005861351266503334,-0.0014761901693418622
1772797823587859000,0.81485888671875,-0.001910019083879888,-0.006583333946764469,-0.0035473306197673082
1772797823597885000,0.824885009765625,-0.002892192918807268,-0.004879443906247616,-0.004589159041643143
1772797823607911000,0.834910888671875,-0.0034527883399277925,-0.006174538750201464,-0.004613393917679787
1772797823617938000,0.84493798828125,-0.0025829998776316643,-0.007676828186959028,-0.0018485001055523753
1772797823627964000,0.8549638671875,-0.0024703482631593943,-0.009730391204357147,-0.0036706349346786737
1772797823637990000,0.864989990234375,-0.0019771307706832886,-0.0062427157536149025,-0.00290391081944108
1772797823648016000,0.875015869140625,-0.0021813951898366213,-0.006810768041759729,-0.0010599381057545543
1772797823658043000,0.88504296875,-0.0008343683439306915,-0.006592388730496168,-0.0026072347536683083
1772797823668068900,0.89506884765625,-0.00196381495334208,-0.007258445490151644,-0.0017635452095419168
1772797823678094800,0.9050947265625,-0.002683134749531746,-0.009153550490736961,-0.0025896579027175903
1772797823688122000,0.9151220703125,-0.002547047333791852,-0.005060805007815361,-0.0014333132421597838
1772797823698148000,0.925148193359375,-0.001862614881247282,-0.004114584065973759,-0.0028003137558698654
1772797823708174000,0.935174072265625,-0.0002008023438975215,-0.004590757191181183,-0.0046573360450565815
1772797823718200800,0.945200927734375,-0.0034999263007193804,-0.00746244378387928,-0.0017688715597614646
1772797823728226800,0.955226806640625,-0.003456783015280962,-0.003430151380598545,-0.0012658004416152835
1772797823738252800,0.965252685546875,-0.004531901329755783,-0.005285841878503561,-0.002454369328916073
1772797823748280000,0.975280029296875,-0.0005928196478635073,-0.006460562348365784,-0.002810966456308961
1772797823758306000,0.98530615234375,-0.002239984693005681,-0.006827812176197767,-0.001998968655243516
1772797823768332000,0.99533203125,-0.0007177218794822693,-0.006213953718543053,-0.0037233654875308275
1772797823778358000,1.00535791015625,-0.0021086910273879766,-0.005233377683907747,-0.0010018812026828527
1772797823788385000,1.015385009765625,-0.0021291973534971476,-0.0032711606472730637,-0.0013496900210157037
1772797823798411000,1.025410888671875,-0.0017901768442243338,-0.002417883835732937,-0.0008277104352600873
1772797823808437000,1.03543701171875,-0.001508680754341185,-0.004325772635638714,-0.002636529505252838
1772797823818464000,1.045464111328125,-0.003552124137058854,-0.006813164800405502,-0.003650128608569503
1772797823828490000,1.055489990234375,-0.0024490428622812033,-0.00475480780005455,-0.003946272190660238
1772797823838516000,1.065515869140625,-0.002484462922438979,-0.006697051227092743,-0.004309527110308409
1772797823848543000,1.07554296875,-0.0010809770319610834,-0.0041524008847773075,-0.0038013961166143417
1772797823858569000,1.08556884765625,-0.002805373864248395,-0.00646668765693903,-0.0018024274613708258
1772797823868595000,1.095594970703125,-0.0027885958552360535,-0.00538517814129591,-0.0005659217131324112
1772797823878622000,1.1056220703125,-0.0007603325066156685,-0.006316751707345247,-0.0021046961192041636
1772797823888648000,1.11564794921875,-0.0014514228096231818,-0.004779309034347534,-0.002064482541754842
1772797823898674000,1.125673828125,-0.001207743538543582,-0.0041185785084962845,-0.0024413196370005608
1772797823908700000,1.135699951171875,-0.0012175972806289792,-0.005794239696115255,-0.0005440838285721838
1772797823918727000,1.145726806640625,-0.0024234766606241465,-0.004739094991236925,-0.0005685848882421851
1772797823928753000,1.1557529296875,-0.0025369273498654366,-0.006899185013025999,-0.00452870549634099
1772797823938779000,1.16577880859375,-0.002088983543217182,-0.003653058083727956,-0.003126284806057811
1772797823948806100,1.17580615234375,-0.00321843009442091,-0.00956953689455986,-0.004041613079607487
1772797823958832000,1.18583203125,-0.0035832831636071205,-0.0030104373581707478,-0.0012658004416152835
1772797823968858000,1.195858154296875,-0.002838130807504058,-0.007194796111434698,-0.0036242958158254623
1772797823978884900,1.205884765625,-0.0009954896522685885,-0.004452805500477552,-0.0011867046123370528
1772797823988910600,1.21591064453125,-0.0001073253879440017,-0.0027627632953226566,-0.0022058964241296053
1772797823998936600,1.2259365234375,-0.0019947076216340065,-0.005303951445966959,-0.005371595732867718
1772797824008963800,1.2359638671875,-0.001919073867611587,-0.006913299672305584,-0.0036330842413008213
1772797824018989800,1.24598974609375,-0.004719387739896774,-0.00686056911945343,-0.002490321872755885
1772797824029015800,1.256015869140625,-0.0025901903863996267,-0.004114051349461079,-0.0036975329276174307
1772797824039042800,1.266042724609375,-0.0023222763556987047,-0.005477855913341045,-0.004578772932291031
1772797824049068800,1.27606884765625,-0.0036453348584473133,-0.0054845139384269714,-0.0011672634864225984
1772797824059094800,1.2860947265625,-0.0010221211705356836,-0.0064831990748643875,-0.0009350358741357923
1772797824069120800,1.296120849609375,-0.002210689941421151,-0.005026982631534338,-0.0021856562234461308
1772797824079147800,1.306147705078125,-0.0016468988033011556,-0.0032032502349466085,-0.004388090688735247
1772797824089173800,1.316173828125,-0.0014479606179520488,-0.0028426581993699074,-0.0035260252188891172
1772797824099199700,1.32619970703125,-0.0015755260828882456,-0.007832623086869717,-0.001701759872958064
1772797824109226800,1.336226806640625,-0.0025963156949728727,-0.005057609174400568,-0.001927862293086946
1772797824119252700,1.346252685546875,-0.0016548882704228163,-0.00621208967640996,-0.003977164626121521
1772797824129278700,1.35627880859375,-0.002040247665718198,-0.006555637344717979,-0.004778243601322174
1772797824139305700,1.3663056640625,-0.0006801713607273996,-0.005533515941351652,-0.003369963960722089
1772797824149331700,1.376331787109375,-0.0020442423410713673,-0.003053047927096486,-0.003239469137042761
1772797824159357700,1.386357666015625,-0.0017811221769079566,-0.0028820729348808527,-0.00012357067316770554
1772797824169384700,1.396384765625,-0.0013254552613943815,-0.003263703780248761,0.00027084347675554454
1772797824179410700,1.40641064453125,-0.0014242585748434067,-0.00589543953537941,-0.0033968619536608458
1772797824189436700,1.416436767578125,-0.0027153589762747288,-0.006827812176197767,-0.0036578518338501453
1772797824199464000,1.4264638671875,-0.0008801747462712228,-0.004975051153451204,-0.004171042703092098
1772797824209490000,1.436489990234375,0.0005222458858042955,-0.0029374666046351194,-0.00370099488645792
1772797824219516000,1.446515869140625,-0.0020961740519851446,-0.0055092815309762955,-0.004641357343643904
1772797824229542000,1.4565419921875,-0.001371794263832271,-0.005570534151047468,-0.0018516959389671683
1772797824239568600,1.466568603515625,-0.0015275891637429595,-0.0020578245166689157,-0.000895621080417186
1772797824249594600,1.4765947265625,-0.0029206888284534216,-0.003394465195015073,-0.0032676986884325743
1772797824259620600,1.48662060546875,0.000009853695701167453,-0.004120176658034325,-0.0032767534721642733
1772797824269648000,1.49664794921875,-0.0020722055342048407,-0.005404885392636061,-0.003224022686481476
1772797824279673900,1.506673828125,-0.002037584548816085,-0.005646966863423586,-0.003694869577884674
1772797824289699800,1.516699951171875,-0.0018343853298574686,-0.006343116983771324,-0.0041369544342160225
1772797824299726800,1.526726806640625,-0.00378967821598053,-0.007963917218148708,-0.0026407905388623476
1772797824309752600,1.536752685546875,-0.0016908409306779504,-0.006659500766545534,-0.003941211849451065
1772797824319778600,1.546778564453125,-0.0036448021419346333,-0.005811017472296953,-0.0030181603506207466
1772797824329805600,1.5568056640625,-0.0031188279390335083,-0.0052293832413852215,-0.0018303906545042992
1772797824339831800,1.566831787109375,-0.0008442220860160887,-0.005241633392870426,-0.0006578007596544921
1772797824349857800,1.57685791015625,-0.001788312685675919,-0.008175105787813663,-0.00430100504308939
1772797824359884800,1.586884765625,-0.0033814155030995607,-0.006795055698603392,-0.0032690302468836308
1772797824369910800,1.596910888671875,-0.0011400992516428232,-0.005727127660065889,-0.005840844940394163
1772797824379936800,1.606936767578125,-0.0018186726374551654,-0.004218447022140026,-0.003326820908114314
1772797824389963500,1.616963623046875,-0.0025683525018393993,-0.006613960489630699,-0.0008807073463685811
1772797824399989800,1.62698974609375,-0.0010098706698045135,-0.0067934575490653515,-0.0011286477092653513
1772797824410015700,1.637015625,-0.0019489012192934752,-0.0029289445374161005,-0.0007443535141646862
1772797824420041700,1.647041748046875,-0.004560663364827633,-0.006336991675198078,-0.001056476030498743
1772797824430068700,1.65706884765625,-0.0013440974289551377,-0.0056799896992743015,-0.0049185920506715775
1772797824440094700,1.6670947265625,-0.00012596751912496984,-0.005182511638849974,-0.002417883835732937
1772797824450120700,1.67712060546875,-0.0018583538476377726,-0.006759102921932936,-0.0036464000586420298
1772797824460147700,1.687147705078125,-0.002435727044939995,-0.006200371775776148,-0.0036306874826550484
1772797824470174000,1.697174072265625,-0.002162486780434847,-0.0068326061591506,-0.0015928366919979453
1772797824480200000,1.707199951171875,-0.0026098978705704212,-0.00566960358992219,-0.0008916263468563557
1772797824490226700,1.717226806640625,-0.0019270633347332478,-0.004867991898208857,-0.002257827902212739
1772797824500252700,1.727252685546875,-0.002743588527664542,-0.006648581475019455,-0.0018993664998561144
1772797824510278700,1.737278564453125,0.0002697782183531672,-0.005242965184152126,-0.001609081868082285
1772797824520305700,1.7473056640625,-0.002793123247101903,-0.0065678879618644714,-0.002779274946078658
1772797824530331600,1.75733154296875,-0.0018471685471013188,-0.0041579934768378735,-0.002435460686683655
1772797824540358000,1.76735791015625,-0.0010045443195849657,-0.008187090046703815,-0.0038069887086749077
1772797824550384600,1.777384521484375,-0.0006146575906313956,-0.005261873826384544,-0.0009235842735506594
1772797824560410600,1.78741064453125,-0.0023576964158564806,-0.005636313930153847,-0.0017512947088107467
1772797824570436600,1.7974365234375,-0.0025904567446559668,-0.00520754512399435,-0.0028213527984917164
1772797824580462600,1.807462646484375,-0.0027225494850426912,-0.003937217406928539,-0.001981391804292798
1772797824590489600,1.817489501953125,-0.0031254857312887907,-0.0075964005663990974,-0.003138801548629999
1772797824600515800,1.827515869140625,-0.002034122357144952,-0.004603540059179068,-0.0028943235520273447
1772797824610541800,1.837541748046875,-0.002432531211525202,-0.007212372962385416,-0.0023422501981258392
1772797824620568800,1.84756884765625,-0.0019105518003925681,-0.007257113698869944,-0.00282002124004066
1772797824630594800,1.8575947265625,-0.000009054747351910919,-0.0044173854403197765,-0.0045585329644382
1772797824640620800,1.867620849609375,-0.0007925567333586514,-0.0029001825023442507,-0.003571032779291272
1772797824650647600,1.8776474609375,-0.0027276095934212208,-0.004485561978071928,-0.004334827419370413
1772797824660673500,1.887673583984375,-0.003704190719872713,-0.002038117265328765,-0.002871420234441757
1772797824670699800,1.89769970703125,-0.0018247979460284114,-0.0022658174857497215,-0.0012447615154087543
1772797824680726800,1.907726806640625,-0.0012231898726895452,-0.004805407952517271,-0.001678057829849422
1772797824690752800,1.917752685546875,-0.0021457087714225054,-0.002767024328932166,-0.0013116068439558148
1772797824700778800,1.92777880859375,-0.0009614011505618691,-0.0051926313899457455,-0.0027531760279089212
1772797824710804700,1.9378046875,-0.002566754585132003,-0.007164169568568468,-0.0023992417845875025
1772797824720831700,1.947831787109375,-0.00390312890522182,-0.005239236634224653,-0.0068155620247125626
1772797824730857700,1.957857666015625,-0.0031047132797539234,-0.004357197787612677,-0.001654622028581798
1772797824740883700,1.9678837890625,-0.0016684704460203648,-0.00660570478066802,0.0005305017111822963
1772797824750910700,1.97791064453125,-0.0009531453251838684,-0.005566539242863655,-0.003453587181866169
1772797824760936700,1.987936767578125,-0.0017097494564950466,-0.006932208314538002,-0.0016460998449474573
1772797824770962700,1.997962646484375,-0.004024568945169449,-0.00806351937353611,-0.0013411679537966847
1772797824780989700,2.00798974609375,-0.0022152173332870007,-0.00812290795147419,-0.00336197461001575
1772797824791015700,2.018015625,-0.002065015025436878,-0.006298109423369169,-0.0032530513126403093
1772797824801042000,2.0280419921875,-0.000886566296685487,-0.004193679895251989,-0.0026607641484588385
1772797824811068700,2.038068603515625,-0.0007206514128483832,-0.005756955128163099,-0.0034615767654031515
1772797824821094700,2.0480947265625,-0.001985120354220271,-0.006277869455516338,-0.0024343954864889383
1772797824831120600,2.05812060546875,-0.0012668657582253218,-0.006329268682748079,-0.0022128205746412277
1772797824841147600,2.068147705078125,-0.0024740765802562237,-0.003081543603911996,-0.003995007835328579
1772797824851173600,2.078173583984375,-0.0032293491531163454,-0.004599811974912882,-0.0031960594933480024
1772797824861199600,2.08819970703125,-0.001672198879532516,-0.0034080471377819777,0.00018082863243762404
1772797824871225900,2.098225830078125,-0.002816825406625867,-0.005013933405280113,-0.001776328426785767
1772797824881252900,2.1082529296875,-0.002350772265344858,-0.005687446799129248,-0.0015627428656443954
1772797824891278800,2.11827880859375,-0.002293514320626855,-0.005948170088231564,-0.0017398431664332747
1772797824901304800,2.128304931640625,-0.0008641957538202405,-0.004862932022660971,-0.003555319970473647
1772797824911331600,2.13833154296875,-0.001692705205641687,-0.009475793689489365,-0.005638444796204567
1772797824921357600,2.148357666015625,-0.002296976512297988,-0.003753725439310074,-0.0021347899455577135
1772797824931383600,2.158383544921875,-0.0026991136837750673,-0.006388923618942499,-0.0007185208378359675
1772797824941410800,2.168410888671875,-0.001853560097515583,-0.004429901950061321,-0.00418409239500761
1772797824951436800,2.178436767578125,-0.0046639940701425076,-0.0067939902655780315,-0.0016357135027647018
1772797824961462800,2.188462890625,-0.0030184267088770866,-0.005766009911894798,-0.0028599686920642853
1772797824971489800,2.19848974609375,-0.0018122810870409012,-0.0056861150078475475,-0.003566771512851119
1772797824981515500,2.208515625,-0.0006343649583868682,-0.006907174363732338,-0.0021603561472147703
1772797824991542300,2.218542236328125,-0.0024860608391463757,-0.006724747829139233,-0.002719087526202202
1772797825001569300,2.2285693359375,-0.0014058827655389905,-0.006896788254380226,-0.005137237720191479
1772797825011595300,2.23859521484375,0.00014913702034391463,-0.005349225364625454,-0.0027260116767138243
1772797825021621200,2.248621337890625,-0.0025124261155724525,-0.0073623089119791985,0.0015156050212681293
1772797825031647200,2.258647216796875,-0.0006801713607273996,-0.0030890004709362984,-0.005344964098185301
1772797825041674200,2.26867431640625,-0.0023395870812237263,-0.006305832881480455,-0.0019267969764769077
1772797825051700200,2.2787001953125,-0.000592287047766149,-0.005800630897283554,-0.0029350698459893465
1772797825061726200,2.288726318359375,-0.0017148094484582543,-0.0074017234146595,-0.003897536313161254
1772797825071753200,2.298753173828125,-0.0027134947013109922,-0.005797169171273708,-0.0026493126060813665
1772797825081779200,2.308779296875,-0.0022037657909095287,-0.0049010151997208595,-0.004471447318792343
1772797825091805200,2.31880517578125,-0.0026794064324349165,-0.00706856232136488,-0.001695900922641158
1772797825101832200,2.328832275390625,-0.00044288369826972485,-0.006118612363934517,-0.0015699334908276796
1772797825111858200,2.338858154296875,-0.004459196701645851,-0.005269330460578203,0.0003427488263696432
1772797825121884200,2.34888427734375,-0.00464588450267911,-0.009067797102034092,-0.0014109427575021982
1772797825131911200,2.3589111328125,-0.0032586439047008753,-0.003254649229347706,-0.0013246563030406833
1772797825141937200,2.368937255859375,-0.0010522148804739118,-0.00657561095431447,-0.0025425199419260025
1772797825151963100,2.378963134765625,-0.0013227921444922686,-0.006855242885649204,-0.0052179316990077496
1772797825161989000,2.388989013671875,-0.0011704593198373914,-0.008770056068897247,-0.0037923413328826427
1772797825172016000,2.39901611328125,-0.0008945558220148087,-0.005822202656418085,-0.0033132387325167656
1772797825182042000,2.4090419921875,-0.0006535397260449827,-0.006505836267024279,-0.0030778152868151665
1772797825192068400,2.419068359375,-0.0013523531379178166,-0.005170793738216162,-0.002041046740487218
1772797825202095400,2.429095458984375,-0.0010149306617677212,-0.0016825852217152715,-0.002369148191064596
1772797825212121300,2.439121337890625,-0.00233266269788146,-0.0037880802992731333,-0.0036495958920568228
1772797825222147300,2.449147216796875,-0.0010596717474982142,-0.005440305452793837,-0.0020988371688872576
1772797825232174000,2.459174072265625,-0.0017994979862123728,-0.0073657711036503315,-0.004703941289335489
1772797825242200000,2.469199951171875,-0.0022801985032856464,-0.006221144460141659,-0.004985171370208263
1772797825252226000,2.47922607421875,-0.002843723399564624,-0.007505853194743395,-0.0037436054553836584
1772797825262252300,2.489252197265625,-0.003629355924203992,-0.006747118663042784,-0.002859169617295265
1772797825272279300,2.499279296875,-0.0026285399217158556,-0.007404120173305273,-0.001166198286227882
1772797825282305300,2.50930517578125,-0.0006508765509352088,-0.0032772859558463097,-0.00022024342615623027
1772797825292331300,2.519331298828125,-0.00034940673504024744,-0.003525226376950741,-0.0016234630020335317
1772797825302358300,2.529358154296875,0.00007696535612922162,-0.00430207047611475,-0.0019797938875854015
1772797825312384300,2.53938427734375,-0.0035806200467050076,-0.009270995855331421,-0.0035920715890824795
1772797825322410200,2.54941015625,-0.001785116852261126,-0.007604922633618116,-0.003163569141179323
1772797825332437200,2.559437255859375,-0.0029491845052689314,-0.004403536673635244,-0.00535455159842968
1772797825342463200,2.569463134765625,0.00023435817274730653,-0.006875216495245695,-0.0014333132421597838
1772797825352489200,2.5794892578125,-0.0027316042687743902,-0.0054429685696959496,-0.0021723404061049223
1772797825362516200,2.58951611328125,-0.003954527899622917,-0.004641090985387564,-0.0005848301807418466
1772797825372542200,2.599542236328125,-0.002180329989641905,-0.0062610916793346405,-0.003424292430281639
1772797825382568200,2.609568115234375,-0.0002798982313834131,-0.004699414130300283,-0.0031486554071307182
1772797825392595200,2.61959521484375,-0.002644785214215517,-0.0075878784991800785,-0.0013771206140518188
1772797825402621200,2.62962109375,-0.0032687638886272907,-0.0032115059439092875,-0.0018540926976129413
1772797825412647200,2.639647216796875,-0.0030629015527665615,-0.006036054342985153,-0.0015781891997903585
1772797825422673200,2.649673095703125,-0.00202320353128016,-0.004535363521426916,-0.003944674041122198
1772797825432700200,2.6597001953125,-0.0037579864729195833,-0.007120227441191673,-0.001967010786756873
1772797825442726100,2.66972607421875,-0.0009725864510983229,-0.006941529456526041,-0.0012492889072746038
1772797825452752100,2.679752197265625,-0.0027539748698472977,-0.004199538845568895,-0.003989947959780693
1772797825462779400,2.689779296875,-0.0037374801468104124,-0.005366003140807152,-0.004352137912064791
1772797825472805400,2.699805419921875,-0.0015464976895600557,-0.007940747775137424,-0.0018354506464675069
1772797825482831400,2.709831298828125,-0.002183792181313038,-0.0054576159454882145,-0.002108957152813673
1772797825492858000,2.719858154296875,0.00020240024605300277,-0.005927397403866053,-0.0036282907240092754
1772797825502884000,2.729884033203125,-0.003938016481697559,-0.005799565929919481,0.00010519486386328936
1772797825512910000,2.73991015625,-0.0017536915838718414,-0.0018184063956141472,-0.0020442423410713673
1772797825522936300,2.749936279296875,-0.0006761765689589083,-0.004796885885298252,-0.001383245806209743
1772797825532963300,2.75996337890625,-0.0010748518398031592,-0.002942793071269989,0.0010748518398031592
1772797825542989300,2.7699892578125,-0.0008466189028695226,-0.004454136826097965,-0.004708202555775642
1772797825553015300,2.780015380859375,-0.0027486486360430717,-0.006164685357362032,-0.003867442486807704
1772797825563042000,2.7900419921875,-0.002858637133613229,-0.004822185728698969,-0.004766525700688362
1772797825573068000,2.800068115234375,-0.0033776871860027313,-0.007859786972403526,-0.003926298581063747
1772797825583094000,2.810093994140625,-0.0010801780736073852,-0.004001399502158165,-0.0038863508962094784
1772797825593121300,2.820121337890625,0.0012229235144332051,-0.006512494292110205,-0.0022325278259813786
1772797825603147300,2.830147216796875,-0.0007099987124092877,-0.0031638352666050196,-0.0025308020412921906
1772797825613173200,2.84017333984375,-0.001023452845402062,-0.00282002124004066,-0.0012482235906645656
1772797825623200300,2.8502001953125,-0.0033683660440146923,-0.004580104257911444,-0.002341451123356819
1772797825633226200,2.860226318359375,0.0002103897277265787,-0.005280782002955675,-0.002514024032279849
1772797825643252200,2.870252197265625,-0.002621882129460573,-0.007743407040834427,-0.003352387109771371
1772797825653278200,2.8802783203125,-0.0051923650316894054,-0.004971588961780071,-0.0019006980583071709
1772797825663305200,2.89030517578125,-0.0031132353469729424,-0.0059510995633900166,-0.003799265483394265
1772797825673331200,2.900331298828125,-0.0033372072502970695,-0.0017129451734945178,-0.0031009847298264503
1772797825683357200,2.910357177734375,-0.0026069683954119682,-0.0054453653283417225,-0.001086037140339613
1772797825693384200,2.92038427734375,-0.004628041293472052,-0.005697300657629967,-0.003936684690415859
1772797825703410200,2.93041015625,-0.0018365158466622233,-0.005319930613040924,-0.0013739247806370258
1772797825713436200,2.940436279296875,-0.0013946974650025368,-0.00567040266469121,-0.0038743666373193264
1772797825723463400,2.95046337890625,-0.001529187080450356,-0.008472314104437828,-0.003900465788319707
1772797825733489200,2.9604892578125,-0.0035598473623394966,-0.007589476183056831,-0.0026322684716433287
1772797825743515100,2.97051513671875,-0.003168895374983549,-0.003085538512095809,-0.005960687063634396
1772797825753542100,2.980542236328125,-0.0023427826818078756,-0.0062855929136276245,-0.00358754419721663
1772797825763568000,2.990568115234375,-0.0013928331900388002,-0.005824333056807518,-0.0006570018595084548
1772797825773594000,3.000593994140625,-0.0015270565636456013,-0.004890629090368748,-0.00195129809435457
1772797825783620000,3.0106201171875,-0.0011408982099965215,-0.007257646415382624,-0.0026876621413975954
1772797825793647400,3.0206474609375,0.0010458233300596476,-0.0067750816233456135,-0.0032855418976396322
1772797825803673300,3.03067333984375,-0.003543602069839835,-0.0070334081538021564,-0.0043960800394415855
1772797825813699300,3.04069921875,-0.0026282735634595156,-0.006577474996447563,-0.0028309402987360954
1772797825823726000,3.05072607421875,-0.003584614722058177,-0.004817924462258816,-0.0022242721170186996
1772797825833752000,3.060751953125,-0.0032091091852635145,-0.006637396290898323,-0.0017470336752012372
1772797825843778000,3.070778076171875,-0.0031273500062525272,-0.009299226105213165,-0.0017214673571288586
1772797825853805300,3.080805419921875,-0.003687146585434675,-0.007646734360605478,-0.002817358123138547
1772797825863831300,3.090831298828125,-0.0025188177824020386,-0.007661381736397743,-0.003650394966825843
1772797825873857300,3.100857177734375,-0.001955026527866721,-0.008373777382075787,-0.0035811527632176876
1772797825883884300,3.11088427734375,-0.00013555490295402706,-0.006851247977465391,-0.0020911141764372587
1772797825893910300,3.12091015625,-0.0020184097811579704,-0.005532450973987579,-0.0033750240691006184
1772797825903936300,3.130936279296875,-0.0015297196805477142,-0.007511978503316641,0.0015358449891209602
1772797825913962200,3.140962158203125,-0.0019893813878297806,-0.00535375252366066,-0.00013502225920092314
1772797825923989200,3.1509892578125,-0.0025563682429492474,-0.005995308049023151,-0.0033065807074308395
1772797825934015200,3.16101513671875,-0.0012144014472141862,-0.009006277658045292,-0.0019971043802797794
1772797825944041200,3.171041259765625,-0.004208060912787914,-0.010037187486886978,-0.004157194402068853
1772797825954068200,3.181068115234375,-0.0007400924805551767,-0.006993993651121855,-0.0046456181444227695
1772797825964094200,3.19109423828125,-0.003757453989237547,-0.004800347611308098,-0.0031641016248613596
1772797825974120200,3.2011201171875,-0.0016104135429486632,-0.002835201332345605,-0.0003123887872789055
1772797825984147200,3.211147216796875,-0.0007374293054454029,-0.0033744913525879383,0.0024804682470858097
1772797825994173000,3.2211728515625,-0.0025712819769978523,-0.001782187377102673,-0.0006226470577530563
1772797826004199000,3.231198974609375,-0.004520449787378311,-0.006820089183747768,-0.002320678671821952
1772797826014224600,3.241224609375,-0.0009677927591837943,-0.006199306342750788,-0.002913498319685459
1772797826024251600,3.251251708984375,-0.002743055811151862,-0.009759685955941677,-0.006699714343994856
1772797826034277600,3.261277587890625,-0.003388339886441827,-0.0067963870242238045,-0.003981425892561674
1772797826044303600,3.2713037109375,-0.001425057533197105,-0.003209375310689211,-0.0011590076610445976
1772797826054331000,3.281330810546875,-0.003938548732548952,-0.0022482406347990036,-0.0011574097443372011
1772797826064356900,3.29135693359375,-0.001344896387308836,-0.00361817074008286,-0.0011377023765817285
1772797826074382800,3.3013828125,-0.0020333235152065754,-0.001871136948466301,-0.0006034722900949419
1772797826084409600,3.31140966796875,0.0004463458026293665,-0.004802744835615158,-0.003067961661145091
1772797826094435600,3.321435546875,-0.003117496380582452,-0.005967611446976662,-0.0032794165890663862
1772797826104461600,3.331461669921875,-0.0018628811230883002,-0.0067788101732730865,-0.006469350773841143
1772797826114488800,3.34148876953125,-0.0008567389450035989,-0.008374310098588467,-0.003643736941739917
1772797826124514800,3.351514892578125,-0.002667954657226801,-0.006156429648399353,-0.0008207862265408039
1772797826134540800,3.361540771484375,-0.0020122844725847244,-0.0019105518003925681,-0.0009142631897702813
1772797826144566800,3.37156689453125,-0.0007070692372508347,-0.004852013196796179,-0.0007906925166025758
1772797826154593800,3.38159375,-0.0031244205310940742,-0.005239769350737333,-0.005471996963024139
1772797826164619800,3.391619873046875,-0.0006833671359345317,-0.006713029928505421,-0.0052022188901901245
1772797826174645800,3.401645751953125,-0.0019864519126713276,-0.007144195958971977,-0.004287423100322485
1772797826184672800,3.4116728515625,-0.0034176346380263567,-0.008551676757633686,-0.003707386553287506
1772797826194698800,3.42169873046875,-0.003085272153839469,-0.0062517705373466015,-0.003576092654839158
1772797826204724700,3.431724853515625,-0.002496713539585471,-0.0035838158801198006,-0.002225337317213416
1772797826214751700,3.441751708984375,-0.0016439693281427026,-0.004035487771034241,-0.0029166939202696085
1772797826224777700,3.45177783203125,-0.0002695118892006576,-0.005131911486387253,-0.0023784691002219915
1772797826234803700,3.4618037109375,-0.0022708773612976074,-0.0065319351851940155,-0.0024264061357825994
1772797826244829700,3.47182958984375,-0.0036618465092033148,-0.006111155729740858,-0.005274123977869749
1772797826254856700,3.481856689453125,-0.0010407633380964398,-0.006560164503753185,-0.003032008884474635
1772797826264882700,3.491882568359375,-0.0022889869287610054,-0.005323925521224737,-0.0023467775899916887
1772797826274908700,3.50190869140625,-0.00039281626231968403,-0.006916229147464037,-0.004002997186034918
1772797826284935700,3.511935791015625,-0.0009912285022437572,-0.0062706791795790195,-0.0027140274178236723
1772797826294961700,3.521961669921875,-0.002939330879598856,-0.008054464124143124,-0.0008612662786617875
1772797826304987600,3.531987548828125,-0.0020413128659129143,-0.008251272141933441,-0.00307621737010777
1772797826315015000,3.542014892578125,-0.003946804907172918,-0.004847751930356026,-0.0031497206073254347
1772797826325041000,3.552041015625,-0.0013020194601267576,-0.00646828580647707,-0.0036751623265445232
1772797826335067000,3.56206689453125,-0.0022799321450293064,-0.004781173076480627,-0.0018322548130527139
1772797826345093600,3.57209375,-0.0016620787791907787,-0.006385461427271366,-0.0016945693641901016
1772797826355119600,3.58211962890625,-0.003628556849434972,-0.0032325449865311384,-0.004285824950784445
1772797826365145600,3.5921455078125,-0.0013888385146856308,-0.008384429849684238,-0.0030415961518883705
1772797826375171600,3.602171630859375,-0.0012093414552509785,-0.008459530770778656,-0.0025308020412921906
1772797826385198800,3.61219873046875,-0.0018753979820758104,-0.009170595556497574,-0.0011757856700569391
1772797826395224800,3.622224853515625,-0.0005925533478148282,-0.009259544312953949,-0.0008647284121252596
1772797826405250800,3.632250732421875,-0.0023518374655395746,-0.006194779183715582,-0.00022663500567432493
1772797826415277800,3.64227783203125,-0.0012522183824330568,-0.0023995081428438425,-0.0029025792609900236
1772797826425303800,3.6523037109375,-0.0010181264951825142,-0.0037790255155414343,-0.002154231071472168
1772797826435329800,3.662329833984375,-0.004349741153419018,-0.006393717136234045,-0.002034122357144952
1772797826445356500,3.6723564453125,-0.0026996464002877474,-0.004973985720425844,-0.0036583843175321817
1772797826455382800,3.6823828125,-0.0016908409306779504,-0.0072959959506988525,-0.003907922655344009
1772797826465408800,3.69240869140625,-0.0020724718924611807,-0.005535114090889692,-0.0031734227668493986
1772797826475434800,3.702434814453125,0.0007470166892744601,-0.004346811678260565,-0.0025507756508886814
1772797826485461800,3.712461669921875,-0.002258626976981759,-0.0051721250638365746,-0.0006351639167405665
1772797826495487700,3.72248779296875,-0.003706587478518486,-0.004494883120059967,-0.0009488842915743589
1772797826505513700,3.732513671875,-0.00458756135776639,-0.006196643225848675,-0.0018346516881138086
1772797826515540700,3.742540771484375,-0.0011779161868616939,-0.0092347776517272,-0.004209658596664667
1772797826525566700,3.752566650390625,-0.0019678096286952496,-0.0039020637050271034,-0.002805640222504735
1772797826535592700,3.7625927734375,-0.0020668793004006147,-0.0028455876745283604,-0.001088700257241726
1772797826545619700,3.77261962890625,-0.0027507790364325047,-0.00812024436891079,-0.004599012900143862
1772797826555645700,3.782645751953125,-0.00353428116068244,-0.002276203827932477,0.0004665858286898583
1772797826565671700,3.792671630859375,-0.001580319833010435,-0.005835518706589937,-0.0015198660548776388
1772797826575697700,3.80269775390625,0.000015446334145963192,-0.004752144683152437,-0.0021587584633380175
1772797826585725000,3.812724853515625,-0.0030802120454609394,-0.005691708065569401,-0.0034408040810376406
1772797826595751000,3.8227509765625,-0.0010042780777439475,-0.0030863373540341854,-0.0027750139124691486
1772797826605777000,3.83277685546875,-0.0009139968897216022,-0.007436078507453203,-0.004626177251338959
1772797826615803600,3.8428037109375,-0.0033782199025154114,-0.004591023549437523,-0.004406199790537357
1772797826625829600,3.85282958984375,-0.0008237157016992569,-0.004036020487546921,-0.0026413232553750277
1772797826635855600,3.862855712890625,-0.003081277245655656,-0.00893570389598608,-0.0020154803059995174
1772797826645883000,3.8728828125,-0.003388073528185487,-0.004575577098876238,-0.0005632585380226374
1772797826655908900,3.882908935546875,-0.0035113778430968523,-0.00751890242099762,-0.003073820611461997
1772797826665934800,3.892934814453125,-0.0032314795535057783,-0.0006340986583381891,-0.0009230516152456403
1772797826675961900,3.9029619140625,-0.0009443568997085094,-0.003102316288277507,-0.0018045579781755805
1772797826685987600,3.912987548828125,-0.00227886694483459,-0.004479703027755022,-0.0036780918017029762
1772797826696013600,3.923013671875,-0.004764128942042589,-0.004567587748169899,-0.0043958136811852455
1772797826706039600,3.93303955078125,-0.0018210695125162601,-0.0076246303506195545,-0.0017033577896654606
1772797826716066800,3.94306689453125,-0.002156361471861601,-0.005103681702166796,-0.00344559783115983
1772797826726092800,3.9530927734375,-0.0010333064710721374,-0.009130913764238358,-0.002805373864248395
1772797826736118800,3.963118896484375,-0.001853293739259243,-0.007967112585902214,-0.002030926523730159
1772797826746145800,3.973145751953125,-0.0036045885644853115,-0.00475587323307991,0.0002668487431947142
1772797826756171800,3.983171875,-0.003493002150207758,-0.003792874049395323,-0.0019148128340020776
1772797826766197800,3.99319775390625,-0.0011797803454101086,-0.003634415799751878,-0.0021403825376182795
1772797826776223700,4.0032236328125,-0.004613127559423447,-0.0056951697915792465,-0.0025542378425598145
1772797826786250800,4.013250732421875,-0.0008844357798807323,-0.006843791343271732,-0.0012183962389826775
1772797826796276700,4.02327685546875,-0.002198439557105303,-0.007222226355224848,-0.00207699928432703
1772797826806302700,4.033302734375,-0.0017057546647265553,-0.008106661960482597,-0.002659698948264122
1772797826816329700,4.043329833984375,-0.0034109766129404306,-0.008068579249083996,-0.004364654887467623
1772797826826355700,4.053355712890625,-0.0029201561119407415,-0.0031310785561800003,-0.0012652678415179253
1772797826836381700,4.063381591796875,-0.004564658273011446,-0.004829376470297575,-0.004346278961747885
1772797826846409000,4.073408935546875,-0.001686846255324781,-0.006440056022256613,-0.0028064390644431114
1772797826856435000,4.08343505859375,-0.002058357233181596,-0.004896488040685654,-0.002517219865694642
1772797826866461000,4.0934609375,-0.0012506204657256603,-0.002520415699109435,-0.0007214503129944205
1772797826876486700,4.103486572265625,0.0004876247840002179,-0.00407437002286315,-0.0026043052785098553
1772797826886513700,4.113513671875,-0.001064731739461422,-0.00440939562395215,-0.002429601736366749
1772797826896539600,4.12353955078125,-0.0021699436474591494,-0.006847253534942865,-0.0031015174463391304
1772797826906565600,4.133565673828125,-0.0008596684201620519,-0.0030370689928531647,-0.0008764463127590716
1772797826916593000,4.143593017578125,-0.001838646363466978,-0.005286907311528921,-0.003919107839465141
1772797826926619000,4.153618896484375,-0.0005347627447918057,-0.005136705003678799,-0.004415520932525396
1772797826936644900,4.163644775390625,-0.0009289105655625463,-0.006654706783592701,-0.001802693703211844
1772797826946671600,4.173671630859375,-0.0009190568816848099,-0.0033012544736266136,-0.0015518239233642817
1772797826956697600,4.183697509765625,-0.0035686357878148556,-0.00398755120113492,-0.0008319715270772576
1772797826966723600,4.1937236328125,-0.0008855010382831097,-0.005673332139849663,-0.0013427657540887594
1772797826976749600,4.20374951171875,-0.0008159925346262753,-0.0033372072502970695,-0.0025366609916090965
1772797826986776800,4.21377685546875,-0.0010761833982542157,-0.005351355765014887,-0.003597131697461009
1772797826996802300,4.22380224609375,-0.005031776614487171,-0.006893592420965433,-0.0028298748657107353
1772797827006828300,4.233828369140625,-0.0018679412314668298,-0.007440605666488409,-0.004734567832201719
1772797827016855300,4.243855224609375,-0.0024644893128424883,-0.0052118063904345036,-0.005182245280593634
1772797827026881500,4.253881591796875,-0.003537476761266589,-0.006633135490119457,-0.0031103058718144894
1772797827036907500,4.263907470703125,-0.0031092404387891293,-0.005215002223849297,-0.0023406522814184427
1772797827046934300,4.273934326171875,-0.0018804579740390182,-0.0070738885551691055,-0.0020748688839375973
1772797827056960300,4.283960205078125,-0.004319380968809128,-0.004710066597908735,-0.00008628641808172688
1772797827066986200,4.293986328125,-0.0010732539230957627,-0.0064895907416939735,-0.0022335932590067387
1772797827077012200,4.30401220703125,-0.0006649913266301155,-0.007132211700081825,-0.0009440905996598303
1772797827087039200,4.314039306640625,-0.002673813607543707,-0.006219013594090939,-0.004791559185832739
1772797827097065500,4.3240654296875,-0.0035124430432915688,-0.0068360683508217335,-0.003549194661900401
1772797827107091500,4.334091552734375,-0.0032141690608114004,-0.009253419004380703,-0.0014261227333918214
1772797827117118500,4.344118408203125,-0.004238953348249197,-0.0072805495001375675,-0.0015712650492787361
1772797827127144400,4.35414453125,-0.004637895151972771,-0.008070177398622036,-0.0011113371001556516
1772797827137170400,4.36417041015625,-0.0041151163168251514,-0.005687979515641928,-0.0022210762836039066
1772797827147196400,4.374196533203125,-0.004743356257677078,-0.007044593803584576,0.00031638352083973587
1772797827157223400,4.384223388671875,-0.0022860574536025524,-0.007546865846961737,-0.0012389025650918484
1772797827167249400,4.39424951171875,-0.0011166634503751993,-0.008672317489981651,-0.003091131104156375
1772797827177275400,4.404275390625,-0.0041033984161913395,-0.004850681405514479,-0.005253884010016918
1772797827187302400,4.414302490234375,-0.004447745159268379,-0.008450476452708244,-0.004018443636596203
1772797827197328400,4.424328369140625,-0.003313771216198802,-0.006887733470648527,-0.004240018781274557
1772797827207354400,4.434354248046875,-0.0005020058597438037,-0.003855724586173892,-0.0028045750223100185
1772797827217381000,4.444381103515625,-0.003626959165558219,-0.005107143893837929,-0.0025997778866440058
1772797827227407400,4.454407470703125,-0.003314037574455142,-0.006121009588241577,-0.002837331732735038
1772797827237433300,4.464433349609375,-0.0021433120127767324,-0.00732449209317565,-0.004622448701411486
1772797827247459300,4.474459228515625,-0.0021579593885689974,-0.004141481593251228,-0.0007552724564447999
1772797827257486300,4.484486328125,-0.0022945795208215714,-0.0068027786910533905,-0.003287938656285405
1772797827267512300,4.49451220703125,-0.004444815684109926,-0.007531419396400452,-0.0037028591614216566
1772797827277538300,4.504538330078125,0.00016777914424892515,-0.007229949813336134,-0.0013920343481004238
1772797827287565600,4.514565673828125,-0.0016873788554221392,-0.005973204039037228,-0.003093261504545808
1772797827297591600,4.524591552734375,-0.004190750420093536,-0.004014449194073677,-0.00398755120113492
1772797827307617500,4.534617431640625,0.0005278385360725224,-0.005309544038027525,-0.0022114890161901712
1772797827317643500,4.5446435546875,-0.00043223105603829026,-0.007750597782433033,-0.0006585997180081904
1772797827327670300,4.554670166015625,0.00040506679215468466,-0.006423011887818575,-0.00361790438182652
1772797827337696300,4.5646962890625,-0.0017006946727633476,-0.0025270734913647175,-0.0036906085442751646
1772797827347722200,4.57472216796875,-0.0019829897210001945,-0.004579039290547371,-0.0019353191601112485
1772797827357749500,4.58474951171875,-0.0015076154377311468,-0.004884770140051842,-0.002948652021586895
1772797827367775500,4.594775390625,-0.0026943201664835215,-0.005589708685874939,-0.002129463478922844
1772797827377801500,4.604801513671875,-0.0035230957437306643,-0.0057564228773117065,-0.001568069215863943
1772797827387828200,4.614828125,-0.0017624800093472004,-0.006103432737290859,-0.003605920122936368
1772797827397854200,4.624854248046875,-0.0019022959750145674,-0.0072962623089551926,-0.0024892566725611687
1772797827407880200,4.634880126953125,-0.0034346787724643946,-0.00771704176440835,-0.0028695559594780207
1772797827417906200,4.64490625,-0.0026011094450950623,-0.007272027432918549,-0.0016136092599481344
1772797827427933400,4.654933349609375,-0.0022269352339208126,-0.005321528296917677,-0.0009406284661963582
1772797827437959400,4.66495947265625,-0.0031561122741550207,-0.004220311529934406,-0.000041811628761934116
1772797827447985400,4.6749853515625,-0.002484196564182639,-0.003611512714996934,-0.001442900625988841
1772797827458012400,4.685012451171875,-0.0029971215408295393,-0.004445881117135286,-0.0022365227341651917
1772797827468038400,4.695038330078125,-0.0015646071406081319,-0.009486978873610497,-0.0022088258992880583
1772797827478064400,4.705064453125,-0.002234658459201455,-0.005388906225562096,-0.004297542851418257
1772797827488090400,4.71509033203125,-0.0035140409599989653,-0.006482666824012995,-0.004061587154865265
1772797827498117400,4.725117431640625,-0.0036250948905944824,-0.007770038675516844,-0.002513757674023509
1772797827508143400,4.735143310546875,-0.0011475561186671257,-0.007239004597067833,-0.0006058691651560366
1772797827518169300,4.74516943359375,0.00035606464371085167,-0.003483414649963379,-0.0020421119406819344
1772797827528196400,4.7551962890625,-0.0037201696541160345,-0.004728708881884813,-0.0036541232839226723
1772797827538222300,4.765222412109375,-0.002939330879598856,-0.006899984087795019,-0.005071723833680153
1772797827548248300,4.775248291015625,-0.0019707391038537025,-0.008041947148740292,-0.003930559381842613
1772797827558274300,4.7852744140625,0.0013859090395271778,-0.007273625582456589,-0.005726329050958157
1772797827568301300,4.79530126953125,-0.0037236318457871675,-0.005829659756273031,-0.0019417107105255127
1772797827578327300,4.805327392578125,-0.002258893335238099,-0.0034045851789414883,-0.0014149374328553677
1772797827588353300,4.815353271484375,-0.0030341395176947117,-0.0029198897536844015,-0.000014381069377122913
1772797827598380300,4.82538037109375,-0.002644785214215517,-0.0019590212032198906,-0.002335858531296253
1772797827608406300,4.83540625,-0.002412823960185051,-0.000990962260402739,0.00032330775866284966
1772797827618432300,4.845432373046875,-0.0026522420812398195,-0.006247509736567736,-0.004178233444690704
1772797827628459500,4.85545947265625,-0.0028043086640536785,-0.006365753710269928,-0.0036011263728141785
1772797827638485500,4.865485595703125,-0.001261805766262114,-0.007249923422932625,-0.001253017340786755
1772797827648511500,4.875511474609375,-0.0007262440049089491,-0.0024501082953065634,-0.0017659420846030116
1772797827658537500,4.885537353515625,-0.003555053612217307,0.003641606541350484,-0.0010719223646447062
1772797827668564200,4.895564208984375,-0.004040281753987074,-0.004000600427389145,0.0006522081675939262
1772797827678590200,4.905590087890625,-0.0033803503029048443,-0.004802744835615158,-0.0025832662358880043
1772797827688616200,4.9156162109375,-0.0037087181117385626,-0.004978779703378677,-0.0006527407676912844
1772797827698643500,4.9256435546875,-0.0010013486025854945,-0.005603024736046791,-0.002614957746118307
1772797827708669400,4.93566943359375,-0.001969141187146306,-0.010001501068472862,-0.0018359832465648651
1772797827718695400,4.9456953125,-0.001350755337625742,-0.00680171325802803,-0.0015283881220966578
1772797827728721400,4.955721435546875,-0.0015954998089000583,-0.006225937977433205,-0.004216316621750593
1772797827738748400,4.96574853515625,-0.001740375766530633,-0.004589958116412163,-0.002311357529833913
1772797827748774400,4.9757744140625,-0.0004213120846543461,-0.005393966566771269,-0.0027214842848479748
1772797827758800400,4.98580029296875,-0.0006807039608247578,-0.003309244057163596,-0.0026205505710095167
1772797827768827400,4.995827392578125,0.00033955302205868065,-0.003754258155822754,0.0011965582380071282
1772797827778853400,5.005853271484375,-0.0026759442407637835,-0.004610464442521334,-0.004598746541887522
1772797827788879400,5.01587939453125,-0.0019797938875854015,-0.006940197665244341,-0.0036426717415452003
1772797827798905300,5.0259052734375,-0.0028961875941604376,-0.006389189511537552,-0.005374525208026171
1772797827808932400,5.035932373046875,-0.0037151097785681486,-0.004833637271076441,-0.004268780816346407
1772797827818958300,5.045958251953125,-0.0026040389202535152,-0.007758054416626692,-0.0015504923649132252
1772797827828984300,5.055984375,-0.0001400822657160461,-0.006708236411213875,0.0006958839949220419
1772797827839011300,5.06601123046875,-0.00195129809435457,-0.0018032263033092022,0.0007451524725183845
1772797827849037300,5.076037353515625,-0.002433063928037882,-0.0032320122700184584,0.00037497308221645653
1772797827859063300,5.086063232421875,-0.0024772724136710167,-0.004171309061348438,-0.002641855739057064
1772797827869089300,5.09608935546875,0.0003486077766865492,-0.00794314406812191,-0.0030977888964116573
1772797827879116300,5.1061162109375,-0.0032003207597881556,-0.002846919232979417,-0.004408863373100758
1772797827889142300,5.116142333984375,-0.0037023264449089766,-0.0035356127191334963,-0.0031398669816553593
1772797827899168300,5.126168212890625,-0.002433063928037882,-0.004314587451517582,-0.0017425062833353877
1772797827909195500,5.136195556640625,-0.0023363912478089333,-0.004263454582542181,-0.0012713931500911713
1772797827919221500,5.146221435546875,-0.0032200280111283064,-0.00452817277982831,-0.0022594258189201355
1772797827929247500,5.15624755859375,-0.0018631474813446403,-0.006877081003040075,-0.0014306501252576709
1772797827939273500,5.1662734375,-0.001719869440421462,-0.008680573664605618,-0.0025387913919985294
1772797827949300200,5.17630029296875,-0.001889246515929699,-0.009075786918401718,-0.004372644238173962
1772797827959326200,5.186326171875,0.000023435817638528533,-0.00418462511152029,-0.0020879183430224657
1772797827969352200,5.196352294921875,-0.003433613572269678,-0.00583685003221035,-0.003861317178234458
1772797827979379500,5.20637939453125,-0.003087668912485242,-0.0039007319137454033,-0.0004777711001224816
1772797827989405400,5.216405517578125,-0.0017222663154825568,-0.002142246812582016,-0.0005816344055347145
1772797827999432000,5.226431884765625,0.00005672533006872982,-0.0024173513520509005,-0.0012937636347487569
1772797828009458000,5.2364580078125,-0.0037087181117385626,-0.00444002216681838,-0.003436010330915451
1772797828019485000,5.24648486328125,-0.0009345032158307731,-0.00878124125301838,-0.005064799915999174
1772797828029511000,5.256510986328125,-0.0020996362436562777,-0.006914631463587284,-0.004733502399176359
1772797828039537000,5.266536865234375,-0.000026365294615970924,-0.004789695143699646,-0.003772101365029812
1772797828049564000,5.27656396484375,-0.0013880395563319325,-0.004385161213576794,-0.003459446132183075
1772797828059590000,5.28658984375,-0.0015369103057309985,-0.002049302449449897,-0.001520665013231337
1772797828069615900,5.296615966796875,-0.004801413044333458,-0.003739610780030489,0.0025744778104126453
1772797828079641900,5.306641845703125,-0.003694869577884674,-0.0022061625495553017,-0.0005219795857556164
1772797828089668900,5.3166689453125,-0.0013579458463937044,-0.005776396486908197,-0.0017427726415917277
1772797828099694800,5.32669482421875,-0.0020660804584622383,-0.0057132793590426445,-0.004662129562348127
1772797828109720800,5.336720947265625,-0.0005781722720712423,-0.008670720271766186,-0.005459746345877647
1772797828119747800,5.346747802734375,-0.0009076052810996771,-0.0031726236920803785,-0.005526592023670673
1772797828129773800,5.35677392578125,-0.0010823087068274617,-0.006867759861052036,-0.001374723738990724
1772797828139799800,5.3667998046875,-0.0010109359864145517,-0.0033838124945759773,-0.0016421051695942879
1772797828149825800,5.37682568359375,-0.0014410364674404263,-0.0036732980515807867,-0.0018924422329291701
1772797828159853000,5.38685302734375,-0.0007965514669194818,-0.004317516926676035,-0.002153964713215828
1772797828169879000,5.396879150390625,-0.004790494218468666,-0.006436061579734087,-0.002201635157689452
1772797828179905000,5.406905029296875,-0.002654106356203556,-0.0070435283705592155,-0.0033097765408456326
1772797828189931800,5.416931884765625,-0.002499909373000264,-0.008361793123185635,-0.005354018881917
1772797828199957800,5.426957763671875,-0.0020580908749252558,-0.005193963181227446,-0.003428287338465452
1772797828209983700,5.436983642578125,-0.0010753844399005175,-0.005652293097227812,-0.0018242653459310532
1772797828220009700,5.447009765625,-0.0019925772212445736,-0.00697881355881691,-0.003314570290967822
1772797828230037000,5.457037109375,-0.0019824570044875145,-0.006675479467958212,-0.002383795566856861
1772797828240063000,5.46706298828125,-0.0044205812737345695,-0.004171841777861118,-0.0016287893522530794
1772797828250089000,5.4770888671875,-0.00282002124004066,-0.006393184419721365,-0.0011848403373733163
1772797828260116000,5.487115966796875,-0.0024322650860995054,-0.004188353195786476,0.00015659387281630188
1772797828270142000,5.497141845703125,-0.00018242653459310532,-0.0067990501411259174,-0.0010253170039504766
1772797828280168000,5.50716796875,-0.004086087923496962,-0.0029289445374161005,-0.0016924388473853469
1772797828290194000,5.51719384765625,-0.002299373270943761,-0.004033890087157488,-0.0027001791168004274
1772797828300221000,5.527220947265625,-0.001651159836910665,-0.005781989078968763,-0.004225105047225952
1772797828310247000,5.537246826171875,-0.0023398532066494226,-0.006342584267258644,-0.002338788006454706
1772797828320273000,5.54727294921875,-0.000892691605258733,-0.004593153949826956,-0.00047883635852485895
1772797828330300000,5.5572998046875,-0.001282045734114945,-0.0034519892651587725,-0.00101173494476825
1772797828340326000,5.567325927734375,-0.0007363640470430255,-0.004285026341676712,0.0005334311863407493
1772797828350352000,5.577351806640625,-0.002240783767774701,-0.0070552462711930275,-0.0011076086666435003
1772797828360377900,5.5873779296875,-0.0034820830915123224,-0.0056983656249940395,0.0006130596739239991
1772797828370404900,5.59740478515625,-0.0014048174489289522,-0.0041215079836547375,-0.005600095260888338
1772797828380430800,5.607430908203125,-0.003437075763940811,-0.007506385911256075,-0.0032469260040670633
1772797828390456800,5.617456787109375,-0.0017837852938100696,-0.0075607141479849815,-0.004026433452963829
1772797828400482800,5.62748291015625,-0.00014913702034391463,-0.0027976506389677525,-0.0024639565963298082
1772797828410509800,5.637509765625,-0.003513508476316929,-0.005310609471052885,0.0013813816476613283
1772797828420535800,5.647535888671875,0.00027616979787126184,-0.0027116306591778994,-0.0023182816803455353
1772797828430561800,5.657561767578125,-0.0006402239087037742,-0.003602990647777915,-0.0011763182701542974
1772797828440589000,5.667589111328125,-0.004080761689692736,-0.004514856729656458,-0.0023007048293948174
1772797828450615000,5.677614990234375,-0.0007203850545920432,-0.008262190967798233,-0.0044200485572218895
1772797828460641000,5.68764111328125,-0.0010820423485711217,-0.008280566893517971,-0.006149771623313427
1772797828470667000,5.6976669921875,-0.0015299860388040543,-0.00640783179551363,-0.005394765175879002
1772797828480693800,5.70769384765625,-0.0023545008152723312,-0.006137787364423275,-0.00367170013487339
1772797828490719700,5.7177197265625,-0.0012801815755665302,-0.0010705908061936498,-0.001350755337625742
1772797828500746000,5.72774609375,-0.0032647692132741213,-0.0032682311721146107,-0.0010016148444265127
1772797828510773000,5.73777294921875,-0.0015475628897547722,-0.003126551164314151,-0.0021899172570556402
1772797828520799000,5.747799072265625,-0.0022831279784440994,-0.005922337528318167,-0.0020394488237798214
1772797828530825000,5.757824951171875,-0.0006908240029588342,-0.0065380604937672615,-0.004082892090082169
1772797828540851000,5.767850830078125,-0.0027656927704811096,-0.005857889074832201,-0.0030280142091214657
1772797828550877700,5.777877685546875,-0.0037803570739924908,-0.007501591928303242,-0.002659698948264122
1772797828560903700,5.787903564453125,0.0000852211524033919,-0.004226969089359045,-0.004229898564517498
1772797828570930000,5.797929931640625,-0.00472657848149538,-0.005847502965480089,-0.0026639599818736315
1772797828580957000,5.80795703125,-0.0029142971616238356,-0.004260525107383728,-0.0005539375124499202
1772797828590983000,5.81798291015625,-0.0026932547334581614,-0.002989664673805237,-0.0008495483780279756
1772797828601009000,5.8280087890625,-0.0026940538082271814,-0.006047506351023912,-0.002400839701294899
1772797828611035000,5.838034912109375,-0.0012420982820913196,-0.006915430538356304,-0.00452684098854661
1772797828621062000,5.848061767578125,-0.0018663433147594333,-0.005930326879024506,-0.0005371595616452396
1772797828631087900,5.858087890625,-0.0043707797303795815,-0.006866960786283016,-0.003894340479746461
1772797828641114000,5.868114013671875,-0.0021813951898366213,-0.004217648413032293,-0.0007707187905907631
1772797828651140000,5.87814013671875,-0.0011371697764843702,-0.003977430984377861,-0.0023702133912593126
1772797828661166800,5.888166748046875,-0.0026256104465574026,-0.008046208880841732,-0.0009139968897216022
1772797828671192800,5.89819287109375,-0.0023039006628096104,-0.007504521403461695,-0.0000015978966985130683
1772797828681218800,5.90821875,-0.001059139147400856,-0.005538309924304485,-0.0037230991292744875
1772797828691245800,5.918245849609375,-0.004772917367517948,-0.005307147279381752,-0.002724680118262768
1772797828701272000,5.92827197265625,-0.0019624833948910236,-0.007541273254901171,-0.002176867797970772
1772797828711298000,5.938298095703125,-0.0017156084068119526,-0.0070190271362662315,-0.0019145464757457376
1772797828721324000,5.948323974609375,-0.00009560748003423214,-0.005094094667583704,-0.0018397116800770164
1772797828731350800,5.958350830078125,-0.0011616708943620324,-0.00523683987557888,-0.005495699122548103
1772797828741376800,5.968376708984375,-0.0027808728627860546,-0.008043545298278332,-0.0008261125767603517
1772797828751402800,5.97840283203125,-0.0023664848413318396,-0.005681055132299662,-0.0020876519847661257
1772797828761429800,5.9884296875,-0.0027899276465177536,-0.0057132793590426445,-0.0011994877131655812
1772797828771456000,5.9984560546875,-0.0033252229914069176,-0.004519117996096611,-0.0018018947448581457
1772797828781482000,6.00848193359375,-0.0025627599097788334,-0.003968908917158842,-0.0034940673504024744
1772797828791508000,6.018508056640625,-0.0035654399544000626,-0.005571865476667881,-0.002406965009868145
1772797828801535000,6.028534912109375,0.0000958738019107841,-0.007653658743947744,-0.004719121381640434
1772797828811561000,6.03856103515625,-0.004454935900866985,-0.00373028963804245,-0.0021616879384964705
1772797828821587000,6.0485869140625,-0.0021342572290450335,-0.007418235298246145,-0.0004913532175123692
1772797828831613000,6.058613037109375,-0.0024746092967689037,-0.005561213009059429,-0.0036171053070575
1772797828841640000,6.068639892578125,-0.0031137678306549788,-0.005141764879226685,-0.0017496967921033502
1772797828851666000,6.078666015625,-0.0023667511995881796,-0.0030072415247559547,-0.0023134879302233458
1772797828861692000,6.08869189453125,-0.0005877596559002995,-0.004576642066240311,-0.0009805759182199836
1772797828871719000,6.098718994140625,-0.002817091764882207,-0.003204049076884985,-0.0014628743520006537
1772797828881745000,6.108744873046875,-0.0017592841759324074,-0.0037731665652245283,-0.0012652678415179253
1772797828891771000,6.11877099609375,-0.002323341788724065,-0.008409463800489902,-0.0034266894217580557
1772797828901796900,6.128796875,-0.0033340114168822765,-0.006204099860042334,-0.0009291769238188863
1772797828911824000,6.138823974609375,-0.0041425470262765884,-0.007654191460460424,-0.0024972460232675076
1772797828921849900,6.148849853515625,-0.0006969492533244193,-0.005951898638159037,-0.0036389431916177273
1772797828931875800,6.158875732421875,-0.003644536016508937,-0.008275240659713745,-0.004719654098153114
1772797828941901800,6.16890185546875,-0.002582201035693288,-0.0076115806587040424,-0.0035832831636071205
1772797828951928800,6.1789287109375,-0.001151018193922937,-0.005346562247723341,-0.0033334787003695965
1772797828961954800,6.188954833984375,-0.00043809000635519624,-0.004091148264706135,-0.0033878071699291468
1772797828971980800,6.198980712890625,-0.0010290454374626279,-0.004235491156578064,-0.0012711267918348312
1772797828982008000,6.209008056640625,-0.0036709012929350138,-0.0019142802339047194,0.0006559365428984165
1772797828992034000,6.219033935546875,-0.0009869674686342478,-0.0006082659820094705,-0.000107858024421148
1772797829002060500,6.229060546875,-0.0016010924009606242,-0.004763063509017229,-0.003275688039138913
1772797829012086500,6.23908642578125,-0.0025774072855710983,-0.005253351293504238,-0.003608849598094821
1772797829022113800,6.24911376953125,-0.002802178030833602,-0.007051517721265554,-0.003775030840188265
1772797829032139800,6.259139892578125,-0.0019052254501730204,-0.0065439194440841675,-0.006464823614805937
1772797829042165800,6.269165771484375,-0.001725728390738368,-0.006703709252178669,-0.0025989788118749857
1772797829052192800,6.27919287109375,-0.002231728984043002,-0.0028780782595276833,-0.00028096348978579044
1772797829062218800,6.28921875,-0.002977946773171425,-0.0037140443455427885,0.001449025934562087
1772797829072244700,6.29924462890625,-0.0035843485966324806,-0.004789961501955986,0.00021731393644586205
1772797829082270700,6.309270751953125,-0.003763579297810793,-0.008954612538218498,-0.0017949705943465233
1772797829092297700,6.319297607421875,-0.0015584818320348859,-0.007987086661159992,-0.004826979245990515
1772797829102323700,6.32932373046875,-0.0020666129421442747,-0.00824807584285736,-0.005465605296194553
1772797829112349700,6.339349609375,-0.0002644518972374499,-0.00732395937666297,-0.0031672974582761526
1772797829122375700,6.349375732421875,-0.002636263146996498,-0.0054762582294642925,-0.002523345174267888
1772797829132402700,6.359402587890625,-0.0020687435753643513,-0.0023811322171241045,0.0018847191240638494
1772797829142428700,6.3694287109375,-0.001876995898783207,-0.003626160090789199,-0.00023462448734790087
1772797829152454700,6.37945458984375,-0.0022120214998722076,-0.0018676748732104897,-0.0006109291571192443
1772797829162481000,6.38948095703125,-0.001931058126501739,-0.006487460341304541,-0.0029348034877330065
1772797829172507600,6.399507568359375,-0.0010876349406316876,-0.006880809087306261,-0.004579837899655104
1772797829182533600,6.40953369140625,-0.0036043222062289715,-0.005416603293269873,-0.003980094101279974
1772797829192559600,6.4195595703125,-0.001347559504210949,-0.006336725316941738,-0.002597380895167589
1772797829202586600,6.429586669921875,-0.0024445154704153538,-0.00705737667158246,-0.0027164241764694452
1772797829212612600,6.439612548828125,-0.0034993935842067003,-0.0054514906369149685,-0.0011142665753141046
1772797829222638600,6.449638671875,-0.0019765980541706085,-0.002752909669652581,0.0007257114048115909
1772797829232664800,6.459664794921875,-0.002189651131629944,-0.003506850451231003,-0.0031465247739106417
1772797829242691800,6.46969189453125,-0.0015574166318401694,-0.0024551681708544493,-0.004037884995341301
1772797829252717800,6.4797177734375,-0.0023102923296391964,-0.004172374494373798,-0.0046267095021903515
1772797829262743800,6.489743896484375,-0.0018722022650763392,-0.006613161414861679,-0.0041281660087406635
1772797829272769800,6.499769775390625,-0.0021494373213499784,-0.006952714640647173,-0.0025390577502548695
1772797829282796500,6.509796630859375,-0.00256382510997355,-0.0032868734560906887,-0.0011398328933864832
1772797829292822800,6.51982275390625,-0.0029353362042456865,-0.0036426717415452003,-0.0015598133904859424
1772797829302848800,6.529848876953125,0.002162753138691187,-0.0028844696935266256,-0.0025355955585837364
1772797829312875800,6.539875732421875,-0.0007432882557623088,-0.004081294406205416,-0.0031073763966560364
1772797829322901800,6.54990185546875,-0.0013084110105410218,-0.006867759861052036,-0.0036567864008247852
1772797829332927700,6.559927734375,-0.0018543590558692813,-0.0059662796556949615,-0.0028035095892846584
1772797829342953700,6.56995361328125,-0.0006404902087524533,-0.003968376200646162,-0.004610730800777674
1772797829352980700,6.579980712890625,-0.0010993528412654996,-0.006700513418763876,-0.0027257453184574842
1772797829363006700,6.5900068359375,0.00008122641156660393,-0.0037883466575294733,-0.002013616031035781
1772797829373032700,6.60003271484375,-0.0033217607997357845,-0.005042961798608303,-0.0020703414920717478
1772797829383058700,6.61005859375,-0.003334543900564313,-0.008142881095409393,-0.0036493295338004827
1772797829393085700,6.620085693359375,0.00009507485083304346,-0.006413424387574196,-0.001725462032482028
1772797829403111700,6.630111572265625,-0.0016082830261439085,-0.0070070428773760796,-0.003982757218182087
1772797829413137700,6.6401376953125,-0.00006391586794052273,-0.007545001804828644,-0.00415346585214138
1772797829423165000,6.6501650390625,-0.0020716730505228043,-0.0063034361228346825,-0.0023513049818575382
1772797829433191000,6.66019091796875,-0.00155262288171798,-0.005841111298650503,-0.002683667466044426
1772797829443217000,6.670216796875,-0.0008735168376006186,-0.0057289921678602695,-0.0014658038271591067
1772797829453243000,6.680242919921875,-0.0016666061710566282,-0.005290103144943714,-0.0029643645975738764
1772797829463269600,6.69026953125,-0.0026525084394961596,-0.004875182639807463,-0.0015901734586805105
1772797829473295600,6.700295654296875,-0.0022927154786884785,-0.006329268682748079,-0.0012737899087369442
1772797829483321600,6.710321533203125,-0.0028903286438435316,-0.0033752904273569584,-0.004412325099110603
1772797829493347600,6.72034765625,-0.0036911412607878447,-0.007270696107298136,-0.0036011263728141785
1772797829503374800,6.730374755859375,-0.003060770919546485,-0.0034874093253165483,-0.004138285759836435
1772797829513400800,6.74040087890625,-0.00034914040588773787,-0.00782782956957817,-0.0010897654574364424
1772797829523426800,6.7504267578125,-0.0026011094450950623,-0.006608900614082813,-0.0012271846644580364
1772797829533452800,6.760452880859375,-0.003522563260048628,-0.007920240983366966,-0.004920456558465958
1772797829543479800,6.770479736328125,-0.0014588796766474843,-0.0043707797303795815,-0.003299390198662877
1772797829553505500,6.780505615234375,-0.001999501371756196,-0.005680788774043322,-0.003447994589805603
1772797829563531500,6.790531494140625,-0.0035326832439750433,-0.0073407371528446674,-0.0034405377227813005
1772797829573558800,6.800558837890625,-0.0020365193486213684,-0.00027537086862139404,-0.003468500915914774
1772797829583584800,6.810584716796875,-0.0014948323369026184,-0.0035814191214740276,-0.004572913981974125
1772797829593610800,6.82061083984375,-0.002508165081962943,-0.007561779581010342,-0.0021374530624598265
1772797829603636700,6.83063671875,-0.0010596717474982142,-0.00689119566231966,-0.002609098795801401
1772797829613663700,6.840663818359375,-0.0019835224375128746,-0.004569185432046652,-0.0035752938129007816
1772797829623689700,6.850689697265625,-0.0016594156622886658,-0.004540956113487482,-0.0032077773939818144
1772797829633715700,6.8607158203125,-0.001719603082165122,-0.0089365029707551,-0.0016522251535207033
1772797829643741700,6.87074169921875,0.0010607370641082525,-0.005548962391912937,-0.0052232579328119755
1772797829653768700,6.880768798828125,-0.000794420950114727,-0.005028847139328718,-0.003564108395949006
1772797829663794700,6.890794677734375,-0.003335342975333333,-0.003032541600987315,-0.0008860336965881288
1772797829673820700,6.900820556640625,-0.0008274441352114081,-0.00033582461765035987,0.002386192325502634
1772797829683846700,6.9108466796875,-0.0015670040156692266,0.009729859419167042,0.013148026540875435
1772797829693873700,6.920873779296875,-0.002030926523730159,0.018814433366060257,0.02082325704395771
1772797829703899600,6.930899658203125,-0.000987500068731606,0.022356437519192696,0.021267471835017204
1772797829713926000,6.94092578125,-0.0012567456578835845,0.021228855475783348,0.01992630399763584
1772797829723953000,6.950952880859375,-0.0017712684348225594,0.020498350262641907,0.020125241950154305
1772797829733978600,6.960978515625,-0.0031790153589099646,0.01685461401939392,0.015692410990595818
1772797829744004600,6.971004638671875,-0.0009962886106222868,0.01998302899301052,0.01757233589887619
1772797829754030600,6.981030517578125,-0.0010657970560714602,0.014956312254071236,0.01353551633656025
1772797829764057600,6.9910576171875,0.0002247707889182493,0.005515672732144594,0.006452306639403105
1772797829774083600,7.00108349609375,-0.0025739450938999653,-0.007949003018438816,-0.0049313753843307495
1772797829784109800,7.01110986328125,-0.0024839304387569427,-0.023682693019509315,-0.017912155017256737
1772797829794135800,7.0211357421875,-0.0007712514488957822,-0.03515612334012985,-0.026380207389593124
1772797829804162800,7.031162841796875,-0.0008692557457834482,-0.04189684987068176,-0.03611858934164047
1772797829814188800,7.041188720703125,-0.0009805759182199836,-0.04454642906785011,-0.036440566182136536
1772797829824214800,7.05121484375,-0.00040799626731313765,-0.04115942120552063,-0.03178376331925392
1772797829834240800,7.06124072265625,-0.0017630126094445586,-0.02996988222002983,-0.02714347094297409
1772797829844267800,7.071267822265625,-0.0030269487760961056,-0.019660519436001778,-0.017907360568642616
1772797829854293800,7.081293701171875,-0.004055461846292019,-0.01068273838609457,-0.0075780246406793594
1772797829864319700,7.09131982421875,-0.002944657113403082,0.0016269250772893429,0.0036970002111047506
1772797829874346800,7.1013466796875,-0.002430400811135769,0.0070730894804000854,0.008613727986812592
1772797829884372700,7.111372802734375,-0.0023092268966138363,0.004263720940798521,0.006551642436534166
1772797829894398700,7.121398681640625,-0.0023646207991987467,-0.008038751780986786,-0.005048288032412529
1772797829904424700,7.1314248046875,-0.000770452490542084,-0.01842161826789379,-0.010543720796704292
1772797829914451700,7.14145166015625,-0.0008580705034546554,-0.01744450442492962,-0.01673770137131214
1772797829924477700,7.151477783203125,-0.0030692932195961475,-0.012349876575171947,-0.010941863991320133
1772797829934503700,7.161503662109375,-0.002150768879801035,-0.00458836043253541,-0.002615224104374647
1772797829944529700,7.17152978515625,-0.0035481294617056847,0.002665291540324688,0.004870655480772257
1772797829954556700,7.181556640625,-0.00273693073540926,0.005298358853906393,0.005291967187076807
1772797829964582700,7.191582763671875,-0.0005408879951573908,-0.0021342572290450335,0.0005872269975952804
1772797829974608600,7.201608642578125,-0.002433596644550562,-0.007625428959727287,-0.004434429574757814
1772797829984634600,7.211634521484375,-0.0018160095205530524,-0.012492622248828411,-0.00785525981336832
1772797829994662000,7.221661865234375,-0.000841825210954994,-0.012024705298244953,-0.011753861792385578
1772797830004687000,7.23168701171875,-0.0015166702214628458,-0.008229433558881283,-0.0051928977482020855
1772797830014713000,7.241713134765625,-0.004636829718947411,-0.003650128608569503,-0.0011118697002530098
1772797830024739000,7.251739013671875,-0.0011110707418993115,-0.004430434666574001,0.0019896477460861206
1772797830034766000,7.26176611328125,-0.0014242585748434067,-0.0010540791554376483,0.003061037277802825
1772797830044792000,7.2717919921875,-0.0028879318851977587,-0.004514590837061405,-0.0020421119406819344
1772797830054818000,7.281818115234375,-0.002900981344282627,-0.005318865180015564,-0.0023217438720166683
1772797830064845000,7.291844970703125,-0.0019201391842216253,-0.010488860309123993,-0.006596117280423641
1772797830074871000,7.30187109375,-0.0026288062799721956,-0.007721835747361183,-0.006138852797448635
1772797830084897000,7.31189697265625,0.0003177151083946228,-0.005258944351226091,-0.005101551301777363
1772797830094923000,7.321923095703125,0.0006103964988142252,-0.004216316621750593,-0.0006415555253624916
1772797830104950300,7.3319501953125,-0.001782453735359013,-0.0011821772204712033,-0.0002508697798475623
1772797830114976300,7.341976318359375,-0.00242081331089139,0.05474233999848366,0.04707243666052818
1772797830125002200,7.352002197265625,-0.004712463356554508,0.13280758261680603,0.12489879131317139
1772797830135028200,7.3620283203125,-0.00330231967382133,0.15988419950008392,0.14160266518592834
1772797830145055000,7.372054931640625,-0.0022684806026518345,0.12970393896102905,0.10355648398399353
1772797830155081000,7.3820810546875,-0.0035185683518648148,0.06452945619821548,0.04578986018896103
1772797830165107000,7.39210693359375,0.00019467707898002118,-0.011126420460641384,-0.006431533955037594
1772797830175133000,7.4021328125,-0.0005656554130837321,-0.04566069692373276,-0.03573056682944298
1772797830185160200,7.41216015625,-0.0026905916165560484,-0.03419072553515434,-0.029266275465488434
1772797830195186200,7.422186279296875,-0.0017630126094445586,-0.019293004646897316,-0.01564287580549717
1772797830205212200,7.432212158203125,-0.002351038623601198,-0.022653380408883095,-0.011942679062485695
1772797830215238100,7.442238037109375,-0.0013941648649051785,-0.04683355242013931,-0.03430178016424179
1772797830225265200,7.45226513671875,-0.0005336974863894284,-0.09488123655319214,-0.0784418135881424
1772797830235291000,7.462290771484375,-0.0027595674619078636,-0.15734034776687622,-0.12485325336456299
1772797830245316900,7.47231689453125,0.0015462313313037157,-0.17363063991069794,-0.14973942935466766
1772797830255343000,7.482343017578125,-0.0007779093575663865,-0.12413579970598221,-0.11605656147003174
1772797830265370000,7.4923701171875,-0.001157143502496183,-0.03211798891425133,-0.02929929830133915
1772797830275396000,7.50239599609375,-0.0000977380113909021,0.05595940724015236,0.06425541639328003
1772797830285422000,7.512422119140625,-0.0017132115317508578,0.10263077169656754,0.10654135793447495
1772797830295448000,7.522447998046875,-0.0036727653350681067,0.08776526898145676,0.07372242212295532
1772797830305475000,7.53247509765625,-0.0007014766451902688,0.011067830957472324,0.008807339705526829
1772797830315501300,7.542501220703125,-0.002240783767774701,-0.06872846186161041,-0.05878688395023346
1772797830325527300,7.55252734375,-0.0018074874533340335,-0.108741395175457,-0.0885988399386406
1772797830335554000,7.562553955078125,-0.00001917476038215682,-0.07763593643903732,-0.07118017226457596
1772797830345580000,7.572580078125,-0.002463157754391432,-0.015078019350767136,-0.015606123954057693
1772797830355606000,7.58260595703125,-0.0017603494925424457,0.04274187237024307,0.03966165706515312
1772797830365632000,7.592632080078125,-0.003165965899825096,0.0640876367688179,0.06667516380548477
1772797830375659000,7.602658935546875,-0.0031547807157039642,0.04748149961233139,0.04730812832713127
1772797830385685200,7.612685302734375,-0.004315918777137995,0.0073042516596615314,0.0020817930344492197
1772797830395711200,7.622711181640625,-0.00016431703988928348,-0.047690823674201965,-0.03939960524439812
1772797830405737200,7.6327373046875,-0.0016961672808974981,-0.06997322291135788,-0.053342316299676895
1772797830415764000,7.642763916015625,-0.0015009575290605426,-0.04747297614812851,-0.04266304150223732
1772797830425790000,7.6527900390625,-0.0036637107841670513,-0.006187322083860636,-0.006962035782635212
1772797830435816000,7.66281591796875,-0.0013672668719664216,0.024339161813259125,0.026256371289491653
1772797830445842000,7.672842041015625,-0.005017395596951246,0.035722844302654266,0.04038896784186363
1772797830455869200,7.682869140625,-0.0032975259236991405,0.024455808103084564,0.023212911561131477
1772797830465895200,7.692895263671875,-0.0007084008539095521,-0.003952663857489824,-0.007741276640444994
1772797830475921200,7.702921142578125,-0.00005273058923194185,-0.032894033938646317,-0.028979454189538956
1772797830485947100,7.712947021484375,-0.0016615461790934205,-0.045526470988988876,-0.03416915610432625
1772797830495974100,7.72297412109375,-0.0035095135681331158,-0.029264943674206734,-0.024567926302552223
1772797830506000100,7.733000244140625,-0.004552141297608614,0.0021281319204717875,-0.0029696908313781023
1772797830516026000,7.743026123046875,-0.001841575838625431,0.015343536622822285,0.020175842568278313
1772797830526052000,7.753052001953125,-0.0016524913953617215,0.021132981404662132,0.0257562305778265
1772797830536079000,7.7630791015625,-0.0035212314687669277,0.013219931162893772,0.012625779956579208
1772797830546105000,7.77310498046875,-0.0021797972731292248,-0.007417702581733465,-0.0075796227902174
1772797830556131000,7.783131103515625,-0.00355798308737576,-0.02550829015672207,-0.023442208766937256
1772797830566157000,7.793156982421875,-0.0022072279825806618,-0.0318245068192482,-0.02370080165565014
1772797830576184000,7.80318408203125,-0.0037763623986393213,-0.019062107428908348,-0.013784521259367466
1772797830586210000,7.8132099609375,-0.002243180526420474,0.002269545802846551,0.0023164174053817987
1772797830596236000,7.823236083984375,-0.00018562232435215265,0.011453190818428993,0.014821822755038738
1772797830606262300,7.83326220703125,-0.0033625070936977863,0.012044678442180157,0.014431403949856758
1772797830616289000,7.8432890625,-0.0017182715237140656,0.004481567535549402,0.006032059900462627
1772797830626315000,7.85331494140625,-0.002237055217847228,-0.010302172042429447,-0.004428304266184568
1772797830636341000,7.863341064453125,-0.002546780975535512,-0.02069436013698578,-0.017007479444146156
1772797830646367000,7.873366943359375,-0.0007789746159687638,-0.012269183062016964,-0.010114152915775776
1772797830656394000,7.88339404296875,-0.00039414784987457097,0.08948434144258499,0.08469757437705994
1772797830666420000,7.893419921875,-0.004838431254029274,0.18678373098373413,0.17027106881141663
1772797830676446200,7.9034462890625,-0.003910852130502462,0.20175042748451233,0.16622546315193176
1772797830686472200,7.91347216796875,-0.003365170443430543,0.15504790842533112,0.11770399659872055
1772797830696499200,7.923499267578125,-0.0019680759869515896,0.062133144587278366,0.04854010418057442
1772797830706525200,7.933525146484375,-0.0011326423846185207,-0.01864692196249962,-0.00541340745985508
1772797830716551200,7.94355126953125,-0.002295911079272628,-0.03404372185468674,-0.026684341952204704
1772797830726577200,7.9535771484375,-0.001757952617481351,-0.008762865327298641,-0.01593875326216221
1772797830736604200,7.963604248046875,-0.0010703244479373097,-0.00558225205168128,-0.007315170951187611
1772797830746630100,7.973630126953125,-0.002320678671821952,-0.027097398415207863,-0.007283479440957308
1772797830756656000,7.98365625,0.00023968449386302382,-0.03170812875032425,-0.014374411664903164
1772797830766683100,7.99368310546875,-0.0015603461069986224,-0.03639289364218712,-0.0342240147292614
1772797830776709000,8.003709228515625,-0.0017994979862123728,-0.0565628781914711,-0.04725246503949165
1772797830786735000,8.013735107421875,-0.0012125372886657715,-0.0851559042930603,-0.06405781209468842
1772797830796761000,8.023760986328124,-0.0002623213513288647,-0.09585515409708023,-0.08037446439266205
1772797830806788000,8.0337880859375,-0.003001648932695389,-0.09597526490688324,-0.08941829949617386
1772797830816814000,8.04381396484375,-0.002299905987456441,-0.09812337160110474,-0.083973728120327
1772797830826840000,8.053840087890626,-0.0007065366371534765,-0.10181504487991333,-0.07230908423662186
