time,seconds_elapsed,z,y,x
1772790621489383200,0.070383056640625,-0.2666778564453125,-0.0603485107421875,0.0130157470703125
1772790621499449300,0.080449462890625,-0.2283477783203125,-0.046661376953125,-0.003692626953125
1772790621509514000,0.090513916015625,-0.1954498291015625,-0.026031494140625,-0.02978515625
1772790621519579100,0.1005791015625,-0.1709747314453125,-0.0193023681640625,-0.0510711669921875
1772790621529645300,0.110645263671875,-0.1516571044921875,-0.022979736328125,-0.0406341552734375
1772790621539710200,0.120710205078125,-0.1117095947265625,-0.03021240234375,-0.0226593017578125
1772790621549776100,0.130776123046875,-0.07513427734375,-0.0341949462890625,-0.0059356689453125
1772790621559841300,0.14084130859375,-0.0649261474609375,-0.0436859130859375,0.0107421875
1772790621569906200,0.15090625,-0.0723876953125,-0.0592193603515625,0.02545166015625
1772790621579972400,0.160972412109375,-0.0830841064453125,-0.0719146728515625,0.0469970703125
1772790621590037000,0.171037109375,-0.1095428466796875,-0.0828399658203125,0.061767578125
1772790621600103200,0.181103271484375,-0.135162353515625,-0.090606689453125,0.0630645751953125
1772790621610168300,0.191168212890625,-0.160736083984375,-0.099273681640625,0.07098388671875
1772790621620233200,0.201233154296875,-0.18426513671875,-0.1029510498046875,0.083953857421875
1772790621630299100,0.211299072265625,-0.2124481201171875,-0.1172943115234375,0.084014892578125
1772790621640364300,0.2213642578125,-0.22918701171875,-0.1397247314453125,0.073577880859375
1772790621650429200,0.23142919921875,-0.2593231201171875,-0.16552734375,0.06884765625
1772790621660495400,0.241495361328125,-0.2872467041015625,-0.216064453125,0.081756591796875
1772790621670560000,0.25156005859375,-0.30902099609375,-0.2825775146484375,0.0985107421875
1772790621680626200,0.261626220703125,-0.3774871826171875,-0.3732757568359375,0.1155242919921875
1772790621690691300,0.27169140625,-0.50299072265625,-0.46759033203125,0.1120452880859375
1772790621700756000,0.281755859375,-0.62115478515625,-0.5074920654296875,0.08819580078125
1772790621710822100,0.291822265625,-0.782012939453125,-0.4586029052734375,0.043792724609375
1772790621720887300,0.30188720703125,-1.02752685546875,-0.3824462890625,0.006500244140625
1772790621730953200,0.311953125,-1.2553558349609375,-0.341156005859375,-0.006591796875
1772790621741018400,0.322018310546875,-1.442352294921875,-0.33642578125,-0.02545166015625
1772790621751083000,0.3320830078125,-1.62030029296875,-0.37078857421875,-0.0731658935546875
1772790621761149200,0.342149169921875,-1.745880126953125,-0.398101806640625,-0.091827392578125
1772790621771214300,0.35221435546875,-1.8411712646484375,-0.3791046142578125,-0.0621337890625
1772790621781279000,0.362279052734375,-1.9107208251953125,-0.337310791015625,-0.005401611328125
1772790621791345200,0.37234521484375,-1.92218017578125,-0.344390869140625,0.0266571044921875
1772790621801410300,0.382410400390625,-1.9108734130859375,-0.3743896484375,-0.00238037109375
1772790621811476200,0.392476318359375,-1.8853607177734375,-0.4495849609375,-0.053253173828125
1772790621821541000,0.402541015625,-1.8504486083984375,-0.5345611572265625,-0.0709228515625
1772790621831606300,0.412606201171875,-1.825286865234375,-0.58465576171875,-0.056060791015625
1772790621841672200,0.422672119140625,-1.8099212646484375,-0.6253814697265625,-0.0339508056640625
1772790621851737300,0.4327373046875,-1.778594970703125,-0.6575927734375,-0.021575927734375
1772790621861803300,0.44280322265625,-1.7379608154296875,-0.6828460693359375,-0.0324249267578125
1772790621871868200,0.4528681640625,-1.6986541748046875,-0.72015380859375,-0.050323486328125
1772790621881933300,0.462933349609375,-1.647247314453125,-0.746002197265625,-0.0732421875
1772790621891999200,0.472999267578125,-1.612548828125,-0.750030517578125,-0.0879364013671875
1772790621902064000,0.483064208984375,-1.57940673828125,-0.7285003662109375,-0.0810546875
1772790621912130000,0.493130126953125,-1.5446624755859375,-0.67462158203125,-0.0614013671875
1772790621922195200,0.5031953125,-1.5123138427734375,-0.5997772216796875,-0.032318115234375
1772790621932260400,0.51326025390625,-1.484161376953125,-0.5364990234375,-0.029022216796875
1772790621942326000,0.523325927734375,-1.4590911865234375,-0.467041015625,-0.0344390869140625
1772790621952391200,0.53339111328125,-1.3921966552734375,-0.3907470703125,-0.0217132568359375
1772790621962456300,0.543456298828125,-1.2649383544921875,-0.32647705078125,0.0006256103515625
1772790621972522200,0.553522216796875,-1.1225128173828125,-0.27752685546875,0.0137939453125
1772790621982587100,0.563587158203125,-0.9810791015625,-0.237213134765625,0.021026611328125
1772790621992653000,0.573653076171875,-0.8373565673828125,-0.1953125,0.0218963623046875
1772790622002718200,0.58371826171875,-0.6954803466796875,-0.15020751953125,0.0273590087890625
1772790622012783400,0.593783447265625,-0.5851593017578125,-0.1011810302734375,0.0327911376953125
1772790622022849000,0.60384912109375,-0.5056304931640625,-0.0645599365234375,0.0262298583984375
1772790622032914200,0.6139140625,-0.4365386962890625,-0.043243408203125,0.0194854736328125
1772790622042980000,0.62397998046875,-0.367584228515625,-0.0362396240234375,0.005157470703125
1772790622053045200,0.634045166015625,-0.31298828125,-0.035491943359375,-0.01483154296875
1772790622063110100,0.644110107421875,-0.2669525146484375,-0.0443115234375,-0.022796630859375
1772790622073176000,0.654176025390625,-0.2210845947265625,-0.0548095703125,-0.0323944091796875
1772790622083241200,0.6642412109375,-0.1891326904296875,-0.0567169189453125,-0.027130126953125
1772790622093306400,0.674306396484375,-0.1728515625,-0.0565643310546875,-0.0084686279296875
1772790622103372000,0.6843720703125,-0.172637939453125,-0.069854736328125,-0.00054931640625
1772790622113437200,0.694437255859375,-0.185546875,-0.0963134765625,0.001739501953125
1772790622123503000,0.704503173828125,-0.201873779296875,-0.1206512451171875,0.00457763671875
1772790622133568300,0.714568359375,-0.2441253662109375,-0.1663818359375,-0.0058441162109375
1772790622143633200,0.724633056640625,-0.2859344482421875,-0.181610107421875,-0.0172882080078125
1772790622153699000,0.734698974609375,-0.306793212890625,-0.1749725341796875,-0.0203704833984375
1772790622163764200,0.74476416015625,-0.38134765625,-0.168975830078125,-0.02862548828125
1772790622173830100,0.754830078125,-0.4876861572265625,-0.162017822265625,-0.0350494384765625
1772790622183895000,0.76489501953125,-0.58282470703125,-0.158935546875,-0.0501251220703125
1772790622193960200,0.774960205078125,-0.6640625,-0.20306396484375,-0.070648193359375
1772790622204026000,0.785026123046875,-0.7269287109375,-0.2845001220703125,-0.0979156494140625
1772790622214091300,0.79509130859375,-0.796722412109375,-0.3301239013671875,-0.085479736328125
1772790622224157200,0.8051572265625,-0.92108154296875,-0.36431884765625,-0.0609283447265625
1772790622234222000,0.81522216796875,-1.0724334716796875,-0.37237548828125,-0.0559234619140625
1772790622244287200,0.825287353515625,-1.239715576171875,-0.333282470703125,-0.0559539794921875
1772790622254353400,0.835353515625,-1.4367218017578125,-0.301971435546875,-0.04888916015625
1772790622264418000,0.84541796875,-1.572479248046875,-0.2998809814453125,-0.05279541015625
1772790622274483200,0.855483154296875,-1.619384765625,-0.258331298828125,-0.0843963623046875
1772790622284549000,0.865549072265625,-1.6657257080078125,-0.1840057373046875,-0.1178131103515625
1772790622294614000,0.875614013671875,-1.7383575439453125,-0.129364013671875,-0.12457275390625
1772790622304680200,0.88568017578125,-1.8019256591796875,-0.0914154052734375,-0.09820556640625
1772790622314745000,0.8957451171875,-1.8489532470703125,-0.05535888671875,-0.0516815185546875
1772790622324810200,0.905810302734375,-1.903961181640625,-0.03436279296875,0.0034942626953125
1772790622334876400,0.91587646484375,-1.85955810546875,-0.0391693115234375,0.0455474853515625
1772790622344941000,0.925941162109375,-1.70562744140625,-0.07318115234375,0.0640716552734375
1772790622355007200,0.93600732421875,-1.5433502197265625,-0.1380615234375,0.0781097412109375
1772790622365072100,0.946072021484375,-1.373992919921875,-0.200286865234375,0.0921630859375
1772790622375137000,0.956136962890625,-1.194580078125,-0.23980712890625,0.0963897705078125
1772790622385200600,0.96620068359375,-1.04522705078125,-0.2791900634765625,0.08270263671875
1772790622395265500,0.976265625,-0.92486572265625,-0.2993011474609375,0.0675506591796875
1772790622405330700,0.98633056640625,-0.83111572265625,-0.324554443359375,0.0506439208984375
1772790622415396600,0.996396728515625,-0.755401611328125,-0.348846435546875,0.029296875
1772790622425461500,1.00646142578125,-0.7240753173828125,-0.3477020263671875,0.00628662109375
1772790622435527700,1.016527587890625,-0.6819610595703125,-0.3527069091796875,-0.015350341796875
1772790622445592600,1.026592529296875,-0.635162353515625,-0.3514404296875,-0.0439605712890625
1772790622455657700,1.03665771484375,-0.618072509765625,-0.349090576171875,-0.077545166015625
1772790622465723600,1.0467236328125,-0.6253509521484375,-0.352630615234375,-0.09466552734375
1772790622475788500,1.05678857421875,-0.6404876708984375,-0.3538665771484375,-0.07391357421875
1772790622485854700,1.066854736328125,-0.6725616455078125,-0.344451904296875,-0.0662078857421875
1772790622495919600,1.076919677734375,-0.701416015625,-0.30877685546875,-0.01702880859375
1772790622505984500,1.086984619140625,-0.6916961669921875,-0.3036041259765625,-0.0240631103515625
1772790622516050700,1.09705078125,-0.713623046875,-0.285308837890625,-0.0188751220703125
1772790622526115600,1.107115478515625,-0.749267578125,-0.27423095703125,0.0457000732421875
1772790622536180700,1.1171806640625,-0.7968902587890625,-0.2329254150390625,0.0873565673828125
1772790622546246700,1.12724658203125,-0.852203369140625,-0.174835205078125,0.1064910888671875
1772790622556311600,1.1373115234375,-0.9097747802734375,-0.1307525634765625,0.1075897216796875
1772790622566377700,1.147377685546875,-0.9739532470703125,-0.1049041748046875,0.106719970703125
1772790622576442600,1.157442626953125,-1.03125,-0.0906524658203125,0.106353759765625
1772790622586507500,1.167507568359375,-1.0700531005859375,-0.0892791748046875,0.1131439208984375
1772790622596573700,1.17757373046875,-1.1085052490234375,-0.09686279296875,0.1352996826171875
1772790622606638600,1.187638671875,-1.119964599609375,-0.108123779296875,0.1657562255859375
1772790622616703700,1.197703857421875,-1.076690673828125,-0.1077117919921875,0.1874847412109375
1772790622626769700,1.207769775390625,-1.0257720947265625,-0.0941009521484375,0.187347412109375
1772790622636834600,1.21783447265625,-0.9832000732421875,-0.0984344482421875,0.1860504150390625
1772790622646900700,1.227900634765625,-0.943328857421875,-0.1100006103515625,0.1793365478515625
1772790622656965600,1.237965576171875,-0.9409637451171875,-0.12286376953125,0.1551513671875
1772790622667030500,1.248030517578125,-0.952850341796875,-0.1519622802734375,0.1337127685546875
1772790622677096700,1.2580966796875,-0.965423583984375,-0.18695068359375,0.1165313720703125
1772790622687161600,1.26816162109375,-0.9785614013671875,-0.214599609375,0.109130859375
1772790622697227800,1.278227783203125,-1.0008087158203125,-0.2298126220703125,0.1126251220703125
1772790622707292700,1.288292724609375,-1.0196685791015625,-0.2408447265625,0.1111907958984375
1772790622717357600,1.298357666015625,-1.044647216796875,-0.258148193359375,0.096160888671875
1772790622727423700,1.308423828125,-1.0576019287109375,-0.2806549072265625,0.086822509765625
1772790622737488600,1.318488525390625,-1.0919189453125,-0.29339599609375,0.0958709716796875
1772790622747553500,1.328553466796875,-1.121185302734375,-0.28759765625,0.1129150390625
1772790622757619700,1.33861962890625,-1.126953125,-0.2730255126953125,0.131378173828125
1772790622767684600,1.3486845703125,-1.1439361572265625,-0.2705841064453125,0.146636962890625
1772790622777750800,1.358750732421875,-1.1830596923828125,-0.2755279541015625,0.154632568359375
1772790622787815700,1.368815673828125,-1.1950836181640625,-0.26806640625,0.1561279296875
1772790622797880600,1.378880615234375,-1.1883087158203125,-0.248382568359375,0.1599578857421875
1772790622807946800,1.38894677734375,-1.1949462890625,-0.2340545654296875,0.157440185546875
1772790622818011600,1.39901171875,-1.20361328125,-0.2284698486328125,0.15228271484375
1772790622828077600,1.40907763671875,-1.2149810791015625,-0.21875,0.16162109375
1772790622838142700,1.419142822265625,-1.2043914794921875,-0.2101287841796875,0.16717529296875
1772790622848207600,1.42920751953125,-1.1793975830078125,-0.2017822265625,0.1662445068359375
1772790622858273800,1.439273681640625,-1.15386962890625,-0.187774658203125,0.1703643798828125
1772790622868338700,1.449338623046875,-1.1413726806640625,-0.1672821044921875,0.176910400390625
1772790622878403600,1.459403564453125,-1.1422271728515625,-0.1548614501953125,0.1790313720703125
1772790622888469800,1.4694697265625,-1.1209564208984375,-0.1533660888671875,0.181304931640625
1772790622898534700,1.47953466796875,-1.089630126953125,-0.1457061767578125,0.1827392578125
1772790622908600600,1.4896005859375,-1.0632476806640625,-0.1436309814453125,0.17657470703125
1772790622918665700,1.499665771484375,-1.051849365234375,-0.15423583984375,0.17266845703125
1772790622928730600,1.509730712890625,-1.01007080078125,-0.15936279296875,0.171112060546875
1772790622938796800,1.519796875,-0.9495391845703125,-0.1580657958984375,0.159820556640625
1772790622948861700,1.52986181640625,-0.921783447265625,-0.16168212890625,0.1498565673828125
1772790622958927600,1.539927734375,-0.881500244140625,-0.1680908203125,0.1490325927734375
1772790622968992800,1.54999267578125,-0.835357666015625,-0.1636199951171875,0.1393890380859375
1772790622979057700,1.5600576171875,-0.783416748046875,-0.1461334228515625,0.1290283203125
1772790622989123600,1.57012353515625,-0.73736572265625,-0.136322021484375,0.125701904296875
1772790622999188700,1.580188720703125,-0.7031707763671875,-0.1340179443359375,0.12188720703125
1772790623009253600,1.590253662109375,-0.6540985107421875,-0.135162353515625,0.1132354736328125
1772790623019319600,1.600319580078125,-0.589324951171875,-0.1282196044921875,0.091522216796875
1772790623029384700,1.610384765625,-0.5401153564453125,-0.1254425048828125,0.07635498046875
1772790623039450600,1.62045068359375,-0.5011138916015625,-0.12957763671875,0.0655670166015625
1772790623049515800,1.630515869140625,-0.4701080322265625,-0.1361541748046875,0.0490570068359375
1772790623059580700,1.64058056640625,-0.43402099609375,-0.1523284912109375,0.0247650146484375
1772790623069646600,1.650646484375,-0.4072723388671875,-0.153472900390625,0.00439453125
1772790623079711700,1.660711669921875,-0.3926544189453125,-0.1700897216796875,-0.024749755859375
1772790623089777700,1.670777587890625,-0.39178466796875,-0.1830596923828125,-0.04278564453125
1772790623099842600,1.680842529296875,-0.3983306884765625,-0.1771240234375,-0.0481414794921875
1772790623109907700,1.69090771484375,-0.405181884765625,-0.1707000732421875,-0.0538482666015625
1772790623119973600,1.7009736328125,-0.4417572021484375,-0.1696929931640625,-0.0493927001953125
1772790623130038800,1.711038818359375,-0.4919891357421875,-0.172607421875,-0.04229736328125
1772790623140103700,1.721103759765625,-0.52880859375,-0.1805877685546875,-0.044219970703125
1772790623150169600,1.731169677734375,-0.5323486328125,-0.183929443359375,-0.0662841796875
1772790623160234800,1.74123486328125,-0.541290283203125,-0.1825408935546875,-0.0949249267578125
1772790623170300700,1.75130078125,-0.6016845703125,-0.1745758056640625,-0.0889434814453125
1772790623180365600,1.761365478515625,-0.701934814453125,-0.17059326171875,-0.0359954833984375
1772790623190430700,1.7714306640625,-0.8036956787109375,-0.164642333984375,0.025390625
1772790623200496600,1.78149658203125,-0.9071197509765625,-0.154205322265625,0.060333251953125
1772790623210561800,1.791561767578125,-0.98504638671875,-0.1732635498046875,0.07171630859375
1772790623220627500,1.80162744140625,-1.0267791748046875,-0.1996002197265625,0.0493927001953125
1772790623230692600,1.811692626953125,-1.0683441162109375,-0.2317962646484375,0.0200653076171875
1772790623240757800,1.8217578125,-1.1412506103515625,-0.273040771484375,-0.007415771484375
1772790623250823700,1.83182373046875,-1.25018310546875,-0.298431396484375,-0.02655029296875
1772790623260888600,1.841888671875,-1.4163970947265625,-0.3394622802734375,-0.0069427490234375
1772790623270953700,1.85195361328125,-1.653717041015625,-0.376068115234375,0.0222930908203125
1772790623281019600,1.86201953125,-1.8972930908203125,-0.4104766845703125,0.0430450439453125
1772790623291084500,1.87208447265625,-2.1534881591796875,-0.4134979248046875,0.053253173828125
1772790623301150500,1.882150390625,-2.40521240234375,-0.3901824951171875,0.0672760009765625
1772790623311215600,1.892215576171875,-2.5990753173828125,-0.3509063720703125,0.1228790283203125
1772790623321280800,1.90228076171875,-2.7148895263671875,-0.308990478515625,0.20361328125
1772790623331346700,1.9123466796875,-2.7148590087890625,-0.294281005859375,0.2462615966796875
1772790623341411600,1.92241162109375,-2.579315185546875,-0.3030548095703125,0.2447662353515625
1772790623351477500,1.9324775390625,-2.37408447265625,-0.30914306640625,0.2252655029296875
1772790623361542700,1.942542724609375,-2.163970947265625,-0.3453521728515625,0.21929931640625
1772790623371607600,1.952607666015625,-1.9586334228515625,-0.3984832763671875,0.231658935546875
1772790623381672700,1.962672607421875,-1.7743988037109375,-0.428375244140625,0.245697021484375
1772790623391737300,1.9727373046875,-1.596221923828125,-0.43536376953125,0.224212646484375
1772790623401802500,1.982802490234375,-1.4575653076171875,-0.429412841796875,0.1841583251953125
1772790623411868700,1.99286865234375,-1.365447998046875,-0.394012451171875,0.16998291015625
1772790623421933300,2.002933349609375,-1.261016845703125,-0.3924560546875,0.1176910400390625
1772790623431999500,2.01299951171875,-1.108367919921875,-0.3638916015625,0.0491790771484375
1772790623442064600,2.023064697265625,-0.9464111328125,-0.3361053466796875,0.0157470703125
1772790623452129500,2.033129638671875,-0.7773590087890625,-0.3319549560546875,0.0013427734375
1772790623462195700,2.04319580078125,-0.612701416015625,-0.3194122314453125,-0.013458251953125
1772790623472260400,2.05326025390625,-0.4454803466796875,-0.312774658203125,-0.0249176025390625
1772790623482326500,2.063326416015625,-0.292877197265625,-0.2810516357421875,-0.0471649169921875
1772790623492391700,2.0733916015625,-0.15545654296875,-0.2489013671875,-0.066558837890625
1772790623502456300,2.083456298828125,-0.075439453125,-0.244384765625,-0.1009063720703125
1772790623512522500,2.0935224609375,-0.0070343017578125,-0.2143096923828125,-0.106048583984375
1772790623522587600,2.103587646484375,0.0550994873046875,-0.1703948974609375,-0.083770751953125
1772790623532652500,2.113652587890625,0.0877532958984375,-0.1464385986328125,-0.047027587890625
1772790623542718500,2.123718505859375,0.09014892578125,-0.1479339599609375,0.00225830078125
1772790623552783600,2.13378369140625,0.083831787109375,-0.14068603515625,0.04925537109375
1772790623562849500,2.143849609375,0.072509765625,-0.115264892578125,0.0636138916015625
1772790623572914700,2.153914794921875,0.0480194091796875,-0.096099853515625,0.06243896484375
1772790623582979300,2.163979248046875,0.0179443359375,-0.08209228515625,0.065765380859375
1772790623593045500,2.17404541015625,-0.0286102294921875,-0.0706329345703125,0.035797119140625
1772790623603110700,2.184110595703125,-0.10504150390625,-0.070281982421875,0.041595458984375
1772790623613176600,2.194176513671875,-0.1914825439453125,-0.067718505859375,0.0518951416015625
1772790623623241500,2.204241455078125,-0.2829437255859375,-0.058868408203125,0.0430450439453125
1772790623633306600,2.214306640625,-0.3893280029296875,-0.0650482177734375,0.0557708740234375
1772790623643372500,2.22437255859375,-0.496185302734375,-0.0547027587890625,0.0887603759765625
1772790623653437700,2.234437744140625,-0.5943603515625,-0.04107666015625,0.120208740234375
1772790623663502300,2.24450244140625,-0.685302734375,-0.0411834716796875,0.153411865234375
1772790623673568500,2.254568603515625,-0.7426605224609375,-0.0428466796875,0.161895751953125
1772790623683633700,2.264633544921875,-0.7469329833984375,-0.0424652099609375,0.16229248046875
1772790623693699600,2.274699462890625,-0.7486724853515625,-0.0944061279296875,0.1716766357421875
1772790623703764500,2.284764404296875,-0.797332763671875,-0.196990966796875,0.19061279296875
1772790623713829600,2.29482958984375,-0.8598175048828125,-0.27734375,0.2077178955078125
1772790623723895600,2.3048955078125,-0.9300384521484375,-0.372894287109375,0.221893310546875
1772790623733960700,2.314960693359375,-1.063140869140625,-0.429656982421875,0.1837158203125
1772790623744025300,2.325025390625,-1.22857666015625,-0.44097900390625,0.154998779296875
1772790623754091500,2.335091552734375,-1.39715576171875,-0.506439208984375,0.1487274169921875
1772790623764156700,2.34515673828125,-1.540618896484375,-0.574005126953125,0.1714935302734375
1772790623774222600,2.35522265625,-1.638580322265625,-0.611419677734375,0.1529541015625
1772790623784287500,2.36528759765625,-1.72406005859375,-0.5986328125,0.1090240478515625
1772790623794352600,2.3753525390625,-1.78472900390625,-0.594879150390625,0.109283447265625
1772790623804418600,2.38541845703125,-1.816925048828125,-0.653900146484375,0.1394805908203125
1772790623814483500,2.3954833984375,-1.8416748046875,-0.661956787109375,0.1746978759765625
1772790623824549400,2.40554931640625,-1.8599853515625,-0.6446075439453125,0.2122039794921875
1772790623834614500,2.415614501953125,-1.8626556396484375,-0.6720428466796875,0.2431640625
1772790623844679700,2.4256796875,-1.8272552490234375,-0.697662353515625,0.2719573974609375
1772790623854745600,2.43574560546875,-1.7823333740234375,-0.7285308837890625,0.3028717041015625
1772790623864810500,2.445810546875,-1.7298431396484375,-0.7288055419921875,0.33868408203125
1772790623874875600,2.455875732421875,-1.6616668701171875,-0.7062530517578125,0.3426361083984375
1772790623884941600,2.465941650390625,-1.57855224609375,-0.679168701171875,0.309814453125
1772790623895006500,2.47600634765625,-1.538848876953125,-0.649261474609375,0.2914581298828125
1772790623905072400,2.486072265625,-1.4759521484375,-0.6580047607421875,0.229766845703125
1772790623915137500,2.496137451171875,-1.3491363525390625,-0.63946533203125,0.1766510009765625
1772790623925202700,2.50620263671875,-1.2216796875,-0.6217498779296875,0.1059112548828125
1772790623935268400,2.516268310546875,-1.1561126708984375,-0.5980224609375,0.0327301025390625
1772790623945333500,2.52633349609375,-1.11102294921875,-0.532623291015625,0.012115478515625
1772790623955399400,2.5363994140625,-1.0410308837890625,-0.421600341796875,0.0095672607421875
1772790623965464600,2.546464599609375,-0.959136962890625,-0.3094329833984375,-0.00323486328125
1772790623975529500,2.556529541015625,-0.8540191650390625,-0.246429443359375,-0.0054779052734375
1772790623985595400,2.566595458984375,-0.7691497802734375,-0.1866607666015625,0.0155792236328125
1772790623995660500,2.57666064453125,-0.6762847900390625,-0.1256103515625,0.0459442138671875
1772790624005725700,2.5867255859375,-0.57318115234375,-0.0711517333984375,0.0587615966796875
1772790624015791400,2.596791259765625,-0.4635467529296875,-0.0276641845703125,0.0493927001953125
1772790624025856500,2.6068564453125,-0.3500213623046875,-0.00726318359375,0.0281829833984375
1772790624035922400,2.61692236328125,-0.239471435546875,0.0121917724609375,0.0085601806640625
1772790624045987600,2.626987548828125,-0.188995361328125,0.020751953125,-0.0121307373046875
1772790624056052500,2.637052490234375,-0.1431732177734375,0.0160675048828125,-0.0285491943359375
1772790624066118400,2.647118408203125,-0.0928802490234375,0.006622314453125,-0.0178375244140625
1772790624076183600,2.65718359375,-0.1103057861328125,-0.0325469970703125,0.025421142578125
1772790624086249500,2.66724951171875,-0.14605712890625,-0.0061492919921875,0.05999755859375
1772790624096314400,2.677314453125,-0.1103973388671875,0.0047454833984375,0.0729522705078125
1772790624106379500,2.687379638671875,-0.09991455078125,-0.0435943603515625,0.037994384765625
1772790624116445400,2.697445556640625,-0.1775054931640625,-0.083404541015625,-0.0225830078125
1772790624126510600,2.707510498046875,-0.242431640625,-0.09661865234375,-0.0267181396484375
1772790624136575500,2.717575439453125,-0.2404327392578125,-0.112030029296875,-0.011749267578125
1772790624146641400,2.727641357421875,-0.26995849609375,-0.1360015869140625,0.0225982666015625
1772790624156706600,2.73770654296875,-0.3647308349609375,-0.170654296875,0.059539794921875
1772790624166772500,2.7477724609375,-0.452880859375,-0.190155029296875,0.0731201171875
1772790624176837400,2.75783740234375,-0.4736175537109375,-0.1834716796875,0.0516204833984375
1772790624186902500,2.767902587890625,-0.4748382568359375,-0.177978515625,0.0074920654296875
1772790624196968400,2.777968505859375,-0.5069732666015625,-0.2008209228515625,-0.0209503173828125
1772790624207033600,2.78803369140625,-0.5433349609375,-0.2427520751953125,-0.005340576171875
1772790624217099500,2.798099609375,-0.584503173828125,-0.2774658203125,0.05255126953125
1772790624227164400,2.808164306640625,-0.6128997802734375,-0.296966552734375,0.0914306640625
1772790624237229600,2.8182294921875,-0.670806884765625,-0.327423095703125,0.1079864501953125
1772790624247295700,2.828295654296875,-0.7813720703125,-0.3771514892578125,0.122039794921875
1772790624257360400,2.8383603515625,-0.9782257080078125,-0.44232177734375,0.114898681640625
1772790624267425500,2.848425537109375,-1.2014617919921875,-0.4811248779296875,0.1040802001953125
1772790624277491500,2.858491455078125,-1.39349365234375,-0.500946044921875,0.0948333740234375
1772790624287556400,2.868556396484375,-1.58160400390625,-0.520965576171875,0.1196136474609375
1772790624297622500,2.87862255859375,-1.7821502685546875,-0.52984619140625,0.161376953125
1772790624307687400,2.8886875,-1.9586944580078125,-0.5189361572265625,0.1960296630859375
1772790624317752600,2.898752685546875,-2.048797607421875,-0.5143585205078125,0.19049072265625
1772790624327818800,2.90881884765625,-2.129425048828125,-0.55487060546875,0.1604461669921875
1772790624337883400,2.91888330078125,-2.286651611328125,-0.56524658203125,0.1671905517578125
1772790624347949600,2.928949462890625,-2.4825897216796875,-0.5480499267578125,0.22796630859375
1772790624358014500,2.939014404296875,-2.6991119384765625,-0.5134429931640625,0.3015594482421875
1772790624368079400,2.949079345703125,-2.815826416015625,-0.438385009765625,0.3447723388671875
1772790624378150700,2.959150634765625,-2.75848388671875,-0.3277740478515625,0.3301849365234375
1772790624388215800,2.9692158203125,-2.56207275390625,-0.215179443359375,0.27081298828125
1772790624398281000,2.979281005859375,-2.2858734130859375,-0.139923095703125,0.1867218017578125
1772790624408346600,2.9893466796875,-1.9944305419921875,-0.11846923828125,0.0946502685546875
1772790624418411800,2.999411865234375,-1.6966400146484375,-0.1199493408203125,0.036590576171875
1772790624428477700,3.009477783203125,-1.4078216552734375,-0.1320343017578125,0.016998291015625
1772790624438542800,3.01954296875,-1.15869140625,-0.1753997802734375,0.0113677978515625
1772790624448607700,3.029607666015625,-0.9724884033203125,-0.214691162109375,-0.0002899169921875
1772790624458673700,3.039673583984375,-0.8251800537109375,-0.2177734375,-0.02008056640625
1772790624468738800,3.04973876953125,-0.689056396484375,-0.1965789794921875,-0.052886962890625
1772790624478804700,3.0598046875,-0.5920562744140625,-0.162689208984375,-0.076934814453125
1772790624488869600,3.06986962890625,-0.57586669921875,-0.1139068603515625,-0.0931549072265625
1772790624498934800,3.079934814453125,-0.6139984130859375,-0.060089111328125,-0.0948333740234375
1772790624509000700,3.090000732421875,-0.60638427734375,-0.0242919921875,-0.086029052734375
1772790624519065900,3.10006591796875,-0.53839111328125,-0.0325775146484375,-0.089874267578125
1772790624529130800,3.110130859375,-0.428314208984375,-0.066314697265625,-0.1087493896484375
1772790624539196700,3.12019677734375,-0.319183349609375,-0.0567474365234375,-0.0844268798828125
1772790624549261800,3.13026171875,-0.25848388671875,-0.0316619873046875,-0.04962158203125
1772790624559327700,3.14032763671875,-0.1908721923828125,-0.0275421142578125,-0.0408782958984375
1772790624569392600,3.150392578125,-0.1257476806640625,-0.020294189453125,-0.02349853515625
1772790624579457800,3.160457763671875,-0.0998687744140625,-0.0361785888671875,-0.01080322265625
1772790624589523700,3.170523681640625,-0.0989990234375,-0.0697021484375,-0.0352783203125
1772790624599588900,3.1805888671875,-0.1332244873046875,-0.078948974609375,-0.075958251953125
1772790624609653800,3.19065380859375,-0.148040771484375,-0.115234375,-0.0853118896484375
1772790624619719700,3.2007197265625,-0.1930389404296875,-0.1818695068359375,-0.0853424072265625
1772790624629784800,3.210784912109375,-0.2213134765625,-0.2047882080078125,-0.06903076171875
1772790624639850800,3.220850830078125,-0.2117156982421875,-0.22406005859375,-0.0530242919921875
1772790624649915600,3.23091552734375,-0.21209716796875,-0.2443389892578125,-0.038482666015625
1772790624659980800,3.240980712890625,-0.2401580810546875,-0.2491607666015625,-0.0264434814453125
1772790624670046700,3.251046630859375,-0.281463623046875,-0.2367401123046875,-0.0212249755859375
1772790624680111900,3.26111181640625,-0.3246307373046875,-0.2729034423828125,-0.020111083984375
1772790624690177800,3.271177734375,-0.42578125,-0.273773193359375,-0.051177978515625
1772790624700242700,3.28124267578125,-0.5163421630859375,-0.2425689697265625,-0.0484161376953125
1772790624710307800,3.291307861328125,-0.5731353759765625,-0.2485809326171875,-0.0300140380859375
1772790624720373800,3.301373779296875,-0.6460113525390625,-0.286956787109375,-0.0088958740234375
1772790624730438700,3.311438720703125,-0.7511444091796875,-0.36187744140625,0.0327606201171875
1772790624740503800,3.32150390625,-0.8439178466796875,-0.4327392578125,0.049713134765625
1772790624750569700,3.33156982421875,-0.9971160888671875,-0.46954345703125,0.046142578125
1772790624760634600,3.341634521484375,-1.179962158203125,-0.451690673828125,0.025604248046875
1772790624770700800,3.35170068359375,-1.37078857421875,-0.4048919677734375,-0.02630615234375
1772790624780765700,3.361765625,-1.5694580078125,-0.3908538818359375,-0.0670013427734375
1772790624790830800,3.371830810546875,-1.77911376953125,-0.406585693359375,-0.0383453369140625
1772790624800896800,3.381896728515625,-1.9912567138671875,-0.4160614013671875,-0.0161895751953125
1772790624810961700,3.391961669921875,-2.1722869873046875,-0.3970947265625,-0.0368804931640625
1772790624821027800,3.40202783203125,-2.2873382568359375,-0.35064697265625,-0.043914794921875
1772790624831092700,3.4120927734375,-2.362823486328125,-0.3150177001953125,-0.0126800537109375
1772790624841157600,3.42215771484375,-2.4052886962890625,-0.3009490966796875,0.0505828857421875
1772790624851223800,3.432223876953125,-2.4325408935546875,-0.294342041015625,0.1368560791015625
1772790624861288700,3.442288818359375,-2.4588623046875,-0.2801971435546875,0.2225799560546875
1772790624871353900,3.452353759765625,-2.4289398193359375,-0.268096923828125,0.302093505859375
1772790624881419800,3.462419677734375,-2.284637451171875,-0.2333221435546875,0.3759307861328125
1772790624891484700,3.472484619140625,-2.0576171875,-0.1677703857421875,0.388427734375
1772790624901550800,3.48255078125,-1.8044281005859375,-0.14935302734375,0.3390655517578125
1772790624911615700,3.49261572265625,-1.5159149169921875,-0.1738128662109375,0.2396392822265625
1772790624921680600,3.5026806640625,-1.2315521240234375,-0.19342041015625,0.1415557861328125
1772790624931746800,3.512746826171875,-0.9992523193359375,-0.199127197265625,0.0313720703125
1772790624941811700,3.522811767578125,-0.8114013671875,-0.1886138916015625,-0.06207275390625
1772790624951878000,3.5328779296875,-0.6474609375,-0.1692962646484375,-0.118621826171875
1772790624961942800,3.54294287109375,-0.521484375,-0.1549224853515625,-0.128814697265625
1772790624972007700,3.553007568359375,-0.4154205322265625,-0.13427734375,-0.125213623046875
1772790624982073900,3.563073974609375,-0.316925048828125,-0.0866851806640625,-0.1175079345703125
1772790624992138800,3.573138671875,-0.218719482421875,-0.039337158203125,-0.0973663330078125
1772790625002203600,3.58320361328125,-0.107940673828125,-0.020355224609375,-0.0782012939453125
1772790625012269800,3.593269775390625,0.0001983642578125,-0.0233917236328125,-0.064056396484375
1772790625022334700,3.603334716796875,0.056884765625,-0.0339813232421875,-0.04290771484375
1772790625032401000,3.61340087890625,0.077056884765625,-0.049652099609375,-0.0371551513671875
1772790625042465800,3.6234658203125,0.11798095703125,-0.070556640625,-0.02642822265625
1772790625052530700,3.63353076171875,0.168426513671875,-0.0677032470703125,0.0015411376953125
1772790625062596900,3.643596923828125,0.1699981689453125,-0.0725555419921875,-0.022491455078125
1772790625072661800,3.653661865234375,0.16943359375,-0.1194000244140625,-0.044281005859375
1772790625082727700,3.663727783203125,0.16241455078125,-0.1539764404296875,-0.05914306640625
1772790625092792800,3.673792724609375,0.10662841796875,-0.2041168212890625,-0.0795135498046875
1772790625102857700,3.683857666015625,0.0294647216796875,-0.2501068115234375,-0.1044158935546875
1772790625112924000,3.693923828125,-0.0547943115234375,-0.25958251953125,-0.1051788330078125
1772790625122988800,3.70398876953125,-0.1517486572265625,-0.2542724609375,-0.0757904052734375
1772790625133053700,3.7140537109375,-0.30816650390625,-0.259033203125,-0.023193359375
1772790625143120000,3.724119873046875,-0.5273895263671875,-0.2772674560546875,0.017333984375
1772790625153184800,3.734184814453125,-0.7093963623046875,-0.2621307373046875,0.06500244140625
1772790625163250700,3.744250732421875,-0.8520050048828125,-0.228759765625,0.129730224609375
1772790625173315800,3.75431591796875,-0.99871826171875,-0.214508056640625,0.12591552734375
1772790625183380700,3.764380615234375,-1.0749664306640625,-0.22210693359375,0.0777740478515625
1772790625193447000,3.774447021484375,-1.190155029296875,-0.2147369384765625,0.0310821533203125
1772790625203511800,3.78451171875,-1.3069000244140625,-0.26416015625,-0.0123138427734375
1772790625213576700,3.79457666015625,-1.4391632080078125,-0.325714111328125,-0.0050201416015625
1772790625223643000,3.804642822265625,-1.623046875,-0.335113525390625,0.0096282958984375
1772790625233707800,3.814707763671875,-1.825164794921875,-0.2877960205078125,0.0140533447265625
1772790625243773700,3.824773681640625,-2.0684967041015625,-0.2389984130859375,0.041900634765625
1772790625253838800,3.8348388671875,-2.2745819091796875,-0.225372314453125,0.1004486083984375
1772790625263903700,3.84490380859375,-2.30975341796875,-0.199554443359375,0.144439697265625
1772790625273969700,3.8549697265625,-2.2445220947265625,-0.217315673828125,0.1792449951171875
1772790625284034800,3.865034912109375,-2.166961669921875,-0.2928009033203125,0.1976318359375
1772790625294100700,3.875100830078125,-2.181488037109375,-0.3833770751953125,0.23040771484375
1772790625304166000,3.885165771484375,-2.316131591796875,-0.378875732421875,0.2908172607421875
1772790625314230800,3.895230712890625,-2.513275146484375,-0.3020782470703125,0.3379974365234375
1772790625324296700,3.905296630859375,-2.7147216796875,-0.2276153564453125,0.4013824462890625
1772790625334361900,3.91536181640625,-2.7682647705078125,-0.1738739013671875,0.3984832763671875
1772790625344426800,3.9254267578125,-2.57525634765625,-0.12384033203125,0.3088836669921875
1772790625354492700,3.93549267578125,-2.2124481201171875,-0.0799713134765625,0.1970367431640625
1772790625364557800,3.945557861328125,-1.8221893310546875,-0.0677947998046875,0.0683441162109375
1772790625374623700,3.955623779296875,-1.5630645751953125,-0.14532470703125,0.0743560791015625
1772790625384687400,3.965687255859375,-1.311279296875,-0.25604248046875,0.133331298828125
1772790625394752500,3.97575244140625,-1.11083984375,-0.2893524169921875,0.2043914794921875
1772790625404818400,3.985818359375,-0.978546142578125,-0.2313385009765625,0.2783203125
1772790625414883600,3.995883544921875,-0.8548431396484375,-0.1807098388671875,0.26446533203125
1772790625424948500,4.005948486328125,-0.74041748046875,-0.12139892578125,0.22998046875
1772790625435013600,4.016013671875,-0.6546630859375,-0.0832977294921875,0.2298583984375
1772790625445079600,4.02607958984375,-0.57098388671875,-0.0877838134765625,0.2722930908203125
1772790625455144400,4.03614453125,-0.394989013671875,-0.085723876953125,0.3198089599609375
1772790625465210400,4.04621044921875,-0.1781463623046875,-0.0672149658203125,0.3184051513671875
1772790625475275500,4.056275634765625,0.0228424072265625,-0.08575439453125,0.19403076171875
1772790625485340700,4.066340576171875,0.2584075927734375,-0.051666259765625,0.0737152099609375
1772790625495406600,4.076406494140625,0.3704986572265625,-0.0193023681640625,-0.049041748046875
1772790625505471500,4.086471435546875,0.3803253173828125,-0.015106201171875,-0.088348388671875
1772790625515536600,4.09653662109375,0.4920501708984375,-0.106689453125,-0.1298828125
1772790625525602600,4.1066025390625,0.5393218994140625,-0.16363525390625,-0.1251068115234375
1772790625535667500,4.11666748046875,0.480712890625,-0.2034454345703125,-0.0790557861328125
1772790625545733400,4.1267333984375,0.3416595458984375,-0.20159912109375,-0.0675811767578125
1772790625555798500,4.136798583984375,0.167572021484375,-0.1845855712890625,-0.1383514404296875
1772790625565863700,4.14686376953125,0.0086212158203125,-0.162200927734375,-0.2406005859375
1772790625575929300,4.156929443359375,-0.0950164794921875,-0.098785400390625,-0.257659912109375
1772790625585994500,4.166994384765625,-0.170654296875,-0.038787841796875,-0.145416259765625
1772790625596060400,4.177060302734375,-0.3028106689453125,-0.0622100830078125,-0.00225830078125
1772790625606125600,4.18712548828125,-0.3853302001953125,-0.1003570556640625,0.067291259765625
1772790625616190500,4.1971904296875,-0.342193603515625,-0.120819091796875,0.049652099609375
1772790625626256400,4.20725634765625,-0.2645111083984375,-0.0529937744140625,0.0117034912109375
1772790625636321500,4.217321533203125,-0.339324951171875,-0.014862060546875,-0.0280609130859375
1772790625646386700,4.22738671875,-0.5945892333984375,-0.09515380859375,-0.1505584716796875
1772790625656452400,4.237452392578125,-0.658966064453125,-0.14825439453125,-0.1821136474609375
1772790625666517500,4.247517578125,-0.5767822265625,-0.15191650390625,-0.151885986328125
1772790625676583400,4.25758349609375,-0.53924560546875,-0.1824188232421875,-0.120086669921875
1772790625686648600,4.267648681640625,-0.628387451171875,-0.297088623046875,-0.12921142578125
1772790625696713500,4.27771337890625,-0.839691162109375,-0.378936767578125,-0.1352996826171875
1772790625706779400,4.287779296875,-1.123779296875,-0.3580169677734375,-0.154022216796875
1772790625716844500,4.297844482421875,-1.4261016845703125,-0.3311767578125,-0.148681640625
1772790625726909400,4.307909423828125,-1.7668609619140625,-0.351409912109375,-0.1106719970703125
1772790625736975400,4.317975341796875,-2.1430816650390625,-0.353271484375,-0.082489013671875
1772790625747040500,4.32804052734375,-2.4893035888671875,-0.2722015380859375,-0.09722900390625
1772790625757106400,4.3381064453125,-2.726409912109375,-0.1341094970703125,-0.0739898681640625
1772790625767171600,4.348171630859375,-2.8870697021484375,-0.066314697265625,0.0041351318359375
1772790625777236500,4.358236572265625,-2.99920654296875,-0.074676513671875,0.1012420654296875
1772790625787302400,4.368302490234375,-3.0486907958984375,-0.0908203125,0.2219390869140625
1772790625797367600,4.378367431640625,-3.000030517578125,-0.103851318359375,0.33551025390625
1772790625807433700,4.388433837890625,-2.8842926025390625,-0.1074676513671875,0.380157470703125
1772790625817498400,4.398498291015625,-2.7451019287109375,-0.114013671875,0.35723876953125
1772790625827563500,4.4085634765625,-2.5257720947265625,-0.13653564453125,0.3022613525390625
1772790625837629400,4.41862939453125,-2.24920654296875,-0.11590576171875,0.267181396484375
1772790625847694600,4.428694580078125,-1.98834228515625,-0.07476806640625,0.2242889404296875
1772790625857759500,4.438759521484375,-1.7513275146484375,-0.0644378662109375,0.1822357177734375
1772790625867825400,4.448825439453125,-1.5074310302734375,-0.0709381103515625,0.1282196044921875
1772790625877890600,4.458890625,-1.3459014892578125,-0.087432861328125,0.088470458984375
1772790625887956700,4.468956787109375,-1.1827545166015625,-0.116302490234375,0.068084716796875
1772790625898021400,4.479021484375,-0.9972686767578125,-0.1384124755859375,0.0361480712890625
1772790625908086500,4.48908642578125,-0.824310302734375,-0.1719818115234375,0.03216552734375
1772790625918152400,4.49915234375,-0.6314239501953125,-0.2005615234375,0.07373046875
1772790625928217300,4.50921728515625,-0.48309326171875,-0.2170257568359375,0.0788421630859375
1772790625938283500,4.519283447265625,-0.383941650390625,-0.1845550537109375,0.0897064208984375
1772790625948348400,4.529348388671875,-0.3238372802734375,-0.135498046875,0.0912628173828125
1772790625958413600,4.53941357421875,-0.268585205078125,-0.132659912109375,0.0636749267578125
1772790625968479700,4.549479736328125,-0.1873321533203125,-0.1512603759765625,0.0546417236328125
1772790625978544400,4.55954443359375,-0.12359619140625,-0.1798248291015625,0.0224761962890625
1772790625988609500,4.569609619140625,-0.074737548828125,-0.1800079345703125,0.041412353515625
1772790625998675700,4.57967578125,-0.032745361328125,-0.15338134765625,0.036773681640625
1772790626008740400,4.589740234375,0.0384368896484375,-0.127410888671875,0.0253753662109375
1772790626018806500,4.599806640625,0.0957489013671875,-0.1053924560546875,0.03936767578125
1772790626028871400,4.609871337890625,0.0831298828125,-0.07476806640625,-0.0220184326171875
1772790626038937600,4.6199375,0.0277862548828125,-0.05792236328125,-0.1124420166015625
1772790626049002500,4.63000244140625,-0.0172119140625,-0.074798583984375,-0.170623779296875
1772790626059067400,4.6400673828125,-0.0512542724609375,-0.10577392578125,-0.22186279296875
1772790626069133600,4.650133544921875,-0.0901641845703125,-0.134033203125,-0.2111053466796875
1772790626079198700,4.66019873046875,-0.1273345947265625,-0.1386566162109375,-0.190765380859375
1772790626089264600,4.6702646484375,-0.1548919677734375,-0.151092529296875,-0.183319091796875
1772790626099329500,4.68032958984375,-0.2182159423828125,-0.1685028076171875,-0.14910888671875
1772790626109394400,4.69039453125,-0.3815460205078125,-0.15435791015625,-0.104400634765625
1772790626119460600,4.700460693359375,-0.6078643798828125,-0.128082275390625,-0.0464935302734375
1772790626129525500,4.710525390625,-0.688140869140625,-0.1761474609375,-0.0312957763671875
1772790626139590400,4.72059033203125,-0.730926513671875,-0.2239532470703125,0.0002899169921875
1772790626149656600,4.730656494140625,-0.7997283935546875,-0.2233428955078125,0.014068603515625
1772790626159721700,4.7407216796875,-0.8665924072265625,-0.1952362060546875,0.0191802978515625
1772790626169787400,4.750787353515625,-0.8731689453125,-0.169677734375,0.0358123779296875
1772790626179852500,4.7608525390625,-0.8872528076171875,-0.1828155517578125,0.05072021484375
1772790626189917400,4.77091748046875,-0.9352264404296875,-0.2106781005859375,0.1018218994140625
1772790626199983600,4.780983642578125,-0.990020751953125,-0.313262939453125,0.1222381591796875
1772790626210048500,4.791048583984375,-1.0022125244140625,-0.46014404296875,0.125518798828125
1772790626220114400,4.801114501953125,-1.0430755615234375,-0.552154541015625,0.13958740234375
1772790626230179600,4.8111796875,-1.1773834228515625,-0.56988525390625,0.1274261474609375
1772790626240244700,4.82124462890625,-1.46490478515625,-0.49853515625,0.049224853515625
1772790626250310400,4.831310302734375,-1.753448486328125,-0.43963623046875,0.0169677734375
1772790626260375600,4.84137548828125,-2.00384521484375,-0.3860015869140625,0.04534912109375
1772790626270440700,4.851440673828125,-2.19927978515625,-0.261322021484375,0.1025390625
1772790626280506600,4.861506591796875,-2.19970703125,-0.1581878662109375,0.13787841796875
1772790626290571500,4.871571533203125,-2.1371917724609375,-0.107177734375,0.12811279296875
1772790626300637400,4.881637451171875,-2.0419158935546875,-0.1245574951171875,0.1102447509765625
1772790626310702600,4.89170263671875,-1.9062957763671875,-0.1856842041015625,0.071380615234375
1772790626320767500,4.901767578125,-1.87091064453125,-0.24566650390625,0.0539093017578125
1772790626330833400,4.91183349609375,-1.8257904052734375,-0.3609771728515625,0.062286376953125
1772790626340898600,4.921898681640625,-1.7755126953125,-0.4561614990234375,0.0620880126953125
1772790626350964500,4.931964599609375,-1.6994171142578125,-0.4776763916015625,0.1126251220703125
1772790626361029600,4.942029541015625,-1.575042724609375,-0.480712890625,0.1429595947265625
1772790626371094500,4.952094482421875,-1.5352783203125,-0.4887237548828125,0.1622161865234375
1772790626381156400,4.96215625,-1.4697723388671875,-0.5006866455078125,0.188934326171875
1772790626391221200,4.97222119140625,-1.3686981201171875,-0.49493408203125,0.1928558349609375
1772790626401286400,4.982286376953125,-1.2895050048828125,-0.500244140625,0.1562957763671875
1772790626411352300,4.992352294921875,-1.1854248046875,-0.494842529296875,0.1451568603515625
1772790626421417500,5.00241748046875,-1.094940185546875,-0.46527099609375,0.1371002197265625
1772790626431483400,5.0124833984375,-0.9562225341796875,-0.419158935546875,0.13238525390625
1772790626441548300,5.02254833984375,-0.8543853759765625,-0.384124755859375,0.096771240234375
1772790626451613400,5.032613525390625,-0.7902984619140625,-0.33978271484375,0.0429840087890625
1772790626461679400,5.042679443359375,-0.6945037841796875,-0.2863006591796875,0.0433197021484375
1772790626471744300,5.052744140625,-0.5670928955078125,-0.2197113037109375,0.0685882568359375
1772790626481809400,5.062809326171875,-0.44171142578125,-0.1863555908203125,0.0605621337890625
1772790626491875300,5.072875244140625,-0.3065032958984375,-0.14703369140625,0.0306549072265625
1772790626501940500,5.0829404296875,-0.181854248046875,-0.095245361328125,0.0138702392578125
1772790626512006400,5.09300634765625,-0.1504364013671875,-0.10064697265625,0.0719451904296875
1772790626522071300,5.1030712890625,-0.1331329345703125,-0.1015625,0.13238525390625
1772790626532136400,5.113136474609375,-0.1660308837890625,-0.0788421630859375,0.158050537109375
1772790626542202400,5.123202392578125,-0.2559051513671875,-0.076416015625,0.1620330810546875
1772790626552267300,5.133267333984375,-0.330291748046875,-0.086639404296875,0.1585540771484375
1772790626562333400,5.14333349609375,-0.3097381591796875,-0.04351806640625,0.1571044921875
1772790626572398300,5.1533984375,-0.27740478515625,-0.0168914794921875,0.1295318603515625
1772790626582463500,5.16346337890625,-0.302093505859375,-0.0382232666015625,0.0776519775390625
1772790626592529400,5.173529296875,-0.3297119140625,-0.0965118408203125,0.0392913818359375
1772790626602594300,5.18359423828125,-0.340423583984375,-0.1395111083984375,0.02398681640625
1772790626612659500,5.193659423828125,-0.3651580810546875,-0.1696319580078125,0.0120849609375
1772790626622725400,5.203725341796875,-0.3917236328125,-0.2015838623046875,-0.014923095703125
1772790626632790300,5.213790283203125,-0.4303131103515625,-0.2010040283203125,-0.078338623046875
1772790626642856400,5.2238564453125,-0.49267578125,-0.1982269287109375,-0.1306304931640625
1772790626652921300,5.23392138671875,-0.4078369140625,-0.2191925048828125,-0.1074066162109375
1772790626662986200,5.243986328125,-0.4266510009765625,-0.2399139404296875,-0.048126220703125
1772790626673052400,5.254052490234375,-0.48382568359375,-0.2507171630859375,-0.0070343017578125
1772790626683117300,5.264117431640625,-0.51055908203125,-0.2479400634765625,-0.015411376953125
1772790626693183500,5.27418359375,-0.5474853515625,-0.2796478271484375,-0.0429229736328125
1772790626703248400,5.284248291015625,-0.6418304443359375,-0.3701171875,-0.0442962646484375
1772790626713313300,5.294313232421875,-0.725494384765625,-0.4394989013671875,0.001495361328125
1772790626723379500,5.30437939453125,-0.8680572509765625,-0.52093505859375,-0.0193939208984375
1772790626733444400,5.3144443359375,-1.0558013916015625,-0.621917724609375,0.025299072265625
1772790626743509200,5.32450927734375,-1.2588958740234375,-0.7496490478515625,-0.0157623291015625
1772790626753575400,5.334575439453125,-1.502105712890625,-0.78350830078125,-0.035369873046875
1772790626763640300,5.344640380859375,-1.8116455078125,-0.74444580078125,-0.024139404296875
1772790626773706500,5.35470654296875,-2.178466796875,-0.719451904296875,-0.0096282958984375
1772790626783771400,5.364771484375,-2.4243927001953125,-0.68963623046875,-0.0167694091796875
1772790626793836300,5.374836181640625,-2.5049591064453125,-0.6226959228515625,-0.0606842041015625
1772790626803902500,5.38490234375,-2.48345947265625,-0.5795440673828125,-0.114837646484375
1772790626813967400,5.39496728515625,-2.4451751708984375,-0.58154296875,-0.1196746826171875
1772790626824032300,5.4050322265625,-2.44891357421875,-0.6118316650390625,-0.0529327392578125
1772790626834098400,5.415098388671875,-2.43426513671875,-0.652252197265625,0.02447509765625
1772790626844163300,5.425163330078125,-2.381103515625,-0.688232421875,0.0742645263671875
1772790626854229500,5.4352294921875,-2.307769775390625,-0.7297210693359375,0.1587066650390625
1772790626864294400,5.44529443359375,-2.2374725341796875,-0.7241363525390625,0.2542724609375
1772790626874359300,5.455359375,-2.151031494140625,-0.6844024658203125,0.3158416748046875
1772790626884425500,5.465425537109375,-2.027984619140625,-0.6230926513671875,0.3590240478515625
1772790626894490400,5.475490478515625,-1.831451416015625,-0.599456787109375,0.389434814453125
1772790626904555300,5.48555517578125,-1.5579986572265625,-0.595123291015625,0.3818359375
1772790626914621400,5.495621337890625,-1.2514190673828125,-0.56585693359375,0.34130859375
1772790626924686300,5.505686279296875,-0.9316558837890625,-0.5090484619140625,0.29522705078125
1772790626934752500,5.51575244140625,-0.6285858154296875,-0.432769775390625,0.23797607421875
1772790626944817400,5.5258173828125,-0.4016265869140625,-0.383331298828125,0.1700286865234375
1772790626954882300,5.53588232421875,-0.261016845703125,-0.3286285400390625,0.1221771240234375
1772790626964948500,5.545948486328125,-0.124359130859375,-0.2614593505859375,0.0892486572265625
1772790626975013400,5.556013427734375,-0.0211181640625,-0.2065277099609375,0.0849609375
1772790626985079300,5.566079345703125,0.0673370361328125,-0.1568145751953125,0.1096954345703125
1772790626995144400,5.57614453125,0.141510009765625,-0.114959716796875,0.1480712890625
1772790627005209300,5.586209228515625,0.2075347900390625,-0.08966064453125,0.1878204345703125
1772790627015275500,5.596275634765625,0.31341552734375,-0.0624542236328125,0.1141815185546875
1772790627025340400,5.60634033203125,0.3839111328125,-0.010101318359375,0.084808349609375
1772790627035405300,5.6164052734375,0.3658447265625,0.0130767822265625,0.035797119140625
1772790627045471500,5.626471435546875,0.33697509765625,0.0426483154296875,0.011199951171875
1772790627055536400,5.636536376953125,0.3252105712890625,0.0636749267578125,0.0054931640625
1772790627065602300,5.646602294921875,0.271331787109375,0.0655975341796875,0.00762939453125
1772790627075667500,5.65666748046875,0.2034149169921875,0.0383148193359375,0.0066375732421875
1772790627085732400,5.666732421875,0.12994384765625,0.01776123046875,-0.0366973876953125
1772790627095798500,5.676798583984375,0.047119140625,-0.001190185546875,-0.040496826171875
1772790627105863400,5.686863525390625,-0.0721588134765625,-0.0282440185546875,-0.041259765625
1772790627115928300,5.69692822265625,-0.1684112548828125,-0.0483551025390625,-0.0505523681640625
1772790627125994500,5.706994384765625,-0.25787353515625,-0.0606536865234375,-0.0469818115234375
1772790627136059400,5.717059326171875,-0.347869873046875,-0.0675811767578125,-0.033233642578125
1772790627146125300,5.727125244140625,-0.46270751953125,-0.076507568359375,-0.00506591796875
1772790627156190500,5.7371904296875,-0.5469818115234375,-0.0949554443359375,0.0134429931640625
1772790627166255400,5.74725537109375,-0.5848236083984375,-0.1124420166015625,0.0260162353515625
1772790627176321500,5.757321533203125,-0.613739013671875,-0.129180908203125,0.014434814453125
1772790627186386400,5.767386474609375,-0.6371917724609375,-0.1381683349609375,0.0170440673828125
1772790627196452400,5.777452392578125,-0.6533966064453125,-0.162200927734375,0.0160064697265625
1772790627206517500,5.787517578125,-0.6667633056640625,-0.2075653076171875,0.0009002685546875
1772790627216582400,5.79758251953125,-0.6926116943359375,-0.26678466796875,-0.01849365234375
1772790627226648300,5.8076484375,-0.7472991943359375,-0.342041015625,-0.03466796875
1772790627236713500,5.81771337890625,-0.8605194091796875,-0.4204559326171875,-0.042724609375
1772790627246778400,5.8277783203125,-0.9557647705078125,-0.5211944580078125,-0.0478057861328125
1772790627256844300,5.83784423828125,-1.099456787109375,-0.6513214111328125,-0.0718231201171875
1772790627266909400,5.847909423828125,-1.2799072265625,-0.7525482177734375,-0.112762451171875
1772790627276975400,5.857975341796875,-1.489959716796875,-0.76751708984375,-0.1533660888671875
1772790627287040500,5.86804052734375,-1.7965850830078125,-0.7575225830078125,-0.1597900390625
1772790627297105400,5.87810546875,-2.09332275390625,-0.7554168701171875,-0.1227569580078125
1772790627307171300,5.88817138671875,-2.2602996826171875,-0.729522705078125,-0.09783935546875
1772790627317236500,5.898236572265625,-2.3553466796875,-0.693115234375,-0.04986572265625
1772790627327301400,5.90830126953125,-2.4539642333984375,-0.68975830078125,0.020233154296875
1772790627337367300,5.9183671875,-2.4716796875,-0.70947265625,0.0493316650390625
1772790627347432400,5.928432373046875,-2.4677886962890625,-0.74444580078125,0.0340576171875
1772790627357498400,5.938498291015625,-2.4600067138671875,-0.7604522705078125,0.02447509765625
1772790627367563500,5.9485634765625,-2.4579010009765625,-0.745819091796875,0.01123046875
1772790627377628400,5.95862841796875,-2.427642822265625,-0.7177886962890625,-0.0225067138671875
1772790627387694300,5.9686943359375,-2.34033203125,-0.6651611328125,-0.056060791015625
1772790627397759500,5.978759521484375,-2.2102508544921875,-0.609893798828125,-0.0586395263671875
1772790627407824400,5.988824462890625,-2.0583953857421875,-0.567596435546875,-0.033538818359375
1772790627417890300,5.998890380859375,-1.8690185546875,-0.52490234375,0.0092926025390625
1772790627427955500,6.00895556640625,-1.6415863037109375,-0.4899749755859375,0.069549560546875
1772790627438021400,6.019021484375,-1.4063568115234375,-0.464508056640625,0.124725341796875
1772790627448086500,6.02908642578125,-1.1822052001953125,-0.435943603515625,0.170196533203125
1772790627458151400,6.0391513671875,-0.9761199951171875,-0.3917083740234375,0.1765594482421875
1772790627468217300,6.04921728515625,-0.7946624755859375,-0.31719970703125,0.180694580078125
1772790627478282500,6.059282470703125,-0.6591644287109375,-0.2463836669921875,0.1576080322265625
1772790627488348400,6.069348388671875,-0.549163818359375,-0.17919921875,0.10198974609375
1772790627498413300,6.079413330078125,-0.4553375244140625,-0.1043243408203125,0.0519866943359375
1772790627508478500,6.089478515625,-0.416900634765625,-0.05889892578125,0.040771484375
1772790627518544400,6.09954443359375,-0.3493499755859375,-0.03216552734375,0.0485687255859375
1772790627528609300,6.109609375,-0.2463836669921875,-0.007781982421875,0.0453643798828125
1772790627538674400,6.11967431640625,-0.1611175537109375,-0.0042572021484375,0.0297393798828125
1772790627548740400,6.129740234375,-0.0885772705078125,0.0009307861328125,0.035247802734375
1772790627558805500,6.139805419921875,-0.0279388427734375,0.007659912109375,0.0295562744140625
1772790627568871400,6.149871337890625,0.0164794921875,0.0204925537109375,0.021514892578125
1772790627578936300,6.159936279296875,0.043975830078125,0.0228729248046875,0.0220794677734375
1772790627589001500,6.17000146484375,0.0457305908203125,0.002410888671875,0.0171966552734375
1772790627599067400,6.1800673828125,0.020965576171875,-0.0364532470703125,0.004364013671875
1772790627609132300,6.19013232421875,-0.0247344970703125,-0.070068359375,-0.01513671875
1772790627619198200,6.2001982421875,-0.0770111083984375,-0.09234619140625,-0.01708984375
1772790627629263400,6.210263427734375,-0.1312255859375,-0.1199493408203125,-0.0096282958984375
1772790627639328500,6.22032861328125,-0.1777496337890625,-0.1425933837890625,-0.0041961669921875
1772790627649394200,6.230394287109375,-0.22247314453125,-0.1607818603515625,-0.0084075927734375
1772790627659459300,6.240459228515625,-0.2530517578125,-0.1652374267578125,-0.032928466796875
1772790627669524500,6.2505244140625,-0.2651824951171875,-0.1635284423828125,-0.0565338134765625
1772790627679590400,6.26059033203125,-0.306182861328125,-0.1721343994140625,-0.061065673828125
1772790627689655300,6.2706552734375,-0.3826751708984375,-0.190643310546875,-0.0526885986328125
1772790627699720400,6.280720458984375,-0.4525146484375,-0.20166015625,-0.0592498779296875
1772790627709786400,6.290786376953125,-0.4881439208984375,-0.22418212890625,-0.063507080078125
1772790627719851500,6.3008515625,-0.5205535888671875,-0.2393646240234375,-0.06158447265625
1772790627729917200,6.310917236328125,-0.584686279296875,-0.2995147705078125,-0.082672119140625
1772790627739982300,6.320982421875,-0.65509033203125,-0.3890533447265625,-0.1039581298828125
1772790627750047500,6.331047607421875,-0.7564849853515625,-0.46270751953125,-0.1190338134765625
1772790627760113400,6.341113525390625,-0.9106292724609375,-0.5028228759765625,-0.1591339111328125
1772790627770178300,6.35117822265625,-1.1199951171875,-0.4490814208984375,-0.23199462890625
1772790627780244200,6.361244140625,-1.36431884765625,-0.3492431640625,-0.254180908203125
1772790627790309400,6.371309326171875,-1.632720947265625,-0.3350677490234375,-0.25
1772790627800374500,6.38137451171875,-1.86737060546875,-0.4066619873046875,-0.25518798828125
1772790627810440200,6.391440185546875,-2.0341033935546875,-0.4681396484375,-0.2471923828125
1772790627820505300,6.40150537109375,-2.187469482421875,-0.4847869873046875,-0.19476318359375
1772790627830570500,6.411570556640625,-2.327850341796875,-0.462890625,-0.092132568359375
1772790627840636400,6.421636474609375,-2.4608612060546875,-0.3915557861328125,-0.0076904296875
1772790627850701300,6.431701416015625,-2.520660400390625,-0.36822509765625,0.0215301513671875
1772790627860767500,6.441767578125,-2.4893798828125,-0.454315185546875,0.0180816650390625
1772790627870832400,6.451832275390625,-2.39447021484375,-0.56170654296875,0.0005340576171875
1772790627880897300,6.461897216796875,-2.25262451171875,-0.6171722412109375,0.008819580078125
1772790627890963200,6.471963134765625,-2.1503448486328125,-0.61474609375,0.04693603515625
1772790627901028400,6.4820283203125,-2.0703125,-0.56292724609375,0.0645599365234375
1772790627911093500,6.492093505859375,-1.96148681640625,-0.4916229248046875,0.08905029296875
1772790627921159400,6.502159423828125,-1.8339996337890625,-0.4435882568359375,0.1161956787109375
1772790627931224300,6.512224365234375,-1.6851806640625,-0.43951416015625,0.1663360595703125
1772790627941290500,6.52229052734375,-1.5287017822265625,-0.4470062255859375,0.2314453125
1772790627951355400,6.53235546875,-1.33282470703125,-0.4362030029296875,0.25799560546875
1772790627961420300,6.542420166015625,-1.1229705810546875,-0.3910675048828125,0.2636566162109375
1772790627971486200,6.552486328125,-0.9134979248046875,-0.32403564453125,0.24786376953125
1772790627981551400,6.56255126953125,-0.7296905517578125,-0.260467529296875,0.22467041015625
1772790627991616500,6.572616455078125,-0.558349609375,-0.1917266845703125,0.200347900390625
1772790628001682200,6.58268212890625,-0.4021759033203125,-0.1405181884765625,0.164764404296875
1772790628011747300,6.592747314453125,-0.3009796142578125,-0.1134490966796875,0.1261138916015625
1772790628021813500,6.6028134765625,-0.2354583740234375,-0.0986175537109375,0.09906005859375
1772790628031878400,6.61287841796875,-0.1652069091796875,-0.0550994873046875,0.1009521484375
1772790628041943300,6.622943359375,-0.0872802734375,-0.0252838134765625,0.1212005615234375
1772790628052009500,6.633009521484375,0.0023651123046875,-0.0317535400390625,0.124664306640625
1772790628062074400,6.643074462890625,0.0006561279296875,-0.0175323486328125,0.1231842041015625
1772790628072139500,6.653139404296875,0.1326446533203125,-0.00921630859375,0.097625732421875
1772790628082205200,6.663205078125,0.0897674560546875,-0.01763916015625,0.0746307373046875
1772790628092270300,6.673270263671875,-0.025299072265625,-0.0839385986328125,0.08538818359375
1772790628102336500,6.68333642578125,-0.06695556640625,-0.1286773681640625,0.0469512939453125
1772790628112401400,6.6934013671875,-0.0924530029296875,-0.120361328125,-0.0038299560546875
1772790628122466300,6.70346630859375,-0.133453369140625,-0.0977935791015625,-0.05865478515625
1772790628132532500,6.713532470703125,-0.1057891845703125,-0.048797607421875,-0.0454559326171875
1772790628142597400,6.723597412109375,-0.097991943359375,-0.023651123046875,-0.0352630615234375
1772790628152662300,6.733662353515625,-0.157745361328125,-0.072784423828125,0.02801513671875
1772790628162728200,6.743728271484375,-0.193695068359375,-0.07012939453125,0.03436279296875
1772790628172793300,6.75379345703125,-0.157012939453125,-0.09814453125,0.033935546875
1772790628182859500,6.763859619140625,-0.249176025390625,-0.1626434326171875,-0.108856201171875
1772790628192924400,6.77392431640625,-0.41058349609375,-0.04620361328125,-0.008575439453125
1772790628202989300,6.7839892578125,-0.6237335205078125,0.0694732666015625,0.069610595703125
1772790628213055500,6.794055419921875,-0.392364501953125,-0.048736572265625,-0.0167236328125
1772790628223120400,6.804120361328125,-0.4424591064453125,-0.13409423828125,-0.0630950927734375
1772790628233186600,6.8141865234375,-0.506622314453125,-0.1847381591796875,-0.0381011962890625
1772790628243251200,6.824251220703125,-0.5725250244140625,-0.26739501953125,-0.0136260986328125
1772790628253316400,6.83431640625,-0.7290802001953125,-0.3794708251953125,0.0250091552734375
1772790628263382500,6.844382568359375,-0.9090118408203125,-0.46343994140625,0.031646728515625
1772790628273447200,6.854447265625,-1.0542755126953125,-0.46051025390625,-0.031036376953125
1772790628283512300,6.86451220703125,-1.2401885986328125,-0.394439697265625,-0.1015167236328125
1772790628293578500,6.87457861328125,-1.3646392822265625,-0.3610687255859375,-0.1264801025390625
1772790628303643400,6.884643310546875,-1.6734161376953125,-0.3732147216796875,-0.108795166015625
1772790628313709600,6.89470947265625,-2.038055419921875,-0.4193878173828125,-0.062774658203125
1772790628323774500,6.9047744140625,-2.2312469482421875,-0.3874664306640625,-0.063018798828125
1772790628333839400,6.91483935546875,-2.283538818359375,-0.331878662109375,-0.0946044921875
1772790628343905500,6.924905517578125,-2.314300537109375,-0.333740234375,-0.0923004150390625
1772790628353970200,6.93497021484375,-2.3714447021484375,-0.3908538818359375,-0.034332275390625
1772790628364035300,6.945035400390625,-2.369476318359375,-0.4300079345703125,0.0071563720703125
1772790628374101500,6.9551015625,-2.3430023193359375,-0.424774169921875,0.0469970703125
1772790628384166100,6.965166259765625,-2.316680908203125,-0.4369659423828125,0.0985870361328125
1772790628394232300,6.975232421875,-2.2694091796875,-0.4524993896484375,0.1495361328125
1772790628404297500,6.98529736328125,-2.186248779296875,-0.4897308349609375,0.2085418701171875
1772790628414362000,6.995362060546875,-2.0614471435546875,-0.5295867919921875,0.30352783203125
1772790628424428300,7.00542822265625,-1.88653564453125,-0.566436767578125,0.366424560546875
1772790628434493200,7.0154931640625,-1.7472381591796875,-0.5836944580078125,0.3611297607421875
1772790628444558300,7.025558349609375,-1.57647705078125,-0.60211181640625,0.3228759765625
1772790628454624500,7.03562451171875,-1.3365936279296875,-0.576904296875,0.3196563720703125
1772790628464689200,7.045689208984375,-1.0630035400390625,-0.5164337158203125,0.354248046875
1772790628474755300,7.05575537109375,-0.9478302001953125,-0.45806884765625,0.2772064208984375
1772790628484820500,7.065820556640625,-0.9380645751953125,-0.4447784423828125,0.1318511962890625
1772790628494885000,7.075885009765625,-0.9117279052734375,-0.364044189453125,0.1810455322265625
1772790628504951300,7.085951416015625,-0.771942138671875,-0.279998779296875,0.1938629150390625
1772790628515016200,7.09601611328125,-0.646575927734375,-0.26336669921875,0.1191864013671875
1772790628525081300,7.106081298828125,-0.5859222412109375,-0.2236328125,0.0953521728515625
1772790628535147300,7.116147216796875,-0.490142822265625,-0.1248016357421875,0.1464996337890625
1772790628545212200,7.126212158203125,-0.3936309814453125,-0.056976318359375,0.169891357421875
1772790628555278300,7.1362783203125,-0.2727813720703125,-0.0258026123046875,0.1825714111328125
1772790628565343500,7.146343505859375,-0.2175750732421875,-0.059417724609375,0.1459197998046875
1772790628575408000,7.156408203125,-0.1904296875,0.0428314208984375,0.0832672119140625
1772790628585474300,7.166474365234375,-0.139923095703125,0.056793212890625,0.05792236328125
1772790628595539500,7.17653955078125,-0.1019744873046875,0.057769775390625,0.061614990234375
1772790628605604400,7.186604248046875,-0.076995849609375,0.0719757080078125,0.0463409423828125
1772790628615670300,7.196670166015625,-0.064453125,0.0443115234375,0.015838623046875
1772790628625735200,7.206735107421875,-0.057891845703125,0.0287628173828125,0.0096588134765625
1772790628635801300,7.21680126953125,-0.047637939453125,0.0161590576171875,0.0242462158203125
1772790628645866500,7.226866455078125,-0.052947998046875,-0.0076904296875,0.0234375
1772790628655931100,7.23693115234375,-0.0622711181640625,-0.02349853515625,0.005950927734375
1772790628665997300,7.246997314453125,-0.0981903076171875,-0.0362548828125,-0.014068603515625
1772790628676062500,7.2570625,-0.13262939453125,-0.0717926025390625,-0.024078369140625
1772790628686127400,7.26712744140625,-0.1658477783203125,-0.0865020751953125,-0.0499725341796875
1772790628696193300,7.277193359375,-0.2266693115234375,-0.098358154296875,-0.05743408203125
1772790628706258200,7.287258056640625,-0.2887420654296875,-0.132537841796875,-0.0702667236328125
1772790628716324400,7.297324462890625,-0.373504638671875,-0.132904052734375,-0.07525634765625
1772790628726389500,7.307389404296875,-0.5011444091796875,-0.1402130126953125,-0.0772857666015625
1772790628736454100,7.3174541015625,-0.6015472412109375,-0.1753997802734375,-0.0624847412109375
1772790628746520300,7.327520263671875,-0.6781158447265625,-0.2362823486328125,-0.03985595703125
1772790628756585500,7.33758544921875,-0.7672576904296875,-0.2887420654296875,-0.04864501953125
1772790628766650000,7.347650146484375,-0.8713226318359375,-0.3704833984375,-0.074859619140625
1772790628776716300,7.35771630859375,-0.9970855712890625,-0.4153900146484375,-0.0591888427734375
1772790628786781200,7.36778125,-1.2093048095703125,-0.4743499755859375,-0.0634002685546875
1772790628796847400,7.377847412109375,-1.381866455078125,-0.50091552734375,-0.037445068359375
1772790628806912500,7.38791259765625,-1.5990142822265625,-0.477081298828125,-0.0329742431640625
1772790628816977200,7.39797705078125,-1.8575286865234375,-0.4946441650390625,-0.0502777099609375
1772790628827043300,7.408043212890625,-2.0948028564453125,-0.49761962890625,-0.08056640625
1772790628837108500,7.4181083984375,-2.2960357666015625,-0.4857025146484375,-0.1045379638671875
1772790628847173000,7.428173095703125,-2.4231719970703125,-0.4210357666015625,-0.1033477783203125
1772790628857239300,7.4382392578125,-2.484649658203125,-0.3805389404296875,-0.056243896484375
1772790628867304400,7.448304443359375,-2.4796295166015625,-0.360748291015625,-0.00445556640625
1772790628877370400,7.458370361328125,-2.478515625,-0.3413543701171875,0.005218505859375
1772790628887435300,7.468435302734375,-2.4868927001953125,-0.331207275390625,0.032989501953125
1772790628897500200,7.478500244140625,-2.4901123046875,-0.3337860107421875,0.0661468505859375
1772790628907566300,7.48856640625,-2.4099273681640625,-0.3346710205078125,0.11517333984375
1772790628917631500,7.498631591796875,-2.286895751953125,-0.3203277587890625,0.1788787841796875
1772790628927696100,7.508696044921875,-2.086639404296875,-0.32940673828125,0.2044525146484375
1772790628937762300,7.51876220703125,-1.860565185546875,-0.3261871337890625,0.190216064453125
1772790628947827500,7.528827392578125,-1.590240478515625,-0.2302398681640625,0.2107391357421875
1772790628957893400,7.538893310546875,-1.3404693603515625,-0.318695068359375,0.1188812255859375
1772790628967958300,7.548958251953125,-1.1865081787109375,-0.5218353271484375,-0.018890380859375
1772790628978023200,7.559023193359375,-0.9906768798828125,-0.4907379150390625,-0.0137786865234375
1772790628988089300,7.56908935546875,-0.8376617431640625,-0.3983306884765625,-0.0394287109375
1772790628998154500,7.579154541015625,-0.7605133056640625,-0.3305511474609375,-0.0898590087890625
1772790629008219100,7.58921923828125,-0.70489501953125,-0.26788330078125,-0.1176300048828125
1772790629018285300,7.599285400390625,-0.6787109375,-0.15496826171875,-0.1020660400390625
1772790629028350500,7.6093505859375,-0.6226959228515625,-0.0582733154296875,-0.0396728515625
1772790629038416400,7.61941650390625,-0.5361175537109375,-0.05255126953125,0.0040740966796875
1772790629048481300,7.629481201171875,-0.406982421875,-0.0396575927734375,0.075714111328125
1772790629058546400,7.63954638671875,-0.264556884765625,-0.0098419189453125,0.1260986328125
1772790629068612400,7.6496123046875,-0.15509033203125,0.003692626953125,0.12249755859375
1772790629078677500,7.659677490234375,-0.03759765625,0.0035552978515625,0.0929107666015625
1772790629088742100,7.6697421875,0.049072265625,-0.0050201416015625,0.0624847412109375
1772790629098808300,7.679808349609375,0.0746612548828125,-0.03466796875,0.0309600830078125
1772790629108873500,7.68987353515625,0.074371337890625,-0.058807373046875,0.0178985595703125
1772790629118939400,7.699939453125,0.0378570556640625,-0.0924224853515625,0.02447509765625
1772790629129004300,7.71000439453125,-0.0013275146484375,-0.1397552490234375,0.0318450927734375
1772790629139069400,7.7200693359375,-0.0447235107421875,-0.165069580078125,0.0285186767578125
1772790629149135400,7.73013525390625,-0.094329833984375,-0.1793365478515625,0.0228424072265625
1772790629159200300,7.7402001953125,-0.1743011474609375,-0.184051513671875,0.0374755859375
1772790629169265200,7.75026513671875,-0.250335693359375,-0.1916046142578125,0.0351409912109375
1772790629179331300,7.760331298828125,-0.315185546875,-0.18280029296875,0.02294921875
1772790629189396500,7.770396484375,-0.3703460693359375,-0.162628173828125,0.01141357421875
1772790629199462400,7.78046240234375,-0.410064697265625,-0.154693603515625,-0.00555419921875
1772790629209527300,7.79052734375,-0.4329833984375,-0.15960693359375,-0.020599365234375
1772790629219592400,7.800592529296875,-0.4526214599609375,-0.1734619140625,-0.0238037109375
1772790629229658400,7.810658447265625,-0.4590606689453125,-0.1930389404296875,-0.0267791748046875
1772790629239723300,7.82072314453125,-0.47662353515625,-0.2049102783203125,-0.001678466796875
1772790629249788200,7.8307880859375,-0.532470703125,-0.2167205810546875,0.0187835693359375
1772790629259854300,7.840854248046875,-0.6120452880859375,-0.3542938232421875,0.0044097900390625
1772790629269919500,7.85091943359375,-0.712982177734375,-0.36676025390625,0.06536865234375
1772790629279985400,7.8609853515625,-0.8370208740234375,-0.3907470703125,0.077056884765625
1772790629290050300,7.87105029296875,-1.0155487060546875,-0.387786865234375,0.092529296875
1772790629300115500,7.881115478515625,-1.3043670654296875,-0.3441314697265625,0.1164703369140625
1772790629310181400,7.891181396484375,-1.664093017578125,-0.2933349609375,0.1229095458984375
1772790629320246300,7.901246337890625,-1.9628753662109375,-0.345184326171875,0.0839385986328125
1772790629330311400,7.9113115234375,-2.2126312255859375,-0.491912841796875,0.11346435546875
1772790629340377300,7.92137744140625,-2.426422119140625,-0.2761993408203125,0.2377166748046875
1772790629350442500,7.9314423828125,-2.5006561279296875,-0.38580322265625,0.2797698974609375
1772790629360507100,7.941507080078125,-2.626861572265625,-0.392181396484375,0.36993408203125
1772790629370573300,7.9515732421875,-2.648223876953125,-0.386962890625,0.355438232421875
1772790629380638500,7.961638427734375,-2.5897216796875,-0.4182891845703125,0.23797607421875
1772790629390704400,7.971704345703125,-2.551116943359375,-0.443328857421875,0.1515350341796875
1772790629400769500,7.98176953125,-2.511260986328125,-0.4815521240234375,0.1339569091796875
1772790629410834400,7.99183447265625,-2.4541015625,-0.47662353515625,0.1426239013671875
1772790629420899300,8.0018994140625,-2.3742218017578125,-0.433624267578125,0.17724609375
1772790629430965500,8.011965576171875,-2.2238616943359375,-0.380859375,0.201019287109375
1772790629441030400,8.022030517578125,-2.0423431396484375,-0.3672943115234375,0.20965576171875
1772790629451096600,8.0320966796875,-1.8053436279296875,-0.3804473876953125,0.2077789306640625
1772790629461161500,8.042161376953125,-1.507080078125,-0.397430419921875,0.177520751953125
1772790629471226400,8.052226318359375,-1.2071533203125,-0.4003143310546875,0.122650146484375
1772790629481292500,8.06229248046875,-0.9508514404296875,-0.37017822265625,0.071044921875
1772790629491357400,8.072357421875,-0.7397003173828125,-0.3156890869140625,0.018218994140625
1772790629501422300,8.08242236328125,-0.5396728515625,-0.2357177734375,-0.0325164794921875
1772790629511488500,8.092488525390625,-0.4158172607421875,-0.164947509765625,-0.04547119140625
1772790629521553400,8.102553466796875,-0.324676513671875,-0.121826171875,-0.0264129638671875
1772790629531618300,8.112618408203126,-0.179718017578125,-0.079071044921875,-0.024200439453125
1772790629541684500,8.1226845703125,-0.0090179443359375,-0.0464630126953125,-0.036956787109375
1772790629551749400,8.132749267578125,0.1100006103515625,-0.021148681640625,-0.0385284423828125
1772790629561815600,8.142815673828125,0.1917877197265625,-0.032958984375,-0.0166473388671875
1772790629571880400,8.15288037109375,0.25506591796875,-0.043487548828125,0.006683349609375
1772790629581945300,8.1629453125,0.2847442626953125,-0.0822906494140625,0.0096282958984375
1772790629592011500,8.173011474609375,0.2817230224609375,-0.132659912109375,-0.01605224609375
1772790629602076400,8.183076416015625,0.23114013671875,-0.1499176025390625,-0.00433349609375
1772790629612141300,8.193141357421876,0.1345367431640625,-0.1331634521484375,-0.003021240234375
1772790629622207500,8.20320751953125,0.0305938720703125,-0.115325927734375,0.01025390625
1772790629632272400,8.2132724609375,-0.0540313720703125,-0.08087158203125,0.027374267578125
1772790629642338600,8.223338623046875,-0.1470794677734375,-0.0652313232421875,0.0327301025390625
1772790629652403500,8.233403564453125,-0.251617431640625,-0.0621795654296875,0.0748443603515625
1772790629662468400,8.24346826171875,-0.332427978515625,-0.0666656494140625,0.0712432861328125
1772790629672534500,8.253534423828125,-0.35614013671875,-0.0635986328125,0.07000732421875
1772790629682599400,8.263599365234375,-0.3784942626953125,-0.05401611328125,0.091339111328125
1772790629692664300,8.273664306640624,-0.3935394287109375,-0.060577392578125,0.119720458984375
1772790629702730500,8.28373046875,-0.4010467529296875,-0.0681304931640625,0.132293701171875
1772790629712795400,8.29379541015625,-0.384124755859375,-0.078399658203125,0.1166534423828125
1772790629722861600,8.303861572265625,-0.3595733642578125,-0.0960693359375,0.0872802734375
1772790629732926500,8.313926513671875,-0.3780364990234375,-0.1100311279296875,0.0736236572265625
1772790629742991400,8.323991455078126,-0.437347412109375,-0.1245574951171875,0.0888214111328125
1772790629753057500,8.3340576171875,-0.4866790771484375,-0.1576995849609375,0.108978271484375
1772790629763122400,8.344122314453125,-0.565460205078125,-0.2216339111328125,0.14617919921875
1772790629773187300,8.354187255859374,-0.6806182861328125,-0.265869140625,0.18511962890625
1772790629783253500,8.36425341796875,-0.7884979248046875,-0.3302459716796875,0.1922149658203125
1772790629793318400,8.374318359375,-0.8885498046875,-0.4372100830078125,0.138916015625
1772790629803384600,8.384384521484375,-1.072052001953125,-0.4601593017578125,0.08935546875
1772790629813449500,8.394449462890625,-1.3839111328125,-0.390838623046875,0.0850372314453125
1772790629823514400,8.404514404296876,-1.8009796142578125,-0.3134307861328125,0.1422576904296875
1772790629833580500,8.41458056640625,-2.2037506103515625,-0.297332763671875,0.1846466064453125
1772790629843645400,8.4246455078125,-2.4183349609375,-0.287841796875,0.1356201171875
1772790629853710300,8.43471044921875,-2.47796630859375,-0.2535400390625,0.0480804443359375
1772790629863776500,8.444776611328125,-2.4632110595703125,-0.221923828125,0.056884765625
1772790629873841400,8.45484130859375,-2.4669647216796875,-0.2796478271484375,0.115325927734375
1772790629883907300,8.4649072265625,-2.41888427734375,-0.3496246337890625,0.1546630859375
1772790629893972500,8.474972412109375,-2.3714599609375,-0.4065704345703125,0.1479644775390625
1772790629904037400,8.485037353515626,-2.3552703857421875,-0.4677734375,0.1262359619140625
1772790629914103600,8.495103515625,-2.2953948974609375,-0.5276641845703125,0.122222900390625
1772790629924168400,8.50516845703125,-2.185882568359375,-0.552490234375,0.1250152587890625
1772790629934233300,8.5152333984375,-2.076904296875,-0.5525054931640625,0.099853515625
1772790629944299500,8.525299560546875,-1.940765380859375,-0.542083740234375,0.08062744140625
1772790629954364400,8.535364501953126,-1.8183441162109375,-0.527099609375,0.0923614501953125
1772790629964430300,8.545430419921875,-1.6994171142578125,-0.510284423828125,0.1143646240234375
1772790629974495500,8.55549560546875,-1.5460052490234375,-0.4960174560546875,0.149017333984375
1772790629984560400,8.565560302734376,-1.3623809814453125,-0.4577484130859375,0.1505126953125
1772790629994626600,8.57562646484375,-1.1707763671875,-0.4045562744140625,0.1163482666015625
1772790630004691500,8.58569140625,-0.97637939453125,-0.3485260009765625,0.0795440673828125
1772790630014756400,8.59575634765625,-0.8199615478515625,-0.286468505859375,0.03173828125
1772790630024822500,8.605822509765625,-0.694488525390625,-0.2239990234375,0.0464935302734375
1772790630034887700,8.6158876953125,-0.5878753662109375,-0.1655731201171875,0.07489013671875
1772790630044952300,8.625952392578125,-0.4743194580078125,-0.1356048583984375,0.08355712890625
1772790630055018500,8.6360185546875,-0.348114013671875,-0.1224212646484375,0.0693817138671875
1772790630065083400,8.64608349609375,-0.2232818603515625,-0.093963623046875,0.077880859375
1772790630075149600,8.656149658203125,-0.1382598876953125,-0.0713958740234375,0.0782318115234375
1772790630085214500,8.66621435546875,-0.0969696044921875,-0.06976318359375,0.0705108642578125
1772790630095279400,8.676279296875,-0.087371826171875,-0.0778961181640625,0.0624237060546875
1772790630105345500,8.686345458984375,-0.1002197265625,-0.0889739990234375,0.0386505126953125
1772790630115410400,8.696410400390626,-0.1179656982421875,-0.1123809814453125,0.0238189697265625
1772790630125475300,8.706475341796875,-0.1348724365234375,-0.1384429931640625,0.0069580078125
1772790630135541500,8.71654150390625,-0.1466827392578125,-0.1501007080078125,-0.0015411376953125
1772790630145606400,8.7266064453125,-0.1746673583984375,-0.1465911865234375,-0.0015411376953125
1772790630155672600,8.736672607421875,-0.225616455078125,-0.158203125,-0.005218505859375
1772790630165737500,8.746737548828126,-0.275909423828125,-0.16094970703125,-0.0045013427734375
1772790630175802400,8.75680224609375,-0.3106689453125,-0.1518402099609375,-0.0040435791015625
1772790630185868500,8.76686865234375,-0.3425140380859375,-0.13153076171875,-0.022186279296875
1772790630195933400,8.776933349609376,-0.3710174560546875,-0.1074981689453125,-0.0378570556640625
1772790630205999400,8.786999267578125,-0.3890380859375,-0.087860107421875,-0.043670654296875
1772790630216064500,8.797064453125,-0.4098968505859375,-0.064727783203125,-0.027099609375
1772790630226129400,8.80712939453125,-0.40667724609375,-0.055206298828125,0.00006103515625
1772790630236195300,8.8171953125,-0.385955810546875,-0.0534515380859375,0.014495849609375
1772790630246260500,8.827260498046876,-0.3654022216796875,-0.06707763671875,0.025848388671875
1772790630256325400,8.837325439453124,-0.35357666015625,-0.09710693359375,0.0362701416015625
1772790630266391600,8.8473916015625,-0.3526611328125,-0.1442108154296875,0.056060791015625
1772790630276456400,8.85745654296875,-0.3558502197265625,-0.172332763671875,0.07916259765625
1772790630286521300,8.867521240234375,-0.3909454345703125,-0.2256011962890625,0.099700927734375
1772790630296587500,8.87758740234375,-0.4621124267578125,-0.3201446533203125,0.1065216064453125
1772790630306652700,8.887652587890624,-0.5723724365234375,-0.3693084716796875,0.0967254638671875
1772790630316718300,8.89771826171875,-0.8009490966796875,-0.351165771484375,0.070465087890625
1772790630326783500,8.907783447265626,-1.1263885498046875,-0.3129425048828125,0.012420654296875
1772790630336848400,8.917848388671874,-1.4639892578125,-0.31610107421875,-0.0548248291015625
1772790630346914600,8.92791455078125,-1.7926483154296875,-0.36920166015625,-0.0824127197265625
1772790630356979500,8.9379794921875,-2.0715789794921875,-0.35577392578125,-0.0443878173828125
1772790630367044400,8.94804443359375,-2.3011474609375,-0.305450439453125,0.0480194091796875
1772790630377110500,8.958110595703126,-2.4665069580078125,-0.33575439453125,0.1315155029296875
1772790630387175700,8.96817578125,-2.5184173583984375,-0.4056396484375,0.1465911865234375
1772790630397241600,8.97824169921875,-2.51422119140625,-0.4414520263671875,0.0819091796875
1772790630407306800,8.988306640625,-2.486419677734375,-0.4945831298828125,-0.001708984375
1772790630417371600,8.99837158203125,-2.52349853515625,-0.55517578125,-0.0439910888671875
1772790630427437600,9.0084375,-2.5611724853515625,-0.6016387939453125,-0.023223876953125
1772790630437502700,9.018502685546874,-2.517547607421875,-0.60382080078125,0.006500244140625
1772790630447567600,9.028567626953125,-2.3849029541015625,-0.5627288818359375,0.0238037109375
1772790630457633800,9.0386337890625,-2.2210540771484375,-0.5134735107421875,0.0396270751953125
1772790630467698700,9.04869873046875,-2.0323638916015625,-0.494720458984375,0.060791015625
1772790630477764600,9.0587646484375,-1.804534912109375,-0.50787353515625,0.0852203369140625
1772790630487829800,9.068829833984376,-1.5568695068359375,-0.4810028076171875,0.0945281982421875
1772790630497894400,9.078894287109375,-1.3247528076171875,-0.440338134765625,0.0951385498046875
1772790630507960600,9.088960693359375,-1.1391143798828125,-0.40936279296875,0.0794830322265625
1772790630518025700,9.099025634765624,-0.975982666015625,-0.3637542724609375,0.037750244140625
1772790630528090600,9.109090576171875,-0.824554443359375,-0.305816650390625,-0.0135498046875
1772790630538156800,9.11915673828125,-0.694488525390625,-0.2630157470703125,-0.0549468994140625
1772790630548221700,9.1292216796875,-0.583587646484375,-0.21966552734375,-0.064697265625
1772790630558286600,9.13928662109375,-0.4762725830078125,-0.174896240234375,-0.0449066162109375
1772790630568352800,9.149352783203126,-0.3748321533203125,-0.1317138671875,-0.015899658203125
1772790630578417700,9.159417724609375,-0.271026611328125,-0.09320068359375,0.0020904541015625
1772790630588483600,9.169483642578125,-0.15911865234375,-0.0696868896484375,0.0074310302734375
1772790630598548700,9.179548828125,-0.0640411376953125,-0.0507659912109375,0.0159759521484375
1772790630608613600,9.189613525390625,-0.007904052734375,-0.03802490234375,0.0297393798828125
1772790630618679600,9.199679443359376,0.01654052734375,-0.0201416015625,0.04046630859375
1772790630628744700,9.20974462890625,0.0171356201171875,-0.0121612548828125,0.0368804931640625
1772790630638810600,9.219810546875,0.00433349609375,-0.02630615234375,0.0229339599609375
1772790630648875800,9.229875732421876,-0.0106048583984375,-0.044647216796875,0.0051422119140625
1772790630658940700,9.239940673828125,-0.0546875,-0.0789794921875,-0.001434326171875
1772790630669006600,9.250006591796875,-0.0855712890625,-0.0962371826171875,0.0057830810546875
1772790630679071700,9.26007177734375,-0.134979248046875,-0.10736083984375,0.0062713623046875
1772790630689136600,9.27013671875,-0.19683837890625,-0.1023712158203125,0.020050048828125
1772790630699202600,9.28020263671875,-0.2577056884765625,-0.08837890625,0.034820556640625
1772790630709267700,9.290267822265625,-0.3267822265625,-0.0686492919921875,0.046966552734375
1772790630719332600,9.30033251953125,-0.3770904541015625,-0.0609283447265625,0.0560150146484375
1772790630729398800,9.310398681640624,-0.415557861328125,-0.063446044921875,0.068267822265625
1772790630739463700,9.320463623046875,-0.4598236083984375,-0.0737457275390625,0.074859619140625
1772790630749529600,9.330529541015625,-0.4969940185546875,-0.083404541015625,0.077178955078125
1772790630759594800,9.3405947265625,-0.5276641845703125,-0.0997314453125,0.0524749755859375
1772790630769659600,9.35065966796875,-0.574188232421875,-0.14129638671875,0.02435302734375
1772790630779725600,9.3607255859375,-0.581024169921875,-0.1905517578125,-0.0123443603515625
1772790630789790700,9.370790771484375,-0.5672149658203125,-0.249664306640625,-0.0511016845703125
1772790630799855600,9.380855712890625,-0.5726318359375,-0.32525634765625,-0.0726165771484375
1772790630809921800,9.390921875,-0.6342010498046875,-0.412506103515625,-0.103973388671875
1772790630819986700,9.400986572265625,-0.741607666015625,-0.4565582275390625,-0.1341400146484375
1772790630830052600,9.411052490234376,-0.9074249267578125,-0.4352569580078125,-0.15838623046875
1772790630840117800,9.42111767578125,-1.1593170166015625,-0.3680572509765625,-0.162872314453125
1772790630850182700,9.4311826171875,-1.3924713134765625,-0.33868408203125,-0.1393585205078125
1772790630860248600,9.44124853515625,-1.573577880859375,-0.3636932373046875,-0.1148681640625
1772790630870313700,9.451313720703125,-1.7208709716796875,-0.3995513916015625,-0.1057586669921875
1772790630880378600,9.461378662109375,-1.702392578125,-0.47259521484375,-0.1141815185546875
1772790630890444800,9.47144482421875,-1.9362030029296875,-0.2966766357421875,-0.052001953125
1772790630900509700,9.481509765625,-1.984771728515625,-0.3955841064453125,-0.054046630859375
1772790630910575600,9.49157568359375,-1.9715728759765625,-0.48822021484375,-0.057952880859375
1772790630920640800,9.501640869140624,-1.9962615966796875,-0.4771881103515625,-0.0354461669921875
1772790630930705700,9.51170556640625,-2.009063720703125,-0.5372772216796875,-0.039947509765625
1772790630940771600,9.521771484375,-2.0078277587890625,-0.588531494140625,-0.0679473876953125
1772790630950836700,9.531836669921875,-1.971893310546875,-0.6031646728515625,-0.0537109375
1772790630960901600,9.541901611328125,-1.951904296875,-0.5840301513671875,-0.0294036865234375
1772790630970967600,9.551967529296874,-1.9146575927734375,-0.5837249755859375,-0.003448486328125
1772790630981032700,9.56203271484375,-1.88238525390625,-0.5904998779296875,0.0310516357421875
1772790630991098600,9.5720986328125,-1.81494140625,-0.5879058837890625,0.0808868408203125
1772790631001163800,9.582163818359374,-1.706085205078125,-0.581024169921875,0.1240386962890625
1772790631011228700,9.592228759765625,-1.5710906982421875,-0.5704345703125,0.1313934326171875
1772790631021294600,9.602294677734376,-1.4278106689453125,-0.5459136962890625,0.1099700927734375
1772790631031359700,9.61235986328125,-1.2979888916015625,-0.455718994140625,0.0794677734375
1772790631041424600,9.622424560546875,-1.1430206298828125,-0.3829803466796875,0.0403289794921875
1772790631051490600,9.632490478515624,-1.026824951171875,-0.308441162109375,-0.016754150390625
1772790631061555700,9.6425556640625,-0.91851806640625,-0.2420501708984375,-0.0466156005859375
1772790631071621600,9.65262158203125,-0.86053466796875,-0.1642913818359375,-0.035064697265625
1772790631081686800,9.662686767578125,-0.8267059326171875,-0.09124755859375,-0.0284576416015625
1772790631091751700,9.672751708984375,-0.7686614990234375,-0.034576416015625,-0.0126495361328125
1772790631101817600,9.682817626953126,-0.691619873046875,0.0098419189453125,0.002288818359375
1772790631111882800,9.6928828125,-0.6156463623046875,0.0251007080078125,0.01251220703125
1772790631121947600,9.70294775390625,-0.5586395263671875,0.021881103515625,0.0263824462890625
1772790631132013600,9.713013671875,-0.4980316162109375,0.0216217041015625,0.0270233154296875
1772790631142078700,9.72307861328125,-0.4455108642578125,0.0159912109375,0.0048980712890625
1772790631152143600,9.7331435546875,-0.38104248046875,-0.017547607421875,-0.0255126953125
1772790631162209800,9.743209716796875,-0.344970703125,0.0129852294921875,-0.0288238525390625
1772790631172274700,9.753274658203125,-0.3028411865234375,-0.009796142578125,-0.0567626953125
1772790631182340600,9.763340576171874,-0.225830078125,-0.0511627197265625,-0.070648193359375
1772790631192405800,9.77340576171875,-0.165069580078125,-0.069183349609375,-0.059661865234375
1772790631202470700,9.783470703125,-0.1179962158203125,-0.1048431396484375,-0.05218505859375
1772790631212536600,9.79353662109375,-0.0953521728515625,-0.13128662109375,-0.023773193359375
1772790631222601700,9.803601806640625,-0.11724853515625,-0.15289306640625,-0.00091552734375
1772790631232666600,9.81366650390625,-0.170501708984375,-0.166961669921875,0.0179290771484375
1772790631242732500,9.823732666015625,-0.2010040283203125,-0.164031982421875,0.0251312255859375
1772790631252797700,9.833797607421875,-0.186767578125,-0.171112060546875,0.0171051025390625
1772790631262863600,9.843863525390624,-0.1655731201171875,-0.18463134765625,0.0058135986328125
1772790631272928800,9.8539287109375,-0.1739501953125,-0.174407958984375,0.0159912109375
1772790631282993700,9.86399365234375,-0.2257080078125,-0.1806793212890625,0.0129547119140625
1772790631293059600,9.8740595703125,-0.2900543212890625,-0.1998138427734375,0.0073699951171875
1772790631303124700,9.884124755859375,-0.3390350341796875,-0.236541748046875,0.00628662109375
1772790631313189600,9.894189697265626,-0.36181640625,-0.2961883544921875,-0.0023193359375
1772790631323255600,9.904255615234375,-0.4100494384765625,-0.367218017578125,-0.0247802734375
1772790631333320700,9.91432080078125,-0.529510498046875,-0.3864898681640625,-0.021087646484375
1772790631343386600,9.92438671875,-0.6294403076171875,-0.3744964599609375,0.0074615478515625
1772790631353451800,9.93445166015625,-0.8645477294921875,-0.37896728515625,-0.07421875
1772790631363516700,9.9445166015625,-1.1286163330078125,-0.370025634765625,-0.10968017578125
1772790631373582600,9.95458251953125,-1.3566436767578125,-0.40093994140625,-0.1168975830078125
1772790631383647700,9.964647705078125,-1.5561370849609375,-0.4607696533203125,-0.1343841552734375
1772790631393716000,9.974716064453125,-1.7222442626953125,-0.5089111328125,-0.1131439208984375
1772790631403782000,9.984781982421875,-1.8531951904296875,-0.5381011962890625,-0.0643768310546875
1772790631413847000,9.994846923828124,-1.9231109619140625,-0.576507568359375,-0.0488433837890625
1772790631423913000,10.004912841796875,-1.9763641357421875,-0.6435699462890625,-0.06561279296875
1772790631433977900,10.014977783203125,-2.0175018310546875,-0.7001953125,-0.079132080078125
1772790631444043000,10.02504296875,-2.0482025146484375,-0.760223388671875,-0.0447845458984375
1772790631454109000,10.03510888671875,-2.0708160400390625,-0.8288421630859375,0.027679443359375
1772790631464173800,10.045173828125,-2.073089599609375,-0.8872222900390625,0.092132568359375
1772790631474239000,10.055239013671875,-2.0472412109375,-0.9044189453125,0.122406005859375
1772790631484305000,10.065304931640625,-1.9875030517578125,-0.8894500732421875,0.1410675048828125
1772790631494370000,10.0753701171875,-1.9356689453125,-0.858856201171875,0.1568756103515625
1772790631504435700,10.085435791015625,-1.85467529296875,-0.841094970703125,0.16162109375
1772790631514500900,10.0955009765625,-1.7327880859375,-0.8361663818359375,0.14697265625
1772790631524566000,10.10556591796875,-1.60589599609375,-0.817291259765625,0.1351470947265625
1772790631534632000,10.1156318359375,-1.4762725830078125,-0.7686767578125,0.146331787109375
1772790631544696800,10.12569677734375,-1.352264404296875,-0.7028961181640625,0.1641082763671875
1772790631554762000,10.135761962890625,-1.2224578857421875,-0.6177520751953125,0.1690216064453125
1772790631564828000,10.145827880859375,-1.094390869140625,-0.5385894775390625,0.1492462158203125
1772790631574893000,10.15589306640625,-0.976348876953125,-0.4710693359375,0.1139984130859375
1772790631584958000,10.1659580078125,-0.8742523193359375,-0.39154052734375,0.0899810791015625
1772790631595024000,10.17602392578125,-0.804901123046875,-0.296661376953125,0.0636749267578125
1772790631605089000,10.186089111328124,-0.7571868896484375,-0.2085418701171875,0.0419769287109375
1772790631615155000,10.196155029296875,-0.7081298828125,-0.130584716796875,0.038299560546875
1772790631625219800,10.2062197265625,-0.6474609375,-0.0782470703125,0.052947998046875
1772790631635285000,10.216284912109375,-0.6023712158203125,-0.040069580078125,0.0928192138671875
1772790631645351000,10.226350830078125,-0.563201904296875,-0.0211181640625,0.1119537353515625
1772790631655415800,10.236415771484374,-0.5353240966796875,-0.0299835205078125,0.0960540771484375
1772790631665481700,10.246481689453125,-0.513031005859375,-0.0472412109375,0.0550994873046875
1772790631675547000,10.256546875,-0.4630584716796875,-0.06121826171875,-0.0026092529296875
1772790631685612000,10.266612060546874,-0.391632080078125,-0.079864501953125,-0.044342041015625
1772790631695678000,10.276677978515625,-0.3229827880859375,-0.090484619140625,-0.0668792724609375
1772790631705742800,10.286742919921876,-0.2635955810546875,-0.0991973876953125,-0.0663909912109375
1772790631715808000,10.29680810546875,-0.2358551025390625,-0.11602783203125,-0.0619354248046875
1772790631725874000,10.3068740234375,-0.219390869140625,-0.1332550048828125,-0.0518951416015625
1772790631735938800,10.316938720703124,-0.19671630859375,-0.141754150390625,-0.0355987548828125
1772790631746004000,10.32700390625,-0.1768341064453125,-0.147186279296875,-0.0201416015625
1772790631756070000,10.33706982421875,-0.1663970947265625,-0.1429595947265625,-0.0094451904296875
1772790631766135000,10.347135009765625,-0.176727294921875,-0.141387939453125,0.002655029296875
1772790631776201000,10.357200927734375,-0.1917572021484375,-0.138702392578125,0.0082244873046875
1772790631786265900,10.367265869140626,-0.2083587646484375,-0.1306915283203125,0.015869140625
1772790631796331000,10.3773310546875,-0.2428436279296875,-0.1193084716796875,0.0176239013671875
1772790631806397000,10.38739697265625,-0.2988433837890625,-0.1215057373046875,0.01873779296875
1772790631816461800,10.3974619140625,-0.341522216796875,-0.1389923095703125,0.02447509765625
1772790631826527000,10.40752685546875,-0.3470001220703125,-0.1527099609375,0.0342559814453125
1772790631836593000,10.417593017578126,-0.359405517578125,-0.1815185546875,0.048736572265625
1772790631846658000,10.427657958984375,-0.3614654541015625,-0.237060546875,0.0492095947265625
1772790631856723700,10.4377236328125,-0.3715362548828125,-0.310333251953125,0.046875
1772790631866788900,10.447788818359374,-0.43701171875,-0.39306640625,0.032012939453125
1772790631876854000,10.45785400390625,-0.5050811767578125,-0.458221435546875,0.00225830078125
1772790631886920000,10.467919921875,-0.5967559814453125,-0.473175048828125,-0.02435302734375
1772790631896984800,10.47798486328125,-0.792510986328125,-0.4264373779296875,-0.0166168212890625
1772790631907050000,10.488050048828125,-1.0371551513671875,-0.4263763427734375,0.0193634033203125
1772790631917116000,10.498115966796876,-1.2742767333984375,-0.4553375244140625,0.03948974609375
1772790631927181000,10.50818115234375,-1.5404510498046875,-0.461517333984375,0.01995849609375
1772790631937246700,10.518246826171875,-1.76922607421875,-0.460235595703125,0.00115966796875
1772790631947311900,10.528311767578124,-1.9509124755859375,-0.4443206787109375,-0.012786865234375
1772790631957377000,10.538376953125,-2.1053009033203125,-0.4369659423828125,0.0006103515625
1772790631967443000,10.54844287109375,-2.1905670166015625,-0.4387359619140625,0.0334320068359375
1772790631977507800,10.5585078125,-2.22576904296875,-0.479522705078125,0.02734375
1772790631987573000,10.568572998046875,-2.221099853515625,-0.546051025390625,0.016265869140625
1772790631997639000,10.578638916015626,-2.168060302734375,-0.5992431640625,0.023162841796875
1772790632007703800,10.588703857421875,-2.0656585693359375,-0.6329498291015625,0.0453643798828125
1772790632017769700,10.598769775390625,-1.94891357421875,-0.6666717529296875,0.0769195556640625
1772790632027835000,10.6088349609375,-1.82275390625,-0.6948394775390625,0.1170654296875
1772790632037900000,10.618900146484375,-1.7176055908203125,-0.722930908203125,0.1550445556640625
1772790632047966000,10.628966064453126,-1.637939453125,-0.7396697998046875,0.18359375
1772790632058030800,10.63903076171875,-1.557525634765625,-0.729888916015625,0.193756103515625
1772790632068096000,10.649095947265625,-1.463226318359375,-0.6979522705078125,0.171356201171875
1772790632078162000,10.659161865234376,-1.37347412109375,-0.6429443359375,0.1400604248046875
1772790632088226800,10.669226806640625,-1.2925567626953125,-0.5622100830078125,0.12353515625
1772790632098292000,10.6792919921875,-1.245849609375,-0.479095458984375,0.1013031005859375
1772790632108358000,10.68935791015625,-1.2218780517578125,-0.4069671630859375,0.080230712890625
1772790632118423000,10.699423095703125,-1.1600494384765625,-0.33837890625,0.065643310546875
1772790632128488700,10.70948876953125,-1.079620361328125,-0.280059814453125,0.0562286376953125
1772790632138553900,10.719553955078124,-0.98211669921875,-0.225982666015625,0.059600830078125
1772790632148619000,10.729618896484375,-0.8660430908203125,-0.171539306640625,0.0584564208984375
1772790632158685000,10.739684814453126,-0.7727508544921875,-0.12139892578125,0.0570526123046875
1772790632168749800,10.749749755859375,-0.715606689453125,-0.0847320556640625,0.0631561279296875
1772790632178815000,10.75981494140625,-0.6632537841796875,-0.066192626953125,0.066680908203125
1772790632188881000,10.769880859375,-0.598419189453125,-0.064788818359375,0.06494140625
1772790632198946000,10.779946044921875,-0.517669677734375,-0.0668182373046875,0.0380706787109375
1772790632209011700,10.79001171875,-0.44287109375,-0.06787109375,0.0033721923828125
1772790632219076900,10.800076904296875,-0.3715972900390625,-0.0745849609375,-0.0149078369140625
1772790632229142000,10.81014208984375,-0.3072509765625,-0.0771636962890625,-0.0207366943359375
1772790632239208000,10.8202080078125,-0.262359619140625,-0.0784454345703125,-0.0264129638671875
1772790632249272800,10.83027294921875,-0.217315673828125,-0.081787109375,-0.03582763671875
1772790632259338000,10.840337890625,-0.1853179931640625,-0.0850677490234375,-0.0490570068359375
1772790632269404000,10.85040380859375,-0.1934356689453125,-0.096221923828125,-0.0319976806640625
1772790632279468800,10.86046875,-0.2057952880859375,-0.1035919189453125,-0.00238037109375
1772790632289534700,10.87053466796875,-0.1959686279296875,-0.0987701416015625,0.0212249755859375
1772790632299600000,10.880599853515625,-0.1605377197265625,-0.095550537109375,0.0153045654296875
1772790632309665000,10.8906650390625,-0.1596527099609375,-0.1020050048828125,0.0046844482421875
1772790632319731000,10.90073095703125,-0.139801025390625,-0.0946044921875,0.0133514404296875
1772790632329795800,10.9107958984375,-0.0934600830078125,-0.0848236083984375,0.016510009765625
1772790632339861000,10.920861083984375,-0.0240936279296875,-0.0872802734375,0.056365966796875
1772790632349927000,10.930927001953124,-0.25897216796875,-0.112823486328125,0.0641326904296875
1772790632359991800,10.94099169921875,-0.3366851806640625,-0.147552490234375,0.049713134765625
1772790632370057000,10.951056884765626,-0.320892333984375,-0.12994384765625,0.055938720703125
1772790632380123000,10.961122802734375,-0.33587646484375,-0.131103515625,0.0369415283203125
1772790632390184700,10.971184814453125,-0.3759918212890625,-0.16973876953125,0.056549072265625
1772790632400250600,10.981250732421875,-0.3775482177734375,-0.2202301025390625,0.0710601806640625
1772790632410315800,10.991315673828124,-0.383087158203125,-0.308868408203125,0.0803680419921875
1772790632420380700,11.001380615234375,-0.4289398193359375,-0.4045257568359375,0.00872802734375
1772790632430446600,11.011446533203125,-0.609344482421875,-0.4248199462890625,-0.0363311767578125
