time,seconds_elapsed,z,y,x
1772797002395744500,0.07074462890625,0.0983918160200119,-0.06187694892287254,0.11214198172092438
1772797002405769500,0.08076953125,0.10237244516611099,-0.06566262990236282,0.115784652531147
1772797002415795500,0.09079541015625,0.098691426217556,-0.04699626937508583,0.1096564531326294
1772797002425820700,0.100820556640625,0.10637863725423813,-0.020439494401216507,0.09195362776517868
1772797002435846700,0.1108466796875,0.09611321985721588,-0.02942127175629139,0.09700457751750946
1772797002445871600,0.12087158203125,0.057505104690790176,-0.05192258581519127,0.11930295825004578
1772797002455897600,0.130897705078125,0.02202913537621498,-0.04243906959891319,0.14302213490009308
1772797002465922600,0.140922607421875,0.0015044197207316756,-0.02449602261185646,0.15821146965026855
1772797002475948500,0.150948486328125,-0.005733252968639135,-0.018215488642454147,0.15232855081558228
1772797002485973500,0.160973388671875,-0.00035446672700345516,-0.013572268187999725,0.13548512756824493
1772797002495999500,0.17099951171875,0.007017163094133139,-0.008185491897165775,0.11772849410772324
1772797002506025500,0.181025390625,0.008707204833626747,-0.002692722249776125,0.10380575805902481
1772797002516050700,0.19105078125,0.01254934724420309,0.017487647011876106,0.0899173691868782
1772797002526076700,0.20107666015625,0.01956118457019329,0.0448463000357151,0.08437240123748779
1772797002536101600,0.2111015625,0.039750341325998306,0.0673806369304657,0.08638975024223328
1772797002546127600,0.221127685546875,0.06283675134181976,0.08864571154117584,0.07639384269714355
1772797002556152600,0.231152587890625,0.09275736659765244,0.09700378030538559,0.05747181549668312
1772797002566178600,0.241178466796875,0.12587083876132965,0.06167854368686676,0.03278404474258423
1772797002576203500,0.25120361328125,0.14581286907196045,0.02983858995139599,0.011446000076830387
1772797002586229500,0.2612294921875,0.14227351546287537,0.02930089645087719,-0.0004751079250127077
1772797002596254500,0.27125439453125,0.09386657178401947,0.0024493092205375433,-0.03904353827238083
1772797002606280400,0.281280517578125,0.038717567920684814,-0.037401966750621796,-0.0880076214671135
1772797002616306400,0.291306396484375,-0.022300245240330696,-0.06835269182920456,-0.08813092112541199
1772797002626331600,0.30133154296875,0.050764910876750946,-0.07306941598653793,-0.06582428514957428
1772797002636357600,0.311357666015625,-0.012974654324352741,-0.06638168543577194,-0.03231799229979515
1772797002646382600,0.321382568359375,0.042094189673662186,-0.05265602096915245,0.0067660268396139145
1772797002656408600,0.33140869140625,-0.031187746673822403,-0.06526662409305573,0.04298128932714462
1772797002666433500,0.34143359375,0.0013427657540887594,-0.055030230432748795,0.06263434886932373
1772797002676459500,0.35145947265625,-0.0766923800110817,-0.06482240557670593,0.08001520484685898
1772797002686484500,0.361484375,-0.039386555552482605,-0.0610756054520607,0.07291948050260544
1772797002696510500,0.371510498046875,-0.10386301577091217,-0.05219316482543945,0.04455175623297691
1772797002706535700,0.38153564453125,-0.05180700495839119,-0.004019242711365223,-0.0009765811264514923
1772797002716561700,0.391561767578125,-0.07736776024103165,0.02478470839560032,-0.0381937250494957
1772797002726586600,0.401586669921875,-0.012045477516949177,0.057073939591646194,-0.05654023960232735
1772797002736612600,0.411612548828125,-0.033059414476156235,0.048163000494241714,-0.05441717058420181
1772797002746638600,0.421638671875,0.015138206072151661,0.0450015626847744,-0.05163922533392906
1772797002756663600,0.43166357421875,-0.014874819666147232,0.020298613235354424,-0.04210297763347626
1772797002766689500,0.441689453125,0.016466591507196426,0.026265159249305725,-0.03435690701007843
1772797002776714500,0.451714599609375,-0.01739683374762535,-0.004707403481006622,-0.028786640614271164
1772797002786740500,0.461740478515625,0.006584665738046169,0.008991098031401634,-0.035352665930986404
1772797002796765400,0.471765380859375,-0.007778827100992203,0.02231649123132229,-0.05043308064341545
1772797002806791400,0.48179150390625,0.007616640534251928,0.0562632717192173,-0.05855465680360794
1772797002816816600,0.491816650390625,-0.014553642831742764,0.04459702968597412,-0.057490456849336624
1772797002826842600,0.501842529296875,-0.0030368026345968246,0.044734448194503784,-0.05554049089550972
1772797002836867600,0.51186767578125,-0.01900325156748295,0.02798476256430149,-0.044918738305568695
1772797002846893600,0.5218935546875,-0.019649067893624306,0.0317014716565609,-0.03175020590424538
1772797002856919600,0.53191943359375,-0.031799208372831345,-0.004803277086466551,-0.0067630973644554615
1772797002866944500,0.541944580078125,-0.032397087663412094,0.00010492854926269501,0.008656871505081654
1772797002876970500,0.551970458984375,-0.0354517325758934,-0.015015434473752975,0.017196031287312508
1772797002886995500,0.561995361328125,-0.04470275714993477,0.006703442893922329,0.015051387250423431
1772797002897021400,0.572021484375,-0.03970373794436455,-0.002959837205708027,0.011118165217339993
1772797002907046700,0.582046630859375,-0.05483688414096832,0.009612945839762688,0.0049348375760018826
1772797002917072600,0.59207275390625,-0.047081492841243744,-0.0021521004382520914,0.0016498282784596086
1772797002927097600,0.60209765625,-0.0628303587436676,0.005851763766258955,0.0014168017078191042
1772797002937123600,0.61212353515625,-0.0392904132604599,-0.011436413042247295,0.0010370349045842886
1772797002947149600,0.622149658203125,-0.05668005719780922,0.013442039489746094,0.007981760427355766
1772797002957174500,0.632174560546875,-0.03370283544063568,-0.008354602381587029,0.025120001286268234
1772797002967200500,0.642200439453125,-0.06428711116313934,-0.0020000338554382324,0.042325884103775024
1772797002977225500,0.6522255859375,-0.03205060958862305,-0.011269432492554188,0.037160683423280716
1772797002987251500,0.66225146484375,-0.06365913897752762,0.01312192715704441,0.027121366932988167
1772797002997276700,0.672276611328125,-0.04152294248342514,-0.0015504923649132252,0.01236292626708746
1772797003007302400,0.682302490234375,-0.04975850135087967,-0.015752598643302917,-0.002111886627972126
1772797003017328400,0.692328369140625,-0.04975051060318947,-0.005598230753093958,-0.027248132973909378
1772797003027352300,0.702352294921875,-0.04995637387037277,-0.001692705205641687,-0.05102776363492012
1772797003037378600,0.712378662109375,-0.049974218010902405,0.0015752597246319056,-0.06682749837636948
1772797003047403300,0.7224033203125,-0.04499170929193497,0.022223813459277153,-0.0640689954161644
1772797003057429500,0.732429443359375,-0.0460473857820034,0.01985040307044983,-0.04141028970479965
1772797003067454500,0.742454345703125,-0.041305363178253174,0.0021052288357168436,-0.016201606020331383
1772797003077480400,0.75248046875,-0.035525768995285034,-0.002627474721521139,-0.0005747101386077702
1772797003087506400,0.76250634765625,-0.028554946184158325,-0.0011518171522766352,0.011610050685703754
1772797003097531600,0.77253173828125,-0.011767975986003876,-0.004310326185077429,0.012238290160894394
1772797003107557600,0.7825576171875,-0.00010492854926269501,-0.006125270389020443,0.014027934521436691
1772797003117582600,0.79258251953125,0.011096326634287834,-0.014054033905267715,0.01179327629506588
1772797003127608600,0.802608642578125,0.018311362713575363,-0.007872303947806358,0.0035547874867916107
1772797003137634600,0.812634521484375,0.022783076390624046,-0.0013025520602241158,0.004520449787378311
1772797003147659500,0.822659423828125,0.01720801554620266,-0.012918994762003422,0.013056146912276745
1772797003157685500,0.832685546875,0.010200705379247665,-0.03271586820483208,0.012227104976773262
1772797003167710500,0.84271044921875,-0.00023755396250635386,-0.03489752858877182,0.0030575753189623356
1772797003177736400,0.852736328125,-0.008621984161436558,-0.022298647090792656,-0.017287377268075943
1772797003187761700,0.86276171875,-0.01852414943277836,-0.0036128442734479904,-0.037346839904785156
1772797003197787600,0.87278759765625,-0.02118251658976078,0.013887852430343628,-0.03850558027625084
1772797003207813400,0.8828134765625,-0.02219691500067711,0.008743157610297203,-0.02375912480056286
1772797003217838600,0.892838623046875,-0.029143238440155983,0.0005129248020239174,0.0011387676931917667
1772797003227864600,0.902864501953125,-0.03539500758051872,-0.0015688681742176414,0.027425499632954597
1772797003237889500,0.9128896484375,-0.04617628455162048,-0.0060083577409386635,0.048643436282873154
1772797003247915500,0.92291552734375,-0.05019019916653633,-0.011695272289216518,0.05643264949321747
1772797003257941500,0.93294140625,-0.0570792630314827,-0.004826180636882782,0.059123508632183075
1772797003267966500,0.942966552734375,-0.062020495533943176,0.017172861844301224,0.05236866697669029
1772797003277992400,0.952992431640625,-0.06384742259979248,0.04357224330306053,0.047261256724596024
1772797003288017400,0.963017333984375,-0.06306418776512146,0.07216767221689224,0.053343649953603745
1772797003298043400,0.97304345703125,-0.06331852078437805,0.06532920897006989,0.080011747777462
1772797003308069400,0.9830693359375,-0.05612798407673836,0.03940786048769951,0.11290604621171951
1772797003318094600,0.993094482421875,-0.0475803017616272,0.029856165871024132,0.14060264825820923
1772797003328120600,1.00312060546875,-0.03732713311910629,0.014445251785218716,0.1618884950876236
1772797003338145500,1.0131455078125,-0.02365259826183319,-0.005222458858042955,0.17228680849075317
1772797003348171500,1.023171630859375,-0.019041867926716805,-0.014958975836634636,0.16122964024543762
1772797003358197500,1.033197509765625,-0.013921407982707024,0.00749200489372015,0.13246217370033264
1772797003368222500,1.043222412109375,-0.01990872621536255,0.03194541484117508,0.08939352631568909
1772797003378248400,1.05324853515625,-0.022831279784440994,0.046958185732364655,0.046976298093795776
1772797003388274400,1.0632744140625,-0.021947110071778297,0.05561425909399986,0.017433585599064827
1772797003398299400,1.07329931640625,-0.020411266013979912,0.05345257371664047,-0.004362790379673243
1772797003408325400,1.083325439453125,-0.01768685132265091,0.048348624259233475,-0.018387529999017715
1772797003418350300,1.093350341796875,-0.009560748003423214,0.047684431076049805,-0.02748701721429825
1772797003428376300,1.103376220703125,-0.011200989596545696,0.03833966702222824,-0.039022501558065414
1772797003438402300,1.11340234375,-0.014657772146165371,0.023060578852891922,-0.051473312079906464
1772797003448427500,1.123427490234375,-0.020193152129650116,0.024696025997400284,-0.06762298941612244
1772797003458453500,1.13345361328125,-0.019239474087953568,0.02900395542383194,-0.06611616909503937
1772797003468478500,1.143478515625,-0.013629525899887085,-0.00635057408362627,-0.04367903620004654
1772797003478504400,1.15350439453125,-0.005711948033422232,-0.03572604060173035,-0.02046985551714897
1772797003488530400,1.163530517578125,0.004397677723318338,-0.040039561688899994,-0.017724934965372086
1772797003498555400,1.173555419921875,0.003861849894747138,-0.03380350396037102,-0.020359599962830544
1772797003508581400,1.183581298828125,0.0060344566591084,-0.027405258268117905,-0.028271852061152458
1772797003518606300,1.1936064453125,-0.001050350721925497,-0.023437947034835815,-0.029573870822787285
1772797003528632300,1.20363232421875,-0.006819556467235088,-0.01967277005314827,-0.03387514129281044
1772797003538658300,1.213658203125,-0.015866314992308617,-0.011209511198103428,-0.037763357162475586
1772797003548683500,1.22368359375,-0.027348266914486885,-0.004142280668020248,-0.03831356763839722
1772797003558709500,1.23370947265625,-0.031855933368206024,-0.0007222492713481188,-0.04174211993813515
1772797003568735500,1.243735595703125,-0.03624535724520683,-0.004475175868719816,-0.047089479863643646
1772797003578760400,1.253760498046875,-0.03852768614888191,0.001088966615498066,-0.0584246926009655
1772797003588786400,1.263786376953125,-0.0359225794672966,0.00996208656579256,-0.06528765708208084
1772797003598812400,1.2738125,-0.034156106412410736,0.005270662251859903,-0.05797089263796806
1772797003608837400,1.28383740234375,-0.025894181802868843,-0.005080778617411852,-0.04207927733659744
1772797003618863400,1.29386328125,-0.021229121834039688,-0.018628278747200966,-0.028548020869493484
1772797003628888300,1.303888427734375,-0.01738724671304226,-0.0167307760566473,-0.017000287771224976
1772797003638914300,1.313914306640625,-0.02112685702741146,-0.00592606607824564,-0.0057441722601652145
1772797003648940500,1.3239404296875,-0.02562813088297844,-0.0035444011446088552,0.009644371457397938
1772797003658965200,1.33396533203125,-0.02189730852842331,-0.001967277145013213,0.0265439935028553
1772797003668991200,1.3439912109375,-0.014081464149057865,-0.011998605914413929,0.044489435851573944
1772797003679017500,1.354017578125,-0.009662481024861336,-0.025251293554902077,0.06304048746824265
1772797003689042400,1.36404248046875,-0.0033420007675886154,-0.02995789796113968,0.06664187461137772
1772797003699068700,1.374068603515625,0.0005320995696820319,-0.04003503546118736,0.055571116507053375
1772797003709094400,1.384094482421875,0.014360830187797546,-0.05065225809812546,0.027524834498763084
1772797003719119600,1.39411962890625,0.01612197794020176,-0.045331794768571854,-0.015741944313049316
1772797003729145600,1.4041455078125,0.012944826856255531,-0.016402674838900566,-0.06081994250416756
1772797003739170600,1.414170654296875,-0.0026644926983863115,-0.002030926523730159,-0.09159303456544876
1772797003749196500,1.424196533203125,-0.0157075896859169,0.005462143570184708,-0.09989596903324127
1772797003759222500,1.434222412109375,-0.03268976882100105,-0.004727643448859453,-0.09155388176441193
1772797003769247500,1.44424755859375,-0.045104093849658966,-0.008742624893784523,-0.06996257603168488
1772797003779273500,1.4542734375,-0.052550558000802994,-0.012229235842823982,-0.05541772022843361
1772797003789299500,1.464299560546875,-0.05197638273239136,-0.002576075727120042,-0.03688238561153412
1772797003799324400,1.474324462890625,-0.053113020956516266,0.006258694920688868,-0.015339541248977184
1772797003809350400,1.484350341796875,-0.053039781749248505,0.001540904981084168,0.006560697220265865
1772797003819376400,1.49437646484375,-0.05946625769138336,0.0041223070584237576,0.03118162229657173
1772797003829401600,1.504401611328125,-0.07109121978282928,0.0062762717716395855,0.05801429972052574
1772797003839427600,1.514427490234375,-0.078294537961483,0.009372462518513203,0.07672061026096344
1772797003849453600,1.52445361328125,-0.07554642111063004,0.010754110291600227,0.08233082294464111
1772797003859478500,1.534478515625,-0.07235142588615417,0.016597352921962738,0.07837922871112823
1772797003869504500,1.54450439453125,-0.0634990781545639,0.024162860587239265,0.06880170106887817
1772797003879529500,1.554529541015625,-0.05180114507675171,0.02827291749417782,0.06423012167215347
1772797003889555500,1.564555419921875,-0.045393314212560654,0.02815946564078331,0.07149628549814224
1772797003899581400,1.57458154296875,-0.039810530841350555,0.010576478205621243,0.08799643069505692
1772797003909606400,1.5846064453125,-0.036624059081077576,-0.0036184368655085564,0.10060330480337143
1772797003919632400,1.59463232421875,-0.027483822777867317,-0.014376009814441204,0.09974949806928635
1772797003929658400,1.604658447265625,-0.023746341466903687,-0.01660267822444439,0.08538307249546051
1772797003939683300,1.614683349609375,-0.021891450509428978,-0.010155431926250458,0.04951482266187668
1772797003949709300,1.624709228515625,-0.01864985004067421,0.009971141815185547,0.009275257587432861
1772797003959735300,1.6347353515625,-0.019459186121821404,0.02317243069410324,-0.01435284037142992
1772797003969760500,1.644760498046875,-0.022609971463680267,0.02316337637603283,-0.01715501770377159
1772797003979786500,1.654786376953125,-0.018747854977846146,0.002597114769741893,-0.002805640222504735
1772797003989812500,1.6648125,-0.009441172704100609,-0.01173149049282074,0.009443036280572414
1772797003999837400,1.67483740234375,-0.0003211772127542645,-0.01870843954384327,0.014573083259165287
1772797004009863400,1.684863525390625,0.010598582215607166,-0.014407169073820114,0.012732306495308876
1772797004019889700,1.6948896484375,0.015169098973274231,-0.0021787320729345083,0.0043896883726119995
1772797004029914600,1.70491455078125,0.014606639742851257,0.006130862981081009,0.00475534051656723
1772797004039940600,1.714940673828125,0.007020358927547932,0.006352970842272043,0.01534939557313919
1772797004049966600,1.724966552734375,-0.005666141398251057,-0.004185956437140703,0.030593063682317734
1772797004059991600,1.734991455078125,-0.01019857544451952,-0.011929097585380077,0.041357025504112244
1772797004070017500,1.745017578125,-0.010159959085285664,-0.01449984684586525,0.04849962517619133
1772797004080043500,1.75504345703125,-0.005095425993204117,-0.004864263813942671,0.04331471771001816
1772797004090068500,1.765068359375,-0.00006364954606397077,0.00805925764143467,0.033544376492500305
1772797004100094500,1.775094482421875,0.0036336169578135014,0.010889665223658085,0.026014557108283043
1772797004110120400,1.785120361328125,0.005933522712439299,0.01395975798368454,0.025019865483045578
1772797004120145700,1.795145751953125,0.006462426856160164,0.006617156323045492,0.029800772666931152
1772797004130171600,1.805171630859375,0.0046392264775931835,-0.006434463430196047,0.03298724442720413
1772797004140196600,1.815196533203125,-0.00501206936314702,0.0027537085115909576,0.02707049995660782
1772797004150222600,1.82522265625,-0.013481453992426395,0.012148275971412659,0.014750982634723186
1772797004160248600,1.83524853515625,-0.015680693089962006,0.010987936519086361,0.006127134896814823
1772797004170274600,1.845274658203125,-0.011232946999371052,0.00950855016708374,0.005838980432599783
1772797004180299500,1.855299560546875,-0.007496798411011696,0.0036341496743261814,0.008305068127810955
1772797004190325500,1.865325439453125,-0.005879993550479412,-0.011020160280168056,0.015623700805008411
1772797004200351500,1.8753515625,-0.009824400767683983,-0.00954130757600069,0.01327212993055582
1772797004210376400,1.88537646484375,-0.018145713955163956,0.004652009811252356,0.012396748177707195
1772797004220402400,1.89540234375,-0.027094202116131783,0.010676346719264984,0.018820293247699738
1772797004230427400,1.905427490234375,-0.021408353000879288,0.015781093388795853,0.02600150741636753
1772797004240453400,1.915453369140625,-0.011641209945082664,0.006409695837646723,0.04320845752954483
1772797004250479400,1.925479248046875,0.0004423510399647057,-0.006167614832520485,0.055989231914281845
1772797004260504600,1.935504638671875,0.009333847090601921,-0.016586434096097946,0.06460722535848618
1772797004270530600,1.945530517578125,0.014272146858274937,-0.01515897922217846,0.06103219464421272
1772797004280556500,1.955556640625,0.014918495900928974,-0.008323444053530693,0.03700622171163559
1772797004290581500,1.96558154296875,0.015535017475485802,-0.0075966669246554375,0.006566289812326431
1772797004300607500,1.975607421875,0.01116157416254282,-0.008885104209184647,-0.024890435859560966
1772797004310633500,1.985633544921875,0.005856025032699108,-0.013364541344344616,-0.04851027950644493
1772797004320658400,1.995658447265625,-0.0009177253232337534,-0.017898039892315865,-0.055019576102495193
1772797004330684400,2.005684326171875,-0.006963367108255625,-0.013265471905469894,-0.05173030495643616
1772797004340710700,2.015710693359375,-0.012689962051808834,-0.0078544607385993,-0.03957643732428551
1772797004350735400,2.0257353515625,-0.01660960353910923,-0.0032530513126403093,-0.01860217936336994
1772797004360761600,2.03576171875,-0.015573632903397083,-0.008959672413766384,-0.0002711098059080541
1772797004370787600,2.04578759765625,-0.015211709775030613,-0.01031735260039568,0.01624688133597374
1772797004380812500,2.0558125,-0.016232499852776527,0.000553404854144901,0.026874756440520287
1772797004390838500,2.065838623046875,-0.014875086024403572,0.005563343409448862,0.044980790466070175
1772797004400864500,2.075864501953125,-0.015790147706866264,0.008319715037941933,0.06510816514492035
1772797004410889700,2.0858896484375,-0.011787683703005314,0.004095675423741341,0.08429597318172455
1772797004420915700,2.095915771484375,-0.00501180300489068,0.0001613875647308305,0.0976107120513916
1772797004430941700,2.105941650390625,-0.0007238471880555153,-0.005398227367550135,0.09809700399637222
1772797004440966700,2.115966552734375,0.001365402713418007,0.0100198769941926,0.08892587572336197
1772797004450992600,2.12599267578125,-0.0002764361270237714,0.016576845198869705,0.06895749270915985
1772797004461018600,2.1360185546875,-0.0019401127938181162,0.021230453625321388,0.04201136529445648
1772797004471044600,2.146044677734375,0.0006908240029588342,0.02989957481622696,0.011860387399792671
1772797004481069600,2.156069580078125,0.005253884010016918,0.04294933006167412,-0.010106164030730724
1772797004491095600,2.166095458984375,0.0068179587833583355,0.04224412515759468,-0.014721155166625977
1772797004501121500,2.17612158203125,0.006644054315984249,0.038350850343704224,-0.006962568499147892
1772797004511146500,2.186146484375,0.015450594946742058,0.025134114548563957,-0.0038128476589918137
1772797004521172500,2.19617236328125,0.013550429604947567,0.01890258491039276,-0.0037822213489562273
1772797004531197400,2.206197509765625,0.010875284671783447,0.025047296658158302,-0.010546917095780373
1772797004541223400,2.216223388671875,0.005940447095781565,0.04409582167863846,-0.01703251339495182
1772797004551249400,2.22624951171875,0.003203782718628645,0.05036650225520134,-0.02323315106332302
1772797004561274600,2.236274658203125,0.0021489046048372984,0.04194292426109314,-0.017659155651926994
1772797004571300600,2.246300537109375,0.0012181298807263374,0.02611282654106617,0.0006870955694466829
1772797004581326600,2.25632666015625,-0.0018913770327344537,0.01293257623910904,0.025658758357167244
1772797004591352600,2.2663525390625,-0.003168895374983549,-0.002820287598297,0.05221287161111832
1772797004601377500,2.27637744140625,-0.005141764879226685,-0.025303225964307785,0.0613030381500721
1772797004611403500,2.286403564453125,-0.007750864140689373,-0.02797544188797474,0.05469546839594841
1772797004621429500,2.296429443359375,-0.009310411289334297,-0.01697312481701374,0.036309003829956055
1772797004631454500,2.306454345703125,-0.014958443120121956,-0.005105279851704836,0.013545636087656021
1772797004641480400,2.31648046875,-0.019291939213871956,0.006316485349088907,-0.0043321643024683
1772797004651506400,2.32650634765625,-0.0238235741853714,0.011452658101916313,-0.006851247977465391
1772797004661531400,2.336531494140625,-0.02245444245636463,0.005263205152004957,0.0007342335302382708
1772797004671557400,2.346557373046875,-0.020474381744861603,-0.010873686522245407,0.007290936075150967
1772797004681583600,2.35658349609375,-0.02015347220003605,-0.023927437141537666,0.014507836662232876
1772797004691608300,2.3666083984375,-0.019819777458906174,-0.032515332102775574,0.00911280419677496
1772797004701634600,2.376634521484375,-0.02321823686361313,-0.032331306487321854,-0.003602724289521575
1772797004711660500,2.38666064453125,-0.021399032324552536,-0.02335352636873722,-0.02226828783750534
1772797004721685500,2.396685546875,-0.022245651111006737,-0.020926054567098618,-0.035957202315330505
1772797004731711700,2.406711669921875,-0.018610436469316483,-0.018941201269626617,-0.04646017774939537
1772797004741737700,2.41673779296875,-0.0159470085054636,-0.01613715849816799,-0.04927700012922287
1772797004751762700,2.4267626953125,-0.004778776317834854,-0.010091249831020832,-0.045467883348464966
1772797004761788700,2.43678857421875,-0.00035206988104619086,-0.016585368663072586,-0.028500616550445557
1772797004771814700,2.446814697265625,-0.002016811864450574,-0.022234199568629265,-0.007337274961173534
1772797004781839600,2.456839599609375,-0.0046357642859220505,-0.02683081477880478,0.017431987449526787
1772797004791865600,2.466865478515625,-0.006174006499350071,-0.031988825649023056,0.04163399711251259
1772797004801891600,2.4768916015625,-0.00026844663079828024,-0.03489140421152115,0.054961252957582474
1772797004811916500,2.48691650390625,-0.0009278453071601689,-0.03917403519153595,0.055684033781290054
1772797004821942500,2.496942626953125,0.006433132104575634,-0.04152880236506462,0.049428801983594894
1772797004831968500,2.506968505859375,0.010861169546842575,-0.033422671258449554,0.039077095687389374
1772797004841993500,2.516993408203125,0.005850964691489935,-0.03145965561270714,0.02383129671216011
1772797004852019500,2.52701953125,-0.0044232443906366825,-0.025010811164975166,0.006327138282358646
1772797004862045400,2.53704541015625,-0.019694343209266663,-0.02827265113592148,-0.009973271749913692
1772797004872070700,2.547070556640625,-0.030125677585601807,-0.02436526119709015,-0.029998911544680595
1772797004882096600,2.5570966796875,-0.04292349889874458,-0.024162327870726585,-0.04412218555808067
1772797004892122600,2.56712255859375,-0.0488588847219944,-0.021763619035482407,-0.049795519560575485
1772797004902147600,2.577147705078125,-0.05284323915839195,-0.014079333283007145,-0.05095772445201874
1772797004912173600,2.587173583984375,-0.05573410168290138,-0.009895240887999535,-0.051774248480796814
1772797004922199600,2.597199462890625,-0.05373859405517578,-0.007784952409565449,-0.038060035556554794
1772797004932224500,2.607224609375,-0.05083495005965233,-0.005515406373888254,-0.024084031581878662
1772797004942250500,2.61725048828125,-0.041071537882089615,0.0011821772204712033,-0.009010006673634052
1772797004952276500,2.6272763671875,-0.03183116763830185,0.0063034361228346825,0.012463327497243881
1772797004962301400,2.637301513671875,-0.024885375052690506,-0.003114300547167659,0.036740437150001526
1772797004972327400,2.647327392578125,-0.01182337012141943,-0.010616159066557884,0.049550775438547134
1772797004982353400,2.657353515625,-0.005584915168583393,-0.010247577913105488,0.05691255256533623
1772797004992378400,2.66737841796875,0.006048304960131645,-0.002668221015483141,0.05404273048043251
1772797005002404400,2.677404296875,0.014483868144452572,0.0016197345685213804,0.037513285875320435
1772797005012430300,2.687430419921875,0.024579377844929695,0.0000774979853304103,0.02004561387002468
1772797005022456000,2.6974560546875,0.03015417419373989,-0.0023638217244297266,-0.0006458165589720011
1772797005032482300,2.707482421875,0.031244471669197083,0.00020426444825716317,-0.01558082364499569
1772797005042508300,2.71750830078125,0.03331641107797623,0.004759601317346096,-0.026374615728855133
1772797005052533500,2.727533447265625,0.03223889693617821,0.0027257453184574842,-0.030006900429725647
1772797005062559500,2.7375595703125,0.030970431864261627,-0.008830509148538113,-0.020917532965540886
1772797005072585500,2.74758544921875,0.03251240402460098,-0.026192454621195793,-0.019228288903832436
1772797005082610400,2.7576103515625,0.02568592131137848,-0.03544587641954422,-0.02118384838104248
1772797005092636400,2.767636474609375,0.019630959257483482,-0.029148031026124954,-0.03471217304468155
1772797005102662400,2.777662353515625,0.008199340663850307,-0.020565196871757507,-0.04153226315975189
1772797005112687400,2.787687255859375,-0.007737548090517521,-0.015453791245818138,-0.04314693808555603
1772797005122713300,2.79771337890625,-0.019844811409711838,-0.015912653878331184,-0.04002730920910835
1772797005132739300,2.8077392578125,-0.026523752138018608,-0.02081792987883091,-0.03135712444782257
1772797005142764300,2.817764404296875,-0.02912166714668274,-0.02154124528169632,-0.026863837614655495
1772797005152790300,2.827790283203125,-0.02394181862473488,-0.017467407509684563,-0.01810789667069912
1772797005162816300,2.837816162109375,-0.0205761156976223,-0.02033856138586998,-0.005375324282795191
1772797005172842200,2.84784228515625,-0.02118837647140026,-0.020351877436041832,0.006804642733186483
1772797005182867200,2.8578671875,-0.022287728264927864,-0.025260083377361298,0.014750183559954166
1772797005192893200,2.86789306640625,-0.02456073649227619,-0.01948368549346924,0.015331286005675793
1772797005202919200,2.877919189453125,-0.022899989038705826,-0.01107715256512165,0.013710752129554749
1772797005212944400,2.8879443359375,-0.01776115410029888,-0.008588427677750587,0.00782463327050209
1772797005222970400,2.897970458984375,-0.009719472378492355,-0.004168113227933645,0.008024370297789574
1772797005232996400,2.907996337890625,-0.0016413062112405896,-0.006825415417551994,0.007041131611913443
1772797005243021300,2.918021240234375,0.0018130800453945994,-0.006464823614805937,0.005078914575278759
1772797005253047300,2.92804736328125,0.011621502228081226,-0.00019361180602572858,0.0076187714003026485
1772797005263073300,2.9380732421875,0.02153591811656952,-0.00920095480978489,0.008677377365529537
1772797005273098200,2.94809814453125,0.02268027886748314,-0.008873386308550835,0.009785785339772701
1772797005283124200,2.958124267578125,0.023023560643196106,-0.006988134700804949,0.004126834217458963
1772797005293150200,2.968150146484375,0.018340924754738808,-0.002722017001360655,0.0012974920682609081
1772797005303175200,2.978175048828125,0.010873153805732727,-0.0029702235478907824,-0.0005060005933046341
1772797005313201200,2.988201171875,0.004718055948615074,-0.01035383716225624,-0.0010109359864145517
1772797005323227100,2.99822705078125,0.003364904085174203,-0.0022024342324584723,-0.007127950433641672
1772797005333252000,3.008252197265625,0.0015579492319375277,0.0020234698895365,-0.008145811036229134
1772797005343278000,3.018278076171875,0.0030514500103890896,0.0043955473229289055,-0.010604174807667732
1772797005353304300,3.02830419921875,0.003501524217426777,0.0018674085149541497,-0.003878627670928836
1772797005363329300,3.038329345703125,-0.0019036275334656239,0.0012745888670906425,0.013626595959067345
1772797005373355300,3.048355224609375,-0.001986984396353364,-0.006405168678611517,0.038543663918972015
1772797005383381200,3.05838134765625,-0.0018690064316615462,-0.022430473938584328,0.059902217239141464
1772797005393406500,3.068406494140625,-0.000026897927455138415,-0.037521008402109146,0.0580688938498497
1772797005403432400,3.078432373046875,0.0062214103527367115,-0.036544959992170334,0.04554005339741707
1772797005413458400,3.08845849609375,0.006110623013228178,-0.03200986608862877,0.022421153262257576
1772797005423483400,3.0984833984375,0.008765794336795807,-0.015056447125971317,0.005361209623515606
1772797005433509400,3.10850927734375,0.005440305452793837,-0.008562062866985798,-0.015474563464522362
1772797005443535400,3.118535400390625,0.003677292726933956,-0.0014101437991485,-0.034801121801137924
1772797005453560300,3.128560302734375,-0.0020298613235354424,-0.0031321437563747168,-0.04710466042160988
1772797005463586300,3.13858642578125,-0.0027449200861155987,-0.007355118170380592,-0.050265032798051834
1772797005473612300,3.1486123046875,-0.005819006823003292,-0.013005280867218971,-0.04845275357365608
1772797005483637200,3.15863720703125,-0.011593272909522057,-0.01689855568110943,-0.04026060551404953
1772797005493663200,3.168663330078125,-0.014928615652024746,-0.015060442499816418,-0.023499200120568275
1772797005503689200,3.178689208984375,-0.013569071888923645,-0.019027752801775932,-0.00045619948650710285
1772797005513714400,3.18871435546875,-0.0160085279494524,-0.023858727887272835,0.021146297454833984
1772797005523740400,3.198740478515625,-0.008892827667295933,-0.01985546387732029,0.03386688604950905
1772797005533766100,3.20876611328125,-0.00634950865060091,-0.012523781508207321,0.0416497103869915
1772797005543791400,3.218791259765625,-0.0017028251895681024,-0.005345230456441641,0.0435810312628746
1772797005553817300,3.2288173828125,0.0012958941515535116,-0.003381948219612241,0.05005091801285744
1772797005563843300,3.23884326171875,0.005092762876302004,-0.005705822724848986,0.059416722506284714
1772797005573868300,3.248868408203125,0.0065167550928890705,-0.012596751563251019,0.05964681878685951
1772797005583894300,3.258894287109375,0.006511695217341185,-0.013157080858945847,0.05590134859085083
1772797005593920300,3.268920166015625,0.008758604526519775,-0.012197011150419712,0.048540905117988586
1772797005603945200,3.2789453125,0.015969645231962204,-0.015732357278466225,0.04279087483882904
1772797005613971200,3.28897119140625,0.01570865511894226,-0.01816462352871895,0.032399218529462814
1772797005623997200,3.2989970703125,0.011173292063176632,-0.016040485352277756,0.015484949573874474
1772797005634022100,3.309022216796875,0.009912019595503807,-0.007742607966065407,-0.007808388210833073
1772797005644048100,3.319048095703125,0.006169745232909918,0.0010705908061936498,-0.029398901388049126
1772797005654074000,3.32907421875,0.006660033017396927,0.0010333064710721374,-0.03586425632238388
1772797005664099300,3.339099365234375,0.004886634182184935,-0.004144144710153341,-0.035163845866918564
1772797005674125300,3.349125244140625,-0.000996821210719645,-0.012344550341367722,-0.018094049766659737
1772797005684151300,3.3591513671875,-0.00612393906340003,-0.014361628331243992,-0.006353503558784723
1772797005694176300,3.36917626953125,-0.006899984087795019,-0.011868909932672977,0.005881591234356165
1772797005704202200,3.3792021484375,-0.01107741892337799,-0.003008306724950671,0.011840680614113808
1772797005714228500,3.389228515625,-0.011470501311123371,-0.003023220458999276,0.022063223645091057
1772797005724253200,3.399253173828125,-0.013406353071331978,-0.0011744539951905608,0.030598388984799385
1772797005734279400,3.409279541015625,-0.012259596027433872,-0.0026077672373503447,0.03364371508359909
1772797005744305400,3.419305419921875,-0.014699850231409073,-0.0010306433541700244,0.04147447273135185
1772797005754330400,3.429330322265625,-0.010456102900207043,-0.0059569585137069225,0.04309633746743202
1772797005764356400,3.4393564453125,-0.008924252353608608,-0.014191718772053719,0.040588174015283585
1772797005774382300,3.44938232421875,-0.006413158029317856,-0.008918127045035362,0.027166906744241714
1772797005784407300,3.4594072265625,-0.006010488141328096,-0.0027806065045297146,0.007273625582456589
1772797005794433300,3.469433349609375,-0.0062187472358345985,0.00019441076437942684,-0.013851899653673172
1772797005804459300,3.479459228515625,-0.011506187729537487,0.010945325717329979,-0.032226379960775375
1772797005814484500,3.489484375,-0.005997438915073872,0.015003716573119164,-0.04820720851421356
1772797005824510200,3.49951025390625,-0.004793956410139799,0.006455502472817898,-0.0604550875723362
1772797005834536200,3.5095361328125,-0.00515747768804431,0.008870190940797329,-0.0686725378036499
1772797005844561400,3.5195615234375,-0.011211642064154148,0.01606152392923832,-0.07781890034675598
1772797005854587400,3.52958740234375,-0.011306184343993664,0.01864905096590519,-0.07601673901081085
1772797005864613400,3.53961328125,-0.012470784597098827,0.003944674041122198,-0.06342983990907669
1772797005874638300,3.549638427734375,-0.014693192206323147,-0.021883461624383926,-0.04308728128671646
1772797005884664300,3.559664306640625,-0.017193101346492767,-0.03317419812083244,-0.02786172553896904
1772797005894690300,3.569690185546875,-0.02262861281633377,-0.026492860168218613,-0.01859419047832489
1772797005904715300,3.57971533203125,-0.018440259620547295,-0.015364575199782848,-0.014545919373631477
1772797005914741200,3.5897412109375,-0.018011491745710373,-0.00999351218342781,-0.016468189656734467
1772797005924767200,3.599767333984375,-0.011944809928536415,-0.007101851515471935,-0.01967596635222435
1772797005934792200,3.609792236328125,-0.009070992469787598,0.006917827297002077,-0.027331490069627762
1772797005944818200,3.619818115234375,-0.005546032916754484,0.010172209702432156,-0.02420174330472946
1772797005954844200,3.62984423828125,-0.00908297672867775,0.004994226153939962,-0.007103449665009975
1772797005964869400,3.639869384765625,-0.00555189186707139,0.001216265605762601,0.012958675622940063
1772797005974895400,3.649895263671875,0.0011747203534469008,-0.007315703667700291,0.024590564891695976
1772797005984921300,3.65992138671875,0.010628409683704376,-0.01974014937877655,0.024634240195155144
1772797005994946300,3.6699462890625,0.02346484549343586,-0.027630029246211052,0.014605307951569557
1772797006004972300,3.67997216796875,0.029224198311567307,-0.03660408407449722,0.004859469830989838
1772797006014998300,3.689998291015625,0.02671976201236248,-0.034089259803295135,-0.014781342819333076
1772797006025024000,3.70002392578125,0.01918674446642399,-0.01768631860613823,-0.0445842444896698
1772797006035050000,3.710050048828125,0.004393683280795813,-0.009102151729166508,-0.0771094337105751
1772797006045076000,3.720075927734375,-0.008384696207940578,-0.0003121224872302264,-0.10029730945825577
1772797006055101000,3.730100830078125,-0.018205102533102036,0.008701079525053501,-0.11097152531147003
1772797006065127000,3.740126953125,-0.02713627927005291,-0.0021140172611922026,-0.09410466253757477
1772797006075153000,3.75015283203125,-0.03049958497285843,-0.02412451058626175,-0.07072130590677261
1772797006085177900,3.760177734375,-0.030003173276782036,-0.03304370492696762,-0.045949116349220276
1772797006095203800,3.770203857421875,-0.029385318979620934,-0.02966788038611412,-0.027126958593726158
1772797006105229800,3.780229736328125,-0.02701244316995144,-0.011149589903652668,-0.009354352951049805
1772797006115254800,3.7902548828125,-0.024270718917250633,0.0006601976347155869,0.017109477892518044
1772797006125280800,3.80028076171875,-0.019931362941861153,0.001160072977654636,0.04043903574347496
1772797006135306800,3.810306640625,-0.010498180985450745,-0.004976116586476564,0.056476857513189316
1772797006145332000,3.82033203125,-0.0012144014472141862,-0.005327120888978243,0.06608421355485916
1772797006155358000,3.83035791015625,0.0022775353863835335,-0.010895790532231331,0.07539595663547516
1772797006165384000,3.840384033203125,0.008581770583987236,-0.012923521921038628,0.07325637340545654
1772797006175409000,3.850408935546875,0.01131177693605423,-0.007786816451698542,0.06233474612236023
1772797006185435000,3.860434814453125,0.011018563061952591,0.001136637176387012,0.04495682194828987
1772797006195460900,3.8704609375,0.0072808158583939075,0.00580835435539484,0.026816166937351227
1772797006205485800,3.88048583984375,0.015526228584349155,0.010041715577244759,0.01587989740073681
1772797006215511800,3.89051171875,0.01745142787694931,0.005863481666892767,0.00959963072091341
1772797006225538000,3.9005380859375,0.02093617431819439,-0.005587578285485506,0.012195679359138012
1772797006235562800,3.910562744140625,0.02136307954788208,-0.011139203794300556,0.013062804937362671
1772797006245589000,3.920589111328125,0.02027757465839386,-0.014415424317121506,0.013232448138296604
1772797006255615000,3.930614990234375,0.014098774641752243,-0.008500277064740658,0.01118980348110199
1772797006265640000,3.940639892578125,0.004291683901101351,-0.005407282151281834,0.005903961602598429
1772797006275666000,3.950666015625,-0.006533799227327108,0.0005970807396806777,-0.0029582392890006304
1772797006285692000,3.96069189453125,-0.01324043795466423,0.00863023940473795,-0.009350358508527279
1772797006295717000,3.970717041015625,-0.02058303914964199,0.00812184251844883,-0.0016104135429486632
1772797006305743000,3.9807431640625,-0.02100648172199726,-0.01233096793293953,0.022549783810973167
1772797006315768800,3.990768798828125,-0.024595623835921288,-0.011050254106521606,0.05169355496764183
1772797006325794000,4.0007939453125,-0.025347966700792313,0.004965996369719505,0.08405708521604538
1772797006335820000,4.010820068359375,-0.02569710835814476,-0.027039073407649994,0.11668320745229721
1772797006345846000,4.020845947265625,-0.019726566970348358,-0.045035120099782944,0.13374421000480652
1772797006355871000,4.03087109375,-0.021216604858636856,-0.03626692667603493,0.13358549773693085
1772797006365897000,4.04089697265625,-0.018157964572310448,-0.025374598801136017,0.11516173928976059
1772797006375923000,4.0509228515625,-0.012359997257590294,-0.01601465232670307,0.0845111533999443
1772797006385948000,4.060947998046875,-0.011402590200304985,-0.004299141000956297,0.05474473908543587
1772797006395974000,4.070973876953125,-0.013939251191914082,0.010881676338613033,0.02780606411397457
1772797006405999900,4.080999755859375,-0.01763385534286499,0.02148345485329628,-0.002558232517912984
1772797006416024800,4.09102490234375,-0.010522415861487389,0.02328960970044136,-0.029932066798210144
1772797006426050800,4.10105078125,-0.004942027851939201,0.019543340429663658,-0.04957234486937523
1772797006436076800,4.111076904296875,-0.001862614881247282,0.015916915610432625,-0.07232692837715149
1772797006446102000,4.12110205078125,0.004809935111552477,0.013946708291769028,-0.08741533011198044
1772797006456128000,4.1311279296875,0.012997557409107685,0.0068238177336752415,-0.09244976937770844
1772797006466153000,4.141153076171875,0.016625581309199333,0.002085787709802389,-0.09300850331783295
1772797006476179000,4.151178955078125,0.016647951677441597,-0.017963021993637085,-0.08745528012514114
1772797006486205000,4.161204833984375,0.01164254080504179,-0.03203090280294418,-0.07990894466638565
1772797006496230000,4.17122998046875,0.00546240946277976,-0.029259085655212402,-0.08393138647079468
1772797006506256000,4.181255859375,0.0019688750617206097,-0.013049222528934479,-0.09322874993085861
1772797006516281900,4.19128173828125,0.008085090667009354,-0.007734352257102728,-0.09575209021568298
1772797006526306800,4.201306884765625,0.01513128262013197,-0.010012419894337654,-0.08938154578208923
1772797006536332800,4.211332763671875,0.015355254523456097,-0.008244081400334835,-0.07138337194919586
1772797006546358800,4.22135888671875,0.017901768907904625,-0.009216668084263802,-0.04620557650923729
1772797006556383700,4.2313837890625,0.016040218994021416,-0.021945778280496597,-0.013962154276669025
1772797006566409700,4.24140966796875,0.009935987181961536,-0.023370569571852684,0.025251027196645737
1772797006576435700,4.251435791015625,0.008226504549384117,-0.03828746825456619,0.047580569982528687
1772797006586461000,4.2614609375,0.009735452011227608,-0.047033555805683136,0.04814382642507553
1772797006596487000,4.27148681640625,0.010734403505921364,-0.03627545014023781,0.036623790860176086
1772797006606513000,4.281512939453125,0.008694421499967575,-0.02323554828763008,0.02305605076253414
1772797006616537900,4.291537841796875,0.00857537891715765,-0.02965456433594227,0.008976184763014317
1772797006626563800,4.301563720703125,0.012777314521372318,-0.027962658554315567,-0.006147108506411314
1772797006636590000,4.311590087890625,0.008432366885244846,-0.022294120863080025,-0.031927574425935745
1772797006646614800,4.32161474609375,0.0038780951872467995,-0.012794092297554016,-0.04970896616578102
1772797006656641000,4.33164111328125,-0.004036286845803261,-0.0054972972720861435,-0.055208660662174225
1772797006666667000,4.3416669921875,-0.009034774266183376,-0.008884571492671967,-0.04508039355278015
1772797006676692000,4.35169189453125,-0.013604758307337761,-0.011243066750466824,-0.030525417998433113
1772797006686718000,4.361718017578125,-0.011832158081233501,-0.0024857944808900356,-0.011274226009845734
1772797006696744000,4.371743896484375,-0.012046542949974537,0.0011616708943620324,0.00782569870352745
1772797006706769000,4.381768798828125,-0.0028240159153938293,-0.007409446872770786,0.030659109354019165
1772797006716795000,4.391794921875,0.005147357936948538,-0.01575526036322117,0.047144610434770584
1772797006726820900,4.40182080078125,0.006524478085339069,-0.008053665049374104,0.05337880179286003
1772797006736846000,4.41184619140625,0.010934939607977867,0.00020160128769930452,0.04984185844659805
1772797006746872000,4.4218720703125,0.013409015722572803,0.004252269398421049,0.04382631182670593
1772797006756898000,4.43189794921875,0.0166143961250782,0.0008138620178215206,0.04043184593319893
1772797006766923000,4.441923095703125,0.023929568007588387,0.002264219569042325,0.029389047995209694
1772797006776949000,4.451948974609375,0.0300843995064497,-0.0013459615875035524,0.01696699857711792
1772797006786975000,4.46197509765625,0.035230424255132675,-0.010865963064134121,0.004547613672912121
1772797006797000000,4.472,0.03671939671039581,-0.017462080344557762,-0.0057620154693722725
1772797006807026000,4.48202587890625,0.036622460931539536,-0.01938355155289173,-0.02407657355070114
1772797006817051000,4.49205078125,0.033971548080444336,-0.017120663076639175,-0.03844352811574936
1772797006827076900,4.502076904296875,0.035041339695453644,-0.009214004501700401,-0.05126505345106125
1772797006837102800,4.512102783203125,0.027822576463222504,-0.008786567486822605,-0.059245746582746506
1772797006847127800,4.5221279296875,0.02305391989648342,-0.011520568281412125,-0.06602589040994644
1772797006857153800,4.53215380859375,0.02008742466568947,-0.004254932515323162,-0.06271211802959442
1772797006867179800,4.5421796875,0.01846848987042904,-0.004629106726497412,-0.05080219358205795
1772797006877205000,4.552205078125,0.01661785878241062,-0.01233229972422123,-0.04027258977293968
1772797006887231000,4.56223095703125,0.011883823201060295,-0.01744157448410988,-0.03413959592580795
1772797006897257000,4.572257080078125,0.005959089379757643,-0.009280583821237087,-0.03238164260983467
1772797006907282000,4.582281982421875,0.00018668759730644524,0.0002596582053229213,-0.03165779635310173
1772797006917308000,4.592307861328125,-0.0008958873804658651,0.00021598236344289035,-0.03230041638016701
1772797006927334000,4.602333984375,-0.0005704491049982607,-0.002725212834775448,-0.030822094529867172
1772797006937358800,4.61235888671875,0.0030131004750728607,-0.0014455638593062758,-0.03112010285258293
1772797006947384800,4.622384765625,0.005556419026106596,0.010190052911639214,-0.01998143084347248
1772797006957410800,4.632410888671875,0.0062757390551269054,0.013377591036260128,-0.001207743538543582
1772797006967435800,4.642435791015625,0.016271380707621574,-0.003608316881582141,0.022302109748125076
1772797006977461800,4.652461669921875,0.023665647953748703,-0.018995795398950577,0.0389695018529892
1772797006987487700,4.66248779296875,0.02895548567175865,-0.020122844725847244,0.042879022657871246
1772797006997512700,4.6725126953125,0.03093341551721096,-0.01486523263156414,0.03845657780766487
1772797007007538700,4.68253857421875,0.030241258442401886,-0.0049433596432209015,0.027126958593726158
1772797007017565000,4.69256494140625,0.024831579998135567,-0.000023435817638528533,0.01714329980313778
1772797007027589400,4.70258935546875,0.020977454259991646,0.0010463559301570058,0.006966562941670418
1772797007037615400,4.712615478515625,0.01992657035589218,0.0005752427969127893,0.001119060325436294
1772797007047641300,4.722641357421875,0.016287893056869507,-0.01067821029573679,0.0019744676537811756
1772797007057666300,4.732666259765625,0.008578041568398476,-0.023669909685850143,0.005513275973498821
1772797007067692300,4.7426923828125,0.005606486462056637,-0.020128704607486725,0.003973702434450388
1772797007077718300,4.75271826171875,-0.007296528667211533,-0.018371816724538803,-0.0029201561119407415
1772797007087743200,4.7627431640625,-0.016409600153565407,-0.01477868016809225,-0.0038069887086749077
1772797007097769200,4.772769287109375,-0.021322865039110184,-0.009878729470074177,-0.008917861618101597
1772797007107794200,4.782794189453125,-0.015860455110669136,-0.005022988189011812,-0.014174141921103
1772797007117820200,4.792820068359375,-0.011260909959673882,-0.0038400120101869106,-0.015986157581210136
1772797007127846100,4.80284619140625,-0.012467055581510067,0.003564108395949006,-0.013070262037217617
1772797007137871400,4.812871337890625,-0.01540745235979557,0.00694925244897604,-0.004060788080096245
1772797007147897300,4.8228974609375,-0.01776142045855522,0.012448414228856564,0.008917328901588917
1772797007157923300,4.83292333984375,-0.010270747356116772,0.010691526345908642,0.012411129660904408
1772797007167948300,4.8429482421875,0.0026085663121193647,0.0021968416403979063,0.017653029412031174
1772797007177974300,4.852974365234375,0.016625581309199333,-0.01624554954469204,0.020362796261906624
1772797007188000300,4.863000244140625,0.02701563760638237,-0.024768462404608727,0.01624475046992302
1772797007198025200,4.873025146484375,0.03074832446873188,-0.023143136873841286,0.004924451000988483
1772797007208051200,4.88305126953125,0.02979358099400997,-0.020904749631881714,-0.01270114816725254
1772797007218077200,4.8930771484375,0.026586070656776428,-0.017833858728408813,-0.03617265075445175
1772797007228102100,4.90310205078125,0.01619441621005535,0.001213336130604148,-0.05933070182800293
1772797007238128000,4.913128173828125,0.00780679052695632,0.01967197097837925,-0.08048392087221146
1772797007248154000,4.923154052734375,0.0024825986474752426,0.01612677238881588,-0.07576293498277664
1772797007258179000,4.933178955078125,-0.0041183121502399445,0.0038725025951862335,-0.052557483315467834
1772797007268205000,4.943205078125,-0.005788912996649742,-0.006937001831829548,-0.02221076376736164
1772797007278230300,4.953230224609375,-0.007948203943669796,-0.016814932227134705,0.003343865042552352
1772797007288256300,4.96325634765625,-0.00836711935698986,-0.011544536799192429,0.025649437680840492
1772797007298282500,4.973282470703125,-0.00977513287216425,-0.004849882796406746,0.04127340391278267
1772797007308307200,4.98330712890625,-0.009410279802978039,-0.0037859496660530567,0.05104214325547218
1772797007318333400,4.99333349609375,-0.009211874566972256,-0.005315669346600771,0.05471304804086685
1772797007328359400,5.003359375,-0.00948032084852457,-0.005860818549990654,0.055758602917194366
1772797007338384400,5.01338427734375,-0.00606508320197463,-0.0036069853231310844,0.05417535454034805
1772797007348410400,5.023410400390625,0.0009092031978070736,-0.0011022823164239526,0.04957101494073868
1772797007358436400,5.033436279296875,0.002011485630646348,-0.0037172401789575815,0.03579235076904297
1772797007368461300,5.04346142578125,0.006114617921411991,-0.00498197553679347,0.022842464968562126
1772797007378487300,5.0534873046875,0.012506471015512943,-0.009299758821725845,0.00820972677320242
1772797007388513300,5.06351318359375,0.011783156543970108,-0.012145878747105598,-0.012457734905183315
1772797007398538200,5.073538330078125,0.013161341659724712,-0.012863067910075188,-0.02869476191699505
1772797007408564200,5.083564208984375,0.011379154399037361,-0.0012141350889578462,-0.0485539548099041
1772797007418590200,5.093590087890625,0.00911227148026228,0.00012969593808520585,-0.06554199010133743
1772797007428615400,5.103615478515625,0.00950801745057106,0.0004189152386970818,-0.0742044523358345
1772797007438641400,5.113641357421875,0.010994061827659607,-0.010847854427993298,-0.07681861519813538
1772797007448666400,5.123666259765625,0.009247028268873692,-0.022246183827519417,-0.06675799190998077
1772797007458692400,5.1336923828125,0.008891229517757893,-0.01769457384943962,-0.050444263964891434
1772797007468718300,5.14371826171875,0.010866495780646801,-0.017170730978250504,-0.026707245036959648
1772797007478743300,5.153743408203125,0.007698399480432272,-0.020188625901937485,-0.005079979542642832
1772797007488769300,5.163769287109375,0.004363323096185923,-0.01864505745470524,0.007997739128768444
1772797007498795300,5.173795166015625,0.00020639497961383313,-0.010629475116729736,0.0207686610519886
1772797007508820200,5.1838203125,-0.002359827049076557,-0.011484615504741669,0.03099093958735466
1772797007518846200,5.19384619140625,-0.0030101709999144077,-0.014242053031921387,0.039437953382730484
1772797007528872200,5.2038720703125,-0.01019884180277586,-0.007162571884691715,0.04062226042151451
1772797007538897200,5.213897216796875,-0.010436927899718285,-0.010154899209737778,0.04115702211856842
1772797007548923100,5.223923095703125,-0.004505003336817026,-0.015745406970381737,0.03610553964972496
1772797007558949000,5.23394921875,-0.00005752427750849165,-0.018855180591344833,0.021762020885944366
1772797007568974300,5.243974365234375,0.00529622845351696,-0.009400691837072372,0.0034405377227813005
1772797007579000300,5.254000244140625,-0.00023089606838766485,0.0017089504981413484,-0.015668708831071854
1772797007589026300,5.2640263671875,0.001882854849100113,0.007170827593654394,-0.032470591366291046
1772797007599051300,5.27405126953125,0.0052413675002753735,0.004211789462715387,-0.037042174488306046
1772797007609077200,5.2840771484375,0.006708769127726555,-0.004779042676091194,-0.02695012465119362
1772797007619102200,5.294102294921875,0.0046634613536298275,-0.022363362833857536,-0.01600160263478756
1772797007629128200,5.304128173828125,0.005121524911373854,-0.02629418857395649,-0.012161058373749256
1772797007639154200,5.314154296875,0.006158027332276106,-0.030590932816267014,-0.017252489924430847
1772797007649179100,5.32417919921875,0.0023960459511727095,-0.025430524721741676,-0.029875872656702995
1772797007659205000,5.334205078125,-0.0032983249984681606,-0.014074007049202919,-0.034633610397577286
1772797007669231000,5.344231201171875,-0.01594780758023262,-0.007661381736397743,-0.03273584321141243
1772797007679256300,5.35425634765625,-0.02117878757417202,-0.0046751792542636395,-0.03055844083428383
1772797007689282300,5.3642822265625,-0.018725484609603882,-0.0006727144937030971,-0.030768033117055893
1772797007699308300,5.374308349609375,-0.013088637962937355,0.006878945045173168,-0.022340459749102592
1772797007709333200,5.384333251953125,-0.009467537514865398,-0.004326571244746447,-0.003941211849451065
1772797007719359200,5.394359130859375,-0.01193975005298853,-0.008627576753497124,0.010395648889243603
1772797007729385500,5.404385498046875,-0.021866416558623314,-0.0020040287636220455,0.024039288982748985
1772797007739410200,5.41441015625,-0.026273416355252266,0.0007257114048115909,0.03743978217244148
1772797007749436400,5.4244365234375,-0.021749503910541534,-0.01865411177277565,0.05140300467610359
1772797007759461000,5.434461181640625,-0.012680641375482082,-0.040588706731796265,0.0510149821639061
1772797007769487400,5.4444873046875,-0.00785792339593172,-0.04043610766530037,0.03810477629303932
1772797007779513300,5.454513427734375,-0.004914863966405392,-0.02636556141078472,0.015691878274083138
1772797007789538300,5.464538330078125,-0.010354369878768921,-0.013653494417667389,-0.010936270467936993
1772797007799564300,5.474564208984375,-0.01389717310667038,0.0029020465444773436,-0.03789891302585602
1772797007809590300,5.48459033203125,-0.01841655746102333,0.01546178013086319,-0.061046041548252106
1772797007819615500,5.494615478515625,-0.02455035038292408,0.01889166608452797,-0.07267872989177704
1772797007829641200,5.50464111328125,-0.021016335114836693,0.009725064970552921,-0.0668938159942627
1772797007839667200,5.514667236328125,-0.014079333283007145,-0.015027951449155807,-0.04898219183087349
1772797007849692400,5.5246923828125,-0.011839082464575768,-0.01780802570283413,-0.035420842468738556
1772797007859718400,5.534718505859375,-0.01031655352562666,-0.007666175253689289,-0.028236698359251022
1772797007869744400,5.544744384765625,-0.005534315016120672,-0.013666544109582901,-0.018219750374555588
1772797007879769300,5.554769287109375,-0.0004394215648062527,-0.018670890480279922,-0.003291134489700198
1772797007889795300,5.56479541015625,0.0024474449455738068,-0.022609438747167587,0.011797803454101086
1772797007899820300,5.5748203125,0.009249424561858177,-0.0285235196352005,0.01889565959572792
1772797007909846300,5.58484619140625,0.018441857770085335,-0.02329626865684986,0.013887319713830948
1772797007919872300,5.594872314453125,0.021223263815045357,-0.02496393956243992,0.009089102037250996
1772797007929897200,5.604897216796875,0.03646107017993927,-0.021624602377414703,0.013288907706737518
1772797007939923200,5.614923095703125,0.0443328432738781,-0.027814054861664772,0.011127752251923084
1772797007949949200,5.62494921875,0.04217967763543129,-0.04463804140686989,0.006721019744873047
1772797007959974400,5.634974365234375,0.0452662818133831,-0.04049709066748619,0.0037617150228470564
1772797007970000400,5.64500048828125,0.043955739587545395,-0.03149054944515228,-0.010786068625748158
1772797007980026400,5.6550263671875,0.04289473593235016,-0.02165922336280346,-0.02761831134557724
1772797007990051300,5.66505126953125,0.04661890119314194,-0.009265136905014515,-0.042999133467674255
1772797008000077300,5.675077392578125,0.04875582084059715,-0.016354205086827278,-0.05667340010404587
1772797008010103300,5.685103271484375,0.04754221811890602,-0.019960392266511917,-0.06564559042453766
1772797008020128300,5.695128173828125,0.043595679104328156,-0.01170166302472353,-0.06581895798444748
1772797008030153700,5.70515380859375,0.03662991523742676,-0.020127372816205025,-0.050881557166576385
1772797008040178700,5.7151787109375,0.037940725684165955,-0.02936907485127449,-0.037628866732120514
1772797008050204700,5.72520458984375,0.029081718996167183,-0.02412557601928711,-0.030797060579061508
1772797008060230700,5.735230712890625,0.015220764093101025,-0.009889381937682629,-0.03003646247088909
1772797008070255900,5.745255859375,0.007551925722509623,-0.000180029688635841,-0.028080103918910027
1772797008080281900,5.75528173828125,0.004305266309529543,0.004006459377706051,-0.026388464495539665
1772797008090307800,5.765307861328125,0.0005161206354387105,-0.003422162029892206,-0.026495257392525673
1772797008100332800,5.775332763671875,-0.000925182132050395,-0.00567013630643487,-0.02153458632528782
1772797008110358800,5.78535888671875,0.00028575718170031905,-0.013082246296107769,-0.02263154275715351
1772797008120383700,5.7953837890625,-0.004598746541887522,-0.006803844124078751,-0.024925589561462402
1772797008130409700,5.80540966796875,-0.007501059677451849,-0.008992962539196014,-0.018262892961502075
1772797008140435700,5.815435791015625,-0.008406800217926502,-0.01534619927406311,-0.017654893919825554
1772797008150460700,5.825460693359375,-0.007075486239045858,-0.01182203833013773,-0.014577611349523067
1772797008160486700,5.835486572265625,-0.0023433153983205557,-0.00885021686553955,-0.01853054016828537
1772797008170512600,5.8455126953125,-0.0020764668006449938,-0.0025989788118749857,-0.028009796515107155
1772797008180537600,5.85553759765625,-0.0028999161440879107,-0.0019046928500756621,-0.037399571388959885
1772797008190563600,5.8655634765625,-0.013168532401323318,0.0070517840795218945,-0.04296903684735298
1772797008200589600,5.875589599609375,-0.015020227991044521,0.001574194524437189,-0.035354528576135635
1772797008210614800,5.88561474609375,-0.01266732532531023,-0.003734284546226263,-0.029046298936009407
1772797008220640800,5.895640869140625,-0.013331251218914986,-0.0063785370439291,-0.021047228947281837
1772797008230666800,5.905666748046875,-0.015282283537089825,-0.01745169423520565,-0.010811901651322842
1772797008240691700,5.915691650390625,-0.01907728798687458,-0.0190178994089365,0.003658917034044862
1772797008250717700,5.9257177734375,-0.022829947993159294,-0.016079368069767952,0.011942679062485695
1772797008260742700,5.93574267578125,-0.022916501387953758,-0.010012154467403889,0.009769540280103683
1772797008270768600,5.9457685546875,-0.022711703553795815,0.004345213528722525,0.006859237793833017
1772797008280794600,5.955794677734375,-0.020987307652831078,0.013283581472933292,0.006554039195179939
1772797008290819600,5.965819580078125,-0.014725150540471077,0.008643821813166142,0.013130183331668377
1772797008300845600,5.975845458984375,-0.011035074479877949,0.011109642684459686,0.018916966393589973
1772797008310871600,5.98587158203125,-0.010188722051680088,0.009634784422814846,0.028299814090132713
1772797008320896500,5.995896484375,-0.006929811555892229,-0.0022413162514567375,0.03993409872055054
1772797008330922500,6.005922607421875,-0.0008239820599555969,-0.016459932550787926,0.04884317144751549
1772797008340947700,6.01594775390625,0.006372944451868534,-0.024383636191487312,0.04297329857945442
1772797008350973700,6.0259736328125,0.014511564746499062,-0.02761325240135193,0.024562867358326912
1772797008360999700,6.035999755859375,0.01733398251235485,-0.019542807713150978,-0.004189152270555496
1772797008371024600,6.046024658203125,0.017074856907129288,-0.004604871850460768,-0.02557620033621788
1772797008381050600,6.056050537109375,0.011547466740012169,-0.00316010694950819,-0.04363882541656494
1772797008391076900,6.066076904296875,0.00538304727524519,-0.0009161274065263569,-0.06556995213031769
1772797008401101600,6.0761015625,-0.006192115601152182,0.004412591457366943,-0.07687800377607346
1772797008411127800,6.0861279296875,-0.01200925838202238,-0.001326786819845438,-0.08057233691215515
1772797008421153800,6.09615380859375,-0.019699135795235634,-0.012029498815536499,-0.06679713726043701
1772797008431178800,6.1061787109375,-0.031735558062791824,-0.011779693886637688,-0.0529356524348259
1772797008441204700,6.116204833984375,-0.037521809339523315,-0.002567553659901023,-0.03465118631720543
1772797008451229700,6.126229736328125,-0.03587491065263748,0.0021797972731292248,-0.010441189631819725
1772797008461255700,6.136255615234375,-0.029032450169324875,0.0013145363191142678,0.018552113324403763
1772797008471281700,6.14628173828125,-0.02052631415426731,-0.0029166939202696085,0.04367131367325783
1772797008481307000,6.156306884765625,-0.008768191561102867,-0.009739446453750134,0.06309960782527924
1772797008491332900,6.166332763671875,-0.002037318190559745,-0.01701973006129265,0.07406304031610489
1772797008501358800,6.17635888671875,0.004261057823896408,-0.01284815464168787,0.07285130023956299
1772797008511383800,6.1863837890625,0.005620068870484829,-0.00443895673379302,0.058405254036188126
1772797008521409800,6.196409912109375,0.005616073962301016,0.0029435919132083654,0.03467089682817459
1772797008531435800,6.206435791015625,0.006222475785762072,0.008614260703325272,0.0062547000125050545
1772797008541460700,6.216460693359375,0.007318633142858744,0.012853747233748436,-0.012045477516949177
1772797008551486700,6.22648681640625,0.006295179948210716,0.009280317462980747,-0.019780095666646957
1772797008561511700,6.23651171875,0.0075426045805215836,-0.009841712191700935,-0.023065904155373573
1772797008571537700,6.24653759765625,0.008638761937618256,-0.01740029640495777,-0.02437351644039154
1772797008581563600,6.256563720703125,0.009815612807869911,-0.011473163962364197,-0.03344158083200455
1772797008591588600,6.266588623046875,0.01059112511575222,-0.0007379619055427611,-0.05013001337647438
1772797008601614600,6.276614501953125,0.007297594100236893,0.004589691758155823,-0.05505046993494034
1772797008611640600,6.286640625,0.009400425478816032,-0.0010655306978151202,-0.05139048770070076
1772797008621665800,6.296665771484375,0.0020730046089738607,-0.011664912104606628,-0.035059716552495956
1772797008631691800,6.30669189453125,-0.004750812891870737,-0.016397615894675255,-0.013543238863348961
1772797008641716700,6.316716796875,-0.011419634334743023,-0.018509767949581146,0.006156695540994406
1772797008651742700,6.32674267578125,-0.01925119198858738,-0.013282516039907932,0.01810470223426819
1772797008661768700,6.336768798828125,-0.026742132380604744,-0.006278668530285358,0.02353275567293167
1772797008671793700,6.346793701171875,-0.0247892364859581,0.0034884747583419085,0.03272838518023491
1772797008681819600,6.356819580078125,-0.026103772222995758,0.011424694210290909,0.034444261342287064
1772797008691845600,6.366845703125,-0.009968211874365807,0.012772253714501858,0.037332192063331604
1772797008701870600,6.37687060546875,-0.007227553054690361,0.007139934692531824,0.050036270171403885
1772797008711896600,6.386896484375,0.003346528159454465,-0.013550695963203907,0.06138559803366661
1772797008721922600,6.396922607421875,0.010408698581159115,-0.02781059220433235,0.058765310794115067
1772797008731947800,6.40694775390625,0.013555489480495453,-0.02648060955107212,0.050884753465652466
1772797008741973800,6.416973876953125,0.021506890654563904,-0.030594926327466965,0.03600407391786575
1772797008751998700,6.426998779296875,0.018160095438361168,-0.020772123709321022,0.009271528571844101
1772797008762024700,6.437024658203125,0.015280685387551785,-0.006875749211758375,-0.011936021968722343
1772797008772050700,6.44705078125,0.011176754720509052,0.0017986990278586745,-0.03452202305197716
1772797008782075600,6.45707568359375,0.014508368447422981,0.005379585549235344,-0.05576073378324509
1772797008792101600,6.4671015625,0.013221529312431812,0.014315023086965084,-0.07558450847864151
1772797008802127600,6.477127685546875,0.009439308196306229,0.011069429107010365,-0.08730454742908478
1772797008812152600,6.487152587890625,0.001505484920926392,-0.0033372072502970695,-0.09227107465267181
1772797008822178600,6.497178466796875,-0.011451059952378273,0.0008932242053560913,-0.08874398469924927
1772797008832203500,6.50720361328125,-0.02002670429646969,-0.004790760576725006,-0.08480090647935867
1772797008842229500,6.5172294921875,-0.020425112918019295,-0.012731241062283516,-0.06988134980201721
1772797008852255500,6.52725537109375,-0.018853316083550453,-0.013790114782750607,-0.06381679326295853
1772797008862280700,6.53728076171875,-0.018860239535570145,-0.008174306713044643,-0.05518655478954315
1772797008872306700,6.547306640625,-0.018485533073544502,0.011666775681078434,-0.04151468724012375
1772797008882333000,6.5573330078125,-0.021145764738321304,0.01739257201552391,-0.020350545644760132
1772797008892357600,6.567357666015625,-0.023727167397737503,0.013501959852874279,0.009224656969308853
1772797008902383900,6.5773837890625,-0.020357202738523483,0.002226136391982436,0.03875485435128212
1772797008912408600,6.58740869140625,-0.012616192921996117,-0.008128766901791096,0.052796367555856705
1772797008922434800,6.597434814453125,-0.002555569401010871,-0.014844459481537342,0.05199981853365898
1772797008932460800,6.607460693359375,0.004572381265461445,-0.018004832789301872,0.03314783424139023
1772797008942485800,6.61748583984375,0.011323494836688042,-0.01375149842351675,0.011677960865199566
1772797008952511700,6.62751171875,0.012344816699624062,-0.0021110877860337496,-0.009382316842675209
1772797008962537700,6.637537841796875,0.011638812720775604,0.010493920184671879,-0.028353344649076462
1772797008972562700,6.647562744140625,0.011159177869558334,0.01830204203724861,-0.04235944151878357
1772797008982588700,6.657588623046875,0.005396363325417042,0.0035241609439253807,-0.042560774832963943
1772797008992614000,6.66761376953125,0.0022176143247634172,-0.005782788153737783,-0.040159936994314194
1772797009002640000,6.677639892578125,-0.0018578211311250925,-0.00857431348413229,-0.03820677474141121
1772797009012665900,6.687665771484375,-0.002528937766328454,-0.009556220844388008,-0.044198621064424515
1772797009022690800,6.69769091796875,0.0005898901727050543,-0.004466920159757137,-0.049251701682806015
1772797009032716500,6.707716552734375,0.0009270463488064706,0.0033193640410900116,-0.04910283163189888
1772797009042742500,6.717742431640625,0.009593771770596504,-0.00019387812062632293,-0.04339247941970825
1772797009052767500,6.727767578125,0.018987806513905525,0.008852614089846611,-0.028426581993699074
1772797009062793500,6.73779345703125,0.02509363554418087,0.015107314102351665,-0.01116317231208086
1772797009072818400,6.747818359375,0.029343774542212486,-0.008578840643167496,0.005726595409214497
1772797009082844400,6.757844482421875,0.035535622388124466,-0.040237169712781906,0.014259363524615765
1772797009092870400,6.767870361328125,0.028778918087482452,-0.033663954585790634,0.009378587827086449
1772797009102895600,6.7778955078125,0.02387816831469536,-0.0140196792781353,-0.012830577790737152
1772797009112921600,6.787921630859375,0.023997478187084198,-0.0116188395768404,-0.03278591111302376
1772797009122947300,6.797947265625,0.02431679144501686,-0.011442271992564201,-0.04766419157385826
1772797009132972500,6.80797265625,0.021973742172122,-0.002650377806276083,-0.05883748456835747
1772797009142998500,6.81799853515625,0.024269653484225273,-0.012059859000146389,-0.06336352974176407
1772797009153023500,6.8280234375,0.022524483501911163,-0.018273545429110527,-0.0643603503704071
1772797009163049500,6.838049560546875,0.014077203348279,-0.011668107472360134,-0.06971783190965652
1772797009173075700,6.84807568359375,0.003165965899825096,0.0015166702214628458,-0.08000455796718597
1772797009183100400,6.858100341796875,-0.008786034770309925,-0.0026735474821180105,-0.07915420830249786
1772797009193126700,6.868126708984375,-0.010341321118175983,-0.023253124207258224,-0.0661688968539238
1772797009203152600,6.878152587890625,-0.014478009194135666,-0.024987375363707542,-0.058345064520835876
1772797009213177600,6.888177490234375,-0.014779478311538696,-0.0069489860907197,-0.05323499068617821
1772797009223203600,6.89820361328125,-0.012467321939766407,-0.0033816818613559008,-0.047695085406303406
1772797009233228800,6.908228759765625,-0.012506471015512943,-0.007637945935130119,-0.028064657002687454
1772797009243254800,6.9182548828125,-0.014932077378034592,-0.015298528596758842,0.0014919028617441654
1772797009253280500,6.928280517578125,-0.013887053355574608,-0.018026936799287796,0.028421521186828613
1772797009263305700,6.9383056640625,-0.021131383255124092,-0.019471701234579086,0.04607774689793587
1772797009273331700,6.948331787109375,-0.023481890559196472,-0.02171142026782036,0.045454300940036774
1772797009283357700,6.958357666015625,-0.0225636325776577,-0.008613195270299911,0.023980166763067245
1772797009293382700,6.968382568359375,-0.02334846556186676,0.014516624622046947,0.0008756473544053733
1772797009303408600,6.97840869140625,-0.022055234760046005,0.02135295979678631,-0.010694456286728382
1772797009313433600,6.98843359375,-0.019286079332232475,0.01908101700246334,-0.009046225808560848
1772797009323459600,6.99845947265625,-0.017077520489692688,0.015305452980101109,-0.0034887411165982485
1772797009333485600,7.008485595703125,-0.015239406377077103,-0.0015222628135234118,0.007922638207674026
1772797009343510500,7.018510498046875,-0.007820638827979565,-0.017978733405470848,0.01221325621008873
1772797009353536500,7.02853662109375,-0.0017038905061781406,-0.02172526903450489,0.008739695884287357
1772797009363562500,7.0385625,-0.004171309061348438,-0.015478292480111122,0.0012665993999689817
1772797009373587700,7.048587646484375,-0.0028221518732607365,-0.010058493353426456,-0.008628375828266144
1772797009383613700,7.05861376953125,-0.004972920753061771,-0.012094479985535145,-0.01912895403802395
1772797009393638700,7.068638671875,-0.015474829822778702,-0.011396464891731739,-0.023996146395802498
1772797009403664600,7.07866455078125,-0.025537850335240364,-0.006933539640158415,-0.02718954347074032
1772797009413690600,7.088690673828125,-0.022963372990489006,-0.007040865253657103,-0.040350884199142456
1772797009423715600,7.098715576171875,-0.016230102628469467,0.0029529130551964045,-0.04908285662531853
1772797009433741600,7.108741455078125,-0.011833489872515202,0.005643771030008793,-0.05439639464020729
1772797009443767600,7.118767578125,-0.00033875409280881286,-0.0022181468084454536,-0.04951136186718941
1772797009453792500,7.12879248046875,-0.0013488910626620054,-0.012195147573947906,-0.03594308719038963
1772797009463818500,7.138818603515625,-0.0028706213925033808,-0.023664848878979683,-0.021941252052783966
1772797009473843500,7.148843505859375,-0.006119677796959877,-0.00791491474956274,-0.007742075715214014
1772797009483869400,7.158869384765625,-0.00974583812057972,-0.005532717332243919,0.00782383419573307
1772797009493895400,7.1688955078125,0.0013406352372840047,-0.02677462249994278,0.016896158456802368
1772797009503920600,7.178920654296875,0.013222594745457172,-0.03713564947247505,0.01056023221462965
1772797009513946600,7.188946533203125,0.015557387843728065,-0.036309272050857544,-0.0041763694025576115
1772797009523971600,7.1989716796875,0.01896197348833084,-0.034631479531526566,-0.01552356593310833
1772797009533997600,7.20899755859375,0.014742461033165455,-0.023072030395269394,-0.030759243294596672
1772797009544023600,7.2190234375,0.006828877609223127,-0.006935404147952795,-0.054063502699136734
1772797009554048500,7.229048583984375,0.0020160130225121975,-0.006803577765822411,-0.07198764383792877
1772797009564074500,7.239074462890625,-0.0070730894804000854,-0.0011821772204712033,-0.080405093729496
1772797009574100500,7.2491005859375,-0.017308948561549187,0.004275705199688673,-0.07600501924753189
1772797009584125400,7.25912548828125,-0.02545715682208538,0.004471713677048683,-0.06529245525598526
1772797009594151400,7.2691513671875,-0.03032781183719635,0.006905310321599245,-0.04490062966942787
1772797009604176600,7.2791767578125,-0.03970400243997574,-0.003355050226673484,-0.014610634185373783
1772797009614202600,7.28920263671875,-0.03886670619249344,-0.00968405231833458,0.014239922165870667
1772797009624228400,7.299228271484375,-0.031207187101244926,-0.011642009019851685,0.03289802744984627
1772797009634253600,7.309253662109375,-0.02027544379234314,-0.009724000468850136,0.041482727974653244
1772797009644279600,7.319279541015625,-0.018382202833890915,-0.004708202555775642,0.04735499992966652
1772797009654305500,7.329305419921875,-0.019703663885593414,-0.0032258869614452124,0.057190850377082825
1772797009664330500,7.33933056640625,-0.016996294260025024,-0.004996090196073055,0.053885869681835175
1772797009674356500,7.3493564453125,-0.014422615058720112,-0.004013383761048317,0.036429114639759064
1772797009684381400,7.35938134765625,-0.012537096627056599,0.004896488040685654,0.008437160402536392
1772797009694407400,7.369407470703125,-0.011714712716639042,0.006140716839581728,-0.01293124444782734
1772797009704433700,7.37943359375,-0.012352540157735348,0.004692489746958017,-0.02822284959256649
1772797009714458400,7.389458251953125,-0.01401674933731556,0.003934554290026426,-0.027630561962723732
1772797009724484600,7.399484619140625,-0.015917712822556496,0.00532658863812685,-0.022283468395471573
1772797009734509600,7.409509521484375,-0.01762772910296917,-0.009819607250392437,-0.016285495832562447
1772797009744535800,7.419535888671875,-0.020434701815247536,-0.009883789345622063,-0.016412794589996338
1772797009754561500,7.4295615234375,-0.02112126350402832,0.004610730800777674,-0.02104882523417473
1772797009764586800,7.439586669921875,-0.017910024151206017,0.011964517645537853,-0.02624545246362686
1772797009774612700,7.44961279296875,-0.022066153585910797,0.008028632029891014,-0.023551931604743004
1772797009784638700,7.459638671875,-0.022287195548415184,0.009824400767683983,-0.009617740288376808
1772797009794663700,7.46966357421875,-0.029632460325956345,0.009584450162947178,0.00809174869209528
1772797009804689700,7.479689697265625,-0.029766950756311417,-0.008576709777116776,0.02418150193989277
1772797009814714600,7.489714599609375,-0.03067588619887829,-0.008892028592526913,0.03653750568628311
1772797009824740600,7.49974072265625,-0.03225886821746826,-0.010076336562633514,0.04116234928369522
1772797009834766600,7.5097666015625,-0.034440264105796814,-0.012045211158692837,0.0454857274889946
1772797009844791600,7.51979150390625,-0.039149533957242966,-0.01985333301126957,0.04993240535259247
1772797009854817500,7.529817626953125,-0.03747706860303879,-0.013204751536250114,0.04219965264201164
1772797009864843500,7.539843505859375,-0.039928507059812546,-0.004996090196073055,0.0291789248585701
1772797009874868700,7.54986865234375,-0.03839053213596344,0.00421418622136116,0.00842517614364624
1772797009884894700,7.559894775390625,-0.03403812646865845,0.004195810295641422,-0.005687446799129248
1772797009894919700,7.569919677734375,-0.02761032246053219,0.0031902005430310965,-0.0038219024427235126
1772797009904945700,7.579945556640625,-0.024999625980854034,-0.004352936986833811,0.006114884279668331
1772797009914971600,7.5899716796875,-0.01762267015874386,-0.009372728876769543,0.011173025704920292
1772797009924996600,7.59999658203125,-0.011174623854458332,-0.012360263615846634,0.005103948060423136
1772797009935022600,7.610022705078125,-0.007976433262228966,-0.016685768961906433,-0.0021603561472147703
1772797009945047600,7.620047607421875,-0.007608384825289249,-0.005908755585551262,-0.017944112420082092
1772797009955073500,7.630073486328125,-0.014652978628873825,-0.004688761197030544,-0.028713403269648552
1772797009965099500,7.640099609375,-0.024575117975473404,-0.004200603812932968,-0.03344504162669182
1772797009975124500,7.65012451171875,-0.03478514403104782,-0.003976898267865181,-0.02780473232269287
1772797009985150500,7.660150390625,-0.04536668211221695,-0.01461942307651043,-0.019083412364125252
1772797009995175700,7.67017578125,-0.04869856312870979,-0.015211976133286953,-0.01489639189094305
1772797010005201700,7.68020166015625,-0.04808070883154869,-0.02425234206020832,-0.013933924958109856
1772797010015227600,7.6902275390625,-0.04843224585056305,-0.013967214152216911,-0.0174437053501606
1772797010025252600,7.700252685546875,-0.052392102777957916,-0.0008689894457347691,-0.02605476975440979
1772797010035278600,7.710278564453125,-0.055412657558918,0.014425278641283512,-0.02251196652650833
1772797010045304600,7.7203046875,-0.06354488432407379,0.027607392519712448,-0.020065853372216225
1772797010055329500,7.73032958984375,-0.06758437305688858,0.025296835228800774,-0.0038980687968432903
1772797010065355500,7.74035546875,-0.06024230271577835,0.012839898467063904,0.016201339662075043
1772797010075380500,7.75038037109375,-0.04818803444504738,0.0003834952076431364,0.028144553303718567
1772797010085406500,7.760406494140625,-0.031154723837971687,-0.009694971144199371,0.028483573347330093
1772797010095432700,7.7704326171875,-0.019333483651280403,-0.011067298240959644,0.027309119701385498
1772797010105457700,7.780457763671875,-0.008377239108085632,-0.021017400547862053,0.0229969285428524
1772797010115483600,7.790483642578125,-0.0015571502735838294,-0.024347683414816856,0.013563745655119419
1772797010125509600,7.800509521484375,-0.0019230686593800783,-0.016656475141644478,-0.007662713527679443
1772797010135534800,7.810534912109375,-0.008332232013344765,-0.00902731716632843,-0.030905451625585556
1772797010145560800,7.820560791015625,-0.013642575591802597,-0.004930576309561729,-0.047080960124731064
1772797010155585800,7.830585693359375,-0.021139640361070633,-0.004785966593772173,-0.05650029331445694
1772797010165611800,7.84061181640625,-0.054417435079813004,0.00407410366460681,-0.034206438809633255
1772797010175637800,7.8506376953125,-0.028873726725578308,0.023794012144207954,-0.029764819890260696
1772797010185662700,7.860662841796875,0.006431001238524914,0.013471866957843304,-0.04667456075549126
1772797010195688700,7.870688720703125,0.010005230084061623,-0.004192614462226629,-0.037875741720199585
1772797010205713700,7.880713623046875,0.02117612585425377,-0.006301837973296642,-0.020024575293064117
1772797010215739600,7.89073974609375,0.022651782259345055,-0.003978230059146881,-0.0005613943794742227
1772797010225765600,7.900765625,0.01817207969725132,-0.009221727959811687,0.015166702680289745
1772797010235790800,7.910790771484375,0.018798189237713814,-0.015974173322319984,0.024937573820352554
1772797010245816800,7.92081689453125,0.01901816576719284,-0.013139770366251469,0.026572488248348236
1772797010255842600,7.930842529296875,0.02201715111732483,-0.007899468764662743,0.01854012906551361
1772797010265867800,7.94086767578125,0.01972976326942444,-0.011519769206643105,0.0070645674131810665
1772797010275893800,7.950893798828125,0.018098043277859688,-0.010778611525893211,-0.004202468320727348
1772797010285918700,7.960918701171875,0.011894210241734982,-0.011095261201262474,-0.020125508308410645
1772797010295944700,7.97094482421875,0.013934191316366196,-0.006284527480602264,-0.03307512775063515
1772797010305970700,7.980970703125,0.012513660825788975,-0.0024112260434776545,-0.0423157662153244
1772797010315995600,7.99099560546875,0.014140053652226925,-0.009891779161989689,-0.04586149752140045
1772797010326021600,8.001021728515624,0.016710536554455757,-0.019932694733142853,-0.040350351482629776
1772797010336046600,8.011046630859376,0.02087785117328167,-0.02052844502031803,-0.035763856023550034
1772797010346072600,8.021072509765625,0.023683758452534676,-0.020972659811377525,-0.02887558937072754
1772797010356098600,8.0310986328125,0.02328135445713997,-0.030548587441444397,-0.0244869664311409
1772797010366123800,8.041123779296875,0.02220570296049118,-0.024401213973760605,-0.02467498555779457
1772797010376149800,8.051149658203125,0.017554225400090218,-0.012749350629746914,-0.030122747644782066
1772797010386174700,8.0611748046875,0.020142551511526108,-0.013118465431034565,-0.03205620497465134
1772797010396200700,8.07120068359375,0.014277473092079163,-0.01179221086204052,-0.029689451679587364
1772797010406226700,8.081226806640625,0.012260394170880318,-0.017661551013588905,-0.02473757043480873
1772797010416251600,8.091251708984375,0.011408981867134571,-0.021107947453856468,-0.01501277182251215
1772797010426277600,8.101277587890625,0.015399462543427944,-0.02166534774005413,-0.009575395844876766
1772797010436303600,8.1113037109375,0.017120663076639175,-0.02051166631281376,-0.009970875456929207
1772797010446328600,8.12132861328125,0.018989402800798416,-0.024150609970092773,-0.011661715805530548
1772797010456354600,8.1313544921875,0.024711737409234047,-0.011089402250945568,-0.013346964493393898
1772797010466379500,8.141379638671875,0.026451846584677696,-0.008641424588859081,-0.0240803025662899
1772797010476405500,8.151405517578125,0.026859045028686523,-0.004765992984175682,-0.03025777079164982
1772797010486431500,8.161431396484375,0.028862008824944496,-0.0019236012594774365,-0.031986430287361145
1772797010496456700,8.171456787109374,0.024952754378318787,-0.008738896809518337,-0.026497919112443924
1772797010506482700,8.181482666015626,0.020863469690084457,-0.01600959338247776,-0.024455541744828224
1772797010516507600,8.191507568359375,0.01317998394370079,-0.013017531484365463,-0.025555694475769997
1772797010526533600,8.20153369140625,0.0007571366732008755,-0.004630704410374165,-0.026922693476080894
1772797010536559600,8.2115595703125,-0.009195894934237003,-0.010901116766035557,-0.024530643597245216
1772797010546584600,8.22158447265625,-0.017290839925408363,-0.017656225711107254,-0.022311963140964508
1772797010556610600,8.231610595703126,-0.016380570828914642,-0.016039419919252396,-0.023787887766957283
1772797010566636500,8.241636474609376,-0.014274809509515762,-0.015120895579457283,-0.031749941408634186
1772797010576661500,8.25166162109375,-0.01065264455974102,-0.014630075544118881,-0.0355561301112175
1772797010586687500,8.2616875,-0.010929347015917301,-0.0036333505995571613,-0.04080814868211746
1772797010596712700,8.271712646484374,-0.016092950478196144,0.008160990662872791,-0.04292403161525726
1772797010606738700,8.28173876953125,-0.024172447621822357,0.01167396642267704,-0.0301967840641737
1772797010616764700,8.2917646484375,-0.027841484174132347,0.009946374222636223,-0.008552475832402706
1772797010626789600,8.30178955078125,-0.017668209969997406,-0.010237457230687141,0.01870684139430523
1772797010636815600,8.311815673828125,-0.0011653993278741837,-0.03528022766113281,0.03588316589593887
1772797010646840600,8.321840576171875,0.010743191465735435,-0.043530166149139404,0.03301840275526047
1772797010656866600,8.331866455078124,0.019931629300117493,-0.03226259723305702,0.016187759116292
1772797010666892800,8.341892822265624,0.02058623544871807,-0.013518205843865871,-0.006994526367634535
1772797010676917500,8.35191748046875,0.014455637894570827,0.0007209177128970623,-0.03208177164196968
1772797010686943700,8.36194384765625,0.008701878599822521,0.009618272073566914,-0.04669293761253357
1772797010696968400,8.371968505859375,0.007174556143581867,0.015108644962310791,-0.05421397089958191
1772797010706994700,8.38199462890625,0.00911227148026228,0.001998702296987176,-0.049068477004766464
1772797010717020700,8.392020751953124,0.012824718840420246,-0.013374927453696728,-0.03232145309448242
1772797010727045600,8.402045654296876,0.010753312148153782,-0.01943175494670868,-0.020594490692019463
1772797010737071900,8.41207177734375,0.0007933556917123497,-0.011205516755580902,-0.01335921511054039
1772797010747097900,8.422097900390625,-0.0026471822056919336,0.004833104554563761,-0.011493670754134655
1772797010757122800,8.432122802734375,-0.006183859892189503,0.016627712175250053,-0.005037901923060417
1772797010767148800,8.442148681640624,-0.0007113303290680051,0.014342986978590488,0.0018884475575760007
1772797010777173800,8.452173828125,0.004832572303712368,-0.008009989745914936,0.019903933629393578
1772797010787199700,8.46219970703125,0.007836883887648582,-0.014672153629362583,0.033182188868522644
1772797010797225700,8.472225830078125,0.01124945841729641,-0.015518506057560444,0.03462082892656326
1772797010807250700,8.482250732421875,0.015860188752412796,-0.011082212440669537,0.026333868503570557
1772797010817276700,8.492276611328125,0.017114005982875824,-0.0026011094450950623,0.01447081845253706
1772797010827301600,8.502301513671876,0.01967676542699337,0.00008415588672505692,-0.003489273600280285
1772797010837327600,8.51232763671875,0.015086274594068527,0.005903961602598429,-0.00800519622862339
1772797010847353600,8.522353515625,0.01636139675974846,-0.00008974852971732616,-0.014375210739672184
1772797010857378800,8.53237890625,0.021078919991850853,-0.006661897525191307,-0.020838702097535133
1772797010867404800,8.54240478515625,0.020918332040309906,-0.004305532667785883,-0.024336231872439384
1772797010877429800,8.5524296875,0.025342907756567,-0.005496498197317123,-0.025244370102882385
1772797010887455700,8.562455810546876,0.025827335193753242,-0.011531487107276917,-0.032282572239637375
1772797010897481700,8.572481689453125,0.024401480332016945,-0.02251090109348297,-0.03832448646426201
1772797010907506700,8.582506591796875,0.018440525978803635,-0.025066204369068146,-0.035902608186006546
1772797010917532700,8.59253271484375,0.011431352235376835,-0.01617870293557644,-0.03039492294192314
1772797010927558700,8.60255859375,0.010122941806912422,-0.007714911364018917,-0.021503960713744164
1772797010937583600,8.61258349609375,0.00914263166487217,-0.006898652296513319,-0.01506976317614317
1772797010947609600,8.622609619140626,0.0088789789006114,-0.0025156219489872456,-0.00866379588842392
1772797010957634600,8.632634521484375,0.009532252326607704,0.0019374496769160032,-0.0022857910953462124
1772797010967660500,8.64266064453125,0.008156197145581245,0.004561196081340313,0.005528189707547426
1772797010977686500,8.6526865234375,0.005102883093059063,0.009152752347290516,0.009690177626907825
1772797010987711700,8.662711669921874,0.002510828198865056,0.008478173054754734,0.013993313536047935
1772797010997737700,8.67273779296875,0.0014674017438665032,0.003186205867677927,0.016402142122387886
1772797011007762700,8.6827626953125,0.003212837502360344,0.00003435477628954686,0.013088904321193695
1772797011017788700,8.69278857421875,0.01016981340944767,-0.007841144688427448,0.0032373385038226843
1772797011027815400,8.7028154296875,0.015419436618685722,-0.005691175349056721,-0.008066981099545956
1772797011037840400,8.71284033203125,0.012341088615357876,-0.003668770659714937,-0.017057547345757484
1772797011047866400,8.722866455078124,0.015322497114539146,-0.0038035267498344183,-0.022662701085209846
1772797011057891300,8.732891357421876,0.00980336219072342,-0.008053398691117764,-0.025682460516691208
1772797011067917300,8.742917236328125,0.011122426018118858,-0.010205499827861786,-0.02395566552877426
1772797011077943300,8.752943359375,0.011450793594121933,-0.015383750200271606,-0.026567429304122925
1772797011087968300,8.76296826171875,0.011984490789473057,-0.022730613127350807,-0.027905400842428207
1772797011097994200,8.772994140625,0.0049287122674286366,-0.01986078917980194,-0.025075525045394897
1772797011108019500,8.78301953125,-0.004447478801012039,-0.04379488527774811,-0.018258633092045784
1772797011118045400,8.79304541015625,-0.0065202172845602036,-0.031013043597340584,-0.02455434575676918
1772797011128071400,8.803071533203125,-0.006088519003242254,-0.006854177452623844,-0.029929403215646744
1772797011138096400,8.813096435546875,-0.0057649449445307255,-0.010960238985717297,-0.03194861114025116
1772797011148122400,8.823122314453125,0.0036991306114941835,-0.010134393349289894,-0.03160532936453819
1772797011158147300,8.833147216796876,-0.0018463695887476206,0.00012117382721044123,-0.03152623400092125
1772797011168173300,8.84317333984375,-0.009342901408672333,-0.0021281319204717875,-0.019930299371480942
1772797011178199300,8.85319921875,-0.004837632179260254,-0.01215812936425209,0.010008425451815128
1772797011188224300,8.863224365234375,-0.006231264211237431,-0.039203595370054245,0.034742798656225204
1772797011198250200,8.873250244140625,-0.003819771809503436,-0.059181563556194305,0.04946528747677803
1772797011208276500,8.8832763671875,-0.0014239922165870667,-0.0625547245144844,0.05004612356424332
1772797011218301200,8.89330126953125,-0.00004660531703848392,-0.05347733944654465,0.031627967953681946
1772797011228327400,8.903327392578126,-0.0033039175905287266,-0.036002740263938904,0.001794171635992825
1772797011238352400,8.913352294921875,-0.007596134208142757,-0.018426410853862762,-0.0335766039788723
1772797011248378600,8.923378662109375,-0.007561513222754002,-0.014067349024116993,-0.06950211524963379
1772797011258404600,8.933404541015625,-0.008461395278573036,-0.009305351413786411,-0.09453555941581726
1772797011268429600,8.9434296875,-0.005506884306669235,-0.011276356875896454,-0.09859608113765717
1772797011278455600,8.95345556640625,-0.002983273006975651,-0.013513677753508091,-0.09002815932035446
1772797011288480500,8.96348046875,-0.006405701395124197,-0.026977822184562683,-0.07130400836467743
1772797011298506500,8.973506591796875,-0.004637895151972771,-0.03445864096283913,-0.04872839152812958
1772797011308532500,8.983532470703125,-0.007071757689118385,0.008021441288292408,-0.03687599301338196
1772797011318557400,8.993557373046874,-0.007662979885935783,0.010777546092867851,-0.009796171449124813
1772797011328583400,9.00358349609375,-0.0024469124618917704,-0.013777331449091434,0.017910024151206017
1772797011338608400,9.0136083984375,0.0027545075863599777,-0.02400786429643631,0.03359417989850044
1772797011348634400,9.02363427734375,0.011206582188606262,-0.022878684103488922,0.03606292977929115
1772797011358660400,9.033660400390625,0.016944095492362976,-0.018744925037026405,0.028499018400907516
1772797011368685600,9.043685546875,0.02185096964240074,-0.00884915143251419,0.015519305132329464
1772797011378711600,9.053711669921874,0.017190171405673027,-0.0044261738657951355,-0.0007342335302382708
1772797011388736500,9.063736572265626,0.020015252754092216,-0.008324508555233479,-0.01534779742360115
1772797011398762500,9.073762451171875,0.020627513527870178,-0.0012860405258834362,-0.022130070254206657
1772797011408788500,9.08378857421875,0.017891915515065193,-0.0018359832465648651,-0.022733541205525398
1772797011418813400,9.0938134765625,0.0249056164175272,-0.007246461231261492,-0.015672435984015465
1772797011428839400,9.10383935546875,0.030101709067821503,-0.010765562765300274,-0.0116148442029953
1772797011438864400,9.113864501953126,0.033666349947452545,-0.015107846818864346,-0.011451326310634613
1772797011448890400,9.123890380859375,0.03376435488462448,-0.01119193434715271,-0.015964319929480553
1772797011458916400,9.133916259765625,0.03068654052913189,-0.0017619474092498422,-0.017768876627087593
1772797011468941600,9.143941650390625,0.02563399076461792,0.0041252365335822105,-0.02040061354637146
1772797011478967600,9.153967529296875,0.021744709461927414,0.003939347807317972,-0.015576296485960484
1772797011488992500,9.163992431640626,0.019709521904587746,0.0024224112275987864,-0.004801146686077118
1772797011499018500,9.1740185546875,0.01775263249874115,0.006024869158864021,0.010295780375599861
1772797011509044500,9.18404443359375,0.01750868558883667,0.005402222275733948,0.025251293554902077
1772797011519069400,9.1940693359375,0.0172016229480505,0.002032258315011859,0.04033437371253967
1772797011529095400,9.204095458984375,0.013012205250561237,-0.01344736572355032,0.05176546052098274
1772797011539120400,9.214120361328124,0.012597550638020039,-0.012901151552796364,0.04772358015179634
1772797011549146400,9.224146484375,0.00654578348621726,-0.0029941920656710863,0.03206312656402588
1772797011559172400,9.23417236328125,0.007657120935618877,0.014074539765715599,0.012945359572768211
1772797011569197300,9.244197265625,0.007352455053478479,0.017185645177960396,-0.00669358903542161
1772797011579223300,9.254223388671875,0.004456001333892345,0.00495081627741456,-0.009741044603288174
1772797011589248500,9.26424853515625,0.007137804292142391,-0.0014391721924766898,-0.007026217877864838
1772797011599274500,9.2742744140625,0.005841377656906843,-0.006667223758995533,-0.00812077708542347
1772797011609300500,9.284300537109376,0.006373210810124874,-0.01672997698187828,-0.011323494836688042
1772797011619325400,9.294325439453125,0.0065172878094017506,-0.0154354153200984,-0.021819012239575386
1772797011629351400,9.304351318359375,0.0015358449891209602,-0.01218476053327322,-0.036204077303409576
1772797011639377400,9.31437744140625,-0.005169461946934462,-0.00631914846599102,-0.04320605844259262
1772797011649402400,9.32440234375,-0.013254553079605103,-0.0038195056840777397,-0.03694603219628334
1772797011659428400,9.334428466796876,-0.021977204829454422,-0.0077471355907619,-0.02232048474252224
1772797011669453300,9.344453369140625,-0.018487930297851562,-0.012708071619272232,-0.0046722497791051865
1772797011679479300,9.354479248046875,-0.00917379092425108,-0.012923255562782288,0.0070280819199979305
1772797011689505300,9.36450537109375,0.0035292210523039103,-0.014793060719966888,0.019964653998613358
1772797011699530200,9.3745302734375,0.007054447196424007,-0.016570454463362694,0.0267178975045681
1772797011709556200,9.38455615234375,0.009064601734280586,-0.010487528517842293,0.027954136952757835
1772797011719581400,9.39458154296875,0.008809470571577549,-0.0010455570882186294,0.023377761244773865
1772797011729607400,9.404607421875,0.0031561122741550207,0.003100185887888074,0.020854681730270386
1772797011739633400,9.41463330078125,0.009973271749913692,-0.0017030915478244424,0.015735020861029625
1772797011749658400,9.424658447265625,0.017307350412011147,-0.014393053948879242,0.004101268015801907
1772797011759684400,9.434684326171874,0.02311543934047222,-0.022071747109293938,-0.009036105126142502
1772797011769709300,9.444709228515626,0.025012675672769547,-0.02329333871603012,-0.025621473789215088
1772797011779735300,9.4547353515625,0.021386515349149704,-0.015357118099927902,-0.041127730160951614
1772797011789761300,9.46476123046875,0.010790595784783363,-0.008863000199198723,-0.05276414379477501
1772797011799786200,9.4747861328125,0.0007978830835781991,-0.005081577692180872,-0.05722920224070549
1772797011809812200,9.484812255859374,-0.0073047843761742115,-0.009351956658065319,-0.05423687398433685
1772797011819837400,9.49483740234375,-0.011933624744415283,-0.010327205993235111,-0.039615850895643234
1772797011829863400,9.504863525390626,-0.016411198303103447,-0.014289457350969315,-0.02767397277057171
1772797011839889400,9.514889404296875,-0.021033113822340965,-0.014906245283782482,-0.01588495634496212
1772797011849914400,9.524914306640625,-0.02761085517704487,-0.011487012729048729,-0.0033036512322723866
1772797011859940400,9.5349404296875,-0.03015763685107231,0.0049409628845751286,0.0027598338201642036
1772797011869965300,9.54496533203125,-0.028487300500273705,0.011544270440936089,0.010834804736077785
1772797011879991300,9.5549912109375,-0.02400626614689827,0.018550781533122063,0.02262621559202671
1772797011890017500,9.565017578125,-0.018507104367017746,0.013824203051626682,0.03804458677768707
1772797011900042200,9.575042236328125,-0.012300342321395874,0.0049188584089279175,0.058456383645534515
1772797011910068500,9.585068359375,-0.0035979305393993855,-0.0075873457826673985,0.07624443620443344
1772797011920093200,9.59509326171875,0.0036490634083747864,-0.015022891573607922,0.07998458296060562
1772797011930119400,9.605119384765626,0.013438576832413673,-0.01865384541451931,0.06893352419137955
1772797011940145400,9.6151455078125,0.02021871879696846,-0.011553592048585415,0.043835896998643875
1772797011950170600,9.625170654296875,0.01974440924823284,0.003391801845282316,0.015354988165199757
1772797011960196600,9.635196533203125,0.016345683485269547,0.004987301770597696,-0.010920291766524315
1772797011970221600,9.6452216796875,0.010087521746754646,0.008138886652886868,-0.024021180346608162
1772797011980247600,9.65524755859375,0.0051622712053358555,-0.004560130648314953,-0.033309753984212875
1772797011990273500,9.6652734375,0.006967894732952118,-0.005015531089156866,-0.04154025390744209
1772797012000298500,9.675298583984375,0.01095651090145111,-0.007650462910532951,-0.04736645147204399
1772797012010324500,9.685324462890625,0.016711868345737457,-0.016764067113399506,-0.04894410818815231
1772797012020349400,9.695349365234375,0.01582237333059311,-0.014141651801764965,-0.04697975888848305
1772797012030374700,9.705374755859374,0.004013117402791977,-0.009185508824884892,-0.041371408849954605
1772797012040400600,9.715400634765626,-0.003754790872335434,-0.003067695302888751,-0.025349298492074013
1772797012050425900,9.72542578125,-0.014282799325883389,-0.0060264673084020615,-0.0026136261876672506
1772797012060451800,9.735451904296875,-0.01792786829173565,-0.007742342073470354,0.016634637489914894
1772797012070476800,9.745476806640625,-0.014601047150790691,-0.01164413895457983,0.03086017817258835
1772797012080502800,9.755502685546874,-0.00944836251437664,-0.009986055083572865,0.0363585390150547
1772797012090528800,9.76552880859375,-0.004671450704336166,-0.011108044534921646,0.03472975268959999
1772797012100553700,9.7755537109375,-0.004108192399144173,-0.008841162547469139,0.029277993366122246
1772797012110579700,9.785579833984375,-0.005003546830266714,-0.011954663321375847,0.0313616506755352
1772797012120604700,9.795604736328125,-0.006662430241703987,-0.006923419889062643,0.024176975712180138
1772797012130630700,9.805630615234374,-0.0079761678352952,0.0013643373968079686,0.016412261873483658
1772797012140656600,9.81565673828125,-0.0035603800788521767,0.005248557776212692,0.0013097425689920783
1772797012150681900,9.825681884765626,0.007325290702283382,0.0023150858469307423,-0.010893660597503185
1772797012160707800,9.835707763671875,0.013332583010196686,-0.0034296188969165087,-0.019936690106987953
1772797012170732800,9.84573291015625,0.02057105489075184,-0.009759685955941677,-0.023803599178791046
1772797012180758800,9.8557587890625,0.022222481667995453,-0.006658168975263834,-0.02912086807191372
1772797012190784800,9.86578466796875,0.01992390677332878,-0.008641424588859081,-0.027832962572574615
1772797012200809700,9.875809814453126,0.01152562815696001,-0.017496434971690178,-0.022238992154598236
1772797012210835700,9.885835693359375,0.005428054835647345,-0.02129410393536091,-0.020502345636487007
1772797012220860700,9.895860595703125,-0.0033574472181499004,-0.01435177493840456,-0.023317307233810425
1772797012230886700,9.90588671875,-0.003985154442489147,-0.0008500810363329947,-0.027246268466114998
1772797012240912600,9.91591259765625,-0.0007299724384211004,-0.0001483380765421316,-0.030587203800678253
1772797012250937600,9.9259375,0.0023134879302233458,0.0073255570605397224,-0.027126958593726158
1772797012260963600,9.935963623046876,0.0004868258547503501,0.016599217429757118,-0.018703913316130638
1772797012270988800,9.94598876953125,-0.00509835546836257,0.021753499284386635,-0.004887965973466635
1772797012281014800,9.956014892578125,-0.010076869279146194,0.01576165296137333,0.020121779292821884
1772797012291041000,9.966041015625,-0.00686136819422245,-0.0005749764968641102,0.041912827640771866
1772797012301065700,9.976065673828124,-0.0008993495139293373,-0.013713682070374489,0.05753040313720703
1772797012311091700,9.986091796875,0.0018764632986858487,-0.021833127364516258,0.058765579015016556
1772797012321116700,9.99611669921875,0.007226221263408661,-0.023966852575540543,0.047506265342235565
1772797012331142700,10.006142578125,0.010084858164191246,-0.021638715639710426,0.026556244120001793
1772797012341167600,10.016167724609375,0.0024626250378787518,-0.011200190521776676,0.00018322547839488834
1772797012351193600,10.026193603515624,-0.008548480458557606,-0.004428304266184568,-0.030405841767787933
1772797012361219800,10.0362197265625,-0.022997194901108742,0.00014194648247212172,-0.054844871163368225
1772797012371244500,10.04624462890625,-0.035167574882507324,0.010002832859754562,-0.07106352597475052
1772797012381270800,10.056270751953125,-0.03964301571249962,0.018582738935947418,-0.07791423797607422
1772797012391295700,10.066295654296875,-0.04278821125626564,0.018938004970550537,-0.06503785401582718
1772797012401322000,10.076322021484375,-0.0409141443669796,0.013138438574969769,-0.03154860436916351
1772797012411348000,10.086347900390624,-0.033589918166399,-0.004090615548193455,0.010041715577244759
1772797012421373000,10.096373046875,-0.025893649086356163,-0.020923124626278877,0.04581009969115257
1772797012431399000,10.10639892578125,-0.016037022694945335,-0.02400333620607853,0.06723762303590775
1772797012441424000,10.116423828125,-0.00974716991186142,-0.01050350721925497,0.0719495564699173
1772797012451449900,10.126449951171875,-0.007670170161873102,0.006389722228050232,0.07009866088628769
1772797012461475800,10.136475830078124,-0.0017158746486529708,-0.000051132694352418184,0.06625358760356903
1772797012471500800,10.146500732421876,0.007850732654333115,-0.0021819279063493013,0.05865452438592911
1772797012481526800,10.15652685546875,0.016979515552520752,-0.00267674308270216,0.046549923717975616
1772797012491552000,10.166552001953125,0.020199012011289597,-0.010460630059242249,0.03641180321574211
1772797012501577700,10.17657763671875,0.018515361472964287,-0.014647386036813259,0.01870737411081791
1772797012511603700,10.186603759765624,0.0158319603651762,-0.011228153482079506,-0.0010932276491075754
1772797012521629000,10.19662890625,0.012123508378863335,-0.005073321983218193,-0.02299666218459606
1772797012531655000,10.206655029296876,0.00583605095744133,0.004581169690936804,-0.04471074417233467
1772797012541679900,10.216679931640625,0.0034645062405616045,0.004537760280072689,-0.05666540935635567
1772797012551705900,10.226705810546875,0.0006570018595084548,-0.00544430036097765,-0.0624665729701519
1772797012561731800,10.23673193359375,-0.0019323896849527955,-0.005356948357075453,-0.0593474805355072
1772797012571756800,10.2467568359375,-0.004436826333403587,-0.005997172556817532,-0.051248274743556976
1772797012581782800,10.25678271484375,-0.004008057527244091,-0.010908573865890503,-0.0433911494910717
1772797012591807700,10.266807861328125,-0.010072873905301094,-0.014419686049222946,-0.029919283464550972
1772797012601833700,10.276833740234375,-0.018159030005335808,-0.0014642059104517102,-0.02039129100739956
1772797012611859700,10.286859619140625,-0.017950238659977913,0.010727745480835438,-0.0037926076911389828
1772797012621885000,10.296885009765624,-0.02299399860203266,0.012740296311676502,0.014394385740160942
1772797012631911000,10.306910888671876,-0.017549166455864906,0.0030357372015714645,0.03604135662317276
1772797012641936000,10.316935791015625,-0.011956527829170227,-0.001067927572876215,0.05186240002512932
1772797012651961900,10.3269619140625,-0.0027254789602011442,-0.006193181034177542,0.061828479170799255
1772797012661987800,10.33698779296875,-0.002725212834775448,-0.008735700510442257,0.06331239640712738
1772797012672012800,10.3470126953125,0.00443922309204936,-0.005878661759197712,0.0515713170170784
1772797012682038800,10.357038818359374,0.008652610704302788,0.0013262542197480798,0.030105970799922943
1772797012692063700,10.367063720703126,0.0033952640369534492,0.008412126451730728,0.006046174559742212
1772797012702089700,10.37708984375,-0.0002950782363768667,0.013406353071331978,-0.01853480190038681
1772797012712115700,10.38711572265625,-0.0028064390644431114,0.011664379388093948,-0.03519020974636078
1772797012722140700,10.397140625,-0.0011225224006921053,-0.0005262406193651259,-0.04127633199095726
1772797012732166700,10.407166748046874,-0.003576092654839158,-0.009910421445965767,-0.042640671133995056
1772797012742191900,10.41719189453125,-0.0012293151812627912,-0.019767045974731445,-0.038959383964538574
1772797012752217900,10.4272177734375,0.0004828310920856893,-0.023497335612773895,-0.04276077821850777
1772797012762242800,10.437242919921875,-0.0005094627267681062,-0.02159237675368786,-0.04596029967069626
1772797012772268800,10.447268798828125,-0.0034610440488904715,-0.01461862400174141,-0.04933079704642296
1772797012782294800,10.457294677734374,-0.013116334564983845,-0.020325245335698128,-0.04779708385467529
1772797012792319700,10.46731982421875,-0.021583588793873787,-0.020784907042980194,-0.04195677116513252
1772797012802345700,10.477345703125,-0.022667229175567627,-0.013997574336826801,-0.037759363651275635
1772797012812370700,10.48737060546875,-0.025653164833784103,-0.004283694550395012,-0.03440457955002785
1772797012822396700,10.497396728515625,-0.02003922127187252,-0.01914013922214508,-0.036614734679460526
1772797012832422700,10.507422607421875,-0.012971991673111916,0.015171762555837631,-0.029513416811823845
1772797012842448000,10.51744775390625,-0.013097425922751427,0.02099982462823391,-0.016438094899058342
1772797012852473900,10.527473876953126,-0.010932009667158127,0.012493954040110111,0.005624596029520035
1772797012862498800,10.537498779296875,-0.008980978280305862,0.004081560764461756,0.029205288738012314
1772797012872524800,10.54752490234375,-0.0037611823063343763,-0.012225773185491562,0.0554073341190815
1772797012882550800,10.55755078125,0.008256864733994007,-0.024271517992019653,0.057852912694215775
1772797012892575700,10.56757568359375,0.009303753264248371,-0.016981912776827812,0.03741741180419922
1772797012902601700,10.577601806640626,0.005818740464746952,-0.009358881041407585,0.01182177197188139
1772797012912626700,10.587626708984375,0.002862365450710058,-0.0013962953817099333,-0.015235678292810917
1772797012922652700,10.597652587890625,-0.0033366745337843895,0.010987936519086361,-0.03723019361495972
1772797012932678700,10.6076787109375,-0.004855741746723652,0.003051982494071126,-0.05427362397313118
1772797012942703600,10.61770361328125,-0.007637945935130119,-0.0007443535141646862,-0.07089228183031082
1772797012952729600,10.6277294921875,-0.008407865650951862,-0.001977929612621665,-0.08378571271896362
1772797012962754800,10.6377548828125,-0.015488944947719574,-0.0022767363116145134,-0.08155451714992523
1772797012972780800,10.64778076171875,-0.025591380894184113,-0.0023552996572107077,-0.0596284419298172
1772797012982806800,10.657806884765625,-0.03133954852819443,-0.004588626325130463,-0.0353955402970314
1772797012992831700,10.667831787109375,-0.0360562726855278,-0.004523112904280424,-0.006259227637201548
1772797013002857700,10.677857666015624,-0.028802087530493736,0.0017547567840665579,0.02256389893591404
1772797013012882700,10.687882568359376,-0.01721493899822235,-0.006717291194945574,0.038966309279203415
1772797013022908700,10.69790869140625,-0.003826696192845702,-0.007077882997691631,0.06347031891345978
1772797013032933600,10.70793359375,-0.00381391285918653,-0.010991930961608887,0.07873182743787766
1772797013042959600,10.717959716796875,-0.008314388804137707,-0.02106107585132122,0.07609236985445023
1772797013052985600,10.727985595703124,-0.009522665292024612,-0.005175320897251368,0.05601240321993828
1772797013063010800,10.7380107421875,-0.012198875658214092,0.00965875294059515,0.03364051878452301
1772797013073036500,10.74803662109375,-0.006342051550745964,0.01170459296554327,0.014026070013642311
1772797013083061800,10.758061767578125,0.0013829795643687248,0.004293814767152071,0.00025220136740244925
1772797013093087700,10.768087646484375,0.009022790007293224,-0.011027084663510323,-0.013348296284675598
1772797013103114000,10.778114013671875,0.012496083974838257,-0.014658571220934391,-0.03453826904296875
1772797013113138700,10.788138671875,0.01980246603488922,-0.007683219853788614,-0.05060991272330284
1772797013123165000,10.7981650390625,0.01648549921810627,0.005182777531445026,-0.059792760759592056
1772797013133189600,10.808189697265625,0.018738001585006714,-0.009652627632021904,-0.06393663585186005
1772797013143215900,10.8182158203125,0.014289723709225655,-0.0019382486352697015,-0.05299583822488785
1772797013153241900,10.828241943359375,0.006603574380278587,0.005119128152728081,-0.027107784524559975
1772797013163266800,10.838266845703124,0.004988100845366716,-0.020258134230971336,-0.004189951345324516
1772797013173292800,10.848292724609376,-0.004220045171678066,-0.03471403941512108,0.020316990092396736
1772797013183317800,10.85831787109375,-0.004816859494894743,-0.041482727974653244,0.024863803759217262
1772797013193344000,10.868343994140625,0.007318100426346064,-0.11578278988599777,0.07425212860107422
1772797013203368700,10.87836865234375,-0.017104951664805412,-0.14447063207626343,0.255160391330719
1772797013213395000,10.88839501953125,-0.0041822283528745174,-0.0917070135474205,0.3909432590007782
1772797013223421000,10.8984208984375,0.0162426196038723,0.09191873669624329,0.4171479642391205
1772797013233446000,10.90844580078125,0.006691724993288517,0.11274705082178116,0.40377277135849
1772797013243472000,10.918471923828125,-0.0052179316990077496,0.025364479050040245,0.2998160123825073
1772797013253496800,10.928496826171875,0.004097007215023041,-0.011504589579999447,0.12429585307836533
1772797013263522800,10.938522705078125,0.018849320709705353,0.015549398958683014,-0.014869759790599346
1772797013273548800,10.948548828125,0.018679944798350334,0.0826120525598526,-0.07941519469022751
1772797013283573800,10.95857373046875,0.001939313835464418,0.14205247163772583,-0.14346635341644287
1772797013293599700,10.968599853515625,-0.002492984989657998,0.1540830433368683,-0.1791263371706009
1772797013303625000,10.978625,0.005275189410895109,0.10081955790519714,-0.1707344502210617
1772797013313651000,10.98865087890625,0.009166067466139793,0.02376445196568966,-0.1360851377248764
