time,seconds_elapsed,z,y,x
1772791153952286200,0.0762861328125,-0.48827439546585083,-0.20263028144836426,-0.3100297749042511
1772791153962352000,0.08635205078125,-0.5125302076339722,-0.17747874557971954,-0.33195751905441284
1772791153972418000,0.09641796875,-0.5209596753120422,-0.1890334039926529,-0.38819655776023865
1772791153982483200,0.106483154296875,-0.5396959781646729,-0.22394171357154846,-0.4593141973018646
1772791153992549000,0.116549072265625,-0.5778300762176514,-0.22348497807979584,-0.5145361423492432
1772791154002614000,0.126614013671875,-0.6406829953193665,-0.3745189905166626,-0.5399765372276306
1772791154012680000,0.136679931640625,-0.6630774736404419,-0.45217597484588623,-0.5623676180839539
1772791154022746000,0.14674609375,-0.6562952399253845,-0.48005548119544983,-0.5903202295303345
1772791154032811300,0.156811279296875,-0.6521281599998474,-0.571755051612854,-0.6411067247390747
1772791154042877200,0.166877197265625,-0.6968847513198853,-0.7541080713272095,-0.7657639980316162
1772791154052942000,0.176942138671875,-0.8138712644577026,-0.7060990333557129,-0.8574020266532898
1772791154063008000,0.187008056640625,-0.9095878601074219,-0.5881273150444031,-0.9549953937530518
1772791154073073200,0.1970732421875,-0.9518567323684692,-0.5582037568092346,-1.0741411447525024
1772791154083139000,0.20713916015625,-1.00462806224823,-0.6084931492805481,-1.153469443321228
1772791154093205200,0.217205322265625,-1.1600271463394165,-0.5717985033988953,-1.236638069152832
1772791154103270100,0.227270263671875,-1.2639288902282715,-0.4768766760826111,-1.2278355360031128
1772791154113336000,0.237336181640625,-1.3238774538040161,-0.3393515646457672,-1.249292016029358
1772791154123401200,0.247401123046875,-1.3343883752822876,-0.3062968850135803,-1.3664320707321167
1772791154133467100,0.257467041015625,-1.3314913511276245,-0.35334429144859314,-1.534298300743103
1772791154143533300,0.267533203125,-1.34966242313385,-0.47272562980651855,-1.6787117719650269
1772791154153598000,0.277597900390625,-1.3904786109924316,-0.704551637172699,-1.788823127746582
1772791154163664100,0.2876640625,-1.370560646057129,-0.9988644123077393,-1.9250884056091309
1772791154173729300,0.297729248046875,-1.2822297811508179,-1.1741280555725098,-1.9563262462615967
1772791154183795200,0.307795166015625,-1.1985766887664795,-0.8872441649436951,-1.9254645109176636
1772791154193861000,0.317861083984375,-1.111283302307129,-0.6350827217102051,-1.8300963640213013
1772791154203926000,0.327926025390625,-1.061614751815796,-0.38103187084198,-1.7023981809616089
1772791154213992200,0.3379921875,-1.042937994003296,-0.15607066452503204,-1.5699394941329956
1772791154224057000,0.34805712890625,-1.0026603937149048,-0.1554025560617447,-1.4284061193466187
1772791154234123300,0.358123291015625,-0.979485273361206,-0.333516389131546,-1.326319694519043
1772791154244189000,0.36818896484375,-0.8759451508522034,-0.5633455514907837,-1.3235008716583252
1772791154254254000,0.378254150390625,-0.741190493106842,-0.7051492929458618,-1.4178683757781982
1772791154264320300,0.3883203125,-0.6098692417144775,-0.7759571075439453,-1.5662312507629395
1772791154274385200,0.39838525390625,-0.4387262761592865,-0.8852383494377136,-1.717288613319397
1772791154284451300,0.408451416015625,-0.21292096376419067,-1.0574572086334229,-1.8512375354766846
1772791154294516000,0.418515869140625,-0.00301753799431026,-1.3048765659332275,-1.9682430028915405
1772791154304582100,0.42858203125,0.15806788206100464,-1.5144001245498657,-2.0445454120635986
1772791154314648000,0.43864794921875,0.2639402449131012,-1.6146588325500488,-2.0180108547210693
1772791154324713200,0.448713134765625,0.35964325070381165,-1.6621795892715454,-1.8729424476623535
1772791154334779100,0.458779052734375,0.4608345627784729,-1.6116305589675903,-1.6080747842788696
1772791154344844000,0.468843994140625,0.5543453693389893,-1.4461016654968262,-1.2504037618637085
1772791154354910200,0.47891015625,0.6346202492713928,-1.0971453189849854,-0.8339287638664246
1772791154364976000,0.48897607421875,0.6705620884895325,-0.5249796509742737,-0.38566339015960693
1772791154375041300,0.499041259765625,0.6516752243041992,-0.1385570913553238,0.030063750222325325
1772791154385107000,0.50910693359375,0.5866017937660217,-0.053770359605550766,0.4428400695323944
1772791154395172000,0.519172119140625,0.49221348762512207,-0.30985355377197266,0.8311113715171814
1772791154405238300,0.52923828125,0.4793546199798584,-1.2359936237335205,1.2180819511413574
1772791154415304200,0.53930419921875,0.4657623767852783,-2.4184410572052,1.6672251224517822
1772791154425369000,0.549369140625,0.18131393194198608,-3.856464385986328,2.078596830368042
1772791154435435000,0.55943505859375,-0.6071745753288269,-5.5557332038879395,2.1865077018737793
1772791154445500200,0.569500244140625,-1.311885118484497,-6.405299186706543,1.496473789215088
1772791154455566000,0.579566162109375,-1.5260285139083862,-3.540379524230957,-0.3865671753883362
1772791154465632300,0.58963232421875,-1.4571764469146729,-2.2864911556243896,-0.5191289186477661
1772791154475697200,0.599697265625,-1.0725313425064087,-0.9749634265899658,-0.7113809585571289
1772791154485763000,0.60976318359375,-0.7936416268348694,0.5103104710578918,-0.8949476480484009
1772791154495828200,0.619828125,-0.6630908250808716,1.5720572471618652,-1.1266611814498901
1772791154505894100,0.62989404296875,-0.6837708950042725,1.527122974395752,-1.146427035331726
1772791154515960300,0.639960205078125,-0.7459218502044678,1.0027176141738892,-0.9361687898635864
1772791154526025000,0.65002490234375,-0.6740825176239014,0.9100267291069031,-0.42197978496551514
1772791154536091100,0.660091064453125,-0.42318636178970337,0.6600978374481201,0.1754373013973236
1772791154546156300,0.67015625,-0.2662034332752228,0.17185555398464203,0.6815653443336487
1772791154556222200,0.68022216796875,-0.16878634691238403,-0.3108208179473877,1.0451016426086426
1772791154566287000,0.690287109375,-0.08840695768594742,-0.6148549318313599,1.368223786354065
1772791154576353000,0.70035302734375,-0.029766013845801353,-0.5592491626739502,1.6783087253570557
1772791154586419200,0.710419189453125,-0.03285149484872818,-0.30539870262145996,1.8592437505722046
1772791154596484000,0.720484130859375,0.014419615268707275,-0.16316752135753632,1.776994228363037
1772791154606550300,0.73055029296875,0.03335962072014809,-0.1706853061914444,1.4001959562301636
1772791154616615200,0.740615234375,0.04337230697274208,-0.34158167243003845,0.8291966319084167
1772791154626681000,0.75068115234375,0.03258535638451576,-0.38564684987068176,0.2236703634262085
1772791154636747000,0.7607470703125,0.08395133912563324,-0.3715265095233917,-0.3323345482349396
1772791154646812200,0.770812255859375,0.10987534373998642,-0.3163941502571106,-0.8049646019935608
1772791154656878300,0.78087841796875,0.11581552773714066,-0.2550053298473358,-1.1738320589065552
1772791154666943000,0.79094287109375,0.137001633644104,-0.20128262042999268,-1.4366474151611328
1772791154677009200,0.801009033203125,0.1304374784231186,-0.1068783551454544,-1.6068617105484009
1772791154687074300,0.81107421875,0.07608368247747421,0.09471829235553741,-1.655908226966858
1772791154697140200,0.82114013671875,-0.026998227462172508,0.3880460560321808,-1.592374563217163
1772791154707206100,0.8312060546875,-0.1354285478591919,0.6815510392189026,-1.4159092903137207
1772791154717271000,0.84127099609375,-0.11986424773931503,0.9453917145729065,-1.179319977760315
1772791154727337200,0.851337158203125,-0.14048336446285248,1.0328043699264526,-1.0539809465408325
1772791154737402000,0.861402099609375,-0.37652385234832764,0.7673932313919067,-1.0935320854187012
1772791154747468300,0.87146826171875,-0.5363790392875671,0.4052528440952301,-1.006149172782898
1772791154757534000,0.881533935546875,-0.5636224150657654,0.12176068872213364,-0.7476637959480286
1772791154767599000,0.89159912109375,-0.489698588848114,-0.14611540734767914,-0.40473341941833496
1772791154777665000,0.9016650390625,-0.41437774896621704,-0.3801630437374115,-0.006216123700141907
1772791154787730200,0.911730224609375,-0.44460105895996094,-0.4871080219745636,0.4213821589946747
1772791154797796400,0.92179638671875,-0.5576956272125244,-0.34729820489883423,0.831757128238678
1772791154807862000,0.931862060546875,-0.5947789549827576,0.03540100157260895,1.1788777112960815
1772791154817927200,0.94192724609375,-0.49584469199180603,0.5759302973747253,1.4312505722045898
1772791154827993000,0.9519931640625,-0.2938249409198761,1.0697993040084839,1.4744924306869507
1772791154838058200,0.962058349609375,-0.10521376132965088,1.3724870681762695,1.1257283687591553
1772791154848124000,0.9721240234375,-0.026014503091573715,1.3830609321594238,0.4667046368122101
1772791154858190000,0.982190185546875,0.05339989438652992,1.298621416091919,-0.05120905488729477
1772791154868255200,0.992255126953125,0.09130169451236725,1.4679189920425415,-0.3183183968067169
1772791154878321200,1.002321044921875,0.03991759568452835,1.7039401531219482,-0.4243963658809662
1772791154888386300,1.01238623046875,0.01621425524353981,1.9234286546707153,-0.4138939082622528
1772791154898452000,1.022451904296875,0.020580241456627846,2.1940395832061768,-0.3701917231082916
1772791154908516600,1.0325166015625,-0.026659857481718063,2.2731215953826904,-0.32107657194137573
1772791154918582800,1.042582763671875,-0.055727459490299225,2.171281576156616,-0.27487418055534363
1772791154928648700,1.052648681640625,-0.0017595663666725159,1.9601041078567505,-0.21846896409988403
1772791154938713600,1.062713623046875,0.10860288888216019,1.7354650497436523,-0.1312248855829239
1772791154948779500,1.072779541015625,0.2020927369594574,1.4314125776290894,0.015155591070652008
1772791154958844700,1.0828447265625,0.38566285371780396,0.4857419729232788,0.6315827965736389
1772791154968910600,1.09291064453125,0.6254690885543823,-0.2817947268486023,1.1831977367401123
1772791154978976800,1.102976806640625,0.6844629049301147,-0.4293234646320343,1.6263620853424072
1772791154989041700,1.113041748046875,0.6778081655502319,-0.464359849691391,1.8706190586090088
1772791154999107600,1.123107666015625,0.46549192070961,-0.3034375309944153,1.7307066917419434
1772791155009172700,1.1331728515625,0.35737329721450806,-0.3089343309402466,1.4181184768676758
1772791155019238700,1.14323876953125,0.4180622100830078,-0.5761522054672241,1.2318042516708374
1772791155029303600,1.153303466796875,0.5471042394638062,-1.0277701616287231,1.2715283632278442
1772791155039369500,1.163369384765625,0.7268761396408081,-1.5264571905136108,1.3706384897232056
1772791155049435600,1.173435546875,0.9053516983985901,-1.8921904563903809,1.3621726036071777
1772791155059500800,1.183500732421875,1.0208913087844849,-1.8539214134216309,1.3127278089523315
1772791155069566700,1.193566650390625,0.960351288318634,-1.5229098796844482,1.2433360815048218
1772791155079631600,1.203631591796875,0.7652132511138916,-0.9223494529724121,1.2977091073989868
1772791155089697500,1.213697509765625,0.5712820291519165,-0.08050507307052612,1.5874882936477661
1772791155099763700,1.223763671875,0.5851233005523682,0.5895824432373047,1.8674957752227783
1772791155109828600,1.23382861328125,0.8552699089050293,0.4532237648963928,1.7830628156661987
1772791155119894800,1.243894775390625,1.0992964506149292,-0.1547473967075348,1.336912989616394
1772791155129959700,1.253959716796875,1.2207766771316528,-0.6537489891052246,0.7553835511207581
1772791155140025600,1.264025634765625,1.217468500137329,-0.7888282537460327,0.13454341888427734
1772791155150090800,1.2740908203125,1.1659646034240723,-0.5217691659927368,-0.43576711416244507
1772791155160156700,1.28415673828125,1.1426500082015991,-0.010399125516414642,-0.8704594373703003
1772791155170222600,1.29422265625,1.209665298461914,0.43599727749824524,-1.2089101076126099
1772791155180287500,1.30428759765625,1.3639744520187378,0.6003974080085754,-1.4672024250030518
1772791155190353700,1.314353759765625,1.5081021785736084,0.6619861721992493,-1.5893443822860718
1772791155200418800,1.324418701171875,1.5607929229736328,0.7508547902107239,-1.627281665802002
1772791155210484700,1.334484619140625,1.5110901594161987,0.8901961445808411,-1.6348109245300293
1772791155220549600,1.344549560546875,1.3703391551971436,1.0097239017486572,-1.6145515441894531
1772791155230615600,1.354615478515625,1.180292010307312,1.051102638244629,-1.584222674369812
1772791155240681700,1.364681640625,0.9556447267532349,1.0089777708053589,-1.5322396755218506
1772791155250746600,1.37474658203125,0.7228532433509827,0.9022445678710938,-1.471179723739624
1772791155260812500,1.3848125,0.5081489682197571,0.8074133992195129,-1.3509974479675293
1772791155270877700,1.394877685546875,0.3636094927787781,0.6781901121139526,-1.1435153484344482
1772791155280943600,1.404943603515625,0.30482128262519836,0.6079316735267639,-0.9302520155906677
1772791155291009800,1.415009765625,0.28946375846862793,0.5983701348304749,-0.7405329346656799
1772791155301074700,1.42507470703125,0.269209086894989,0.5526114702224731,-0.5799145102500916
1772791155311140600,1.435140625,0.28507596254348755,0.46880072355270386,-0.453429251909256
1772791155321205500,1.44520556640625,0.29761171340942383,0.40970247983932495,-0.3542611300945282
1772791155331271700,1.455271728515625,0.33784037828445435,0.29543352127075195,-0.26826733350753784
1772791155341336800,1.4653369140625,0.41885000467300415,0.1098037138581276,-0.2207094132900238
1772791155351402500,1.475402587890625,0.45873215794563293,0.010402061976492405,-0.24039752781391144
1772791155361468700,1.48546875,0.4540655016899109,-0.05153853818774223,-0.2741751968860626
1772791155371533600,1.495533447265625,0.57181316614151,0.017492011189460754,-0.2608119249343872
1772791155381599700,1.505599853515625,0.6755891442298889,0.14462491869926453,-0.21211175620555878
1772791155391664600,1.51566455078125,0.6967160701751709,0.10680124163627625,-0.12092558294534683
1772791155401730600,1.52573046875,0.6493089199066162,-0.006477107759565115,-0.012853170745074749
1772791155411796500,1.53579638671875,0.6012571454048157,-0.08319659531116486,0.13014735281467438
1772791155421861600,1.545861572265625,0.5294476747512817,-0.17238959670066833,0.25796547532081604
1772791155431927800,1.555927734375,0.38953232765197754,-0.1553770899772644,0.3322732448577881
1772791155441992400,1.565992431640625,0.2534509003162384,-0.11968833953142166,0.2368452548980713
1772791155452058600,1.57605859375,0.15666842460632324,-0.06691574305295944,0.06750313937664032
1772791155462123500,1.58612353515625,0.14199307560920715,0.11188489198684692,-0.08168394863605499
1772791155472189700,1.596189697265625,0.2686866223812103,0.2480633556842804,-0.18347306549549103
1772791155482255600,1.606255615234375,0.40800321102142334,0.3249315023422241,-0.17891532182693481
1772791155492320500,1.616320556640625,0.5407650470733643,0.13263975083827972,0.10472946614027023
1772791155502386700,1.62638671875,0.7749341130256653,-0.10944797843694687,0.6038180589675903
1772791155512451600,1.63645166015625,0.95154869556427,-0.06730453670024872,1.2375534772872925
1772791155522517800,1.646517822265625,0.9235442280769348,0.01539300475269556,1.6205472946166992
1772791155532582400,1.65658251953125,0.7327253818511963,0.0957346111536026,1.7855021953582764
1772791155542648600,1.666648681640625,0.5174269080162048,0.1449759304523468,1.8386788368225098
1772791155552714500,1.676714599609375,0.4018208384513855,0.15569783747196198,1.887136697769165
1772791155562779600,1.686779541015625,0.4805886149406433,0.18982304632663727,2.0563058853149414
1772791155572845800,1.696845703125,0.6914873719215393,0.33513978123664856,2.2315239906311035
1772791155582910500,1.706910400390625,0.8027425408363342,0.43657106161117554,2.2499642372131348
1772791155592976600,1.7169765625,0.754538357257843,0.5066450238227844,2.1014318466186523
1772791155603041500,1.72704150390625,0.6399681568145752,0.5273220539093018,1.8782081604003906
1772791155613107700,1.737107666015625,0.5458162426948547,0.438772976398468,1.6571027040481567
1772791155623173600,1.747173583984375,0.46868789196014404,0.2473316490650177,1.407387375831604
1772791155633238500,1.757238525390625,0.40106916427612305,-0.024547429755330086,1.0195897817611694
1772791155643304700,1.7673046875,0.3319753110408783,-0.3059873580932617,0.4916156828403473
1772791155653369600,1.77736962890625,0.2687205672264099,-0.4675414562225342,-0.0821385458111763
1772791155663435800,1.787435791015625,0.24296674132347107,-0.43772685527801514,-0.5746129155158997
1772791155673500400,1.79750048828125,0.24986524879932404,-0.2919205129146576,-0.9454585909843445
1772791155683566600,1.807566650390625,0.33080270886421204,-0.11637505143880844,-1.245411992073059
1772791155693632500,1.817632568359375,0.427601158618927,0.013858281075954437,-1.4953621625900269
1772791155703697700,1.82769775390625,0.4685134291648865,0.03729196637868881,-1.7451956272125244
1772791155713763800,1.837763916015625,0.4331458508968353,-0.07496286183595657,-2.0506999492645264
1772791155723828500,1.847828369140625,0.32586973905563354,-0.255436509847641,-2.363271474838257
1772791155733894700,1.857894775390625,0.21512405574321747,-0.4362829923629761,-2.5553717613220215
1772791155743960600,1.867960693359375,0.1775851994752884,-0.5593481659889221,-2.4839112758636475
1772791155754025700,1.878025634765625,0.23823802173137665,-0.5965563058853149,-2.0961906909942627
1772791155764091600,1.888091552734375,0.3317109942436218,-0.5870621204376221,-1.5710822343826294
1772791155774156500,1.898156494140625,0.4321976602077484,-0.5996499061584473,-1.0736674070358276
1772791155784222700,1.90822265625,0.4822656214237213,-0.6475860476493835,-0.7029619812965393
1772791155794287600,1.91828759765625,0.45220038294792175,-0.7514241933822632,-0.4908146262168884
1772791155804353800,1.928353759765625,0.3699491620063782,-0.8527095317840576,-0.44796863198280334
1772791155814419700,1.938419677734375,0.28853368759155273,-0.8971419930458069,-0.4975045323371887
1772791155824484600,1.948484619140625,0.26481080055236816,-0.8040080070495605,-0.5965269207954407
1772791155834550500,1.958550537109375,0.2949574887752533,-0.6636848449707031,-0.7462314367294312
1772791155844615700,1.96861572265625,0.4017486572265625,-0.3890354335308075,-0.7898535132408142
1772791155854681900,1.978681884765625,0.5127002000808716,-0.04516872763633728,-0.6898159384727478
1772791155864746500,1.98874658203125,0.5754903554916382,0.23093770444393158,-0.5175288319587708
1772791155874812700,1.998812744140625,0.5856242179870605,0.45449692010879517,-0.3199222683906555
1772791155884878600,2.008878662109375,0.5736392140388489,0.608780026435852,-0.109108567237854
1772791155894943700,2.01894384765625,0.552788496017456,0.63291996717453,0.10142359882593155
1772791155905009700,2.029009765625,0.4945736825466156,0.5112422704696655,0.25827500224113464
1772791155915074300,2.03907421875,0.39690980315208435,0.2891165018081665,0.33463239669799805
1772791155925140500,2.049140380859375,0.27530428767204285,0.1024608463048935,0.35776087641716003
1772791155935205400,2.059205322265625,0.11059444397687912,0.017795003950595856,0.3686385750770569
1772791155945271600,2.069271484375,0.03137126564979553,0.06876631081104279,0.342439204454422
1772791155955337200,2.079337158203125,0.049881964921951294,0.2453652322292328,0.38184744119644165
1772791155965402400,2.08940234375,0.12977492809295654,0.46771734952926636,0.500255286693573
1772791155975468300,2.09946826171875,0.23539456725120544,0.6734157204627991,0.7016546726226807
1772791155985533400,2.109533447265625,0.3154851496219635,0.7742488384246826,0.9726704359054565
1772791155995599400,2.119599365234375,0.31400468945503235,0.758994996547699,1.2988168001174927
1772791156005664300,2.129664306640625,0.24626637995243073,0.6607134342193604,1.638837218284607
1772791156015730400,2.13973046875,0.13278070092201233,0.5983147025108337,1.9534932374954224
1772791156025796400,2.14979638671875,0.01772281900048256,0.6711132526397705,2.1622133255004883
1772791156035861500,2.159861572265625,-0.06668233871459961,0.8353212475776672,2.283862829208374
1772791156045927200,2.16992724609375,-0.10874936729669571,1.0090769529342651,2.3339931964874268
1772791156055992300,2.179992431640625,-0.14621150493621826,1.099674940109253,2.2666633129119873
1772791156066058500,2.19005859375,-0.19445520639419556,1.1383349895477295,2.135684013366699
1772791156076123400,2.200123291015625,-0.20962977409362793,1.2334840297698975,2.0729687213897705
1772791156086189300,2.210189208984375,-0.15418489277362823,1.3718403577804565,2.0830957889556885
1772791156096255200,2.220255126953125,-0.12894944846630096,1.439184308052063,2.0684003829956055
1772791156106320400,2.2303203125,-0.18637119233608246,1.4312618970870972,1.9612290859222412
1772791156116386300,2.24038623046875,-0.27273136377334595,1.3231316804885864,1.6953086853027344
1772791156126451500,2.250451416015625,-0.3589309751987457,1.1383330821990967,1.2911324501037598
1772791156136517400,2.260517333984375,-0.39279812574386597,0.8402957320213318,0.8271886110305786
1772791156146582300,2.270582275390625,-0.37242308259010315,0.5342921614646912,0.3133447468280792
1772791156156648400,2.2806484375,-0.3093675673007965,0.3770386874675751,-0.17247073352336884
1772791156166714400,2.29071435546875,-0.2237543761730194,0.3436141610145569,-0.5680979490280151
1772791156176779300,2.300779296875,-0.12375602126121521,0.31220024824142456,-0.8775922060012817
1772791156186845200,2.31084521484375,-0.001005059340968728,0.20405031740665436,-1.0906453132629395
1772791156196910300,2.320910400390625,0.12167026847600937,0.03438818082213402,-1.211434245109558
1772791156206976500,2.3309765625,0.1828225702047348,-0.15862175822257996,-1.3108974695205688
1772791156217041400,2.34104150390625,0.20411135256290436,-0.4599235951900482,-1.4765344858169556
1772791156227107300,2.351107421875,0.2622867822647095,-0.8304854035377502,-1.7173199653625488
1772791156237173200,2.36117333984375,0.3680925667285919,-1.2045578956604004,-2.021388292312622
1772791156247238400,2.37123828125,0.5048463940620422,-1.4703725576400757,-2.2756433486938477
1772791156257304300,2.38130419921875,0.6126466393470764,-1.5907576084136963,-2.3688626289367676
1772791156267369200,2.391369140625,0.6902027130126953,-1.5132161378860474,-2.31701922416687
1772791156277435400,2.401435302734375,0.7975265979766846,-1.2956054210662842,-2.1945979595184326
1772791156287500300,2.411500244140625,0.9526560306549072,-1.0131779909133911,-2.049194574356079
1772791156297566500,2.42156640625,1.1019786596298218,-0.6863383650779724,-1.9049240350723267
1772791156307632400,2.43163232421875,1.1698538064956665,-0.4044366180896759,-1.775702714920044
1772791156317697300,2.441697265625,1.1215264797210693,-0.3179166913032532,-1.6049294471740723
1772791156327763200,2.45176318359375,0.9922029972076416,-0.4504813849925995,-1.3753366470336914
1772791156337828400,2.461828369140625,0.8558569550514221,-0.6969351768493652,-1.1542003154754639
1772791156347894500,2.47189453125,0.768311619758606,-0.9127497673034668,-1.023812174797058
1772791156357959200,2.481959228515625,0.7561927437782288,-0.9680486917495728,-0.9565696120262146
1772791156368025300,2.492025390625,0.7763260006904602,-0.8489246964454651,-0.8731977343559265
1772791156378090500,2.502090576171875,0.826776385307312,-0.6029233932495117,-0.7511934638023376
1772791156388156400,2.512156494140625,0.8807999491691589,-0.30732643604278564,-0.5719081163406372
1772791156398222300,2.522222412109375,0.9070436954498291,0.0012562358751893044,-0.35368219017982483
1772791156408287200,2.532287353515625,0.9143474102020264,0.28925687074661255,-0.12586605548858643
1772791156418353400,2.542353515625,0.8974680304527283,0.5040603280067444,0.057347968220710754
1772791156428418300,2.552418212890625,0.8592322468757629,0.6606406569480896,0.15730012953281403
1772791156438484500,2.562484375,0.7980162501335144,0.7384591102600098,0.17969489097595215
1772791156448549400,2.57254931640625,0.7372967004776001,0.6872827410697937,0.17506630718708038
1772791156458615300,2.582615234375,0.6810628175735474,0.580129861831665,0.19477479159832
1772791156468681200,2.59268115234375,0.6135285496711731,0.4775261878967285,0.2809211313724518
1772791156478746400,2.602746337890625,0.5548571348190308,0.39301708340644836,0.4647131860256195
1772791156488812500,2.6128125,0.5089293122291565,0.3740338087081909,0.7173800468444824
1772791156498877200,2.622877197265625,0.4465819001197815,0.4245638847351074,1.013461709022522
1772791156508943400,2.632943359375,0.4253961741924286,0.5374054312705994,1.2807565927505493
1772791156519008500,2.643008544921875,0.4866797924041748,0.6756756901741028,1.5176514387130737
1772791156529074400,2.653074462890625,0.5650758147239685,0.8537804484367371,1.704416036605835
1772791156539140400,2.663140380859375,0.6026167869567871,1.0770394802093506,1.7910536527633667
1772791156549205200,2.673205322265625,0.6414155960083008,1.2948288917541504,1.732533574104309
1772791156559271400,2.683271484375,0.6737836003303528,1.4009928703308105,1.5520612001419067
1772791156569336300,2.69333642578125,0.6601884365081787,1.338649868965149,1.3461440801620483
1772791156579402500,2.703402587890625,0.6251835823059082,1.2385116815567017,1.2560237646102905
1772791156589467400,2.71346728515625,0.6366828680038452,1.1309906244277954,1.333251714706421
1772791156599533300,2.723533203125,0.6921886205673218,0.9792014360427856,1.4461669921875
1772791156609599200,2.73359912109375,0.7806928753852844,0.793795645236969,1.4357277154922485
1772791156619664400,2.743664306640625,0.8918741345405579,0.5618886947631836,1.309465765953064
1772791156629730600,2.75373046875,1.001081943511963,0.24733074009418488,1.066550850868225
1772791156639795200,2.763795166015625,1.0572551488876343,-0.08594894409179688,0.713442862033844
1772791156649861400,2.773861328125,1.0781008005142212,-0.34125980734825134,0.32613906264305115
1772791156659926500,2.783926513671875,1.0851060152053833,-0.565675675868988,-0.08473391085863113
1772791156669992400,2.793992431640625,1.10050368309021,-0.7695443630218506,-0.5324909090995789
1772791156680057300,2.804057373046875,1.1226192712783813,-0.8901551365852356,-1.002481460571289
1772791156690123300,2.814123291015625,1.1328905820846558,-0.8827952146530151,-1.4346648454666138
1772791156700189400,2.824189453125,1.1187050342559814,-0.6856107115745544,-1.729238510131836
1772791156710254300,2.83425439453125,1.1219749450683594,-0.4022969901561737,-1.8373823165893555
1772791156720320500,2.844320556640625,1.176360011100769,-0.25147539377212524,-1.7878012657165527
1772791156730385400,2.854385498046875,1.2393165826797485,-0.29251763224601746,-1.6536471843719482
1772791156740451300,2.864451416015625,1.257368803024292,-0.4345259368419647,-1.5236363410949707
1772791156750516500,2.8745166015625,1.2158842086791992,-0.5999357104301453,-1.4326952695846558
1772791156760582400,2.88458251953125,1.1538190841674805,-0.6689950227737427,-1.3460371494293213
1772791156770648600,2.894648681640625,1.1403371095657349,-0.5801953673362732,-1.1667566299438477
1772791156780713200,2.904713134765625,1.2074381113052368,-0.3414948284626007,-0.8712542057037354
1772791156790779400,2.914779296875,1.2896959781646729,-0.07050114870071411,-0.5341728329658508
1772791156800844500,2.924844482421875,1.3446744680404663,0.14254230260849,-0.23805834352970123
1772791156810910500,2.934910400390625,1.3702621459960938,0.2809683382511139,0.0077767218463122845
1772791156820975400,2.944975341796875,1.3869086503982544,0.34522274136543274,0.18968448042869568
1772791156831041300,2.955041259765625,1.4448449611663818,0.3869248926639557,0.3353836238384247
1772791156841107500,2.965107421875,1.491407036781311,0.4863646626472473,0.4850991666316986
1772791156851172400,2.97517236328125,1.4784071445465088,0.5271874666213989,0.5931556224822998
1772791156861238500,2.985238525390625,1.4975409507751465,0.5467720627784729,0.6481170058250427
1772791156871303400,2.995303466796875,1.557848572731018,0.5853027105331421,0.6670411825180054
1772791156881369300,3.005369384765625,1.6307423114776611,0.6397209763526917,0.6882508397102356
1772791156891434500,3.0154345703125,1.671048879623413,0.6664327383041382,0.7433133125305176
1772791156901500400,3.02550048828125,1.6502001285552979,0.6196672916412354,0.8137633204460144
1772791156911565000,3.03556494140625,1.5501742362976074,0.4558440148830414,0.871402382850647
1772791156921631000,3.045630859375,1.3787603378295898,0.23082749545574188,0.8722289204597473
1772791156931697200,3.055697265625,1.1759965419769287,0.006129673682153225,0.8352528214454651
1772791156941762300,3.06576220703125,1.0058329105377197,-0.11289539188146591,0.7980489134788513
1772791156951828200,3.075828125,0.8865298628807068,-0.10170186311006546,0.7757119536399841
1772791156961893000,3.08589306640625,0.8240707516670227,0.011144191958010197,0.7923498749732971
1772791156971959000,3.095958984375,0.7969285845756531,0.19568714499473572,0.8765904903411865
1772791156982024200,3.106024169921875,0.7235244512557983,0.43400442600250244,1.0155853033065796
1772791156992090000,3.116090087890625,0.7535532116889954,0.5910611748695374,1.1305742263793945
1772791157002156300,3.12615625,0.7800037860870361,0.5766903758049011,1.161618947982788
1772791157012221200,3.13622119140625,0.6473815441131592,0.5481569766998291,1.194275975227356
1772791157022287000,3.146287109375,0.5026976466178894,0.6736082434654236,1.3660918474197388
1772791157032352300,3.156352294921875,0.5198920369148254,0.9782890677452087,1.713295340538025
1772791157042418200,3.166418212890625,0.7355055809020996,1.3392393589019775,2.1023526191711426
1772791157052483000,3.176483154296875,1.0097858905792236,1.4432094097137451,2.2658278942108154
1772791157062549000,3.186549072265625,1.1675666570663452,1.175542950630188,2.1136207580566406
1772791157072614100,3.1966142578125,1.2471567392349243,0.7831780910491943,1.8654932975769043
1772791157082680300,3.206680419921875,1.331817865371704,0.45166486501693726,1.7851792573928833
1772791157092746200,3.216746337890625,1.412904143333435,0.2308342307806015,1.8569352626800537
1772791157102811100,3.22681103515625,1.4705184698104858,0.2818509340286255,1.9727309942245483
1772791157112877000,3.236876953125,1.5694669485092163,0.5233263969421387,2.0759830474853516
1772791157122942200,3.246942138671875,1.7196223735809326,0.7742156386375427,2.1593239307403564
1772791157133008100,3.257008056640625,1.8557605743408203,0.984674870967865,2.2713778018951416
1772791157143073000,3.267072998046875,1.9289675951004028,1.0503811836242676,2.3140695095062256
1772791157153139200,3.27713916015625,1.9172602891921997,0.8966709971427917,2.2006094455718994
1772791157163204000,3.2872041015625,1.8355979919433594,0.645258367061615,1.9238237142562866
1772791157173270300,3.297270263671875,1.7350447177886963,0.3880124092102051,1.5509679317474365
1772791157183336200,3.307336181640625,1.6510711908340454,0.20375719666481018,1.1360867023468018
1772791157193401000,3.317401123046875,1.6020808219909668,0.16926446557044983,0.7358261942863464
1772791157203467000,3.327467041015625,1.6104564666748047,0.22504840791225433,0.37074998021125793
1772791157213532200,3.3375322265625,1.6594996452331543,0.3029157817363739,-0.030488254502415657
1772791157223598300,3.347598388671875,1.6591054201126099,0.4285737872123718,-0.5088750123977661
1772791157233663000,3.3576630859375,1.5598297119140625,0.5042406320571899,-1.042149543762207
1772791157243729200,3.367729248046875,1.3903634548187256,0.5168922543525696,-1.5799850225448608
1772791157253795000,3.377795166015625,1.2247780561447144,0.5075453519821167,-2.0478012561798096
1772791157263860200,3.387860107421875,1.1178362369537354,0.4631003737449646,-2.3894202709198
1772791157273926100,3.397926025390625,1.0744026899337769,0.3809157609939575,-2.6099495887756348
1772791157283991000,3.407990966796875,1.0701380968093872,0.3297468423843384,-2.715115785598755
1772791157294057200,3.41805712890625,1.0629228353500366,0.346623033285141,-2.6684741973876953
1772791157304122000,3.4281220703125,1.025952935218811,0.3837016224861145,-2.474229097366333
1772791157314188300,3.438188232421875,0.9238293766975403,0.38761407136917114,-2.1805803775787354
1772791157324253200,3.448253173828125,0.789836049079895,0.39986276626586914,-1.8578994274139404
1772791157334319000,3.458319091796875,0.6837599277496338,0.4182969033718109,-1.5600285530090332
1772791157344385000,3.468385009765625,0.6186670064926147,0.4054024815559387,-1.3545194864273071
1772791157354450200,3.4784501953125,0.5855265855789185,0.4030381441116333,-1.258676290512085
1772791157364516400,3.488516357421875,0.6130872964859009,0.4449272155761719,-1.203346610069275
1772791157374581000,3.4985810546875,0.6588513255119324,0.49213892221450806,-1.1841644048690796
1772791157384647200,3.508647216796875,0.6910128593444824,0.5264809131622314,-1.1546624898910522
1772791157394712300,3.51871240234375,0.7391129732131958,0.5781300067901611,-1.0198543071746826
1772791157404778200,3.5287783203125,0.785449206829071,0.582118809223175,-0.7523419857025146
1772791157414843100,3.538843017578125,0.7928447723388672,0.5939637422561646,-0.40614381432533264
1772791157424909000,3.548908935546875,0.7512767910957336,0.6307092905044556,-0.043008290231227875
1772791157434975200,3.558975341796875,0.6657437682151794,0.6462613344192505,0.25225958228111267
1772791157445040000,3.5690400390625,0.6260692477226257,0.6645058989524841,0.45577898621559143
1772791157455106300,3.579106201171875,0.6567398309707642,0.7029110789299011,0.5659723281860352
1772791157465171200,3.589171142578125,0.7222862243652344,0.7614912986755371,0.629675567150116
1772791157475237000,3.599237060546875,0.7966145277023315,0.8313217759132385,0.7250596284866333
1772791157485302300,3.60930224609375,0.8793306946754456,0.9388561844825745,0.8499401211738586
1772791157495368200,3.6193681640625,0.9532904028892517,1.1046550273895264,0.9761092662811279
1772791157505433000,3.62943310546875,0.9952568411827087,1.2367526292800903,1.0948066711425781
1772791157515499000,3.6394990234375,1.0298500061035156,1.3513065576553345,1.2297042608261108
1772791157525565200,3.649565185546875,1.0750353336334229,1.4953312873840332,1.4022465944290161
1772791157535630300,3.65963037109375,1.1240571737289429,1.599967360496521,1.5241655111312866
1772791157545696300,3.6696962890625,1.1599496603012085,1.5618501901626587,1.489789605140686
1772791157555761200,3.67976123046875,1.182653546333313,1.3832687139511108,1.3426960706710815
1772791157565827000,3.6898271484375,1.2025564908981323,1.1242495775222778,1.182154893875122
1772791157575892200,3.699892333984375,1.229296326637268,0.8754818439483643,1.1011327505111694
1772791157585958100,3.709958251953125,1.2611757516860962,0.7434174418449402,1.1042022705078125
1772791157596023000,3.72002294921875,1.303910493850708,0.7204021215438843,1.161257028579712
1772791157606089200,3.730089111328125,1.387796401977539,0.7880779504776001,1.2428396940231323
1772791157616155100,3.740155029296875,1.4885635375976562,0.8884929418563843,1.2755223512649536
1772791157626220300,3.75022021484375,1.5595190525054932,0.9039052128791809,1.2370225191116333
1772791157636286200,3.7602861328125,1.5863826274871826,0.8227483034133911,1.1914870738983154
1772791157646351000,3.77035107421875,1.5688778162002563,0.6633620858192444,1.1500917673110962
1772791157656417000,3.7804169921875,1.5308794975280762,0.33310481905937195,1.0122119188308716
1772791157666482200,3.790482177734375,1.5060440301895142,-0.08902683854103088,0.6927695870399475
1772791157676548400,3.80054833984375,1.4792715311050415,-0.49651870131492615,0.2433920055627823
1772791157686613000,3.810613037109375,1.4437187910079956,-0.7823308706283569,-0.2697964906692505
1772791157696679200,3.82067919921875,1.426891803741455,-0.871549129486084,-0.7883086204528809
1772791157706745000,3.8307451171875,1.4279940128326416,-0.7534481883049011,-1.21164870262146
1772791157716810200,3.840810302734375,1.3813642263412476,-0.5154873132705688,-1.5090620517730713
1772791157726876200,3.850876220703125,1.3279234170913696,-0.26991042494773865,-1.716465711593628
1772791157736941000,3.860941162109375,1.2912620306015015,-0.08212827891111374,-1.864853024482727
1772791157747007200,3.87100732421875,1.2378700971603394,0.029938384890556335,-1.9846996068954468
1772791157757072100,3.881072021484375,1.1855603456497192,0.08920171111822128,-2.0501861572265625
1772791157767138300,3.89113818359375,1.1667615175247192,0.09396393597126007,-2.0205984115600586
1772791157777203200,3.901203125,1.1746045351028442,0.049594879150390625,-1.893906593322754
1772791157787269000,3.91126904296875,1.1983007192611694,-0.002998639829456806,-1.687713384628296
1772791157797335000,3.9213349609375,1.2352042198181152,-0.04186321422457695,-1.4305092096328735
1772791157807400200,3.931400146484375,1.2386845350265503,-0.06595604121685028,-1.1785842180252075
1772791157817466400,3.94146630859375,1.195523977279663,-0.08521842956542969,-0.9494406580924988
1772791157827531000,3.951531005859375,1.1174558401107788,-0.09021279215812683,-0.7566561698913574
1772791157837597200,3.96159716796875,1.040261149406433,-0.11122673004865646,-0.6120960712432861
1772791157847662300,3.971662353515625,1.0038686990737915,-0.08740004152059555,-0.5127683877944946
1772791157857728300,3.981728271484375,1.0189474821090698,-0.015874730423092842,-0.44692254066467285
1772791157867793200,3.991793212890625,1.0538599491119385,0.08234693109989166,-0.42155393958091736
1772791157877859000,4.001859130859375,1.1001571416854858,0.17987535893917084,-0.37665703892707825
1772791157887924200,4.01192431640625,1.1419119834899902,0.27095651626586914,-0.2873932123184204
1772791157897990100,4.021990234375,1.1658514738082886,0.33032798767089844,-0.14791013300418854
1772791157908055000,4.032054931640625,1.1636652946472168,0.357310026884079,0.004687461070716381
1772791157918121200,4.042121337890625,1.1349838972091675,0.37522271275520325,0.14278727769851685
1772791157928186000,4.05218603515625,1.1105176210403442,0.3506820797920227,0.2838120758533478
1772791157938252300,4.062252197265625,1.0913211107254028,0.2202596217393875,0.4195536673069
1772791157948317200,4.072317138671875,1.0459015369415283,0.0416581816971302,0.5052949786186218
1772791157958383000,4.082383056640625,0.9576033353805542,-0.11886784434318542,0.5241379141807556
1772791157968449000,4.092448974609375,0.88277268409729,-0.187628373503685,0.4855559170246124
1772791157978514200,4.10251416015625,0.8649694323539734,-0.10669969767332077,0.42959919571876526
1772791157988580400,4.112580322265625,0.8911849856376648,0.08850918710231781,0.3922424614429474
1772791157998645000,4.12264501953125,0.9816980957984924,0.3507879376411438,0.43855324387550354
1772791158008711200,4.132711181640625,1.0941675901412964,0.5643966794013977,0.5437673926353455
1772791158018776000,4.142776123046875,1.1647320985794067,0.6914350390434265,0.6317837834358215
1772791158028842200,4.15284228515625,1.2140802145004272,0.7805808782577515,0.7819794416427612
1772791158038907400,4.162907470703125,1.317238211631775,0.8430954217910767,1.02254319190979
1772791158048973000,4.17297314453125,1.4593874216079712,0.7780721783638,1.2377938032150269
1772791158059039200,4.183039306640625,1.5555927753448486,0.4629802703857422,1.3400425910949707
1772791158069104000,4.193104248046875,1.570828914642334,0.10298297554254532,1.426848292350769
1772791158079170300,4.20317041015625,1.5703517198562622,0.00825060997158289,1.6463292837142944
1772791158089235000,4.21323486328125,1.5519979000091553,0.2877991497516632,1.9921410083770752
1772791158099301000,4.223301025390625,1.5129096508026123,0.8031269311904907,2.284446954727173
1772791158109366300,4.2333662109375,1.5291277170181274,1.3082855939865112,2.3621814250946045
1772791158119432200,4.24343212890625,1.5658868551254272,1.5582200288772583,2.1579227447509766
1772791158129497300,4.253497314453125,1.597475290298462,1.5810552835464478,1.8262131214141846
1772791158139563000,4.26356298828125,1.556445837020874,1.3802412748336792,1.4735642671585083
1772791158149628200,4.273628173828125,1.41608464717865,1.0766820907592773,1.1181858777999878
1772791158159694000,4.283694091796875,1.2621400356292725,0.8291405439376831,0.7745751738548279
1772791158169760300,4.29376025390625,1.1336809396743774,0.6453904509544373,0.37048447132110596
1772791158179825200,4.3038251953125,1.003273606300354,0.5564478039741516,-0.08528119325637817
1772791158189891000,4.31389111328125,0.878104567527771,0.7252691984176636,-0.5614141225814819
1772791158199956200,4.323956298828125,0.7814472317695618,1.0685511827468872,-1.0191560983657837
1772791158210022100,4.334022216796875,0.7089257836341858,1.2739425897598267,-1.4660627841949463
1772791158220087300,4.34408740234375,0.6205354332923889,1.2475594282150269,-1.9050204753875732
1772791158230153000,4.354153076171875,0.5042423009872437,1.0356495380401611,-2.288175106048584
1772791158240218000,4.364218017578125,0.3746621608734131,0.6814800500869751,-2.5733726024627686
1772791158250284300,4.3742841796875,0.242119699716568,0.3684834837913513,-2.6992263793945312
1772791158260350200,4.38435009765625,0.16835254430770874,0.23117992281913757,-2.59863543510437
1772791158270415000,4.3944150390625,0.15089231729507446,0.2854100465774536,-2.3588948249816895
1772791158280481000,4.40448095703125,0.2126627415418625,0.3815288543701172,-2.0952465534210205
1772791158290546200,4.414546142578125,0.37194961309432983,0.46670234203338623,-1.7897074222564697
1772791158300612000,4.424612060546875,0.5795536637306213,0.517757773399353,-1.4398154020309448
1772791158310677200,4.43467724609375,0.7379662990570068,0.49797624349594116,-1.0754064321517944
1772791158320743200,4.4447431640625,0.8175327777862549,0.38126158714294434,-0.7274585366249084
1772791158330808000,4.45480810546875,0.8468877673149109,0.21707847714424133,-0.414480596780777
1772791158340874200,4.464874267578125,0.8581651449203491,0.06541572511196136,-0.1832801252603531
1772791158350939400,4.474939453125,0.8618518114089966,-0.08491873741149902,-0.05831792205572128
1772791158361005000,4.485005126953125,0.8620608448982239,-0.23625393211841583,-0.042988233268260956
1772791158371071000,4.495071044921875,0.866487979888916,-0.3040294945240021,-0.10202784091234207
1772791158381136100,4.50513623046875,0.9295132756233215,-0.20782332122325897,-0.11889497190713882
1772791158391202300,4.515202392578125,0.9547541737556458,-0.10221002995967865,-0.09665166586637497
1772791158401267200,4.52526708984375,0.9234327673912048,0.08191986382007599,-0.08938150107860565
1772791158411333000,4.5353330078125,0.9645864367485046,0.28696268796920776,-0.013099576346576214
1772791158421398300,4.545398193359375,1.0261222124099731,0.3990902900695801,0.10450641065835953
1772791158431464200,4.555464111328125,1.049384355545044,0.3750165104866028,0.18106713891029358
1772791158441529300,4.565529296875,0.9991546273231506,0.29913079738616943,0.19479334354400635
1772791158451595000,4.575594970703125,0.8483356833457947,0.3087059557437897,0.17159375548362732
1772791158461661200,4.5856611328125,0.6880378723144531,0.287644624710083,0.12089516222476959
1772791158471726000,4.59572607421875,0.6280516982078552,0.333840012550354,0.06597861647605896
1772791158481792300,4.605792236328125,0.6931819319725037,0.5605189204216003,0.08607110381126404
1772791158491858200,4.615858154296875,0.8511583805084229,0.835953414440155,0.24186696112155914
1772791158501923000,4.625923095703125,1.052956461906433,1.1150782108306885,0.5607895851135254
1772791158511989000,4.635989013671875,1.2231781482696533,1.268795132637024,0.975220799446106
1772791158522054100,4.64605419921875,1.2960392236709595,1.2140815258026123,1.3694429397583008
1772791158532120300,4.656120361328125,1.3129287958145142,0.8875569701194763,1.6680834293365479
1772791158542185000,4.66618505859375,1.2544519901275635,0.41489458084106445,1.8531839847564697
1772791158552251100,4.676251220703125,1.0602120161056519,-0.01726347953081131,1.942358136177063
1772791158562316300,4.68631640625,0.7882574796676636,-0.21843227744102478,1.9606269598007202
1772791158572382200,4.69638232421875,0.584254801273346,-0.0703071877360344,2.014040946960449
1772791158582447400,4.706447265625,0.6032229065895081,0.30748483538627625,2.211728572845459
1772791158592513000,4.716512939453125,0.823495626449585,0.524878203868866,2.429135799407959
1772791158602579200,4.7265791015625,1.019986867904663,0.3439111113548279,2.505514621734619
1772791158612644000,4.73664404296875,1.0589932203292847,0.06410512328147888,2.406914472579956
1772791158622710300,4.746710205078125,0.9395070672035217,-0.11408405750989914,2.089182138442993
1772791158632775200,4.756775146484375,0.7380833625793457,-0.2906324863433838,1.650786280632019
1772791158642841000,4.766841064453125,0.5136779546737671,-0.2826573848724365,1.193891167640686
1772791158652906200,4.77690625,0.3672711253166199,-0.06817172467708588,0.8301194310188293
1772791158662972200,4.78697216796875,0.3573383390903473,0.11055754125118256,0.5654723048210144
1772791158673037300,4.797037353515625,0.4689244329929352,0.12925508618354797,0.32115280628204346
1772791158683103000,4.80710302734375,0.5600546598434448,0.08569695800542831,0.07692600786685944
1772791158693169200,4.817169189453125,0.5091277956962585,0.11588925123214722,-0.21270187199115753
1772791158703234300,4.827234375,0.35333767533302307,0.2025996446609497,-0.5278563499450684
1772791158713300200,4.83730029296875,0.2268480658531189,0.30522361397743225,-0.7260244488716125
1772791158723365000,4.847365234375,0.14895832538604736,0.39128097891807556,-0.7313603758811951
1772791158733431000,4.85743115234375,0.041437312960624695,0.4242100715637207,-0.6062912344932556
1772791158743496200,4.86749609375,-0.090846948325634,0.3918963372707367,-0.42443493008613586
1772791158753562000,4.87756201171875,-0.15861879289150238,0.31187528371810913,-0.2731162905693054
1772791158763627300,4.887627197265625,-0.15302269160747528,0.1686781942844391,-0.18496032059192657
1772791158773693200,4.897693115234375,-0.08211694657802582,0.04131597653031349,-0.13327652215957642
1772791158783758000,4.907758056640625,-0.013044134713709354,0.005435207858681679,-0.0941525548696518
1772791158793824300,4.91782421875,-0.013574128970503807,0.10408928990364075,-0.13009995222091675
1772791158803890200,4.92789013671875,-0.06906615197658539,0.27544131875038147,-0.21149520576000214
1772791158813955000,4.937955078125,-0.12248370051383972,0.4209122657775879,-0.29445454478263855
1772791158824021000,4.94802099609375,-0.14814326167106628,0.533499002456665,-0.36723554134368896
1772791158834086100,4.958086181640625,-0.13718639314174652,0.5960426926612854,-0.3809897005558014
1772791158844152300,4.96815234375,-0.06753885746002197,0.5995769500732422,-0.32200947403907776
1772791158854217200,4.97821728515625,0.006187339313328266,0.5723424553871155,-0.21500368416309357
1772791158864283100,4.988283203125,0.049295395612716675,0.478898286819458,-0.07051414251327515
1772791158874348300,4.998348388671875,0.07186339795589447,0.3754979074001312,0.07583723962306976
1772791158884414200,5.008414306640625,0.06354261934757233,0.26687583327293396,0.1904599666595459
1772791158894480100,5.018480224609375,-0.037498895078897476,0.2548396587371826,0.2313106507062912
1772791158904545000,5.028544921875,-0.2784249782562256,0.43633705377578735,0.13124290108680725
1772791158914611500,5.038611572265625,-0.40679439902305603,0.4516374468803406,0.11485647410154343
1772791158924676400,5.04867626953125,-0.47168442606925964,0.21815676987171173,0.10324056446552277
1772791158934742300,5.0587421875,-0.4334013760089874,0.07769224047660828,0.03378889709711075
1772791158944807200,5.06880712890625,-0.3926211893558502,0.19919444620609283,-0.02083972655236721
1772791158954873300,5.078873291015625,-0.3749167323112488,0.3616068363189697,0.0209561288356781
1772791158964938500,5.0889384765625,-0.37485894560813904,0.5147460103034973,0.08951947093009949
1772791158975004200,5.099004150390625,-0.403167188167572,0.5725987553596497,0.14836764335632324
1772791158985069300,5.1090693359375,-0.38607075810432434,0.5586070418357849,0.2628966271877289
1772791158995135200,5.11913525390625,-0.3697643280029297,0.3532761037349701,0.455450177192688
1772791159005201400,5.129201416015625,-0.3331679701805115,-0.06621835380792618,0.6975514888763428
1772791159015266300,5.139266357421875,-0.23528562486171722,-0.4064224064350128,0.9376348257064819
1772791159025332200,5.149332275390625,-0.20812031626701355,-0.47983166575431824,1.108801245689392
1772791159035397400,5.1593974609375,-0.2727508246898651,-0.47360894083976746,1.133409023284912
1772791159045463300,5.16946337890625,-0.3247160017490387,-0.5654805302619934,1.0312893390655518
1772791159055528400,5.179528564453125,-0.28662243485450745,-0.7512649297714233,0.862126886844635
1772791159065594000,5.189593994140625,-0.22568371891975403,-0.8946055769920349,0.6855869889259338
1772791159075659300,5.1996591796875,-0.20975148677825928,-0.9392521977424622,0.5699001550674438
1772791159085725200,5.20972509765625,-0.2826094627380371,-0.8907099962234497,0.5820897221565247
1772791159095790300,5.219790283203125,-0.38975709676742554,-0.8632569313049316,0.723852276802063
1772791159105856500,5.2298564453125,-0.43135327100753784,-0.8836231827735901,0.865216851234436
1772791159115922200,5.239922119140625,-0.4248277246952057,-0.9082344174385071,0.823168158531189
1772791159125987300,5.2499873046875,-0.47419846057891846,-0.9137809872627258,0.48449957370758057
1772791159136053200,5.26005322265625,-0.5808005332946777,-0.9431039690971375,-0.07700656354427338
1772791159146118400,5.270118408203125,-0.6333359479904175,-1.0890634059906006,-0.6539157032966614
1772791159156184300,5.280184326171875,-0.5056485533714294,-1.3519729375839233,-1.0582462549209595
1772791159166249200,5.290249267578125,-0.2956430912017822,-1.52174973487854,-1.2532745599746704
1772791159176315400,5.3003154296875,-0.19611716270446777,-1.4498614072799683,-1.306771993637085
1772791159186380300,5.31038037109375,-0.24976679682731628,-1.0968340635299683,-1.3012031316757202
1772791159196446500,5.320446533203125,-0.357486367225647,-0.7030431628227234,-1.2419185638427734
1772791159206511400,5.330511474609375,-0.431079626083374,-0.5451328754425049,-1.1613017320632935
1772791159216577300,5.340577392578125,-0.4528810679912567,-0.5654890537261963,-1.065705418586731
1772791159226643200,5.350643310546875,-0.4359273910522461,-0.6850181221961975,-0.9442716836929321
1772791159236708400,5.360708251953125,-0.41883811354637146,-0.8266578316688538,-0.8771278262138367
1772791159246774300,5.370774169921875,-0.45354363322257996,-0.772458016872406,-0.9189032316207886
1772791159256839200,5.380839111328125,-0.5331214070320129,-0.5106720924377441,-0.9830090403556824
1772791159266905300,5.3909052734375,-0.6193181276321411,-0.22627927362918854,-0.9856852889060974
1772791159276970500,5.400970458984375,-0.7138171792030334,-0.05446656420826912,-0.9459299445152283
1772791159287036400,5.411036376953125,-0.8478596806526184,-0.03457008674740791,-0.9035417437553406
1772791159297101300,5.421101318359375,-1.0067212581634521,-0.11904473602771759,-0.8858343362808228
1772791159307167200,5.431167236328125,-1.118091106414795,-0.24119648337364197,-0.8699229955673218
1772791159317232400,5.441232421875,-1.147557020187378,-0.32887619733810425,-0.830983579158783
1772791159327298300,5.45129833984375,-1.1254771947860718,-0.3188864290714264,-0.7360498309135437
1772791159337364200,5.4613642578125,-1.085687518119812,-0.2519227862358093,-0.5838273167610168
1772791159347429400,5.471429443359375,-1.0623852014541626,-0.19316279888153076,-0.46192649006843567
1772791159357495300,5.481495361328125,-1.0921610593795776,-0.18840338289737701,-0.426806777715683
1772791159367560400,5.491560546875,-1.1439284086227417,-0.14986105263233185,-0.40382876992225647
1772791159377626400,5.50162646484375,-1.1809120178222656,-0.15193448960781097,-0.35785749554634094
1772791159387691300,5.511691162109375,-1.1972899436950684,-0.2663761377334595,-0.2859920859336853
1772791159397757200,5.521757080078125,-1.1899036169052124,-0.35323190689086914,-0.21469959616661072
1772791159407822300,5.531822265625,-1.1609811782836914,-0.331570565700531,-0.16984184086322784
1772791159417888500,5.541888427734375,-1.1428087949752808,-0.23700353503227234,-0.08825847506523132
1772791159427953200,5.551953125,-1.1415014266967773,-0.15037250518798828,0.042543478310108185
1772791159438019300,5.562019287109375,-1.1552021503448486,-0.03662119805812836,0.19834664463996887
1772791159448085200,5.572085205078125,-1.1425061225891113,0.006424806080758572,0.38951659202575684
1772791159458150400,5.582150390625,-1.161847710609436,-0.05940907448530197,0.5704281330108643
1772791159468216300,5.59221630859375,-1.2218657732009888,-0.14919622242450714,0.732730507850647
1772791159478281200,5.60228125,-1.2823518514633179,-0.17583268880844116,0.8746154308319092
1772791159488347400,5.612347412109375,-1.3077116012573242,-0.1512429267168045,0.9979386925697327
1772791159498412300,5.622412353515625,-1.3098818063735962,-0.1570499986410141,1.0515105724334717
1772791159508478500,5.632478515625,-1.3132864236831665,-0.24558758735656738,1.0468324422836304
1772791159518543400,5.64254345703125,-1.333320140838623,-0.37586864829063416,1.0665026903152466
1772791159528609300,5.652609375,-1.3990459442138672,-0.5796740055084229,1.127959132194519
1772791159538674400,5.66267431640625,-1.4985346794128418,-0.7905278205871582,1.1076546907424927
1772791159548740400,5.672740234375,-1.5778523683547974,-0.9523113965988159,0.918279230594635
1772791159558805200,5.68280517578125,-1.5643589496612549,-0.9765875935554504,0.5751123428344727
1772791159568871200,5.69287109375,-1.4621894359588623,-0.7370259165763855,0.26434624195098877
1772791159578937300,5.702937255859375,-1.3055568933486938,-0.29119038581848145,0.21123267710208893
1772791159589002500,5.71300244140625,-1.0921382904052734,0.055918026715517044,0.47785958647727966
1772791159599068400,5.723068359375,-0.9068702459335327,0.05528705194592476,0.8881064653396606
1772791159609133300,5.73313330078125,-0.8410741686820984,-0.2768267095088959,1.1077357530593872
1772791159619199200,5.74319921875,-0.8776231408119202,-0.738838255405426,0.9464322924613953
1772791159629264400,5.753264404296875,-0.9689988493919373,-1.1435670852661133,0.524586021900177
1772791159639330300,5.763330322265625,-1.0194597244262695,-1.327864170074463,0.047223951667547226
1772791159649395200,5.773395263671875,-0.965690016746521,-1.4065334796905518,-0.3258124589920044
1772791159659461400,5.78346142578125,-0.8512423634529114,-1.3961008787155151,-0.6519986987113953
1772791159669526300,5.7935263671875,-0.7852031588554382,-1.2959052324295044,-0.959243893623352
1772791159679592400,5.803592529296875,-0.7870082855224609,-1.2655413150787354,-1.1748687028884888
1772791159689658400,5.813658447265625,-0.8475707173347473,-1.355220913887024,-1.2352294921875
1772791159699723300,5.82372314453125,-0.9284036755561829,-1.4480079412460327,-1.1779645681381226
1772791159709789200,5.8337890625,-0.990423321723938,-1.5444449186325073,-0.9927324056625366
1772791159719854300,5.843854248046875,-1.0225776433944702,-1.5870039463043213,-0.7390545606613159
1772791159729920500,5.85392041015625,-1.047153115272522,-1.5722533464431763,-0.4690891206264496
1772791159739985200,5.863985107421875,-1.0517524480819702,-1.5175306797027588,-0.254069447517395
1772791159750051300,5.87405126953125,-1.0421620607376099,-1.5036643743515015,-0.18789228796958923
1772791159760116200,5.8841162109375,-1.0517441034317017,-1.429816484451294,-0.3537493944168091
1772791159770182400,5.894182373046875,-1.0755505561828613,-1.2068183422088623,-0.6936731338500977
1772791159780247300,5.904247314453125,-1.083034873008728,-0.8501607179641724,-1.0866793394088745
1772791159790313200,5.914313232421875,-1.0659762620925903,-0.4550304710865021,-1.3808751106262207
1772791159800379400,5.92437939453125,-1.0600568056106567,-0.1548023670911789,-1.4314721822738647
1772791159810444300,5.9344443359375,-1.1024702787399292,0.007781489752233028,-1.2347921133041382
1772791159820510500,5.944510498046875,-1.1924691200256348,-0.003161274828016758,-0.9594979882240295
1772791159830575000,5.9545751953125,-1.302659034729004,-0.1380341351032257,-0.7459407448768616
1772791159840641300,5.964641357421875,-1.4287241697311401,-0.29776889085769653,-0.6173505783081055
1772791159850706400,5.97470654296875,-1.511825442314148,-0.40686261653900146,-0.5109594464302063
1772791159860772400,5.9847724609375,-1.5305613279342651,-0.5213590264320374,-0.37712934613227844
1772791159870837200,5.994837158203125,-1.5347819328308105,-0.6601160764694214,-0.23260332643985748
1772791159880903200,6.004903076171875,-1.5546702146530151,-0.7070056200027466,-0.14569678902626038
1772791159890968300,6.01496826171875,-1.609680414199829,-0.6123286485671997,-0.1315479427576065
1772791159901034200,6.0250341796875,-1.6708215475082397,-0.43191495537757874,-0.13912564516067505
1772791159911100400,6.035100341796875,-1.6901763677597046,-0.2937706708908081,-0.07228030264377594
1772791159921165800,6.045165771484375,-1.6976432800292969,-0.31941652297973633,0.04016270115971565
1772791159931232000,6.05523193359375,-1.746267318725586,-0.4535199999809265,0.14041340351104736
1772791159941297200,6.065297119140625,-1.8380581140518188,-0.5405808687210083,0.2317444533109665
1772791159951363000,6.075363037109375,-1.9238731861114502,-0.5636417269706726,0.33619627356529236
1772791159961428000,6.085427978515625,-1.9538167715072632,-0.4827987551689148,0.4327244162559509
1772791159971494000,6.095493896484375,-1.9604179859161377,-0.35515958070755005,0.5426032543182373
1772791159981559000,6.10555908203125,-1.9411931037902832,-0.26059722900390625,0.6652871966362
1772791159991625000,6.115625,-1.9483990669250488,-0.2733686566352844,0.7607186436653137
1772791160001689900,6.12568994140625,-1.9937549829483032,-0.4562377631664276,0.8093156814575195
1772791160011756000,6.135756103515625,-2.0768282413482666,-0.7072548270225525,0.8563705086708069
1772791160021821000,6.145821044921875,-2.1290884017944336,-0.8432638049125671,0.8784416913986206
1772791160031887000,6.15588720703125,-2.0953636169433594,-0.8666974902153015,0.8673020005226135
1772791160041953000,6.165953125,-1.9979479312896729,-0.919442892074585,0.7980614900588989
1772791160052018000,6.176017822265625,-1.851115107536316,-1.0318468809127808,0.6618199944496155
1772791160062083800,6.186083740234375,-1.6826341152191162,-1.0538232326507568,0.3884181082248688
1772791160072149000,6.19614892578125,-1.515942096710205,-0.8767544627189636,0.02150564268231392
1772791160082215200,6.206215087890625,-1.404514193534851,-0.593281626701355,-0.276822566986084
1772791160092279800,6.21627978515625,-1.2559330463409424,-0.3598470687866211,-0.3309853971004486
1772791160102346000,6.226345947265625,-1.1191844940185547,-0.312360942363739,-0.043788500130176544
1772791160112411100,6.2364111328125,-1.101019263267517,-0.6354170441627502,0.41079044342041016
1772791160122477000,6.24647705078125,-1.2238051891326904,-1.2904815673828125,0.683962881565094
1772791160132542000,6.2565419921875,-1.3902854919433594,-1.902992606163025,0.5024124979972839
1772791160142608000,6.26660791015625,-1.513256311416626,-2.196873426437378,-0.04012792184948921
1772791160152674000,6.276674072265625,-1.5486962795257568,-2.0642037391662598,-0.6060863733291626
1772791160162739000,6.286739013671875,-1.4704211950302124,-1.6998215913772583,-0.9724199175834656
1772791160172805000,6.29680517578125,-1.2687232494354248,-1.2972346544265747,-1.1032605171203613
1772791160182870000,6.3068701171875,-1.0655165910720825,-0.993476390838623,-1.0400965213775635
1772791160192936000,6.31693603515625,-0.939437985420227,-0.7477180361747742,-0.9142166972160339
1772791160203001000,6.3270009765625,-0.9406363368034363,-0.5937970876693726,-0.7732391357421875
1772791160213067000,6.33706689453125,-1.0628395080566406,-0.5797904133796692,-0.6531865000724792
1772791160223132000,6.3471318359375,-1.2122174501419067,-0.7131373286247253,-0.5977020263671875
1772791160233197800,6.35719775390625,-1.294158935546875,-0.9585481286048889,-0.6339263319969177
1772791160243263000,6.367262939453125,-1.2748054265975952,-1.1477947235107422,-0.818437397480011
1772791160253329200,6.3773291015625,-1.2017266750335693,-1.040212869644165,-1.2008495330810547
1772791160263395000,6.38739501953125,-1.1969780921936035,-0.5545069575309753,-1.7281031608581543
1772791160273460000,6.3974599609375,-1.185973882675171,0.0364498533308506,-2.1098740100860596
1772791160283526000,6.40752587890625,-1.1423873901367188,0.5106808543205261,-2.1472625732421875
1772791160293591000,6.417591064453125,-1.1123932600021362,0.6986632347106934,-1.9020510911941528
1772791160303657000,6.427656982421875,-1.1150301694869995,0.5469768047332764,-1.5358978509902954
1772791160313721900,6.437721923828125,-1.1476647853851318,0.18924368917942047,-1.2269819974899292
1772791160323788000,6.4477880859375,-1.2212692499160767,-0.128336101770401,-1.011906385421753
1772791160333853000,6.45785302734375,-1.2879291772842407,-0.15970920026302338,-0.8464338779449463
1772791160343919000,6.467919189453125,-1.29714035987854,0.02051820605993271,-0.6750115156173706
1772791160353984000,6.47798388671875,-1.233035922050476,0.20197054743766785,-0.5109927654266357
1772791160364050000,6.4880498046875,-1.155000925064087,0.29567572474479675,-0.3938239514827728
1772791160374115000,6.498114990234375,-1.1065341234207153,0.28666067123413086,-0.3046703636646271
1772791160384181000,6.508180908203125,-1.1011929512023926,0.15221156179904938,-0.22585628926753998
1772791160394246100,6.51824609375,-1.1315034627914429,0.09794966131448746,-0.13181528449058533
1772791160404311800,6.528311767578125,-1.1708766222000122,0.1390000730752945,-0.03643165901303291
1772791160414378000,6.5383779296875,-1.2066344022750854,0.12282775342464447,0.05576830729842186
1772791160424443000,6.54844287109375,-1.2405208349227905,0.08059374243021011,0.14936597645282745
1772791160434509000,6.558509033203125,-1.2526638507843018,0.06374738365411758,0.2596469521522522
1772791160444574200,6.56857421875,-1.226580023765564,0.086867555975914,0.3568423092365265
1772791160454639900,6.578639892578125,-1.192294955253601,0.09505704045295715,0.44453248381614685
1772791160464705000,6.588705078125,-1.1777197122573853,0.1329948455095291,0.5520529747009277
1772791160474771000,6.59877099609375,-1.146037220954895,0.17448370158672333,0.6905367970466614
1772791160484836000,6.608836181640625,-1.097562313079834,0.177464559674263,0.8036289215087891
1772791160494902000,6.618902099609375,-1.0606871843338013,0.10344067215919495,0.9439908266067505
1772791160504967000,6.628966796875,-1.0251961946487427,0.024662017822265625,1.1735012531280518
1772791160515033000,6.639033203125,-1.0337997674942017,-0.09112556278705597,1.3537424802780151
1772791160525099000,6.64909912109375,-1.0655385255813599,-0.2384999543428421,1.346835970878601
1772791160535164200,6.6591640625,-1.0615512132644653,-0.24777495861053467,1.1544569730758667
1772791160545229800,6.669229736328125,-0.9956341981887817,-0.09431298077106476,0.8481858372688293
1772791160555295000,6.679294921875,-0.8767805099487305,0.27424323558807373,0.6277029514312744
1772791160565361000,6.68936083984375,-0.7479332685470581,0.7486206293106079,0.6607136726379395
1772791160575426000,6.699426025390625,-0.6383567452430725,1.0301334857940674,0.9150530099868774
1772791160585492000,6.709491943359375,-0.5567205548286438,0.8484946489334106,1.158521294593811
1772791160595556900,6.719556884765625,-0.41613703966140747,0.3340805768966675,1.2653002738952637
1772791160605623000,6.729623046875,-0.24845749139785767,-0.1330997794866562,1.1992741823196411
1772791160615688200,6.739688232421875,-0.15098686516284943,-0.42031368613243103,1.0012482404708862
1772791160625754000,6.749754150390625,-0.10879401117563248,-0.4848303198814392,0.6862502694129944
1772791160635819000,6.759819091796875,-0.02036561258137226,-0.3504661023616791,0.29878318309783936
1772791160645885000,6.769885009765625,0.09083601087331772,-0.09380477666854858,-0.1263715624809265
1772791160655951000,6.779951171875,0.20449545979499817,0.17307192087173462,-0.43731504678726196
1772791160666016000,6.79001611328125,0.3122912645339966,0.2817969024181366,-0.5946125984191895
1772791160676082000,6.80008203125,0.3584691286087036,0.11027256399393082,-0.6286666989326477
1772791160686147000,6.81014697265625,0.29017144441604614,-0.24934105575084686,-0.6361756920814514
1772791160696213000,6.820212890625,0.13121695816516876,-0.5155591368675232,-0.7214937806129456
1772791160706278100,6.830278076171875,-0.02758502960205078,-0.629938542842865,-0.8632988333702087
1772791160716344000,6.840343994140625,-0.14245913922786713,-0.6490166187286377,-0.9874399900436401
1772791160726409000,6.850408935546875,-0.21036343276500702,-0.6689893007278442,-1.0709820985794067
1772791160736475000,6.860474853515625,-0.21874146163463593,-0.6437414288520813,-1.1197166442871094
1772791160746540000,6.8705400390625,-0.2802128493785858,-0.608571469783783,-1.143065094947815
1772791160756606200,6.880606201171875,-0.3574719727039337,-0.48146703839302063,-1.3086897134780884
1772791160766670800,6.8906708984375,-0.5213323831558228,-0.19526097178459167,-1.4157718420028687
1772791160776737000,6.900737060546875,-0.6499886512756348,0.09455593675374985,-1.2842985391616821
1772791160786803000,6.910802978515625,-0.7475540041923523,0.22189851105213165,-0.933290958404541
1772791160796868000,6.9208681640625,-0.8185032606124878,0.059010520577430725,-0.5325435400009155
1772791160806934000,6.93093408203125,-0.8606467247009277,-0.20719113945960999,-0.1838168501853943
1772791160816999000,6.9409990234375,-0.8641748428344727,-0.4394629895687103,0.06996216624975204
1772791160827065000,6.951065185546875,-0.8210561871528625,-0.5294315218925476,0.16706082224845886
1772791160837130000,6.9611298828125,-0.7452471852302551,-0.4521804451942444,0.13912372291088104
1772791160847196200,6.971196044921875,-0.6717395186424255,-0.30206745862960815,0.06879951804876328
1772791160857261000,6.981260986328125,-0.651679277420044,-0.1274557113647461,0.0012758716475218534
1772791160867327000,6.991326904296875,-0.6910013556480408,0.0035404441878199577,-0.0141792306676507
1772791160877392100,7.00139208984375,-0.7506665587425232,-0.007363336160778999,0.029799943789839745
1772791160887458000,7.0114580078125,-0.8206402063369751,-0.13196972012519836,0.10862589627504349
1772791160897523000,7.02152294921875,-0.8568501472473145,-0.22309909760951996,0.18082764744758606
1772791160907588900,7.0315888671875,-0.8598459362983704,-0.24966196715831757,0.22183410823345184
1772791160917654300,7.041654296875,-0.8489320278167725,-0.2588038146495819,0.3165326416492462
1772791160927719200,7.05171923828125,-0.8313456177711487,-0.2995111644268036,0.49468499422073364
1772791160937785000,7.06178515625,-0.8002100586891174,-0.3043370842933655,0.6636537313461304
1772791160947850200,7.071850341796875,-0.7440919876098633,-0.24876488745212555,0.7214668989181519
1772791160957916200,7.081916259765625,-0.6941119432449341,-0.0833602100610733,0.6542127728462219
1772791160967981000,7.09198095703125,-0.6490033268928528,0.161174476146698,0.5533653497695923
1772791160978047200,7.102047119140625,-0.6030893325805664,0.34231364727020264,0.5315439105033875
1772791160988112100,7.112112060546875,-0.5611010193824768,0.37975242733955383,0.5695546865463257
1772791160998178300,7.12217822265625,-0.5254743099212646,0.31245115399360657,0.6904696822166443
1772791161008243200,7.1322431640625,-0.46095168590545654,0.2970152795314789,0.8945549130439758
1772791161018309000,7.14230908203125,-0.4314715564250946,0.3453196883201599,1.0551813840866089
1772791161028374300,7.152374267578125,-0.4974284768104553,0.40129727125167847,1.1136376857757568
1772791161038440200,7.162440185546875,-0.6150220036506653,0.42632779479026794,1.14656400680542
1772791161048506400,7.17250634765625,-0.6860335469245911,0.31238701939582825,1.0839715003967285
1772791161058571000,7.182571044921875,-0.6510537266731262,0.22290320694446564,0.8691215515136719
1772791161068637200,7.19263720703125,-0.5247038006782532,0.34875059127807617,0.6786605715751648
1772791161078702300,7.202702392578125,-0.36597299575805664,0.6026834845542908,0.6168584227561951
1772791161088768300,7.212768310546875,-0.2506396770477295,0.7558861970901489,0.7248515486717224
1772791161098833200,7.222833251953125,-0.15231817960739136,0.6291873455047607,0.9992130398750305
1772791161108899000,7.232899169921875,-0.05926790460944176,0.23827779293060303,1.2265799045562744
1772791161118964200,7.242964111328125,-0.03126183897256851,-0.24166804552078247,1.202991008758545
1772791161129030100,7.253030029296875,-0.06403704732656479,-0.6109480857849121,0.8511608839035034
1772791161139095000,7.263094970703125,-0.08548801392316818,-0.6009098291397095,0.3791741728782654
1772791161149161200,7.2731611328125,-0.0017814261373132467,-0.23909178376197815,0.04046580195426941
1772791161159226000,7.28322607421875,0.13252045214176178,0.09228667616844177,-0.15169166028499603
1772791161169292300,7.293292236328125,0.24096159636974335,0.04617667943239212,-0.2621622383594513
1772791161179358200,7.303358154296875,0.3108602464199066,-0.17561350762844086,-0.2516811192035675
1772791161189423000,7.313423095703125,0.3271810710430145,-0.5279643535614014,-0.2405250072479248
1772791161199489000,7.323489013671875,0.2271370142698288,-0.9104906916618347,-0.2975848317146301
1772791161209554200,7.33355419921875,0.07069196552038193,-1.174641489982605,-0.4010063409805298
1772791161219620400,7.343620361328125,-0.10032425075769424,-1.1973259449005127,-0.46243855357170105
1772791161229685000,7.35368505859375,-0.2239225208759308,-1.1586569547653198,-0.40083733201026917
1772791161239751200,7.363751220703125,-0.29265496134757996,-1.2708103656768799,-0.2547168731689453
1772791161249816000,7.373816162109375,-0.3108329176902771,-1.3450077772140503,-0.17134571075439453
1772791161259882200,7.38388232421875,-0.31663408875465393,-1.299759030342102,-0.31867390871047974
1772791161269947400,7.393947509765625,-0.33211618661880493,-1.0968284606933594,-0.7558966875076294
1772791161280013000,7.404012939453125,-0.3629577159881592,-0.7029546499252319,-1.3129647970199585
1772791161290078200,7.414078125,-0.3161053955554962,-0.30256813764572144,-1.6348795890808105
1772791161300144000,7.42414404296875,-0.2730415463447571,-0.017830949276685715,-1.6003139019012451
1772791161310209300,7.434209228515625,-0.2882506251335144,0.09706011414527893,-1.2141770124435425
1772791161320275000,7.44427490234375,-0.2742850184440613,-0.6863520741462708,-0.5107125639915466
1772791161330341000,7.454341064453125,-0.32222867012023926,-1.3250854015350342,0.2956039309501648
1772791161340406300,7.46440625,-0.709140419960022,-1.0453253984451294,0.3406992554664612
1772791161350472200,7.47447216796875,-0.9891080260276794,-0.4192649722099304,0.17441734671592712
1772791161360537300,7.484537353515625,-1.045259714126587,-0.5039782524108887,0.024174580350518227
1772791161370603000,7.49460302734375,-1.0095152854919434,-0.47348523139953613,-0.07506594806909561
1772791161380668200,7.504668212890625,-0.8782896399497986,-0.34037458896636963,-0.09538213908672333
1772791161390734000,7.514734130859375,-0.6851062178611755,-0.30153536796569824,0.05162213370203972
1772791161400799200,7.52479931640625,-0.5202053785324097,-0.41730162501335144,0.23682928085327148
1772791161410865200,7.534865234375,-0.4893072843551636,-0.4016651213169098,0.26790764927864075
1772791161420930000,7.544929931640625,-0.5688804388046265,-0.36041489243507385,0.18452487885951996
1772791161430996200,7.554996337890625,-0.6594582200050354,-0.4665786921977997,0.14903822541236877
1772791161441061400,7.565061279296875,-0.6877226233482361,-0.6367818713188171,0.21605560183525085
1772791161451127300,7.575127197265625,-0.668443500995636,-0.8521292209625244,0.3417288661003113
1772791161461193000,7.58519287109375,-0.667625367641449,-0.9004610180854797,0.45096641778945923
1772791161471258000,7.595258056640625,-0.6774734854698181,-0.7137933969497681,0.47769948840141296
1772791161481324300,7.60532421875,-0.6761384010314941,-0.46935227513313293,0.4234122931957245
1772791161491389200,7.61538916015625,-0.6540778279304504,-0.1488005369901657,0.4028192162513733
1772791161501455000,7.625455078125,-0.6068727374076843,0.2550739645957947,0.40181466937065125
1772791161511520300,7.635520263671875,-0.5362419486045837,0.3521499037742615,0.5166028141975403
1772791161521586200,7.645586181640625,-0.48547542095184326,0.26712289452552795,0.6903477311134338
1772791161531651300,7.6556513671875,-0.504909873008728,0.04559745267033577,0.8472311496734619
1772791161541717200,7.66571728515625,-0.6799847483634949,-0.3463386297225952,0.9764493703842163
1772791161551782100,7.6757822265625,-0.9463375210762024,-0.6366914510726929,1.1434394121170044
1772791161561848000,7.68584814453125,-1.1905436515808105,-0.8804868459701538,1.259535312652588
1772791161571913200,7.695913330078125,-1.3353434801101685,-0.9322782158851624,1.1759519577026367
1772791161581979400,7.7059794921875,-1.3725075721740723,-0.769495964050293,1.0772219896316528
1772791161592045000,7.716045166015625,-1.38563072681427,-0.5549184083938599,1.0132777690887451
1772791161602110200,7.726110107421875,-1.4293291568756104,-0.43115758895874023,0.9317189455032349
1772791161612176100,7.736176025390625,-1.4877994060516357,-0.4031214714050293,0.8800271153450012
1772791161622241300,7.7462412109375,-1.548472285270691,-0.3566192388534546,0.8894294500350952
1772791161632307200,7.75630712890625,-1.650840401649475,-0.39388954639434814,0.9078677892684937
1772791161642372000,7.7663720703125,-1.7796077728271484,-0.5798833966255188,0.7808456420898438
1772791161652438300,7.776438232421875,-1.823074221611023,-0.7953605055809021,0.45872923731803894
1772791161662503200,7.786503173828125,-1.8375903367996216,-0.9696398973464966,-0.06035732850432396
1772791161672569300,7.7965693359375,-1.7778072357177734,-0.8288620114326477,-0.40647217631340027
1772791161682634200,7.80663427734375,-1.7245200872421265,-0.7793467044830322,-0.6101661920547485
1772791161692700200,7.8167001953125,-1.664493441581726,-0.6989132761955261,-0.6317257285118103
1772791161702765300,7.826765380859375,-1.624434232711792,-0.682639479637146,-0.5351299047470093
1772791161712831200,7.836831298828125,-1.6034866571426392,-0.7375961542129517,-0.4204596281051636
1772791161722897400,7.8468974609375,-1.5895167589187622,-0.910090446472168,-0.34931620955467224
1772791161732962000,7.856962158203125,-1.5560427904129028,-1.0923315286636353,-0.31065118312835693
1772791161743028200,7.8670283203125,-1.5131763219833374,-1.4166324138641357,-0.34021520614624023
1772791161753093000,7.877093017578125,-1.4867563247680664,-1.7160556316375732,-0.45671480894088745
1772791161763159300,7.8871591796875,-1.4471373558044434,-1.8638306856155396,-0.6602024435997009
1772791161773224200,7.89722412109375,-1.3831154108047485,-1.8441174030303955,-0.8975440859794617
1772791161783290000,7.9072900390625,-1.2747063636779785,-1.658705711364746,-1.0773710012435913
1772791161793355300,7.917355224609375,-1.1553854942321777,-1.4078072309494019,-1.1584540605545044
1772791161803421200,7.927421142578125,-1.06505286693573,-1.189168095588684,-1.2035582065582275
1772791161813486000,7.937486083984375,-1.0387569665908813,-1.0075726509094238,-1.18840754032135
1772791161823552300,7.94755224609375,-1.0455970764160156,-0.8703296184539795,-1.052655816078186
1772791161833617200,7.9576171875,-1.0734870433807373,-0.822182297706604,-0.8921457529067993
1772791161843683300,7.967683349609375,-1.1083606481552124,-0.8005965948104858,-0.7401573061943054
1772791161853748000,7.977748046875,-1.1417618989944458,-0.8059655427932739,-0.579133152961731
1772791161863814100,7.987814208984375,-1.1737289428710938,-0.792514979839325,-0.40440526604652405
1772791161873879300,7.99787939453125,-1.2108988761901855,-0.8384782075881958,-0.24521206319332123
1772791161883945200,8.0079453125,-1.223283290863037,-0.8588316440582275,-0.1405293196439743
1772791161894010000,8.018010009765625,-1.2257040739059448,-0.8350686430931091,-0.09882886707782745
1772791161904076000,8.028075927734376,-1.241188645362854,-0.7908119559288025,-0.07356665283441544
1772791161914141200,8.03814111328125,-1.2707942724227905,-0.7102589011192322,-0.015197562985122204
1772791161924211700,8.048211669921875,-1.287731647491455,-0.6858347654342651,0.06792688369750977
1772791161934276900,8.05827685546875,-1.284475326538086,-0.6475688815116882,0.10131176561117172
1772791161944342800,8.0683427734375,-1.2837333679199219,-0.5977759957313538,0.03729629889130592
1772791161954407700,8.07840771484375,-1.3153010606765747,-0.5955304503440857,-0.04207363352179527
1772791161964473600,8.0884736328125,-1.3479290008544922,-0.5945107340812683,-0.08850078284740448
1772791161974539800,8.098539794921875,-1.3773990869522095,-0.5839353799819946,-0.06682925671339035
1772791161984605000,8.10860498046875,-1.388917326927185,-0.5397434234619141,0.022421520203351974
1772791161994670800,8.1186708984375,-1.3893388509750366,-0.45048123598098755,0.14123201370239258
1772791162004735700,8.12873583984375,-1.4004101753234863,-0.2943779230117798,0.2488759309053421
1772791162014801700,8.1388017578125,-1.422455906867981,-0.17911040782928467,0.3757861852645874
1772791162024866800,8.14886669921875,-1.438149333000183,-0.20427808165550232,0.5454636216163635
1772791162034932700,8.1589326171875,-1.4418295621871948,-0.34908440709114075,0.6726476550102234
1772791162044997600,8.16899755859375,-1.4516574144363403,-0.5221413969993591,0.7069560885429382
1772791162055063800,8.179063720703125,-1.5286353826522827,-0.6196783781051636,0.6010462045669556
1772791162065128700,8.189128662109376,-1.6734412908554077,-0.7724159955978394,0.5292782783508301
1772791162075195000,8.19919482421875,-1.8471612930297852,-1.0660383701324463,0.561358630657196
1772791162085259800,8.209259765625,-1.9904652833938599,-1.2945876121520996,0.6276953220367432
1772791162095325700,8.21932568359375,-2.170100450515747,-1.2716877460479736,0.7418920993804932
1772791162105390800,8.229390869140625,-2.346384286880493,-1.1521801948547363,0.8604898452758789
1772791162115456800,8.239456787109376,-2.4639272689819336,-0.9495105743408203,0.7839371562004089
1772791162125523000,8.24952294921875,-2.467125177383423,-0.797562837600708,0.5828008651733398
1772791162135587600,8.259587646484375,-2.369532346725464,-0.7298114895820618,0.3116638958454132
1772791162145653800,8.26965380859375,-2.249596118927002,-0.7499340772628784,0.039253126829862595
1772791162155719000,8.279718994140625,-2.196749448776245,-0.821902334690094,-0.16879774630069733
1772791162165784800,8.289784912109376,-2.244504928588867,-0.936509370803833,-0.24647682905197144
1772791162175849700,8.299849609375,-2.3273751735687256,-1.1176389455795288,-0.25460296869277954
1772791162185915600,8.30991552734375,-2.3557984828948975,-1.2869925498962402,-0.2727750241756439
1772791162195980800,8.319980712890626,-2.271188735961914,-1.3653708696365356,-0.30763259530067444
1772791162206046700,8.330046630859375,-2.1068997383117676,-1.254387378692627,-0.3393060863018036
1772791162216111600,8.340111572265625,-1.9371618032455444,-1.0969599485397339,-0.3326203227043152
1772791162226177800,8.350177734375,-1.8168034553527832,-1.0160096883773804,-0.26361992955207825
1772791162236242700,8.36024267578125,-1.7324119806289673,-1.1166679859161377,-0.09427855908870697
1772791162246308900,8.370308837890626,-1.6358457803726196,-1.4265621900558472,0.13560763001441956
1772791162256374800,8.380374755859375,-1.5250227451324463,-1.7850985527038574,0.3142271339893341
1772791162266439700,8.390439697265625,-1.4113850593566895,-1.9579886198043823,0.3709665536880493
1772791162276505600,8.400505615234374,-1.3112841844558716,-2.0082645416259766,0.25490602850914
1772791162286570800,8.41057080078125,-1.2647217512130737,-1.952691674232483,-0.031005624681711197
1772791162296637000,8.420636962890624,-1.2152293920516968,-1.8432152271270752,-0.4368642270565033
1772791162306701600,8.43070166015625,-1.199722409248352,-1.7193084955215454,-0.7232682704925537
1772791162316767700,8.440767822265625,-1.0473964214324951,-1.404987096786499,-0.8514994382858276
1772791162326833000,8.4508330078125,-0.8649459481239319,-1.0532770156860352,-0.7999630570411682
1772791162336898800,8.46089892578125,-0.7591937184333801,-0.7771984934806824,-0.5761556029319763
1772791162346963700,8.470963623046876,-0.7160672545433044,-0.5321677327156067,-0.3594198226928711
1772791162357029600,8.481029541015625,-0.7569278478622437,-0.36801519989967346,-0.18423029780387878
1772791162367094800,8.4910947265625,-0.844243049621582,-0.3867334723472595,-0.08812719583511353
1772791162377160700,8.50116064453125,-0.9222354292869568,-0.5551740527153015,-0.07428233325481415
1772791162387227000,8.511226806640625,-0.938807487487793,-0.7695513367652893,-0.07820490002632141
1772791162397291800,8.521291748046876,-0.9304009675979614,-0.9575698971748352,-0.0021832091733813286
1772791162407357700,8.531357666015625,-0.9439995884895325,-1.0640428066253662,0.13771504163742065
1772791162417422800,8.5414228515625,-0.9419586658477783,-1.0916932821273804,0.26852625608444214
1772791162427488800,8.55148876953125,-0.9036240577697754,-1.0507229566574097,0.3343411982059479
1772791162437553700,8.5615537109375,-0.8704895377159119,-0.9569125771522522,0.3246944844722748
1772791162447619600,8.57161962890625,-0.8402275443077087,-0.832895040512085,0.21495890617370605
1772791162457684700,8.581684814453125,-0.8607840538024902,-0.6499910354614258,0.07753556966781616
1772791162467751000,8.5917509765625,-1.0049095153808594,-0.47277235984802246,0.10482151806354523
1772791162477815800,8.60181591796875,-1.1368147134780884,-0.2998637855052948,0.19150565564632416
1772791162487881700,8.6118818359375,-1.2689156532287598,-0.2848648428916931,0.37625181674957275
1772791162497946600,8.621946533203126,-1.2864388227462769,-0.3422947824001312,0.6115440130233765
1772791162508012800,8.6320126953125,-1.2638096809387207,-0.47003117203712463,0.7618924975395203
1772791162518078700,8.64207861328125,-1.2906086444854736,-0.531423807144165,0.8301075100898743
1772791162528145000,8.652144775390624,-1.358350157737732,-0.5581092238426208,0.8498236536979675
1772791162538209800,8.662209716796875,-1.4511066675186157,-0.6031803488731384,0.8578613996505737
1772791162548275700,8.672275634765626,-1.5549358129501343,-0.8314001560211182,0.959894597530365
1772791162558340900,8.6823408203125,-1.601992130279541,-1.1124686002731323,0.9960933327674866
1772791162568406800,8.69240673828125,-1.6874641180038452,-1.2518559694290161,0.9746658205986023
1772791162578471700,8.7024716796875,-1.7225974798202515,-1.1260271072387695,0.8317636847496033
1772791162588537600,8.71253759765625,-1.6639341115951538,-0.8389258980751038,0.6824098825454712
1772791162598602800,8.722602783203126,-1.589246153831482,-0.7247908711433411,0.6417361497879028
1772791162608669000,8.7326689453125,-1.5546116828918457,-0.7541189193725586,0.5940809845924377
1772791162618733600,8.742733642578125,-1.5672523975372314,-0.8192852735519409,0.6620813608169556
1772791162628799700,8.7527998046875,-1.5789730548858643,-0.8891668915748596,0.7410174608230591
1772791162638864600,8.76286474609375,-1.5829931497573853,-0.9004262089729309,0.6675900816917419
1772791162648930800,8.772930908203126,-1.590388536453247,-0.8899849653244019,0.40651214122772217
1772791162658996700,8.782996826171875,-1.5903810262680054,-0.9050284028053284,-0.04293716326355934
1772791162669061600,8.7930615234375,-1.5678589344024658,-0.9185561537742615,-0.5066992044448853
1772791162679127800,8.8031279296875,-1.5354381799697876,-0.8479911684989929,-0.7928043007850647
1772791162689192700,8.813192626953125,-1.4918911457061768,-0.659843921661377,-0.8366734981536865
1772791162699259000,8.8232587890625,-1.4159525632858276,-0.3982033431529999,-0.7408185005187988
1772791162709323500,8.833323486328124,-1.3195298910140991,-0.20694123208522797,-0.5630381107330322
1772791162719389700,8.8433896484375,-1.1875487565994263,-0.25633102655410767,-0.32127243280410767
1772791162729454800,8.853454833984374,-1.0276252031326294,-0.5831325650215149,-0.057643190026283264
1772791162739520800,8.863520751953125,-0.903390109539032,-1.0605257749557495,0.1539512276649475
1772791162749586000,8.8735859375,-0.8093634843826294,-1.4942997694015503,0.25958311557769775
1772791162759651600,8.883651611328125,-0.7144773006439209,-1.7143288850784302,0.2656779885292053
1772791162769716700,8.893716796875,-0.5364021062850952,-1.8198527097702026,0.13654610514640808
1772791162779782700,8.90378271484375,-0.37472954392433167,-1.7551430463790894,-0.030807483941316605
1772791162789847800,8.913847900390625,-0.23722732067108154,-1.5403684377670288,-0.24423907697200775
1772791162799913700,8.923913818359376,-0.11236340552568436,-1.3688873052597046,-0.571832001209259
1772791162809979600,8.933979736328125,-0.022319264709949493,-1.1193486452102661,-0.9380733370780945
1772791162820044800,8.944044921875,0.058487508445978165,-0.8091399073600769,-1.1723026037216187
1772791162830110700,8.95411083984375,0.13466057181358337,-0.5183930397033691,-1.2170636653900146
1772791162840175900,8.96417578125,0.14192616939544678,-0.27151602506637573,-1.0989396572113037
1772791162850241500,8.974241455078126,0.06734007596969604,-0.11133140325546265,-0.898457944393158
1772791162860306700,8.984306640625,-0.028374189510941505,-0.030152786523103714,-0.7055048942565918
1772791162870372900,8.994372802734375,-0.11676637083292007,-0.013319211080670357,-0.5490587949752808
1772791162880437800,9.004437744140626,-0.18933825194835663,-0.02465372532606125,-0.4259699285030365
1772791162890503700,9.014503662109375,-0.24008558690547943,-0.07465244829654694,-0.31850287318229675
1772791162900568800,9.02456884765625,-0.2929575741291046,-0.15209752321243286,-0.2577872574329376
1772791162910634800,9.034634765625,-0.3242292106151581,-0.23707899451255798,-0.2564716637134552
1772791162920695800,9.04469580078125,-0.3476503789424896,-0.23954814672470093,-0.35025471448898315
1772791162930761700,9.05476171875,-0.4000464677810669,-0.18570968508720398,-0.47751811146736145
1772791162940827000,9.064826904296876,-0.5005384683609009,-0.06829085946083069,-0.4828123450279236
1772791162950892800,9.074892822265625,-0.6366366147994995,0.05566331371665001,-0.3117910623550415
1772791162960958700,9.084958740234375,-0.7566446661949158,0.14108464121818542,-0.02440391294658184
1772791162971024000,9.09502392578125,-0.8144142031669617,0.13847342133522034,0.25525012612342834
1772791162981089800,9.10508984375,-0.7970779538154602,0.0582113116979599,0.48764923214912415
1772791162991155000,9.115155029296876,-0.716033935546875,-0.06136196106672287,0.6734079122543335
1772791163001220600,9.125220703125,-0.6160733103752136,-0.17140303552150726,0.7345664501190186
1772791163011285800,9.13528564453125,-0.5397476553916931,-0.24255044758319855,0.6853496432304382
1772791163021352000,9.14535205078125,-0.5050309896469116,-0.28236061334609985,0.5972450971603394
1772791163031416800,9.155416748046875,-0.5276116728782654,-0.30836400389671326,0.5218302607536316
1772791163041482800,9.165482666015626,-0.5643398761749268,-0.44276273250579834,0.4271015524864197
1772791163051547600,9.175547607421874,-0.6130536198616028,-0.6468274593353271,0.27544891834259033
1772791163061613800,9.18561376953125,-0.6655516624450684,-0.7814657092094421,0.11083780229091644
1772791163071679000,9.195678955078124,-0.6775910258293152,-0.7779932022094727,0.019414149224758148
1772791163081745000,9.205744873046875,-0.6415943503379822,-0.6171080470085144,0.0606875978410244
1772791163091809800,9.215809814453126,-0.6409066915512085,-0.43456220626831055,0.2541414797306061
1772791163101875700,9.225875732421875,-0.692870557308197,-0.3185737431049347,0.5015642046928406
1772791163111940900,9.23594091796875,-0.7489993572235107,-0.35165634751319885,0.6578952670097351
1772791163122006800,9.2460068359375,-0.7843016386032104,-0.5141916275024414,0.6400337815284729
1772791163132072700,9.25607275390625,-0.793445348739624,-0.6956666111946106,0.5297274589538574
1772791163142137900,9.266137939453126,-0.7919725775718689,-0.819821834564209,0.36985594034194946
1772791163152203800,9.276203857421875,-0.799509584903717,-0.839394211769104,0.19985704123973846
1772791163162269000,9.28626904296875,-0.8110407590866089,-0.7424034476280212,0.04321565479040146
1772791163172334800,9.2963349609375,-0.8071687817573547,-0.6253138184547424,-0.08277450501918793
1772791163182399700,9.306399658203125,-0.7865139842033386,-0.4995264410972595,-0.1768060177564621
1772791163192465700,9.316465576171876,-0.7637495994567871,-0.41251271963119507,-0.23163224756717682
1772791163202530800,9.32653076171875,-0.7361429333686829,-0.3522728979587555,-0.22657586634159088
1772791163212597000,9.336596923828125,-0.6934967041015625,-0.3257470428943634,-0.13896745443344116
1772791163222661600,9.34666162109375,-0.6318649053573608,-0.34446269273757935,0.01308558788150549
1772791163232727800,9.356727783203125,-0.5691479444503784,-0.42113348841667175,0.17801381647586823
1772791163242793000,9.36679296875,-0.5274772644042969,-0.5239479541778564,0.3330748677253723
1772791163252859000,9.37685888671875,-0.5084569454193115,-0.6504366397857666,0.47515958547592163
1772791163262923800,9.386923828125,-0.4959839880466461,-0.7768010497093201,0.594184160232544
1772791163272989700,9.39698974609375,-0.49040332436561584,-0.8662300109863281,0.6715210676193237
1772791163283055900,9.407055908203125,-0.4864645302295685,-0.8890106678009033,0.69914710521698
1772791163293120800,9.417120849609375,-0.47632160782814026,-0.8107523918151855,0.6502354741096497
1772791163303187000,9.42718701171875,-0.43975579738616943,-0.621652364730835,0.542653501033783
1772791163313251800,9.437251953125,-0.37684366106987,-0.34868496656417847,0.39879918098449707
1772791163323317800,9.44731787109375,-0.3246361017227173,-0.03353550657629967,0.2529265880584717
1772791163333383000,9.4573828125,-0.29224008321762085,0.1708192378282547,0.11952964961528778
1772791163343448800,9.46744873046875,-0.2896878123283386,0.20862384140491486,-0.00709620863199234
1772791163353513700,9.477513671875,-0.3271699547767639,0.15625891089439392,-0.1368163824081421
1772791163363579600,9.48757958984375,-0.3473348021507263,0.02614755369722843,-0.20550668239593506
1772791163373644800,9.497644775390626,-0.31314006447792053,-0.06270615011453629,-0.18834607303142548
1772791163383711000,9.5077109375,-0.20377258956432343,-0.08043614774942398,-0.23571784794330597
1772791163393775600,9.517775634765625,-0.10696667432785034,-0.028473081067204475,-0.4154362380504608
1772791163403841800,9.527841796875,-0.05843435600399971,0.01710234396159649,-0.6416119337081909
1772791163413906700,9.53790673828125,-0.045960377901792526,-0.018914513289928436,-0.8287807703018188
1772791163423972900,9.547972900390626,0.0057760621421039104,-0.15770100057125092,-0.9191432595252991
1772791163434037800,9.558037841796875,0.11215363442897797,-0.26330626010894775,-0.8824625015258789
1772791163444103700,9.568103759765625,0.2487131804227829,-0.2615470886230469,-0.7702127695083618
1772791163454169900,9.578169921875,0.3665258288383484,-0.155567929148674,-0.7207652926445007
1772791163464234800,9.58823486328125,0.4102669358253479,0.0030159633606672287,-0.8297811150550842
1772791163474301000,9.598301025390626,0.35408514738082886,0.1742369681596756,-1.0719304084777832
1772791163484365800,9.60836572265625,0.25281190872192383,0.22098761796951294,-1.3128552436828613
1772791163494431700,9.618431640625,0.18928271532058716,0.1258067637681961,-1.3485239744186401
1772791163504497000,9.628496826171874,0.16934020817279816,0.00819019228219986,-1.1898841857910156
1772791163514562800,9.638562744140625,0.16254355013370514,-0.06832988560199738,-0.931098997592926
1772791163524627700,9.648627685546876,0.1549033671617508,-0.040446460247039795,-0.7360270619392395
1772791163534693600,9.658693603515625,0.13835635781288147,0.08483795821666718,-0.6833774447441101
1772791163544758800,9.6687587890625,0.1185636818408966,0.19530227780342102,-0.7034947276115417
1772791163554824700,9.67882470703125,0.09997774660587311,0.19627965986728668,-0.704073429107666
1772791163564889900,9.688889892578125,0.10273116081953049,0.09972536563873291,-0.6539518237113953
1772791163574955800,9.698955810546876,0.12591131031513214,-0.047027587890625,-0.5457872748374939
1772791163585020700,9.709020751953124,0.15915393829345703,-0.20187819004058838,-0.41307634115219116
1772791163595086800,9.7190869140625,0.17456431686878204,-0.2875797748565674,-0.2868281304836273
1772791163605152000,9.729152099609376,0.12966322898864746,-0.24242746829986572,-0.1823449730873108
1772791163615217700,9.7392177734375,-0.007705816067755222,-0.09549261629581451,-0.08430176973342896
1772791163625282800,9.74928271484375,-0.19934017956256866,0.07387862354516983,0.07082877308130264
1772791163635348700,9.7593486328125,-0.3893127739429474,0.12107755988836288,0.3234040439128876
1772791163645415000,9.769414794921875,-0.5185324549674988,0.08278310298919678,0.648046612739563
1772791163655479800,9.779479736328126,-0.5527135729789734,0.05284518003463745,0.9685527086257935
1772791163665545700,9.789545654296875,-0.5898921489715576,-0.01190700102597475,1.0987578630447388
1772791163675611000,9.79961083984375,-0.7252587676048279,-0.024364735931158066,1.0081292390823364
1772791163685676800,9.8096767578125,-0.9210255146026611,-0.03407580778002739,0.8299247026443481
1772791163695742000,9.819741943359375,-1.0563536882400513,-0.12289861589670181,0.8315942287445068
1772791163705807600,9.8298076171875,-1.0312724113464355,-0.21408548951148987,0.9938680529594421
1772791163715872800,9.839872802734375,-0.876828670501709,-0.20565178990364075,1.0546873807907104
1772791163725938700,9.849938720703125,-0.7500939965248108,-0.05456353724002838,0.8398748636245728
1772791163736003800,9.86000390625,-0.6989541053771973,0.11527476459741592,0.45297160744667053
1772791163746070000,9.870070068359375,-0.716399073600769,0.17242173850536346,0.008439305238425732
1772791163756134700,9.880134765625,-0.7552111744880676,0.14089949429035187,-0.2592206299304962
1772791163766200800,9.890200927734375,-0.7494286894798279,0.1053641140460968,-0.3312055766582489
1772791163776266000,9.900265869140625,-0.7208369970321655,0.24788157641887665,-0.30811887979507446
1772791163786332000,9.910331787109374,-0.7013976573944092,0.4785884916782379,-0.2989732623100281
1772791163796396800,9.920396728515625,-0.6979605555534363,0.6324579119682312,-0.3594544529914856
1772791163806462700,9.930462646484376,-0.45545342564582825,1.063847541809082,-0.5072157382965088
1772791163816529000,9.94052880859375,-0.7213764786720276,2.129734992980957,-0.9253940582275391
1772791163826593800,9.95059375,-0.7110089659690857,1.9578438997268677,-1.0680363178253174
1772791163836660000,9.960659912109374,-1.0748956203460693,1.5836846828460693,-1.0284696817398071
1772791163846724900,9.970724853515625,-1.3783398866653442,1.556855320930481,-1.1788748502731323
1772791163856790800,9.980790771484376,-1.0955191850662231,1.5707511901855469,-1.2435427904129028
1772791163866856000,9.99085595703125,-0.6023910045623779,1.0623563528060913,-0.8498730659484863
1772791163876921900,10.000921875,-0.701084554195404,0.673257052898407,-0.5914953351020813
1772791163886986800,10.01098681640625,-0.8029592037200928,0.42346280813217163,-0.5028356313705444
1772791163897052700,10.021052734375,-0.9119962453842163,0.2496318817138672,-0.1815667748451233
1772791163907117800,10.031117919921876,-0.8714184761047363,-0.8651410937309265,-0.36085227131843567
1772791163917183200,10.041183349609375,-0.7676721215248108,-1.8737499713897705,-0.5390926003456116
1772791163927248100,10.051248046875,-0.5603914260864258,-2.1221094131469727,-0.36309295892715454
1772791163937314300,10.061314208984374,-0.29926425218582153,-2.1605842113494873,-0.1570281982421875
1772791163947379200,10.071379150390625,-0.24926753342151642,-1.7626862525939941,0.026528744027018547
1772791163957445000,10.081445068359375,-0.3981390595436096,-1.6316393613815308,0.28603169322013855
1772791163967510300,10.09151025390625,-0.4720079004764557,-2.2401926517486572,0.5556703805923462
1772791163977576200,10.101576171875,-0.40228554606437683,-2.613035202026367,0.8138135075569153
1772791163987641000,10.11164111328125,-0.2156064659357071,-2.6294238567352295,0.7934459447860718
1772791163997707000,10.12170703125,0.02438589558005333,-2.408317804336548,0.5429732799530029
1772791164007772200,10.131772216796875,0.17424774169921875,-1.7876877784729004,0.2914963662624359
1772791164017838300,10.14183837890625,0.25690239667892456,-0.8758768439292908,0.10588361322879791
1772791164027904300,10.151904296875,0.34428271651268005,0.053862009197473526,0.1326766163110733
1772791164037969200,10.16196923828125,0.23662547767162323,1.0493108034133911,0.002103164792060852
1772791164048035000,10.17203515625,0.1806306093931198,0.630048930644989,-0.18961405754089355
1772791164058100200,10.182100341796875,0.20482702553272247,0.15479028224945068,-0.17345081269741058
1772791164068166100,10.192166259765624,0.2433539479970932,0.06347906589508057,0.008912498131394386
1772791164078231000,10.20223095703125,0.22047287225723267,-0.03558946028351784,0.12218232452869415
1772791164088297200,10.212297119140626,0.1692989021539688,-0.18558426201343536,0.18659721314907074
1772791164098362000,10.222362060546875,0.06775550544261932,-0.25136300921440125,0.22796861827373505
1772791164108428300,10.23242822265625,-0.021872419863939285,-0.2689549922943115,0.3699268400669098
1772791164118493200,10.2424931640625,-0.06209706887602806,-0.19050465524196625,0.5759617686271667
1772791164128559000,10.25255908203125,-0.09387707710266113,0.009118891321122646,0.8164923787117004
1772791164138624300,10.262624267578126,-0.12994426488876343,0.2565385401248932,0.996819019317627
1772791164148690200,10.272690185546875,-0.1731683611869812,0.27459579706192017,0.9567505121231079
1772791164158755000,10.282755126953125,-0.1699182391166687,0.08770794421434402,0.7001528143882751
1772791164168821000,10.292821044921874,-0.1588924378156662,-0.12697790563106537,0.38518860936164856
1772791164178886100,10.30288623046875,-0.15404202044010162,-0.16013771295547485,0.21543127298355103
1772791164188952300,10.312952392578126,-0.16906382143497467,0.024907797574996948,0.24206840991973877
1772791164199017200,10.323017333984374,-0.1784844994544983,0.4348292946815491,0.4028674066066742
1772791164209083100,10.333083251953125,-0.2817511558532715,0.5453230142593384,0.4432010352611542
1772791164219148000,10.34314794921875,-0.36692142486572266,0.5528964996337891,0.4353162348270416
1772791164229214200,10.353214111328125,-0.346938818693161,0.3976186513900757,0.24450330436229706
1772791164239279400,10.363279296875,-0.2913661003112793,0.16864219307899475,-0.10690212994813919
1772791164249345000,10.373344970703124,-0.16878348588943481,0.04166684299707413,-0.5146833062171936
1772791164259411200,10.3834111328125,-0.047063179314136505,0.019874729216098785,-0.8998786807060242
1772791164269476000,10.39347607421875,-0.09545579552650452,0.13576939702033997,-1.1332732439041138
1772791164279542300,10.403542236328125,-0.17503026127815247,0.4014016091823578,-1.224785327911377
1772791164289607200,10.413607177734375,-0.22769688069820404,0.6262111663818359,-1.1951839923858643
1772791164299673000,10.423673095703125,-0.25434476137161255,0.6612658500671387,-1.099944829940796
1772791164309738200,10.43373828125,-0.27399101853370667,0.6035344004631042,-0.9533615112304688
1772791164319804200,10.44380419921875,-0.1635635942220688,0.2722843289375305,-0.9722947478294373
1772791164329869300,10.453869384765625,-0.06560687720775604,-0.19020868837833405,-1.1386162042617798
1772791164339935000,10.46393505859375,0.02116743102669716,-0.6481482982635498,-1.316117763519287
1772791164350000000,10.474000244140624,0.07276863604784012,-0.9406531453132629,-1.3140959739685059
1772791164360066000,10.484066162109375,0.1139373779296875,-1.0150190591812134,-1.197242021560669
1772791164370131200,10.494131103515626,0.11824096739292145,-0.8041263222694397,-1.020878791809082
1772791164380197400,10.504197265625,0.08539433777332306,-0.43610677123069763,-0.8413394093513489
1772791164390262000,10.514261962890625,0.034957848489284515,-0.11176707595586777,-0.7112823724746704
1772791164400328200,10.524328125,0.017879260703921318,0.04500841721892357,-0.7203933000564575
1772791164410393300,10.534393310546875,0.05298475921154022,0.035218723118305206,-0.8068951964378357
1772791164420459300,10.544459228515626,0.04013793542981148,0.1213219091296196,-0.8359207510948181
1772791164430524200,10.554524169921875,0.021228957921266556,0.2324122190475464,-0.800442636013031
1772791164440590000,10.564590087890625,-0.026089021936058998,0.4257127046585083,-0.6612208485603333
1772791164450655200,10.5746552734375,-0.09859568625688553,0.6082656383514404,-0.3921019732952118
1772791164460721200,10.58472119140625,-0.18389780819416046,0.7603856921195984,0.06619662046432495
1772791164470786000,10.5947861328125,-0.16611965000629425,0.5759446620941162,0.4087158143520355
1772791164480852200,10.604852294921875,-0.14037035405635834,0.19863170385360718,0.6080174446105957
1772791164490917000,10.614917236328125,-0.11245868355035782,-0.13777445256710052,0.6139300465583801
1772791164500983300,10.6249833984375,-0.1234884262084961,-0.27955928444862366,0.48290470242500305
1772791164511048200,10.635048095703125,-0.18368057906627655,-0.2572486698627472,0.3055616617202759
1772791164521114000,10.645114013671876,-0.2663666605949402,-0.07313261181116104,0.17212264239788055
1772791164531180000,10.655179931640625,-0.3202558159828186,0.11832866072654724,0.13402453064918518
1772791164541245200,10.6652451171875,-0.33652347326278687,0.25702956318855286,0.19850577414035797
1772791164551311400,10.675311279296874,-0.3322071433067322,0.2970902919769287,0.33367055654525757
1772791164561376000,10.6853759765625,-0.3219699263572693,0.21229712665081024,0.5814353823661804
1772791164571442200,10.695442138671876,-0.23168349266052246,0.06575632840394974,0.7664197683334351
1772791164581507300,10.70550732421875,-0.18024614453315735,-0.132722407579422,1.0253336429595947
