time,seconds_elapsed,z,y,x
1772868606490699800,0.08069970703125,0.1217185002207756,-0.023521745362877846,0.11160729444250464
1772868606500765700,0.090765625,0.24631109457314013,-0.2918105707272887,-0.26403504037745296
1772868606510831900,0.100831787109375,0.4089478806376457,-0.21086305683404205,0.30943536700606344
1772868606520898800,0.11089892578125,0.07007716031074523,-0.018188275380432606,0.8556093327935784
1772868606530964700,0.12096484375,-0.4460860634207725,-0.23883330603837966,0.6739656484421342
1772868606541031000,0.131031005859375,-0.5833686279982329,-0.732783236657083,0.3026609044350684
1772868606551097900,0.141097900390625,-0.44022564695477484,-1.0256175974741577,0.21107889154180884
1772868606561163800,0.151163818359375,-0.2119575740724802,-1.1180582730233668,0.17001359844282268
1772868606571230000,0.16122998046875,-0.2182797628313303,-1.2000725393652916,0.13850903763249517
1772868606581297000,0.171296875,-0.38088790732324124,-1.2589829934954642,0.20672128085419533
1772868606591362800,0.18136279296875,-0.4646048859298229,-1.4005886819690465,0.1593582027852535
1772868606601430000,0.191429931640625,-0.36882103743255135,-1.492463832589984,0.10630801899060606
1772868606611495700,0.20149560546875,-0.1616167953670025,-1.4740250895798206,0.15913915320709346
1772868606621561900,0.211561767578125,-0.04104804970324039,-1.64103702198863,0.14863412580564617
1772868606631628800,0.22162890625,-0.0006435586005449295,-1.7873925353378057,0.26779402758479115
1772868606641694700,0.23169482421875,-0.09869827463924884,-1.9400003870800135,0.3611971914906055
1772868606651761000,0.241760986328125,-0.1882242317855358,-2.0153692240580914,0.3263116830050945
1772868606661827800,0.251827880859375,-0.23681261386573313,-1.981013073208928,0.27112412185557183
1772868606671893800,0.261893798828125,-0.38356384853422637,-1.9122236146211622,0.23258549768999218
1772868606681960000,0.2719599609375,-0.43957273600399493,-1.865333122500032,0.30056670863479373
1772868606692027000,0.28202685546875,-0.3060492316991091,-1.7620893133856355,0.2824585127532482
1772868606702092800,0.2920927734375,-0.2802285617440939,-1.6266363023228942,0.24393304033018648
1772868606712159000,0.302158935546875,-0.6543512127161025,-1.7177743708409368,0.050989013481140134
1772868606722226000,0.312225830078125,-1.1264157670021056,-1.7322598461806773,-0.01066295790951699
1772868606732291800,0.322291748046875,-1.3744582154124974,-1.6724201483763754,-0.05357519404944032
1772868606742357800,0.332357666015625,-1.4523644619137048,-1.740732344841212,-0.19322090756166727
1772868606752424700,0.3424248046875,-1.333244161492586,-1.6677055409446357,-0.3061454403488897
1772868606762490600,0.35249072265625,-1.1095306831747294,-1.4461214758709071,-0.44037181395981456
1772868606772556800,0.362556884765625,-0.9582043956756591,-1.164595275531709,-0.6455003091972321
1772868606782623700,0.372623779296875,-0.748755005031824,-0.7172638882249593,-0.6964586352791636
1772868606792690000,0.38268994140625,-0.42131168764829635,-0.33921354241520163,-0.7283161742456257
1772868606802755800,0.392755859375,-0.07301029115319252,-0.087617054785043,-0.8611559340700506
1772868606812822800,0.40282275390625,0.27037819885909553,0.17610870044752955,-0.9427567973054944
1772868606822889000,0.412888916015625,0.6254600492745638,0.4233697892218828,-0.9716728029273449
1772868606832955000,0.422954833984375,0.7515425899237393,0.42544279610365626,-1.1853232254575938
1772868606843021800,0.433021728515625,0.7318067928403615,0.4761423251189291,-1.2869079422533511
1772868606853088000,0.443087890625,0.8813730849295854,0.6147802498281002,-1.379571028381586
1772868606863154000,0.45315380859375,1.0160434211820364,0.4689733102723956,-1.7424448478475212
1772868606873220900,0.463220947265625,1.0810913551539183,0.26300767009109255,-2.0101491513222456
1772868606883286800,0.473286865234375,0.9850316123247146,0.02999912468343973,-2.1720449097611008
1772868606893352700,0.483352783203125,0.6300578984588384,-0.11598375596106052,-2.3306750905327496
1772868606903419600,0.493419677734375,0.2880921347260475,0.0058215457603335375,-2.2971650351189075
1772868606913485800,0.50348583984375,-0.0074848027974367135,0.1507473185673356,-2.241706475008279
1772868606923551700,0.5135517578125,-0.31084172667264937,0.22772563656866548,-2.250095679299533
1772868606933618700,0.52361865234375,-0.7408838332653045,0.1934244307771325,-2.292361288098991
1772868606943684900,0.533684814453125,-1.3337223003983496,0.01003770215064287,-2.245476495066285
1772868606953750800,0.543750732421875,-1.8499568358004093,0.08371551730185747,-1.9173897652126848
1772868606963817700,0.553817626953125,-2.306802193644643,0.5106389073520898,-1.3825345543622969
1772868606973884000,0.5638837890625,-2.6534879716366526,0.9210048380941152,-0.5908403886510059
1772868606983949800,0.57394970703125,-2.7392110293686387,1.4327821018263698,-0.08873628633962943
1772868606994016800,0.584016845703125,-2.2963877671360966,1.9534256858423351,0.34586255197562277
1772868607004083000,0.5940830078125,-1.503946180590987,2.2563617539569734,0.5672662189811468
1772868607014148600,0.604148681640625,-0.44844344020187854,2.4120836460664865,0.3887717193756252
1772868607024214800,0.61421484375,0.6609411125004291,2.472649758449197,0.13446202726401388
1772868607034281700,0.62428173828125,1.2423556838214396,2.4774174112424254,-0.14244279688484965
1772868607044347600,0.63434765625,1.3847019615292548,2.338370759601891,-0.2645275731347501
1772868607054413800,0.644413818359375,1.275510934448242,1.8534961158424614,-0.6595199936561286
1772868607064480800,0.654480712890625,1.4180366603761911,1.5429022264510392,-0.5978107391202822
1772868607074546700,0.664546630859375,1.7844366081416605,1.6115902704909444,-0.3562219603613019
1772868607084612600,0.674612548828125,1.621124699294567,1.5534484626457095,-0.31206849198862907
1772868607094679600,0.684679443359375,1.1818103219658136,1.3142033609360455,-0.4579381945822388
1772868607104745700,0.694745849609375,0.6956190426498651,1.123932718014717,-0.6480075427778065
1772868607114811600,0.704811767578125,0.34637422782480715,1.0327908501043914,-0.7605122244514525
1772868607124878600,0.714878662109375,0.11194646326899528,0.9516060203239322,-0.6957538480106741
1772868607134944800,0.72494482421875,0.15651450379192827,0.8867129846528172,-0.4382688137985766
1772868607145010700,0.7350107421875,0.4788379939436912,0.9754258718505501,-0.09356069255508481
1772868607155077600,0.74507763671875,0.804375185444951,1.1597720931589603,0.23608013487271964
1772868607165143800,0.755143798828125,1.0048474889069794,1.5015134004861115,0.6656405223630368
1772868607175209700,0.765209716796875,0.8961305090785026,1.902572865961492,1.110915123270452
1772868607185276700,0.775276611328125,0.44915071168839926,2.1429174533456563,1.437975578816235
1772868607195342800,0.7853427734375,-0.05075052855014801,2.1065195675358175,1.6505775882720946
1772868607205408800,0.79540869140625,-0.32475860834419723,1.748167024886608,1.7719088427409528
1772868607215475700,0.805475830078125,-0.4205950638115406,1.6330571291506288,1.6659122277870773
1772868607225541600,0.815541748046875,-0.38789690930247306,1.3948133134379983,1.7310479861728847
1772868607235607600,0.825607666015625,-0.5157195716172457,1.0117875173032282,1.496038037814945
1772868607245674500,0.835674560546875,-0.5543266579091548,0.5650356834501028,1.1649068256989121
1772868607255740700,0.84574072265625,-0.4855670099377632,0.0490080687969923,0.9493190784305333
1772868607265806600,0.855806640625,-0.5258937596291303,-0.5298828292652964,0.6761487646348774
1772868607275873500,0.86587353515625,-0.6673141546636819,-0.9072785105586051,0.3785311150640249
1772868607285939700,0.875939697265625,-0.7384861244738101,-1.1394950288057326,0.22477453167811035
1772868607296005600,0.886005615234375,-0.6735977649778128,-1.38444038798362,0.0014661270298063755
1772868607306072800,0.89607275390625,-0.3433411437392235,-1.337291098795831,0.030747604963183402
1772868607316138800,0.906138671875,-0.029001053556799886,-1.1212716821119189,0.1997648858450353
1772868607326204700,0.91620458984375,0.2528916420072317,-1.0104036617293952,0.1700111142247915
1772868607336272000,0.92627197265625,0.33629180974960327,-0.7975587834283709,0.15557327741906046
1772868607346337800,0.936337890625,0.2670774037480354,-0.5885410622000694,0.07775865472406149
1772868607356403700,0.94640380859375,0.23819617717862127,-0.4277648093104362,0.06122676824852824
1772868607366471000,0.956470947265625,0.2503559860497713,-0.2792404274895787,0.1784387508302927
1772868607376536600,0.96653662109375,0.22524083401560782,-0.14002864841520785,0.1594634167253971
1772868607386602800,0.976602783203125,0.07982172473371028,-0.15196546218544243,0.13093845624774694
1772868607396668700,0.986668701171875,-0.09901274741590023,-0.3322618235811591,0.1134182893872261
1772868607406735600,0.996735595703125,-0.22087913167476653,-0.4446539847910404,0.0016299392893910406
1772868607416801800,1.0068017578125,-0.27873043214082716,-0.45621056707203383,-0.026084581588208675
1772868607426867700,1.01686767578125,-0.33132454273104667,-0.3174652364656329,0.09438830248564481
1772868607436934700,1.0269345703125,-0.24160043266415596,-0.4090916730225086,-0.1128964574702084
1772868607447000800,1.037000732421875,-0.11674597250521182,-0.4441416513547301,-0.28106574322059746
1772868607457066800,1.047066650390625,0.0026209961533546445,-0.5607677968725562,-0.2793935722246766
1772868607467133700,1.0571337890625,0.045644145321846005,-0.6224439163237809,-0.32641806598901746
1772868607477200000,1.067199951171875,0.02471884619295597,-0.6123927701696753,-0.4267731679245829
1772868607487265500,1.077265625,0.012601122897863387,-0.5639382436022162,-0.39311815108209847
1772868607497332700,1.087332763671875,0.0015530746608972549,-0.530595945970714,-0.43293709738180036
1772868607507398700,1.097398681640625,-0.031662381720542906,-0.479457587146759,-0.48797363268807525
1772868607517464600,1.107464599609375,0.056526773864030835,-0.31461393868774173,-0.40686435236185786
1772868607527531500,1.117531494140625,0.2641635621279478,-0.08739303677082061,-0.2797723424091935
1772868607537597700,1.12759765625,0.4962579153001308,0.06440788250267505,-0.18211919290870426
1772868607547663600,1.13766357421875,0.6885942585796118,0.06337649362832308,-0.18588658261820673
1772868607557730600,1.14773046875,0.8312485793232918,-0.03910159181058406,-0.15155089003518224
1772868607567796700,1.157796630859375,0.8713058644235133,-0.21790128490775823,-0.13145648877248167
1772868607577862700,1.167862548828125,0.8675339446693658,-0.37136429217457767,-0.07863923695087432
1772868607587929600,1.1779296875,0.8424813364773989,-0.46916795606166123,-0.0066124038770794865
1772868607597995800,1.187995849609375,0.8165168741375207,-0.5068365924596786,0.08179287867620587
1772868607608061700,1.198061767578125,0.6960889982491731,-0.624963497929275,0.09415303242504597
1772868607618129000,1.20812890625,0.5267845709890127,-0.6961006886869668,0.15102818133533
1772868607628194800,1.21819482421875,0.30116847392022605,-0.7780234773531556,0.2776137030705809
1772868607638260500,1.228260498046875,0.026374212184548378,-0.8948150425657629,0.4215376053586602
1772868607648326700,1.23832666015625,-0.2017307790905237,-0.9944736866697669,0.47720834691524505
1772868607658393600,1.2483935546875,-0.3525070314913988,-1.149417872405052,0.4598226200893521
1772868607668459800,1.258459716796875,-0.4430383662879467,-1.1975289923623202,0.4422416629523039
1772868607678525700,1.268525634765625,-0.53426820474267,-1.1812439202547074,0.43520913396701216
1772868607688592600,1.278592529296875,-0.6316261706888675,-1.2271785729557274,0.4326521429605782
1772868607698658800,1.288658935546875,-0.6732049662679433,-1.3167507073312996,0.375620634444803
1772868607708724700,1.298724853515625,-0.6221469792038202,-1.314058691768348,0.3598831132173538
1772868607718791700,1.308791748046875,-0.5408861615777015,-1.3658961387723683,0.3802836578197777
1772868607728857900,1.31885791015625,-0.46906420342624183,-1.395001821747422,0.3965127619564533
1772868607738923800,1.328923828125,-0.44448096631169315,-1.3701625640451907,0.3912715003021061
1772868607748990700,1.33899072265625,-0.5058639480352402,-1.2399457000702618,0.46782750123813743
1772868607759057000,1.349056884765625,-0.4709188913822174,-1.3104858017176388,0.5835946918390691
1772868607769122600,1.35912255859375,-0.36309739908874034,-1.3716305907711386,0.6737040018312632
1772868607779189500,1.369189453125,-0.32299101414978504,-1.2843509512469171,0.8450330667868257
1772868607789255700,1.379255615234375,-0.4565829075157642,-1.1264514228373765,1.1079584654219448
1772868607799321600,1.389321533203125,-0.8765618852555751,-1.0200736996114252,1.2524980153903364
1772868607809387800,1.3993876953125,-1.289673899835348,-1.2500655275464057,1.1618906927481294
1772868607819454700,1.409454833984375,-1.594433091723919,-1.2128221308231353,0.961370312360674
1772868607829520600,1.419520751953125,-1.783443505451083,-1.1258718693837524,0.728454559803009
1772868607839586800,1.4295869140625,-1.861281362891197,-1.138032262776792,0.49624417903572315
1772868607849653800,1.43965380859375,-1.8453350212186574,-1.1625430191770196,0.20547493405491113
1772868607859719700,1.4497197265625,-1.8024603406101465,-0.9404822765022516,0.015546674830466508
1772868607869785900,1.459785888671875,-1.5623849255561828,-1.1555126821488142,-0.13578458110466599
1772868607879852800,1.469852783203125,-1.0637608656466007,-0.8911980211123823,-0.060827832058817144
1772868607889918700,1.479918701171875,-0.5644377175569534,-0.6108969786539673,-0.03492342934310436
1772868607899984600,1.489984619140625,-0.06966741046607494,-0.128636901307106,0.16737229015380142
1772868607910051600,1.500051513671875,0.2199082408159971,0.2397226560935378,0.3058427493415773
1772868607920117500,1.510117431640625,0.5658592747926712,0.51324032202214,0.44381914140209555
1772868607930183700,1.52018359375,0.8575923963695764,0.7449909763231873,0.4528749929085374
1772868607940250600,1.530250732421875,1.1144535265296698,0.8866735294252633,0.32288726151436564
1772868607950316500,1.540316650390625,1.2539040827959775,0.9068526863619685,0.10197393530905247
1772868607960382700,1.5503828125,1.3070330309152602,0.8400739830747246,-0.21535583820864557
1772868607970449700,1.56044970703125,1.2946627941638231,0.7185036591529845,-0.4582414883777499
1772868607980515800,1.570515869140625,1.0243009619176386,0.5629980401426553,-0.6511475943692028
1772868607990581800,1.580581787109375,0.5730675987362861,0.5150646148398518,-0.8375168459378183
1772868608000648700,1.590648681640625,0.12753449302315711,0.5352686139568686,-0.921778306684643
1772868608010715000,1.60071484375,-0.23104747446775434,0.5715358591243624,-0.9934528191894292
1772868608020780800,1.61078076171875,-0.5492565150380134,0.590725712762773,-1.077312275006622
1772868608030847700,1.62084765625,-0.8688380130052566,0.6232108090430498,-1.1470599111020565
1772868608040913700,1.63091357421875,-1.1413824499875307,0.7491618322670459,-1.1161300814397632
1772868608050979600,1.6409794921875,-1.3239186992645262,0.9967153281167149,-0.9988324664011597
1772868608061045800,1.651045654296875,-1.4051853621095418,1.3228127838492392,-0.8606868552535771
1772868608071113200,1.66111328125,-1.347289637979865,1.5630962886959314,-0.7601990668490528
1772868608081179100,1.67117919921875,-1.1438947250694036,1.7239876923978328,-0.7163100946314632
1772868608091245000,1.6812451171875,-0.8778308822780847,1.923179016138613,-0.6739896869048476
1772868608101312300,1.691312255859375,-0.5700467896103859,2.1118995070084927,-0.5837903605416417
1772868608111378200,1.701378173828125,-0.2748117973923683,2.3186080745115873,-0.497745815770328
1772868608121444400,1.7114443359375,0.06099778179824352,2.4509289250284434,-0.43462702323012053
1772868608131511300,1.72151123046875,0.33648762458264825,2.438272857072949,-0.42631607180684805
1772868608141577000,1.731576904296875,0.48212943670451636,2.4273025502473113,-0.38306590894944964
1772868608151643100,1.74164306640625,0.5545411774426698,2.2881129830047486,-0.4294994510833174
1772868608161710000,1.7517099609375,0.7438806769937276,1.9624501192972064,-0.4130504205856472
1772868608171776000,1.76177587890625,0.8720359322637319,1.7935981119796633,-0.4557270213387906
1772868608181842200,1.77184228515625,0.9024982905447483,1.4878525394022464,-0.5122763723608106
1772868608191909000,1.7819091796875,0.8776993648529052,1.211524492228031,-0.5204430930078029
1772868608201975000,1.79197509765625,0.7116431257337331,0.8513008950099349,-0.6264728795789182
1772868608212041200,1.802041259765625,0.6839525702536106,0.3624591011852026,-0.7627726436641067
1772868608222108200,1.812108154296875,0.6631371612399816,0.2692749137923121,-0.7743798601537942
1772868608232174000,1.822174072265625,0.5146346989899874,0.2202051779359579,-0.7137385636430233
1772868608242240300,1.832240234375,0.34676118131577965,0.21759850256890056,-0.5461368486475199
1772868608252307200,1.84230712890625,0.21582243280708788,0.1796539718389511,-0.4030545117501169
1772868608262373000,1.852373046875,0.10047288309633731,0.07572597985267639,-0.30478885637447234
1772868608272439000,1.86243896484375,0.004370470169186592,-0.08373480652421712,-0.26410781335271893
1772868608282505000,1.8725048828125,-0.1319184071958065,-0.24963205568939445,-0.2428354543518275
1772868608292572000,1.882572021484375,-0.3116957131534815,-0.424514575342834,-0.2026358381714672
1772868608302638000,1.89263818359375,-0.4326975895375013,-0.5374935965299606,-0.16004852313697338
1772868608312704000,1.9027041015625,-0.4587807098209858,-0.6017679157808423,-0.17564553991518914
1772868608322771200,1.912771240234375,-0.4030307655483484,-0.6763695677787065,-0.26058606896735725
1772868608332837000,1.922837158203125,-0.2981757218450308,-0.7464458513066172,-0.41304596360623835
1772868608342903000,1.932903076171875,-0.18718495186567305,-0.8169353918105363,-0.5510930828154087
1772868608352970200,1.94297021484375,-0.11801321596205235,-0.9176905989795923,-0.6581636836763471
1772868608363036200,1.9530361328125,-0.1327338152319193,-1.0632821422189473,-0.7903835580367594
1772868608373102000,1.96310205078125,-0.15825696354508398,-1.1528805800795554,-0.8701327289909124
1772868608383169300,1.973169189453125,-0.1447065770983696,-1.1628539848223327,-0.9180275758489966
1772868608393235200,1.983235107421875,-0.1151344456553459,-1.1398144700184463,-0.9748423728741705
1772868608403301000,1.993301025390625,-0.08837094189226627,-1.049977839487791,-1.0255520579572766
1772868608413368300,2.003368408203125,-0.029914076748490333,-0.9052598642125725,-1.045973206956312
1772868608423434000,2.01343408203125,0.008632803788781165,-0.737841104568541,-1.0564105028837918
1772868608433500200,2.023500244140625,0.0277414088845253,-0.6182441265463828,-1.0970821935553103
1772868608443567000,2.033567138671875,0.020944588351249693,-0.4718795531079173,-1.1320227932289242
1772868608453633000,2.043633056640625,0.012092004331946373,-0.3105696317330003,-1.1245598369371146
1772868608463699200,2.05369921875,0.012801613906025886,-0.1962327661961317,-1.1693927389413117
1772868608473765000,2.06376513671875,0.046160862672328946,-0.15012655632048844,-1.303512455573678
1772868608483832000,2.07383203125,0.12513619970977305,-0.24813860226124523,-1.5634619071379303
1772868608493898200,2.083898193359375,0.23314707709550855,-0.3506897529363632,-1.7880419391572475
1772868608503964200,2.093964111328125,0.35894846271574493,-0.44765170530229803,-1.97465902800709
1772868608514031000,2.104031005859375,0.4585083226203918,-0.5285553800538182,-2.0632788300938905
1772868608524097300,2.11409716796875,0.46245676798522467,-0.5913830076277256,-2.070158506605029
1772868608534163000,2.124162841796875,0.4179232142537832,-0.6061445234298706,-1.9872208418078718
1772868608544230100,2.134230224609375,0.3124824796169996,-0.5249971030503511,-1.8672015467204153
1772868608554296000,2.144296142578125,0.18533377104103563,-0.3307069953545928,-1.694587118129432
1772868608564362000,2.154362060546875,0.05498012894392013,-0.13221563657671212,-1.4810305844277143
1772868608574429000,2.164428955078125,-0.08390519465506076,-0.061713821113109586,-1.3114175296097994
1772868608584495000,2.1744951171875,-0.21652444359660147,-0.09311492154896259,-1.1813934847932308
1772868608594561000,2.18456103515625,-0.32179742045104504,-0.2765902052417397,-1.1031452929865568
1772868608604628000,2.1946279296875,-0.37969606719017024,-0.5335752540424465,-1.0618065897736697
1772868608614694100,2.204694091796875,-0.4634568849384784,-0.844267635372281,-0.9517276008769869
1772868608624760000,2.214760009765625,-0.6415940224736929,-1.207225918251276,-0.7828327773310244
1772868608634827300,2.2248271484375,-0.8267360703349113,-1.4568375156745315,-0.6261043385274708
1772868608644893200,2.23489306640625,-1.0973176828116178,-1.7481617641896008,-0.5175843425758183
1772868608654959000,2.244958984375,-1.5301754313468932,-2.019379628743231,-0.35275980067607016
1772868608665026300,2.2550263671875,-2.2048493011236188,-2.273164420197904,-0.20840024691708384
1772868608675092200,2.26509228515625,-3.020792759287357,-2.4087761289536953,0.05493475543223321
1772868608685158000,2.275157958984375,-3.7530887969493865,-2.3093033628106117,0.5256630196131765
1772868608695224000,2.28522412109375,-4.207330109775066,-1.847790013155341,1.1716765390295534
1772868608705291000,2.295291015625,-4.0529982107192275,-1.0802212943211198,1.8536267564848063
1772868608715357200,2.305357177734375,-3.5130618972122667,-0.3580053366467357,2.4182085586875677
1772868608725423000,2.315423095703125,-2.7853870896101,0.17769202411621807,2.7321035354509946
1772868608735490000,2.325489990234375,-1.8966431836515665,0.3389133904248476,2.6635990312844515
1772868608745556200,2.33555615234375,-1.0780109247952698,0.20914105534702537,2.2728952478677034
1772868608755622100,2.3456220703125,-0.3370347370713949,0.07957681006193161,1.8764596428006886
1772868608765689000,2.355689208984375,0.2840349682897329,0.04368219759911299,1.6001605294600127
1772868608775755300,2.36575537109375,0.8106243089675903,0.10552607483267784,1.4780460156589745
1772868608785821200,2.3758212890625,1.2466045734375715,0.23404431819617746,1.374507315251231
1772868608795888000,2.38588818359375,1.6619056224942206,0.45000849756151434,1.3705388500116764
1772868608805954300,2.395954345703125,1.9949621035844087,0.7014771210283041,1.4789904569022356
1772868608816020000,2.40602001953125,2.17622000348866,0.9310980698242783,1.5598998307421803
1772868608826087000,2.4160869140625,2.2818173899918794,1.1718670201003552,1.6889860832519827
1772868608836153000,2.426153076171875,2.2252362555921077,1.3921069770887493,1.8013655311107635
1772868608846219000,2.436218994140625,2.139824163505435,1.3168643968388438,1.8269715354017912
1772868608856286000,2.446285888671875,2.0656518428355453,1.3466039938032626,1.8984779978632926
1772868608866352000,2.45635205078125,1.8336387382060289,1.4624983179152011,1.9467916546553372
1772868608876418000,2.46641796875,1.515696239617467,1.6041913924112916,2.107178323705494
1772868608886485000,2.476485107421875,1.1682646116942166,1.7663012319922446,2.2684742165550587
1772868608896551200,2.48655126953125,0.8540262283205986,1.955315152850747,2.3496473558977247
1772868608906617000,2.4966171875,0.48229953257441516,1.9581144281804561,2.2401215439043938
1772868608916684000,2.50668408203125,0.06105214233398437,1.6825637951195238,1.767951045025885
1772868608926750200,2.516750244140625,-0.29615327610671516,1.2373571448817848,1.1356385725732892
1772868608936816000,2.526816162109375,-0.6457242541462183,0.8652584009528159,0.5917715320212766
1772868608946882000,2.536882080078125,-0.8113245661914348,0.6442065430596471,0.24243377821575848
1772868608956949200,2.54694921875,-0.7678110031574964,0.4661491927623749,0.012048165190219878
1772868608967015000,2.557014892578125,-0.6037362932443618,0.3720964058414101,-0.13792738355332984
1772868608977081000,2.5670810546875,-0.38983459936678405,0.29464374832659956,-0.2870020562007092
1772868608987148000,2.57714794921875,-0.1275952832996845,0.2819900184586644,-0.377754139342159
1772868608997214000,2.5872138671875,0.20679507674276829,0.28133550007268787,-0.4665138613563031
1772868609007280000,2.597280029296875,0.5356809941500426,0.2399596797198057,-0.4756392709676176
1772868609017347000,2.60734716796875,0.7797428484916686,0.2872618213817477,-0.5315368070174008
1772868609027413200,2.617413330078125,0.8537702077329158,0.26089710767790675,-0.5795923973951488
1772868609037479200,2.627479248046875,0.8240145364165306,0.27127397865504027,-0.4432167185295373
1772868609047546000,2.637546142578125,0.8186486254692077,0.39846418828517194,-0.22494616191796957
1772868609057612300,2.6476123046875,0.8973135813832283,0.5163355115585029,-0.06171871648393571
1772868609067678200,2.65767822265625,0.9687748895287513,0.4693776532895863,0.0069619297008030115
1772868609077745000,2.667744873046875,0.9106400959461927,0.30009061555564404,-0.0818717343323864
1772868609087810800,2.677810791015625,0.6777928785800933,0.050502983529865736,-0.29363709203470495
1772868609097876700,2.687876708984375,0.36054771460592744,-0.10067688123583793,-0.3497500609334558
1772868609107943700,2.697943603515625,0.08039514070749282,-0.10864040746092796,-0.23202158019691704
1772868609118009900,2.708009765625,-0.1481347979813814,-0.1399411162622273,-0.1289776867019478
1772868609128075800,2.71807568359375,-0.32161972579658027,-0.2875171113170683,-0.16280070792194454
1772868609138142700,2.728142822265625,-0.48109074130654333,-0.49064548224583265,-0.22590075922906397
1772868609148209000,2.738208984375,-0.6009112989515066,-0.6825007640101015,-0.3198161104407161
1772868609158274800,2.74827490234375,-0.6005284371137619,-0.8149249287709593,-0.383574808319658
1772868609168341800,2.758341796875,-0.4954512750923633,-0.9061584204874932,-0.47350624099429695
1772868609178408000,2.768407958984375,-0.3347814051866531,-0.9290095731124282,-0.5242272877216339
1772868609188473900,2.778473876953125,-0.14155132793784142,-0.8673542041882872,-0.5238635324431583
1772868609198540800,2.788540771484375,0.03007365122437477,-0.8045487884461879,-0.4827377778612077
1772868609208607000,2.79860693359375,0.12356442034840583,-0.7892886754721402,-0.5016600666046143
1772868609218672600,2.808672607421875,0.09580606032907962,-0.8689993410468101,-0.551835206419602
1772868609228738800,2.81873876953125,0.030892566391825676,-0.854605489513278,-0.4984471689727157
1772868609238805800,2.8288056640625,0.01740297022163868,-0.7739714254833757,-0.39650209443196655
1772868609248871700,2.83887158203125,0.028740941315889355,-0.6452966763839125,-0.31879769064579155
1772868609258937900,2.848937744140625,0.02777881828546524,-0.47633872447386383,-0.20405896630976347
1772868609269004800,2.8590048828125,-0.045191140857338906,-0.37363647489026186,-0.06925948725230992
1772868609279071000,2.869071044921875,-0.1304372287273407,-0.31611732898801564,0.06082376780505292
1772868609289137000,2.879136962890625,-0.15748656369447708,-0.2835876629136503,0.19797610273212193
1772868609299203800,2.889203857421875,-0.18521219048798082,-0.37660526156798,0.29534027922339734
1772868609309270000,2.89927001953125,-0.15743863289952278,-0.45194121918976304,0.43511126308310777
1772868609319336000,2.9093359375,-0.05896247657835483,-0.515717964182049,0.5833815605450421
1772868609329403000,2.91940283203125,0.040887890705466265,-0.5872273492529988,0.723680185008049
1772868609339469000,2.929468994140625,0.05356324788331985,-0.7296880471207201,0.805850884020701
1772868609349534700,2.93953466796875,-0.03641396016180515,-0.9887380656272172,0.7975638979949057
1772868609359602000,2.949601806640625,-0.25859423756301403,-1.3016281031318009,0.7285130119919776
1772868609369667800,2.959667724609375,-0.5101625220119953,-1.56993373350054,0.6642413230895996
1772868609379733800,2.969733642578125,-0.8050450475305319,-1.7761033718213437,0.5125201179888099
1772868609389800700,2.97980078125,-1.0304968939483166,-1.8641437665849923,0.40127789399903263
1772868609399867000,2.989866943359375,-1.194637070313096,-1.8530995177403091,0.31098208499141033
1772868609409932800,2.999932861328125,-1.2650859865456818,-1.7033844648301601,0.19319306970667094
1772868609419999700,3.009999755859375,-1.290373572537303,-1.41304016726315,0.0394901436035987
1772868609430066000,3.02006591796875,-1.2969956210255622,-1.0906918349310755,-0.1450252511261031
1772868609440131800,3.0301318359375,-1.3081482986807822,-0.6764230515316129,-0.2350951972222887
1772868609450198800,3.04019873046875,-1.2925532546639442,-0.25402429929897186,-0.253485077855736
1772868609460265000,3.050264892578125,-1.1596867529630661,0.08989873598143458,-0.12879249372761695
1772868609470331000,3.060330810546875,-0.866737241333723,0.25778160600587724,0.07752491903342307
1772868609480397800,3.070397705078125,-0.5457727645754814,0.20232436106950044,0.17285561693571508
1772868609490464000,3.080464111328125,-0.28070202447474,-0.08811287547796964,0.18016287120915947
1772868609500529700,3.09052978515625,-0.02579728907942772,-0.4136985822960734,0.11568966838531196
1772868609510595800,3.100595947265625,0.11223346351683139,-0.5899943297483027,0.08376954904403537
1772868609520662800,3.110662841796875,0.0763964264601469,-0.6530559122085571,0.13031681721806526
1772868609530728700,3.120728759765625,-0.19270576111376284,-0.6064651336863637,0.22565054732766002
1772868609540795000,3.130794921875,-0.6841150673389435,-0.6743195033811032,0.1926055521422997
1772868609550861800,3.14086181640625,-1.3514496802687643,-0.9356167162925004,-0.020629001329746096
1772868609560927700,3.150927734375,-2.020817844852805,-1.192330254675448,-0.29632647724915295
1772868609570994000,3.160993896484375,-2.4868454570621252,-1.2719725311890244,-0.5097841902188956
1772868609581060900,3.171060791015625,-2.715383579057455,-1.0991121650129556,-0.5811657111264765
1772868609591127000,3.181126953125,-2.721412922349572,-0.8396952128902078,-0.6482536995586008
1772868609601193000,3.19119287109375,-2.4233231252223253,-0.4469979175686836,-0.5744093322014436
1772868609611260000,3.201260009765625,-1.8662392775595187,-0.046775779700279234,-0.4071564306436106
1772868609621326000,3.211326171875,-1.2159984227716922,0.21438860061168669,-0.19703027324937283
1772868609631391700,3.221391845703125,-0.5384288315534591,0.4213952742785215,0.028135116343270053
1772868609641458700,3.231458740234375,0.07937047383487224,0.5616381499662995,0.2501416674456559
1772868609651524900,3.24152490234375,0.6478840625286102,0.6966393256083131,0.5648225521560758
1772868609661590800,3.2515908203125,1.0975462308704853,0.7604089102074504,0.8610669406123459
1772868609671657700,3.26165771484375,1.5011089113384484,0.7371443544760345,1.1487892191126943
1772868609681724000,3.271723876953125,1.8272288711637257,0.6815183288440108,1.3192455928869544
1772868609691789800,3.281789794921875,2.0994676031976938,0.6023302258387208,1.319952133721113
1772868609701856800,3.291856689453125,2.2080039657622574,0.5183396909877658,1.2121560681298373
1772868609711923000,3.3019228515625,2.138306160157919,0.4773997778341174,1.1089229265399276
1772868609721988900,3.31198876953125,1.933921651688218,0.6132672149166465,0.9931427303269504
1772868609732055800,3.322055908203125,1.6797896542310713,0.7609884636610746,0.7927952953536063
1772868609742122000,3.3321220703125,1.4085522081941366,0.755176270250976,0.5048954683292657
1772868609752188000,3.34218798828125,1.1203238798677921,0.7248977441042661,0.15997012413851916
1772868609762254800,3.3522548828125,0.7876233726084232,0.8090238880336285,-0.0930130686096847
1772868609772321000,3.362321044921875,0.41075229971110816,0.9429206095650792,-0.25544775623083116
1772868609782386700,3.37238671875,0.08226210362315177,1.0777318155929445,-0.3519211213622242
1772868609792454000,3.382453857421875,-0.17409283058047292,1.2598399025857447,-0.43396614816859364
1772868609802519800,3.392519775390625,-0.2996627455323934,1.4696189635753631,-0.5197200394302607
1772868609812585700,3.402585693359375,-0.34816111124157906,1.6320783472463487,-0.6012274522285909
1772868609822653000,3.41265283203125,-0.33561785601079464,1.7706936217322944,-0.6864527165062725
1772868609832718800,3.42271875,-0.31667116347849367,1.9328113523587582,-0.7231736237253993
1772868609842784800,3.43278466796875,-0.2456944239795208,2.1011026570536195,-0.6633747693881392
1772868609852851000,3.442850830078125,-0.14476678285300731,2.300744501040876,-0.5294971909485757
1772868609862918000,3.45291796875,-0.037944822990894314,2.460140697748959,-0.43581667140610514
1772868609872983800,3.46298388671875,0.13469430164992807,2.5645664101243018,-0.32838476295210417
1772868609883050000,3.473050048828125,0.3158715375334024,2.512916886907816,-0.2694838803678751
1772868609893117000,3.483116943359375,0.4964619134396314,2.329986231485754,-0.2943072098486125
1772868609903183000,3.49318310546875,0.7009457906305789,2.0797396971598268,-0.3359429963119328
1772868609913248800,3.503248779296875,0.9238409383028745,1.7578934691309929,-0.37051015956327316
1772868609923315700,3.513315673828125,1.0417261439710854,1.3913231332346796,-0.4399180423103273
1772868609933382000,3.5233818359375,1.0343944859087466,1.0509415699534117,-0.5067877118166536
1772868609943447800,3.53344775390625,0.9324772492229938,0.757151369716227,-0.5240023198593408
1772868609953514800,3.5435146484375,0.7522223888814449,0.4550358242042362,-0.5201125458791852
1772868609963581000,3.553580810546875,0.4838666357606649,0.21093816789686679,-0.5031459943134338
1772868609973646800,3.563646728515625,0.18340192619562148,0.0934897462107241,-0.41425877346210177
1772868609983713800,3.5737138671875,-0.04687573294341564,0.05726707083731889,-0.30378428244180977
1772868609993780000,3.583780029296875,-0.2105319251835346,-0.00768061763048172,-0.26301424596235157
1772868610003846000,3.593845947265625,-0.31981706028878687,-0.06608882132694124,-0.27682123751863835
1772868610013912800,3.603912841796875,-0.3996627504199743,-0.13373466283753513,-0.2935886132504791
1772868610023979000,3.61397900390625,-0.4870949501574039,-0.2337798220410943,-0.29723098834082484
1772868610034045000,3.624044921875,-0.5190811570048331,-0.38598654563650486,-0.33782822553664443
1772868610044112000,3.63411181640625,-0.4854787471324205,-0.523294683046639,-0.35899142507463694
1772868610054177800,3.644177734375,-0.34716274785399437,-0.6325174204401671,-0.39566195381339636
1772868610064243700,3.65424365234375,-0.2440507484257221,-0.7372279411062598,-0.5056508167412131
1772868610074310700,3.664310546875,-0.19943243902027605,-0.858022019958496,-0.620014789480716
1772868610084376800,3.674376953125,-0.21093115363419054,-0.9166665166288613,-0.7013450190812349
1772868610094442800,3.68444287109375,-0.26701018373072144,-0.961043126232922,-0.736246528853476
1772868610104510000,3.694510009765625,-0.3662923957377672,-0.9187002144135534,-0.7226575639620423
1772868610114576000,3.704575927734375,-0.4874801500827074,-0.8232147643409669,-0.6822003928240388
1772868610124641800,3.714641845703125,-0.5370856002509594,-0.7432914789289236,-0.7072335656631737
1772868610134709000,3.724708984375,-0.5992974340140819,-0.7294808341108262,-0.7775904927633702
1772868610144775000,3.73477490234375,-0.668000383362174,-0.7356811500556767,-0.8188031584437936
1772868610154840800,3.7448408203125,-0.7437748785316943,-0.783922618394345,-0.8383930442504585
1772868610164908000,3.754907958984375,-0.775174809923768,-0.8172145010128616,-0.8428156829982996
1772868610174974000,3.764973876953125,-0.7393681680053472,-0.828173555792123,-0.8602714063204825
1772868610185040000,3.775039794921875,-0.6994996834754943,-0.8640512171201408,-0.8761084423996508
1772868610195107000,3.785107177734375,-0.61645899669528,-0.8170723160631954,-0.8682355901326984
1772868610205172700,3.7951728515625,-0.5344289482623339,-0.7589154567793012,-0.883996857561916
1772868610215239000,3.805239013671875,-0.48577393068671226,-0.7122862459428608,-0.9222438783697784
1772868610225305900,3.815305908203125,-0.46101358343958854,-0.6108971247844398,-0.9075842155069113
1772868610235371800,3.825371826171875,-0.37603169946372506,-0.45172596900388595,-0.8513309248220176
1772868610245438000,3.83543798828125,-0.29572949773669244,-0.33638284903392196,-0.81498199272044
1772868610255504000,3.84550390625,-0.214554020306468,-0.3010331571027636,-0.8267891156964003
1772868610265570800,3.85557080078125,-0.2019581581056118,-0.35703751452788707,-0.9041270607903599
1772868610275637000,3.865636962890625,-0.24014263507127762,-0.4105323733501136,-0.925098464083299
1772868610285703000,3.875702880859375,-0.21337971583008766,-0.33924379142299294,-0.8286419039562344
1772868610295769900,3.885769775390625,-0.09003566023409366,-0.3157600399829447,-0.7892875794935971
1772868610305836000,3.8958359375,0.08167232103645801,-0.3782711489535868,-0.8325042784728109
1772868610315901700,3.905901611328125,0.21952713254392145,-0.4788891396090388,-0.8961256867729127
1772868610325969000,3.915968994140625,0.3068143708527088,-0.5958348724700511,-0.9218678846642374
1772868610336034800,3.926034912109375,0.35369419544935227,-0.7110789159797132,-0.9048383508648723
1772868610346100700,3.936100830078125,0.24261224005520343,-0.8793700745441019,-0.795787828233093
1772868610356167700,3.946167724609375,-0.17861586096286772,-1.012534974669665,-0.7466493379894643
1772868610366233900,3.95623388671875,-0.8864572563260793,-0.9940735814362763,-0.6370794676586985
1772868610376299800,3.9662998046875,-1.5896253991812466,-0.8893464018963276,-0.3794177982380613
1772868610386366700,3.97636669921875,-2.204312125506997,-0.6526834256343543,0.08150478244982659
1772868610396433000,3.986432861328125,-2.543427760505676,-0.18761691354215143,0.6741204006124287
1772868610406498800,3.996498779296875,-2.4637287853688,0.38351109543368217,1.2759570707805454
1772868610416565000,4.00656494140625,-2.0100942062646148,0.859029151174426,1.7521256993845105
1772868610426631000,4.016630859375,-1.3137076863735913,1.0818795829221606,1.815204671370983
1772868610436697900,4.02669775390625,-0.5797983682960272,1.0587614499241114,1.4972214023806154
1772868610446763800,4.036763671875,0.052342181655764576,1.0021487513422966,1.2339812387078999
1772868610456829700,4.04682958984375,0.5547814159393311,1.040632211254537,1.1207020655304192
1772868610466897000,4.05689697265625,0.9681476975411176,1.129209197112918,1.0919766140446066
1772868610476962800,4.066962890625,1.3410060276657343,1.2392638552859425,1.1651808203347027
1772868610487028700,4.07702880859375,1.7525363260120153,1.3253497549809514,1.3011425115719437
1772868610497096000,4.087095947265625,2.096520443829894,1.3543784271970392,1.4348616845794022
1772868610507161900,4.097161865234375,2.294085335412621,1.3038161146953702,1.4798631480835378
1772868610517227800,4.107227783203125,2.3247861786246298,1.1042638486877083,1.4915473022669552
1772868610527295000,4.117294921875,2.204738826486468,0.8609199333570897,1.5351806922882794
1772868610537361000,4.12736083984375,1.9654951860815286,0.701116324891895,1.5860460793897508
1772868610547426800,4.1374267578125,1.7090455593317746,0.67784577781111,1.7343571107208728
1772868610557494000,4.147493896484375,1.483227802211046,0.8425941492021083,2.0619776843674478
1772868610567560000,4.157559814453125,1.3061954110473393,1.0107451686434448,2.3338877689689395
1772868610577625900,4.1676259765625,1.0786568214833736,0.9240298850037157,2.3256029018349946
1772868610587693000,4.177693115234375,0.7535626975744962,0.5825516125269233,2.1051377577885986
1772868610597758700,4.1877587890625,0.2652864286780357,0.10679799446463584,1.7692476607076824
1772868610607825000,4.197824951171875,-0.2047808143109083,-0.33622356681898236,1.3947832105606794
1772868610617891800,4.207891845703125,-0.5087134922474622,-0.5852930201895534,1.106435347507894
1772868610627957800,4.217957763671875,-0.6133972710371017,-0.7047076273821294,0.7950485541731118
1772868610638024000,4.22802392578125,-0.6074152740180492,-0.7203451953664421,0.44995362556912
1772868610648091000,4.2380908203125,-0.5989665946245193,-0.6885286459974944,0.13640483189485966
1772868610658156800,4.24815673828125,-0.6661515406250953,-0.6359850965507328,-0.026836715129762885
1772868610668223000,4.258222900390625,-0.8022679840326309,-0.6177152803666889,-0.07280554409502074
1772868610678290000,4.2682900390625,-1.0329331811845301,-0.6103760235197841,-0.004407879570126534
1772868610688355800,4.27835595703125,-1.2750626061588526,-0.5248223310053348,0.16735122909946365
1772868610698422000,4.288422119140625,-1.440948749408126,-0.4345424867518246,0.35954657473936674
1772868610708489000,4.298489013671875,-1.4736621014863251,-0.3865585003055632,0.5142302829075605
1772868610718555000,4.308554931640625,-1.4280769928753376,-0.4046007913440466,0.5567158180680125
1772868610728620800,4.318620849609375,-1.36568804897964,-0.4800122984200716,0.5628845332982019
1772868610738687700,4.328687744140625,-1.2915215735286474,-0.5653519097924232,0.5737953284889459
1772868610748753700,4.338753662109375,-1.2129109781503677,-0.707527214847505,0.5464863927375525
1772868610758819800,4.34881982421875,-1.1579378634691238,-0.8763932506904005,0.449458718191646
1772868610768886800,4.35888671875,-1.0771066694319247,-0.9711784435391425,0.3765293833201751
1772868610778953000,4.368952880859375,-0.8848591734796762,-0.9808590028151869,0.3237658344471827
1772868610789019000,4.379018798828125,-0.6777940476238727,-0.9521122162804007,0.2149769766925834
1772868610799084800,4.389084716796875,-0.44604748497605323,-0.891135185009241,0.07125380287468433
1772868610809152000,4.399152099609375,-0.18037527185082436,-0.8212770742766559,-0.0203939230653923
1772868610819218000,4.409218017578125,0.11770692649185657,-0.7140436110042035,-0.07547511949730105
1772868610829283800,4.419283935546875,0.3763257139742374,-0.5843010865427554,-0.13683751509054562
1772868610839351000,4.42935107421875,0.5991799451142549,-0.4166021947830915,-0.17915584959108383
1772868610849417000,4.4394169921875,0.7544348042339086,-0.23747210068777203,-0.17993567485716194
1772868610859483000,4.44948291015625,0.8212450717031955,-0.1123287405848503,-0.17015614871867
1772868610869549800,4.4595498046875,0.7547106985658407,0.022928017253428697,-0.1416844801976811
1772868610879615700,4.46961572265625,0.6245189690321683,0.1556276379548013,-0.11690112653430551
1772868610889682000,4.479681884765625,0.48026598092019557,0.2550087802916765,-0.07048868198739364
1772868610899748900,4.489748779296875,0.3841542156428098,0.39498262977972626,-0.0024368534917943176
1772868610909814800,4.499814697265625,0.3130155635803938,0.5107312618106603,0.06628090983293951
1772868610919881000,4.509880859375,0.24784371096789837,0.5794353802025318,0.13319695749795063
1772868610929948000,4.519947998046875,0.17069734292328356,0.602050970505923,0.20734861897230147
1772868610940013800,4.530013916015625,0.06439677658677101,0.5691752674728632,0.27506100464677435
1772868610950080000,4.540080078125,-0.08141045522987841,0.43688013591915364,0.3110444461705163
1772868610960147000,4.55014697265625,-0.24970424414277076,0.20047259572297332,0.3150989457257092
1772868610970212900,4.560212890625,-0.367187883272767,-0.05694967545121908,0.310336297901161
1772868610980279000,4.570279052734375,-0.4459750042617321,-0.3237207897290587,0.2629459847654216
1772868610990346000,4.580345947265625,-0.5219891534060239,-0.5097545257329941,0.26530858571091664
1772868611000411600,4.59041162109375,-0.5808715504854918,-0.6566537905700505,0.23927790800072252
1772868611010477800,4.600477783203125,-0.6316852073997259,-0.8181447676002979,0.1791155358470045
1772868611020544800,4.610544677734375,-0.635884997177124,-0.9294166926085948,0.17365807415870949
1772868611030610700,4.620610595703125,-0.6288987915515899,-0.9652052143484353,0.222565367728658
1772868611040676900,4.6306767578125,-0.5979483574926853,-0.8928028259605169,0.3845503022883087
1772868611050743800,4.640743896484375,-0.5149906728208065,-0.7302557640060782,0.6594466361589729
1772868611060809700,4.650809814453125,-0.3979939404249191,-0.5976350537598133,0.9076115419052541
1772868611070877000,4.660876953125,-0.31544483655393124,-0.5711297625415027,1.1080675518196075
1772868611080945200,4.670945068359375,-0.3730991531431675,-0.6082777360662818,1.3052850182041524
1772868611091011300,4.68101123046875,-0.6101239484548568,-0.6675562928564847,1.494328457418084
1772868611101078300,4.691078369140625,-1.0486907222867012,-0.7856199238315225,1.530864728785306
1772868611111144200,4.701144287109375,-1.701172633999586,-0.9693835229463875,1.349290018016845
1772868611121210400,4.71121044921875,-2.39041512735486,-1.0950094058692454,1.1087382176227867
1772868611131277300,4.72127734375,-2.9232348868548867,-1.0786600363537668,0.8634530320312828
1772868611141343200,4.73134326171875,-3.1219799281328915,-0.8741720675095915,0.6576152560133487
1772868611151409200,4.7414091796875,-3.0058780987501144,-0.549958525827527,0.4259170990845188
1772868611161475000,4.75147509765625,-2.6526789933413264,-0.25622283225655557,0.15865288579380138
1772868611171542300,4.761542236328125,-2.101063347956538,0.029168957469612358,-0.0670476655548904
1772868611181608200,4.771608154296875,-1.4379863924711942,0.3717271341376006,-0.17008070886228233
1772868611191674000,4.781674072265625,-0.7726064207404851,0.7779886983007193,-0.06859663942940533
1772868611201741300,4.7917412109375,-0.1814759265691042,1.236797172911465,0.1714583904236555
1772868611211807200,4.80180712890625,0.2737210795462131,1.6315923172950744,0.45978601440601047
1772868611221873400,4.811873291015625,0.5964116494446993,1.9276418407663702,0.7462058320056647
1772868611231940400,4.8219404296875,0.8770984763503075,2.11633456684649,0.9277996128007769
1772868611242006300,4.83200634765625,1.109645249465108,2.2250497931092976,1.0244900547489524
1772868611252072400,4.842072509765625,1.2575924159199,2.2740292203336954,1.0943262459106742
1772868611262139400,4.852139404296875,1.2911007177680731,2.233098659530282,1.1238286731183529
1772868611272205300,4.862205322265625,1.1296925967156886,2.0806331388682127,1.0481675751954316
1772868611282271200,4.872271240234375,0.8504460317462682,1.862044163957238,0.8602535053376108
1772868611292338200,4.882338134765625,0.5171200860649346,1.640571450303495,0.6288363938398659
1772868611302404000,4.892404052734375,0.2521452075541019,1.5036378452941774,0.36771157835330814
1772868611312470300,4.90247021484375,0.08871054911017417,1.4422601242676376,0.09224761892883107
1772868611322537200,4.912537109375,0.06053776307106018,1.4615245044469833,-0.15106106069162487
1772868611332603100,4.92260302734375,0.09141045571863651,1.4854495699137449,-0.3719028560306877
1772868611342669300,4.93266943359375,0.09310206206738948,1.4959224486112594,-0.5538171374844387
1772868611352736300,4.942736328125,0.04040156849324703,1.5613953299969434,-0.6227124310668557
1772868611362802200,4.95280224609375,0.02649988439083099,1.6618199900373816,-0.5953621403917669
1772868611372868400,4.962868408203125,0.1364104579180479,1.779898087929189,-0.5819200000924989
1772868611382935300,4.972935302734375,0.320143223503232,1.8658958709493279,-0.5730018400236964
1772868611393001200,4.983001220703125,0.5735018985003233,1.9418524446874856,-0.5640530656209215
1772868611403067400,4.9930673828125,0.8695271643131971,2.012826553837955,-0.5170211557351052
1772868611413134300,5.00313427734375,1.137080953401327,1.99244164519608,-0.5030724176205694
1772868611423200300,5.0132001953125,1.242832653683424,1.8263354294553398,-0.5183505046427249
1772868611433266200,5.02326611328125,1.247899873945117,1.6138666909903288,-0.5258091500855983
1772868611443333000,5.0333330078125,1.1638660844743252,1.406779353302717,-0.5261599362846464
1772868611453399300,5.0433994140625,1.0152087239235639,1.2283046543762086,-0.5600377290323376
1772868611463465200,5.05346533203125,0.8417921851694583,1.037623969349265,-0.5441315732397138
1772868611473532200,5.0635322265625,0.6306792452275752,0.8862459516629576,-0.5255800540374591
1772868611483598300,5.073598388671875,0.3908347163200378,0.7185764321282505,-0.5454061962854116
1772868611493664300,5.083664306640625,0.09872340908050536,0.522448003089428,-0.5515642074584961
1772868611503731200,5.093731201171875,-0.24952070426940917,0.4235790480583906,-0.4774120162611827
1772868611513797400,5.10379736328125,-0.582622193545103,0.32189094395339485,-0.3982355671610683
1772868611523863300,5.11386328125,-0.7774737345159053,0.2150420960843563,-0.3490391727177426
1772868611533930200,5.12393017578125,-0.8701467575162649,0.10288666623979806,-0.4003522670540958
1772868611543996400,5.133996337890625,-0.8967249678403139,-0.05622720639556646,-0.5149088032236322
1772868611554062000,5.14406201171875,-0.8568424547851086,-0.21320757413357494,-0.639727790210396
1772868611564129300,5.15412939453125,-0.8545125505328178,-0.37397038301974533,-0.7609475471287965
1772868611574195200,5.1641953125,-0.9136784407287836,-0.5671060599833726,-0.8669242152731865
1772868611584261000,5.17426123046875,-1.018977721068263,-0.6452418774567544,-0.8962592500247061
1772868611594327300,5.184327392578125,-1.111243332311511,-0.6268642169840634,-0.8728393576011061
1772868611604394200,5.194394287109375,-1.1713503027498722,-0.5939581188127399,-0.8886964866202324
1772868611614460200,5.204460205078125,-1.2117834354251622,-0.5518512077063322,-0.9718057816572486
1772868611624526300,5.2145263671875,-1.2101041040360927,-0.4564633727893233,-1.0720088348362595
1772868611634593300,5.22459326171875,-1.1843225970476865,-0.362324076628685,-1.2384199518077075
1772868611644659200,5.2346591796875,-1.1801689844995737,-0.3066270315870642,-1.4176947150707244
1772868611654725400,5.244725341796875,-1.2150012284278868,-0.31404972893372174,-1.5999731901943683
1772868611664792300,5.254792236328125,-1.3460498670518397,-0.3568405306510627,-1.720056636559218
1772868611674858200,5.264858154296875,-1.6168004063546657,-0.40894758837670087,-1.7856617660224436
1772868611684924200,5.274924072265625,-1.7425193743884562,-0.315066650891304,-1.709595740560442
1772868611694991400,5.284991455078125,-1.680266039571166,-0.15434797340780496,-1.621248764065653
1772868611705057000,5.29505712890625,-1.4750637849777937,-0.02978241319283843,-1.618774921298027
1772868611715123200,5.305123291015625,-1.1800906585663555,0.03422960186004639,-1.7328057896256446
1772868611725190100,5.315190185546875,-0.8078104205906391,0.030053631349653005,-1.8958935343280434
1772868611735256300,5.32525634765625,-0.4592079953223467,0.010811170741170644,-1.9900667327582835
1772868611745322200,5.335322265625,-0.13408347627520562,-0.008379413549602031,-2.009482796368003
1772868611755389200,5.34538916015625,0.1322404787570238,-0.03751373809725046,-1.9962454213932155
1772868611765455400,5.355455322265625,0.36510640082359314,-0.04217150077521801,-1.9361312905617056
1772868611775521300,5.365521240234375,0.5514671768248081,-0.005769523312151432,-1.863540686125308
1772868611785588200,5.375588134765625,0.6960761387676,0.05901391450464725,-1.7853543075084686
1772868611795654400,5.385654296875,0.8280126661419868,0.13447978211641312,-1.7599290666118264
1772868611805720300,5.39572021484375,0.9568483048915862,0.187369660782814,-1.7802844568982719
1772868611815787300,5.405787353515625,1.1109925724208354,0.2855392353728413,-1.856320525613427
1772868611825853400,5.415853515625,1.2374439463824034,0.37098727555572986,-1.9531141356751323
1772868611835919000,5.425919189453125,1.3225433192580938,0.3854533155426383,-2.087825680720806
1772868611845986000,5.435986083984375,1.3227017246901989,0.3542427692428231,-2.202076329278946
1772868611856052200,5.44605224609375,1.2571692220717667,0.37826866473555565,-2.2358719236358997
1772868611866118100,5.4561181640625,1.1810416756808757,0.4402618873119354,-2.255126513073593
1772868611876185000,5.46618505859375,1.0904910516619681,0.4717006894096732,-2.3036082199089227
1772868611886251300,5.476251220703125,0.9451870931923388,0.43882235602810976,-2.419030104203522
1772868611896317200,5.486317138671875,0.7215887656867503,0.33985315549299117,-2.5682968288242813
1772868611906384100,5.496384033203125,0.4655722696572542,0.22668153434321284,-2.706755451443791
1772868611916450300,5.5064501953125,0.15597557460963726,0.15663608434498308,-2.803795437481999
1772868611926516200,5.51651611328125,-0.13766659545898435,0.16013883176892996,-2.776436305913329
1772868611936583200,5.526583251953125,-0.3811059339880943,0.1876949472144246,-2.712669936184585
1772868611946649300,5.5366494140625,-0.5706383257627486,0.1815570289812982,-2.7218545286372304
1772868611956715300,5.54671533203125,-0.7212205168962478,0.09501680964753031,-2.7716087396264073
1772868611966781200,5.55678125,-0.8630717045634985,0.015581161621958016,-2.7819275968059896
1772868611976848100,5.56684814453125,-0.962760743805766,0.019676175850629807,-2.7184090643584726
1772868611986914000,5.5769140625,-1.014369350489974,0.003919073139876127,-2.6196464923113583
1772868611996980200,5.586980224609375,-1.0132049828857184,-0.07749912700504064,-2.5505378847718236
1772868612007047200,5.597047119140625,-0.9774036016643046,-0.11809037285149097,-2.4623010906532405
1772868612017113000,5.607113037109375,-0.8992477643162011,-0.16453224442228673,-2.4112480720251797
1772868612027179300,5.61717919921875,-0.7821662762463092,-0.240941968755424,-2.425589608849585
1772868612037246200,5.62724609375,-0.6077648181080818,-0.250458131249994,-2.339603662397712
1772868612047312400,5.6373125,-0.48178690687716,-0.2375637244939804,-2.2705936929270623
1772868612057378300,5.64737841796875,-0.4002122009962797,-0.20240590187311172,-2.1379015248797835
1772868612067445200,5.6574453125,-0.23270634759068487,-0.11786153253167866,-1.955477357675135
1772868612077508900,5.6675087890625,-0.09915478623509406,0.04099193560183048,-1.710645103482902
1772868612087574800,5.67757470703125,-0.05062602538764476,0.32965573273599147,-1.3363498724229632
1772868612097641700,5.687641845703125,-0.11098843189179897,0.6007689678713679,-0.9951604998901485
1772868612107707600,5.697707763671875,-0.2832721672236919,0.7728126108370721,-0.7038268259596079
1772868612117773800,5.70777392578125,-0.49698915218412876,0.9593798691958189,-0.2961864477239549
1772868612127840800,5.7178408203125,-0.6716600749135017,1.1241543979413806,0.13228490242063998
1772868612137906700,5.72790673828125,-0.6844809780418872,1.2183946702584623,0.3639444443721324
1772868612147972900,5.737972900390625,-0.545740031349659,1.255567485963553,0.4617394134961068
1772868612158039800,5.748039794921875,-0.31877719584703446,1.180846006978303,0.4025789301276207
1772868612168105700,5.758105712890625,-0.09458850123286247,0.9944213719606398,0.2291865029014647
1772868612178172000,5.768171875,-0.007725625815987586,0.7519293972842395,0.009376973219588398
1772868612188238800,5.77823876953125,-0.15303952115774153,0.5447643181852996,-0.1592939784426242
1772868612198304800,5.7883046875,-0.4224807314276695,0.4535167979434132,-0.1939665748298168
1772868612208371000,5.798370849609375,-0.7160089197278022,0.5174751831129193,-0.07357603527717292
1772868612218438000,5.80843798828125,-1.0475760390430688,0.68275532329306,0.15144845257401465
1772868612228504000,5.818504150390625,-1.441170283204317,0.9175719410359859,0.4940240918334573
1772868612238569700,5.82856982421875,-1.760627278009057,1.190404401179403,0.9142635471403598
1772868612248635600,5.8386357421875,-1.8937147289842367,1.4586400350518525,1.4017419436573981
1772868612258702800,5.848702880859375,-1.8419605763494968,1.6379983849450945,1.8489571572385728
1772868612268768800,5.858768798828125,-1.6254875706791876,1.810050065086782,2.3819668863527474
1772868612278835000,5.8688349609375,-1.3640192389845847,1.8793616478525101,2.8989655379951
1772868612288902000,5.87890185546875,-1.1008493640691042,1.8360886155761778,3.2988702804774044
1772868612298967800,5.8889677734375,-0.8916600856661796,1.7799568323791026,3.6426448471978303
1772868612309034000,5.899033935546875,-0.7931003427147865,1.6874458680726587,3.969044500747323
1772868612319101000,5.909100830078125,-0.7107868011653423,1.5490855912610888,4.21751452692002
1772868612329166800,5.919166748046875,-0.6379957057207822,1.38439874079898,4.331918904735148
1772868612339233000,5.92923291015625,-0.596501665815711,1.073491693805158,4.263819474238157
1772868612349300000,5.939300048828125,-0.5587590873986482,0.4739252335913479,3.9525414019748566
1772868612359366000,5.949365966796875,-0.5323071338027715,-0.22838234691172837,3.4101924743682144
1772868612369431800,5.959431884765625,-0.4989858789592981,-0.9217449889369308,2.7952535268470644
1772868612379498800,5.969498779296875,-0.4699205279946327,-1.5123777627192436,2.2237900023065507
1772868612389564700,5.979564697265625,-0.40320729115903375,-1.883362846317887,1.7869596968784927
1772868612399630800,5.989630859375,-0.34539398461580273,-2.0780418072007594,1.368850166272372
1772868612409697800,5.99969775390625,-0.31891514301300045,-2.066686300449818,1.0480739055626094
1772868612419763700,6.009763671875,-0.32101182303130626,-1.9492048532769082,0.8872533751398325
1772868612429830000,6.019829833984375,-0.35640579249560833,-1.6783166590690612,0.956132557837665
1772868612439896800,6.029896728515625,-0.3456792312979698,-1.2568544570341706,1.1930902792625129
1772868612449962800,6.039962646484375,-0.23095921166241168,-0.8702068171404301,1.3587160180099307
1772868612460029000,6.05002880859375,-0.006645429363846779,-0.6115902216151357,1.3446420460805295
1772868612470096000,6.060095947265625,0.27049101158380506,-0.4620820894539356,1.2259537073358893
1772868612480161800,6.070161865234375,0.5227461092531681,-0.3623980186477303,1.0958045017696916
1772868612490228000,6.08022802734375,0.7193231588423251,-0.27774799697473646,1.0218741731621324
1772868612500295000,6.090294921875,0.8321399752050638,-0.2250024952150881,0.9023529637899249
1772868612510360800,6.10036083984375,0.8863847756117582,-0.2508670043118298,0.7001174500476568
1772868612520426800,6.1104267578125,0.8451935180455445,-0.30806495543569323,0.42660847888216374
1772868612530493700,6.12049365234375,0.7715057660222053,-0.29382264120206236,0.20252076042443512
1772868612540560000,6.130559814453125,0.665652358931303,-0.18921674995422363,0.05384447597749531
1772868612550625800,6.140625732421875,0.5175356811285019,-0.1282271514624357,-0.13564378439448774
1772868612560691700,6.150691650390625,0.3805822023749351,-0.05531228350773453,-0.24137634158469734
1772868612570759000,6.160759033203125,0.2779080098420381,0.07352890819981694,-0.2869924298558384
1772868612580824800,6.170824951171875,0.3227127817302942,0.15343860347792504,-0.39396884962730105
1772868612590891000,6.18089111328125,0.46784255267679686,0.14850363129377364,-0.5666200300320983
1772868612600958000,6.1909580078125,0.6077449443638324,0.11744082290157674,-0.7310881231769919
1772868612611024000,6.20102392578125,0.6737924107670784,0.06163929457217455,-0.9483285330232232
1772868612621090000,6.211090087890625,0.7691139024496078,-0.004359071992337703,-1.1322731147281826
1772868612631157000,6.221156982421875,0.8338847730457782,0.05705269743427634,-1.1947639115631579
1772868612641222700,6.23122265625,0.8996107524096966,0.17754545525237916,-1.160624910596013
1772868612651288800,6.241288818359375,0.9290314926832913,0.2929468812808394,-1.078573454048857
1772868612661355800,6.251355712890625,0.950813700902462,0.36664705439433454,-1.0422728911336512
1772868612671421700,6.261421630859375,0.9990367568016052,0.430359501978755,-1.0344338680710643
1772868612681488000,6.27148779296875,1.0622855323970317,0.5352013939395547,-1.0123225740280002
1772868612691554800,6.281554931640625,1.043394369444251,0.5817364967517554,-0.9457837439112364
1772868612701620700,6.291620849609375,0.9538602289915085,0.5885387241125106,-0.8943513705767691
1772868612711687000,6.30168701171875,0.8197370052278041,0.5961433538973331,-0.7851696958459913
1772868612721753900,6.31175390625,0.647910366013646,0.5278891712300479,-0.6827920020416378
1772868612731819800,6.32181982421875,0.49961131738126274,0.39182445800974963,-0.665276657486707
1772868612741886000,6.331885986328125,0.39109833569228647,0.2583449389770627,-0.6598049480773508
1772868612751953000,6.341952880859375,0.30416707121431824,0.1506494111508131,-0.6319389629650861
1772868612762018800,6.352018798828125,0.1565524977147579,0.005268149661272764,-0.6328247328236699
1772868612772084700,6.362084716796875,-0.0663011489033699,-0.1884657854564488,-0.6265004982382059
1772868612782152000,6.37215185546875,-0.2558756262540817,-0.32569282045438885,-0.5887023902416229
1772868612792217900,6.3822177734375,-0.4244862260311842,-0.4218872955791652,-0.5502249947439879
1772868612802283800,6.39228369140625,-0.5296563270330429,-0.4608164534322917,-0.4892920218102634
1772868612812350700,6.402350830078125,-0.5781693057894707,-0.40274624951854343,-0.3958797978151589
1772868612822417000,6.4124169921875,-0.6195096164375543,-0.36634003427177664,-0.30949951828345657
1772868612832482800,6.42248291015625,-0.6725538088828324,-0.3868346868984401,-0.23259879556298255
1772868612842548700,6.432548828125,-0.7568243297189474,-0.4405184924215078,-0.16708258649222552
1772868612852616000,6.442615966796875,-0.8280436458021402,-0.5128923853673041,-0.10760748421661555
1772868612862681900,6.452681884765625,-0.8775479736834764,-0.6559886046595871,-0.10793649697527288
1772868612872747800,6.462747802734375,-0.9260971927970647,-0.8550662388928234,-0.17263393700905144
1772868612882815000,6.47281494140625,-0.9285352335989475,-0.9911588630333542,-0.2342179942626506
1772868612892881000,6.482880859375,-0.9231552941262722,-1.0293464087389408,-0.31969131501726805
1772868612902946800,6.49294677734375,-0.9295435338586568,-1.0115785507276653,-0.42645862208269536
1772868612913014000,6.503013916015625,-0.9008598756879568,-0.9028259150639176,-0.45232817268073555
1772868612923079700,6.51307958984375,-0.6706500210881233,-0.7696278433211148,-0.4883600016571581
1772868612933145900,6.523145751953125,-0.29047464594841,-0.5909434471666812,-0.38820845946967597
1772868612943212800,6.533212890625,0.1304594405591488,-0.4548597369849682,-0.2109875599965453
1772868612953278700,6.54327880859375,0.46658056991696356,-0.41013285263851285,-0.0015074819535017012
1772868612963345000,6.553344970703125,0.34960195769965646,-0.5048705530837178,0.15291889045275747
1772868612973411800,6.563411865234375,-0.4872030867069959,-0.7449431916587055,0.1745327563676983
1772868612983477800,6.573477783203125,-1.858392655712366,-0.9968867391608655,0.16373970580510794
1772868612993544000,6.5835439453125,-3.2683424557447434,-1.0986400174565614,0.24761706260517238
1772868613003611000,6.59361083984375,-4.191269201812148,-0.7184738485366106,0.5736291050765663
1772868613013676800,6.6036767578125,-4.470563113054633,0.041594577670097346,0.947511225290969
1772868613023743000,6.613742919921875,-4.109996109226346,0.7686708348572254,1.1577191061519085
1772868613033810000,6.623809814453125,-3.240155056658387,1.252370005096495,1.064353643907979
1772868613043875800,6.633875732421875,-1.8897960942357777,1.2836886879459022,0.5902094703363254
1772868613053941800,6.643941650390625,-0.5709867008090019,1.0769362813010812,0.04140767679587006
1772868613064008700,6.6540087890625,0.48116263749897475,0.9180822286456822,-0.24162388660497963
1772868613074074600,6.66407470703125,1.2784469879001379,0.712139384818077,-0.48910702063217754
1772868613084141300,6.674141357421875,1.8057652273744345,0.47202509905844925,-0.7633300583511591
1772868613094208300,6.684208251953125,2.0923317599684,0.3787979493066668,-0.9080879272453486
1772868613104274200,6.694274169921875,2.113417218095064,0.4814753567099571,-0.8297722962256521
1772868613114340400,6.70434033203125,1.7917302722811699,0.8216516066774725,-0.5402272592775523
1772868613124406000,6.714406005859375,1.2295447175651788,1.3135317452847957,-0.0714122813720256
1772868613134473000,6.724472900390625,0.6781044287472963,1.6634350240185856,0.1911541477575898
1772868613144539100,6.7345390625,0.13576689931750296,1.8559224662065505,0.3140781878432259
1772868613154605000,6.74460498046875,-0.34629122571647164,2.033745715487003,0.3812294142372906
1772868613164672300,6.75467236328125,-0.683526453796029,2.269954810501635,0.4752144331516698
1772868613174738200,6.76473828125,-0.8335545181781053,2.557425598458946,0.6698221188966185
1772868613184804000,6.77480419921875,-0.7986305043131112,2.7815044029578564,0.8860635808333754
1772868613194871300,6.784871337890625,-0.6530927370876074,2.845045439498126,1.041622026009485
1772868613204937200,6.794937255859375,-0.4135696952193975,2.6992782474309203,1.0626398987926542
1772868613215003100,6.805003173828125,0.019083470654487608,2.377246433702111,0.8759451415967195
1772868613225070300,6.8150703125,0.5677578018903732,1.9706296263605354,0.6032912528906017
1772868613235136300,6.82513623046875,1.0250123250573873,1.5737430626556277,0.3876374911813065
1772868613245202200,6.8352021484375,1.3372031282514334,1.2260507379695773,0.2732050563154742
1772868613255269400,6.845269287109375,1.509811857753992,0.8833475998729466,0.15921470266133547
1772868613265335000,6.8553349609375,1.556464887857437,0.5174211148381233,0.004829319852590561
1772868613275401200,6.865401123046875,1.4815695136100053,0.22820085286498068,-0.07486275061946362
1772868613285468200,6.87546826171875,1.3067255724012852,0.10131576366126537,-0.043394649362005294
1772868613295534000,6.8855341796875,1.0680956799805164,0.16002485000044106,0.08599288764931261
1772868613305600300,6.895600341796875,0.7996195153504609,0.28368688550442456,0.24350984648205337
1772868613315667200,6.905667236328125,0.5344184268683195,0.451695135474205,0.39099334094785154
1772868613325733000,6.915733154296875,0.27157237707972526,0.6009978081911802,0.5222933239843696
1772868613335799300,6.92579931640625,0.012516367223858833,0.6536047782629728,0.6040897097919136
1772868613345865200,6.935865234375,-0.22671266013383864,0.6220207224756479,0.6737232910536229
1772868613355932200,6.94593212890625,-0.4206318886905908,0.5709048677444458,0.7438087808012962
1772868613365998300,6.955998291015625,-0.5602133778601884,0.45437516833841796,0.7785271160263568
1772868613376064300,6.966064208984375,-0.6352350088357925,0.2547279175236821,0.7322159581631421
1772868613386131200,6.976131103515625,-0.6751946787804365,0.002210369525849819,0.6357431044884025
1772868613396197400,6.986197265625,-0.6626099224954843,-0.21913901000916958,0.5342814295504242
1772868613406263000,6.996262939453125,-0.6429167955100537,-0.4114296144507825,0.46532673393096774
1772868613416330000,7.006330078125,-0.6787544170886278,-0.6045328504495322,0.39981428771987554
1772868613426396200,7.016396240234375,-0.7105629292815924,-0.749907682198286,0.3445775171337649
1772868613436462000,7.026462158203125,-0.6450345183163881,-0.8653533857598901,0.25186787018375467
1772868613446529000,7.036529052734375,-0.5024935948193073,-0.9515990060612559,0.12966117545408196
1772868613456595200,7.04659521484375,-0.3840858265817165,-1.0698721881337463,-0.01325422450324404
1772868613466661000,7.0566611328125,-0.3926759602725506,-1.2506089867733419,-0.16794559652972965
1772868613476728300,7.066728271484375,-0.5046171628445386,-1.3810254649735987,-0.26502710188841444
1772868613486794200,7.076794189453125,-0.6101373924583197,-1.4037585441768168,-0.2938695490837097
1772868613496860200,7.086860107421875,-0.6564899783104657,-1.3862567897558211,-0.28141631022393704
1772868613506927400,7.09692724609375,-0.6301046602100133,-1.363921623829007,-0.24325462961196898
1772868613516993300,7.1069931640625,-0.5604653067946433,-1.350153064586967,-0.21971206065677104
1772868613527059200,7.11705908203125,-0.4735580077141523,-1.3830305211856961,-0.2699988806853071
1772868613537126400,7.12712646484375,-0.395868034312129,-1.4994398090824483,-0.3268699014097452
1772868613547192000,7.137192138671875,-0.31486908249258994,-1.5425155652210116,-0.3741601334381848
1772868613557258200,7.14725830078125,-0.19060206683278083,-1.505942030583322,-0.48135501826591787
1772868613567325200,7.1573251953125,-0.026121114206314085,-1.4469699093937873,-0.5943372177908197
1772868613577391000,7.16739111328125,0.1678501367986202,-1.3244943071953952,-0.6822462777923792
1772868613587457300,7.177457275390625,0.4725204813599586,-1.0267913174286485,-0.6639536652546376
1772868613597523200,7.187523193359375,0.8770330098986625,-0.6676169370025395,-0.5667007671181112
1772868613607590100,7.197590087890625,1.3159142565071582,-0.4259655048035085,-0.5281497218623757
1772868613617656300,7.20765625,1.691584721443057,-0.2979967120163142,-0.5679526668753475
1772868613627722200,7.21772216796875,1.9649790532529352,-0.24929843982085584,-0.6449975473068654
1772868613637789200,7.2277890625,2.0644038886010647,-0.30198592778295275,-0.7581791783940046
1772868613647855400,7.23785546875,1.9731904167592524,-0.3891238207489252,-0.9131737791422754
1772868613657921300,7.24792138671875,1.7811568558186293,-0.35755627770498394,-0.9560731558006256
1772868613667988200,7.25798828125,1.5239058495581148,-0.28814854108840227,-1.0109802925735711
1772868613678054100,7.26805419921875,1.279867960613966,-0.2836629201069474,-1.1451208327982574
1772868613688120000,7.2781201171875,1.0551526117771863,-0.29618279446214435,-1.312451548832655
1772868613698187000,7.28818701171875,0.7984270906955003,-0.327354323925823,-1.4787746221944689
1772868613708253200,7.298253173828125,0.46697804480195043,-0.4003535091631114,-1.6248539489507674
1772868613718319000,7.308319091796875,0.1177624560713768,-0.5212640540018677,-1.665905213524401
1772868613728386000,7.318385986328125,-0.24569150137007234,-0.6843053292140364,-1.7037918765872715
1772868613738452200,7.3284521484375,-0.6954670669585465,-0.7518912572309374,-1.706724422907829
1772868613748518100,7.33851806640625,-1.0669055934131144,-0.7699993069820106,-1.6931044783562421
1772868613758585000,7.348585205078125,-1.357493052086234,-0.8596357387654483,-1.7992127369910478
1772868613768651300,7.3586513671875,-1.534090558964014,-0.961378934058547,-1.9608646036714314
1772868613778717200,7.36871728515625,-1.580581676504016,-1.0274565033391116,-2.032274181629717
1772868613788784400,7.378784423828125,-1.5392255837649107,-1.0231079527407885,-1.9638021184280514
1772868613798850300,7.388850341796875,-1.4593144271820784,-1.0353623080275953,-1.8154405259534716
1772868613808916000,7.398916015625,-1.5428636480063198,-1.1297199231140316,-1.65230192784667
1772868613818982100,7.408982177734375,-1.673067067977786,-1.2597180297717452,-1.4237427630633115
1772868613829049000,7.419049072265625,-1.8058213414758442,-1.2507554095067084,-1.0941152335084974
1772868613839115300,7.429115234375,-1.9230238255769012,-1.0316194682374595,-0.6311424057599156
1772868613849181200,7.43918115234375,-2.085758811318874,-0.7321130823105573,-0.06511142766214907
1772868613859248000,7.449248046875,-2.3755232631713152,-0.33261180606260893,0.5788647407077252
1772868613869314300,7.459314208984375,-2.6661890477776526,0.12493980035483837,1.1335312250304967
1772868613879380200,7.469380126953125,-2.7285639631479977,0.5292962615489959,1.5403116254359484
1772868613889447200,7.479447265625,-2.642465057840943,0.988624668380618,1.9705562688633798
1772868613899513300,7.489513427734375,-2.4390613771021363,1.4488693132743238,2.356242516379058
1772868613909579300,7.499579345703125,-2.0836352432936427,1.704917665746808,2.5882673114463683
1772868613919646200,7.509646240234375,-1.5798007552593945,1.8450526971459387,2.686279941909015
1772868613929712400,7.51971240234375,-0.9084335258126258,1.922095312555134,2.715303499558568
1772868613939778000,7.529778076171875,-0.18745850811004638,1.947911306335032,2.689935541807115
1772868613949845200,7.53984521484375,0.5365946018636226,1.924247814413905,2.6418857966482636
1772868613959911200,7.5499111328125,1.1528472623318433,1.7865701130390166,2.488897128894925
1772868613969977000,7.55997705078125,1.6093500903487206,1.5570459026157855,2.284242279051244
1772868613980044000,7.5700439453125,1.896336309659481,1.1880573996618389,1.8923286814533173
1772868613990110200,7.580110107421875,2.001526284405589,0.7795473259195685,1.4643540287844836
1772868614000176000,7.590176025390625,1.9067606730401514,0.4092110616184771,1.019592857291922
1772868614010243000,7.6002431640625,1.6729752980411052,0.19924422297179697,0.7118984156690538
1772868614020309200,7.610309326171875,1.298926296827197,0.20720073493421076,0.5866252917066216
1772868614030375200,7.620375244140625,0.9060100980579853,0.34677447918877,0.5578407304447144
1772868614040441300,7.63044140625,0.6272726516544819,0.5576631088554859,0.5555252200439572
1772868614050508300,7.64050830078125,0.5026391407698393,0.7756079406440257,0.5050245746016502
1772868614060574200,7.65057421875,0.4985895731180906,0.9068670071482657,0.3858572932336479
1772868614070640000,7.66064013671875,0.5485550887703895,0.9773178230769932,0.25660350213721395
1772868614080710400,7.67071044921875,0.5592319656074046,0.952857481689751,0.11752243677042425
1772868614090776300,7.6807763671875,0.5365279663681983,0.9078462274439633,0.018515680703893304
1772868614100842500,7.690842529296875,0.5282043746590614,0.8658630888476967,0.037570728981494904
1772868614110909400,7.700909423828125,0.520277088791132,0.7179058393903076,0.053481195623055096
1772868614120975400,7.710975341796875,0.5302782583236694,0.4240190469108522,-0.006555266862362623
1772868614131041300,7.721041259765625,0.5129816710859537,0.16518910089582203,-0.059291050945594906
1772868614141108200,7.731108154296875,0.4819838907539844,-0.05970365033447742,-0.11030761002078651
1772868614151174400,7.74117431640625,0.355457113468647,-0.26518808287009593,-0.12130290515720843
1772868614161240300,7.751240234375,0.13588964891433716,-0.4300660719901323,-0.09781381995491682
1772868614171307300,7.761307373046875,-0.08185761447548866,-0.522898231074959,-0.03379347546510398
1772868614181373400,7.77137353515625,-0.2807821039736271,-0.5597473677836359,0.08214856024608015
1772868614191439400,7.781439453125,-0.39357904659211634,-0.5958902559190988,0.16869349228758365
1772868614201506300,7.79150634765625,-0.4312368693351745,-0.635435499843955,0.18209179344512522
1772868614211572500,7.801572509765625,-0.37798517161905765,-0.75394731297791,0.06979998733717947
1772868614221638400,7.811638427734375,-0.272855987149477,-0.8601943955615162,-0.08143591846469789
1772868614231704600,7.82170458984375,-0.13636544973254203,-0.9125821699246763,-0.2322407759055495
1772868614241771500,7.831771484375,0.029420155751705167,-0.9306376127056777,-0.37626324319727716
1772868614251837200,7.841837158203125,0.21096096425056457,-0.9002619097948074,-0.5252761391874402
1772868614261903400,7.8519033203125,0.43669922639429565,-0.7910961632855236,-0.625703429576382
1772868614271970300,7.86197021484375,0.6624591158479451,-0.6488771652191877,-0.6627228082854301
1772868614282036200,7.8720361328125,0.8784306017369031,-0.4926704122021794,-0.6958656378220767
1772868614292102400,7.882102294921875,1.065442535123229,-0.3393861225031316,-0.7029920556358993
1772868614302169300,7.89216943359375,1.1958587210625409,-0.18246274564936757,-0.7116946367252618
1772868614312235300,7.9022353515625,1.2872294292926787,0.04640095503851771,-0.6109102765269577
1772868614322301400,7.912301513671875,1.4068360519260168,0.327931393161416,-0.45365394139178095
1772868614332368400,7.922368408203125,1.5136065738618374,0.5371342616982758,-0.3528635898441076
1772868614342434300,7.932434326171875,1.6145365530759095,0.6313333252221346,-0.28585246604047715
1772868614352500500,7.94250048828125,1.705126340061426,0.6858683407470584,-0.24047047878615557
1772868614362567400,7.9525673828125,1.801338058581948,0.7059696101419627,-0.19015980295799673
1772868614372633300,7.96263330078125,1.868843907099962,0.6280605871617794,-0.1567583955504
1772868614382699300,7.97269921875,1.8818296454012393,0.4475029444813728,-0.15598704585172235
1772868614392766500,7.982766357421875,1.8307798416435717,0.25278292093575,-0.17051168415807186
1772868614402832400,7.992832275390625,1.7360516396790742,0.056142450721561904,-0.20745587873905896
1772868614412898300,8.002898193359375,1.6382015063017605,-0.11601532014310359,-0.2545052877489477
1772868614422964200,8.012964111328126,1.518406083098054,-0.2251063939809799,-0.24243381474837658
1772868614433031400,8.023031494140625,1.3665893817335366,-0.2673097511991858,-0.1937734634105116
1772868614443097300,8.033097412109376,1.1985305706202982,-0.3298684987038374,-0.1519949074756354
1772868614453163300,8.043163330078125,1.0532704512923956,-0.4457113848894834,-0.10990202489458024
1772868614463230500,8.05323046875,0.892776522475481,-0.5392538842007517,-0.07129771508164703
1772868614473296400,8.06329638671875,0.7168576455116271,-0.592047901277244,0.007871244831755757
1772868614483362600,8.073362548828126,0.5541577310830355,-0.6951160615637898,0.06841193051226437
1772868614493428500,8.083428466796875,0.31501112131178377,-0.896239814671874,0.0628817689139396
1772868614503495400,8.093495361328126,-0.0019160627543926237,-1.0733160449773071,0.023314970744401215
1772868614513561300,8.103561279296875,-0.31542145567834373,-1.2232380186364054,0.033956118680909274
1772868614523627300,8.113627197265625,-0.615664631447196,-1.3140154371485113,0.10221753480657934
1772868614533694200,8.123694091796875,-0.9021727118521928,-1.3323597798734903,0.2296159803599119
1772868614543760400,8.133760498046875,-1.2131868724822998,-1.3555676369816063,0.31015491345226764
1772868614553826300,8.143826416015624,-1.5272802944272756,-1.4482541039854286,0.2637162567518651
1772868614563893200,8.153893310546875,-1.7785060490489004,-1.5929145038545132,0.07652823614627123
1772868614573959400,8.16395947265625,-2.0068185455948115,-1.7569620334997773,-0.1705983029955998
1772868614584025300,8.174025390625,-2.1282623205274342,-1.8436743945300578,-0.393151614960283
1772868614594092300,8.18409228515625,-2.081497646743059,-1.785730447344482,-0.483774135171622
1772868614604158500,8.194158447265625,-1.973804749265313,-1.600755280482769,-0.34540030475873496
1772868614614224400,8.204224365234374,-1.8890356312572956,-1.4064113967731595,-0.12318689227290451
1772868614624291300,8.214291259765625,-1.819223843884468,-1.2452595885694027,0.16116685964241623
1772868614634357500,8.224357421875,-1.9167238486498592,-1.1251914859041572,0.4331545395247638
1772868614644423400,8.23442333984375,-2.361157468688488,-1.038289739781618,0.6794179955638945
1772868614654490400,8.244490478515624,-3.0956974858850237,-0.9100587889268994,1.0300429396357387
1772868614664556300,8.254556396484375,-3.820004278358817,-0.6474082617104053,1.4119853975132106
1772868614674622200,8.264622314453124,-4.231424686589837,-0.31175708795189855,1.6057696015134453
1772868614684689400,8.274689453125,-4.310138157820702,-0.36545740621834993,1.3758598989039659
1772868614694755300,8.28475537109375,-4.177616524034739,-0.7856725308015942,0.8641811271101236
1772868614704821200,8.2948212890625,-3.9516888767987486,-1.3094418456226586,0.23922997720576822
1772868614714887400,8.304887451171876,-3.4540403839230533,-1.5203183464601635,-0.16685593812949953
1772868614724954400,8.314954345703125,-2.6307933247476813,-1.2243629310131072,-0.3590945931881666
1772868614735020300,8.325020263671876,-1.7468822457730768,-0.7778928367108107,-0.6080041067566723
1772868614745086500,8.33508642578125,-0.9860276376247405,-0.3678878482356667,-0.8124155032332986
1772868614755153400,8.3451533203125,-0.5475526337295771,-0.08277356027662754,-1.0325320530377329
1772868614765219300,8.35521923828125,-0.31914252202808857,0.08216565751135349,-1.3017989296540617
1772868614775285500,8.365285400390626,-0.20600655671358106,0.3035287733107805,-1.4560513337329029
1772868614785352400,8.3753525390625,-0.1390466516405344,0.6229550807163119,-1.4594627496115862
1772868614795418400,8.38541845703125,-0.052558454754948615,0.9419070486083626,-1.4435709146052598
1772868614805484300,8.395484375,0.04265957655310631,1.2044161215275526,-1.5104856653623282
1772868614815551200,8.40555126953125,0.2547860774517059,1.3770903174817561,-1.6387809136249123
1772868614825617400,8.415617431640625,0.49435237393975257,1.4748235464811323,-1.8434271417707204
1772868614835683300,8.425683349609375,0.7720277440696954,1.6204022302389145,-2.0160148284852504
1772868614845750300,8.435750244140625,1.0491150851786135,1.8641519498914478,-2.1028975776463747
1772868614855816400,8.44581640625,1.2763713506698608,2.186184640403092,-2.051876123200357
1772868614865882400,8.45588232421875,1.4760188937455414,2.4386288309037685,-2.0819374994650484
1772868614875948500,8.465948486328125,1.683846820667386,2.76791163867414,-1.9198614160232246
1772868614886015500,8.476015380859375,1.8681296213507652,3.3958971147730943,-1.3883862029999494
1772868614896081400,8.486081298828125,1.8521476238429546,3.7887902249276637,-1.0587826388426125
1772868614906147600,8.496147705078124,1.8866367534220219,4.09816421713531,-0.9588573796916753
1772868614916214500,8.506214599609375,1.961101919558644,4.208967940109968,-0.889228328474611
1772868614926280200,8.5162802734375,2.061664819025993,4.089328584250808,-0.8726420814633369
1772868614936346400,8.526346435546875,1.9742220978945493,3.8185783372089266,-0.9522153843939304
1772868614946413300,8.536413330078124,1.7153022816389798,3.460890103687346,-1.0341516170635818
1772868614956479200,8.546479248046875,1.4128028513759374,3.002740385246277,-1.099434967226535
1772868614966545400,8.55654541015625,1.0848112524598836,2.516903910717368,-1.1723200976300985
1772868614976612400,8.5666123046875,0.7251485039949417,2.0487527304828164,-1.2359706589594484
1772868614986678300,8.57667822265625,0.4000228159040212,1.6660834927007555,-1.315513566751778
1772868614996744400,8.586744384765625,0.034247722038626666,1.3402844353929162,-1.3548723481938243
1772868615006811400,8.596811279296874,-0.30030338152348995,1.077415589250624,-1.2463180115811525
1772868615016877300,8.606877197265625,-0.5851794768124818,0.9434723982289432,-0.9508481146287172
1772868615026943500,8.616943603515624,-0.8913163867950439,0.8173506946131587,-0.5777599212709814
1772868615037010400,8.627010498046875,-1.21995622048676,0.6598205840378999,-0.2596115248467773
1772868615047076400,8.637076416015624,-1.4992238282442092,0.49465398723483084,0.03932181043252349
1772868615057143600,8.6471435546875,-1.6514356664061545,0.26133359939903017,0.22689386191964148
1772868615067209500,8.65720947265625,-1.689264754062891,-0.057442719665169714,0.3356556307379156
1772868615077275400,8.667275390625,-1.6256553284615278,-0.36459289834350345,0.39438568679988384
1772868615087342600,8.677342529296874,-1.4543547589480876,-0.6604428075894713,0.3736813369452953
1772868615097408500,8.687408447265625,-1.2623638681054115,-0.9760022104337811,0.2694993701979518
1772868615107474700,8.697474609375,-1.0698106672048568,-1.2630915978580712,0.18988865786641834
1772868615117541600,8.707541748046875,-0.9436708434104919,-1.5471844338148832,0.07326295074000955
1772868615127607600,8.717607666015626,-0.8216548215478658,-1.810676380291581,-0.039366526357084514
1772868615137673700,8.727673828125,-0.6571224309951067,-2.0138161493971944,-0.087307915770635
1772868615147740700,8.73774072265625,-0.4939893858462572,-2.1890736398428676,-0.09478541204445064
1772868615157806600,8.747806640625,-0.3469254319667816,-2.2694912846431134,-0.11927395661287009
1772868615167872800,8.757872802734376,-0.21194471459090708,-2.275279512655735,-0.10394041307643055
1772868615177939700,8.767939697265625,-0.07287760468423365,-2.239690020619333,-0.09803067757599056
1772868615188005600,8.778005615234376,0.053857262393832206,-2.227518229049444,-0.13080226264744996
1772868615198071600,8.788071533203125,0.22800620707571506,-2.1736928230986,-0.22669636658616363
1772868615208137500,8.798137451171876,0.4268424337685108,-2.1206875013589856,-0.31934980810321867
1772868615218204400,8.808204345703125,0.568556258791685,-2.067471167217195,-0.43556357342787083
1772868615228270600,8.8182705078125,0.6105594172626734,-2.0245280975475906,-0.5626417740508913
1772868615238336500,8.82833642578125,0.6056394965171814,-1.9122642388924955,-0.624646029477939
1772868615248403500,8.838403564453126,0.5293740029603242,-1.6959174899503588,-0.6083080581393092
1772868615258469600,8.8484697265625,0.3263292186617851,-1.4001499982908368,-0.5396691139381379
1772868615268535600,8.85853564453125,-0.029275194323062893,-1.014883729752898,-0.46308023364581163
1772868615278602500,8.8686025390625,-0.3690934246331453,-0.6719368460282683,-0.40505105586219575
1772868615288668700,8.878668701171875,-0.7369803960859775,-0.38236031796336173,-0.3706877080872655
1772868615298734600,8.888734619140624,-1.0581231520205736,-0.07752338466346263,-0.3510914656050503
1772868615308801500,8.898801513671875,-1.229361762213707,0.13370558287352322,-0.42993740410916503
1772868615318867700,8.90886767578125,-1.0538970587581395,0.14446750764548777,-0.6770758894171566
1772868615328933400,8.918933349609375,-0.9522171379595994,0.053740358015894885,-1.0140214869003743
1772868615339000600,8.92900048828125,-0.9305804756909608,-0.06780570824742317,-1.1830853103376924
1772868615349066500,8.93906640625,-0.8453829031378031,-0.25897593035697936,-1.2358695366725325
1772868615359132400,8.94913232421875,-0.8704752588182687,-0.5849883381545543,-1.1859454490091652
1772868615369198600,8.959198486328125,-1.1366963379979134,-0.9546065173141658,-1.1479129477348178
1772868615379265500,8.969265625,-1.6236790599524973,-1.1529225195251405,-1.0971189453691244
1772868615389331500,8.97933154296875,-2.4869956791877743,-1.1650237300768493,-0.7692416204825043
1772868615399397600,8.989397705078124,-3.5456758805692195,-0.8522991122670471,0.06342031450374051
1772868615409464600,8.999464599609375,-4.28824547496438,-0.10858911566510795,1.2379805374771355
1772868615419530800,9.00953076171875,-4.459441999581456,0.8843835187919438,2.5010665823772547
1772868615429596700,9.0195966796875,-4.143050822088122,1.7672785525918007,3.7429184083297846
1772868615439663600,9.02966357421875,-3.2437644793272016,2.369939617820084,4.454124603950977
1772868615449729800,9.039729736328125,-1.95648419663012,2.5339453541502355,4.515812706100941
1772868615459795500,9.04979541015625,-0.5058335528969764,2.2393974674135446,4.201607640475035
1772868615469862400,9.0598623046875,0.8296890749216079,1.861781129106879,3.71689140214771
1772868615479928600,9.069928466796876,1.9424410582304,1.5229975025415419,3.3755694892764088
1772868615489994500,9.079994384765625,2.73223417609334,1.179185526420176,3.1126430677279826
1772868615500060700,9.090060791015626,3.1156583238959312,0.7974024238228797,2.8255653707414865
1772868615510127600,9.100127685546875,3.0933570602387186,0.46916152632087466,2.2918701435811815
1772868615520193500,9.110193603515626,3.180667094901204,0.3860246856898069,2.2072198296472427
1772868615530259700,9.120259765625,3.186051126027107,-0.06918605668991804,2.5949495656892654
1772868615540326700,9.13032666015625,2.7363474566310644,-0.4817439445182681,1.8036806761853397
1772868615550392600,9.140392578125,2.456405310612917,-0.6781716487646102,1.2801266115501522
1772868615560458800,9.150458740234376,2.168884253773093,-0.7290501876085996,1.1811258468329906
1772868615570525700,9.160525634765625,1.6416227129220962,-0.7300985276177525,0.9073927115228027
1772868615580591600,9.170591552734376,1.20190326192379,-0.7187047346830368,0.6554884000524878
1772868615590657500,9.180657470703125,0.9622352586269378,-0.6604623890727758,0.4439763777904212
1772868615600724500,9.190724365234376,0.7898007166475057,-0.565443679729104,0.19384709490230306
1772868615610790400,9.200790283203125,0.6142705467402935,-0.37303631704002616,0.09386005909414961
1772868615620856600,9.210856689453125,0.4887193364888429,-0.05796089832037687,0.060245027202181514
1772868615630922500,9.220922607421874,0.43464813908338545,0.3339440775796771,0.061726132605411106
1772868615640989400,9.230989501953125,0.42238603888154025,0.632074791239202,-0.024712672180496154
1772868615651055600,9.2410556640625,0.47738253443837164,0.907151961569488,-0.15537538022678343
1772868615661121500,9.25112158203125,0.5632879629999399,1.0721928861662744,-0.30604919516649093
1772868615671188500,9.2611884765625,0.6108645376890898,1.0932938341230154,-0.4679010413983837
1772868615681254700,9.271254638671875,0.669671531444788,1.0631649455800651,-0.539746088164486
1772868615691320600,9.281320556640624,0.6881278101116418,0.941448637316376,-0.5668655657583848
1772868615701387500,9.291387451171875,0.6134001936465502,0.6870598886191844,-0.5958506545610726
1772868615711453700,9.30145361328125,0.40525136420726776,0.40319969237446784,-0.4833480917792767
1772868615721519400,9.311519287109375,0.10200666853487492,0.07063961649909616,-0.3311338424645364
1772868615731586600,9.321586669921874,-0.27249007644653317,-0.20739377328827976,-0.21278613385111092
1772868615741652500,9.331652587890625,-0.647800475898385,-0.5625540957674384,-0.2205493882637471
1772868615751718400,9.341718505859374,-0.9834966578423976,-0.905320362228155,-0.2338275153740309
1772868615761784600,9.35178466796875,-1.3057108424007893,-1.1765345735199748,-0.21756929474072528
1772868615771851500,9.3618515625,-1.5318261211633681,-1.4011093448422849,-0.2783413597580045
1772868615781917700,9.371917724609375,-1.575008844807744,-1.5546555003479121,-0.3897009630497545
1772868615791983600,9.381983642578126,-1.4118196855574845,-1.62706870239079,-0.5677818403530865
1772868615802050600,9.392050537109375,-1.1891133384555577,-1.6515204220801591,-0.699888098271191
1772868615812116700,9.40211669921875,-0.9598129999160766,-1.6530569839976728,-0.7528052302706987
1772868615822182700,9.4121826171875,-0.6607154870510101,-1.5926095295585692,-0.7404759100515395
1772868615832249600,9.42224951171875,-0.31915187437832354,-1.433668090880662,-0.6595707739952952
1772868615842315800,9.432315673828125,0.049596097818017,-1.2487901007831097,-0.570354905711487
1772868615852381400,9.44238134765625,0.4462520676374435,-1.0676569963023066,-0.4855946285970509
1772868615862447600,9.452447509765625,0.8331096970200538,-0.8057103795714676,-0.3449790471393615
1772868615872514600,9.4625146484375,1.1399638153612612,-0.5389022942841053,-0.19808738108687102
1772868615882580500,9.47258056640625,1.360096512582898,-0.3592807634100318,-0.07453877936210483
1772868615892646700,9.482646728515626,1.4867290883302688,-0.3590767652705312,-0.06624967444445938
1772868615902713600,9.492713623046875,1.5404343750327825,-0.4374211109280586,-0.10032576624322682
1772868615912779500,9.502779541015625,1.5114666392236946,-0.5749444985240697,-0.09230071908924728
1772868615922845700,9.512845703125,1.467435189795494,-0.7213185704432428,-0.16724946749173103
1772868615932912600,9.52291259765625,1.347211312046647,-0.8356151039697229,-0.27117826319560406
1772868615942978600,9.532978515625,1.2000427287489175,-0.928278628489375,-0.31546609853766855
1772868615953044700,9.543044677734375,0.9895102190434932,-0.9019055853486061,-0.294017286991328
1772868615963110700,9.553110595703124,0.7035919212251901,-0.7637215418867767,-0.1880723291594535
1772868615973177600,9.563177490234375,0.2970826659113169,-0.6498366579011082,-0.11178652346692979
1772868615983243500,9.573243408203124,-0.200135618853569,-0.6175801096796989,-0.06331482656896115
1772868615993309400,9.583309326171875,-0.708607119038701,-0.6816115600854158,-0.08513532097190618
1772868616003376400,9.59337646484375,-1.0703016655921935,-0.874674756334722,-0.28987536488100885
1772868616013442600,9.603442626953125,-1.3637918599694967,-1.080706593620032,-0.53549920784235
1772868616023508500,9.613508544921874,-1.6409487591832874,-1.2078142395332454,-0.7103923950202763
1772868616033575400,9.623575439453125,-1.8565993425548075,-1.2429432744510471,-0.7584661786418407
1772868616043641600,9.6336416015625,-1.9669372015833853,-1.319675216475874,-0.9478037784967571
1772868616053707500,9.64370751953125,-2.046850111731887,-1.4732881536073983,-1.0858441757041961
1772868616063773700,9.653773681640626,-2.0953245120435953,-1.5458338959887623,-1.1172524365331977
1772868616073840600,9.663840576171875,-2.2470383375555274,-1.4505622347973286,-0.9096970429424196
1772868616083903000,9.673903076171875,-2.6557617617875335,-1.2068176297113298,-0.5267428507391363
1772868616093969200,9.68396923828125,-3.2952871612936256,-0.9094457715950905,-0.22989603941030798
1772868616104036000,9.6940361328125,-4.0671120762676,-0.5092445303842426,-0.02918174388594925
1772868616114102000,9.70410205078125,-4.782279868996143,0.06279255626052618,0.23864841445814816
1772868616124168200,9.714168212890625,-5.065833191248775,0.7263077570326626,0.5473119568414986
1772868616134234000,9.724234130859376,-4.62754523435831,1.281944328496605,0.7654328758493065
1772868616144301000,9.734301025390625,-3.6596868751525875,1.539545609499514,0.6366172569744288
1772868616154367000,9.744366943359376,-2.1919740374594925,1.689244003535807,0.5414184783561155
1772868616164433000,9.754432861328125,-0.8700713541924953,1.6545780560851095,0.056764199349097905
1772868616174500000,9.7645,0.23320903641581534,1.6003960917815565,-0.22569687068741767
1772868616184566000,9.77456591796875,0.9858435132294893,1.520151465460658,-0.5437815176930278
1772868616194632000,9.7846318359375,1.4125006535589695,1.4110828957155346,-0.8158250924810767
1772868616204699100,9.79469921875,1.6766425883769989,1.4140201182112098,-0.8406077976904809
1772868616214765000,9.80476513671875,1.7677917628109454,1.493914615920186,-0.6328145036906003
1772868616224831200,9.814831298828125,1.5568243688195942,1.6410706319972872,-0.362348005493544
1772868616234897200,9.824897216796876,1.1407371378213167,1.7653958075851202,-0.018011384443566203
1772868616244964000,9.834964111328125,0.7251485039949417,1.7804177278891204,0.21761183697450906
1772868616255030300,9.8450302734375,0.49335342603027815,1.7221943792402743,0.3242143453996628
1772868616265096200,9.85509619140625,0.48767128874063487,1.6268673345997928,0.4017515759253874
1772868616275163100,9.8651630859375,0.6152689101278781,1.5351602340221404,0.4500924495179206
1772868616285229000,9.87522900390625,0.800557672983408,1.4001006061911583,0.3935544966727495
1772868616295295000,9.885294921875,0.9707903210043907,1.2315133872896433,0.3122616764731705
1772868616305361200,9.895361083984374,1.055261332848668,1.2178972421303391,0.20847652702368794
1772868616315428000,9.905427978515625,1.0747142213374377,1.335579326441884,0.2047234581004828
1772868616325494000,9.915493896484374,1.0896031629115341,1.4949790302813053,0.2485724636338651
1772868616335560200,9.925560302734375,1.1257190169095992,1.6733800794497131,0.30896256186254323
1772868616345627100,9.935627197265624,1.1466150899440049,1.7362699586048722,0.3393778661314398
1772868616355693000,9.945693115234375,1.1732856547266244,1.6645654893532393,0.33762919583320616
1772868616365759200,9.95575927734375,1.1986831308335064,1.4789055550977588,0.2289705220632255
1772868616375825200,9.9658251953125,1.1831862864941358,1.2097010761931537,0.08239515541829168
1772868616385892000,9.97589208984375,1.1903572010368109,0.929779972963035,-0.04689056518636644
1772868616395958300,9.985958251953125,1.2152385443150997,0.6974073873713612,-0.12384930170439183
1772868616406024000,9.99602392578125,1.2002975802928209,0.512677135181427,-0.21964264868237077
1772868616416091000,10.0060908203125,1.185159047871828,0.4096659657791257,-0.25588519780002533
1772868616426157000,10.016156982421874,1.1563380270570516,0.38127690664082764,-0.1985023916285485
1772868616436223000,10.026222900390625,1.0590730000913142,0.3855383634775877,-0.1021395741995424
1772868616446289200,10.0362890625,0.9192734842568635,0.3592556289687753,-0.06922200478613376
1772868616456356000,10.046356201171875,0.7191285130530596,0.29269261425882576,-0.1370404263846576
1772868616466422000,10.056422119140626,0.5427110389173031,0.2763847457975149,-0.17664046923667193
1772868616476488200,10.06648828125,0.4336795863121748,0.31760084554404017,-0.18029972239658235
1772868616486555100,10.07655517578125,0.3698223234295845,0.34430648164004085,-0.15355594624727964
1772868616496621000,10.08662109375,0.3562877190738916,0.311090440736711,-0.19807284110486506
1772868616506687200,10.096687255859376,0.3336410029798746,0.22448387816846369,-0.27672822547294196
1772868616516753000,10.1067529296875,0.2939040358752012,0.13930004187971354,-0.278141562869586
1772868616526820000,10.116820068359376,0.2268973690509796,0.039487376257777214,-0.26354111938066777
1772868616536886000,10.126885986328125,0.15770459035933015,-0.08090104440301656,-0.28996359115373344
1772868616546952000,10.136951904296875,0.155215111631155,-0.2610284789726138,-0.3367694737313315
1772868616557019000,10.147018798828125,0.24131693954765795,-0.4636570836856961,-0.4426281780518591
1772868616567085000,10.1570849609375,0.3283054871708154,-0.7018216966822743,-0.6245496564313769
1772868616577151000,10.16715087890625,0.4712941544353962,-0.9524537231944501,-0.806253254276514
1772868616587217200,10.177217041015625,0.6439490611672402,-1.1786173711434007,-0.883369227182865
1772868616597284000,10.1872841796875,0.7841238400548696,-1.3734230271458625,-0.8666831730589271
1772868616607350000,10.19735009765625,0.8586959736973047,-1.5768791687242685,-0.7732495409496128
1772868616617416200,10.207416259765624,0.8923457298427819,-1.8965555053681133,-0.6831469529591501
1772868616627482000,10.217482177734375,0.7368488786607981,-2.3763857252195475,-0.628116262871772
1772868616637549000,10.227549072265624,0.45621991942226886,-2.8263240801542997,-0.5029550017859786
1772868616647615000,10.237614990234375,0.1290074881851673,-3.094721626590192,-0.3349566886883229
1772868616657681000,10.247680908203124,-0.11259586708843708,-3.1270246443018315,-0.14349952112985773
1772868616667748000,10.257748046875,-0.19522212784886359,-3.0316759723514317,-0.11738891918440349
1772868616677814000,10.26781396484375,-0.1348024381995201,-2.8413801949888464,-0.32546602596119045
1772868616687880000,10.2778798828125,-0.03210018861591816,-2.5404119198158384,-0.4860549761177972
1772868616697946000,10.287946044921876,0.049882513543963426,-2.153252531007677,-0.6074212653674185
1772868616708013000,10.298012939453125,0.12405132708251476,-1.7412708356320856,-0.6804457311764359
1772868616718079000,10.308078857421876,0.15149696789085865,-1.3095906064435838,-0.6650186641376465
1772868616728145200,10.318145263671875,0.08024082692861556,-0.9091257458604872,-0.6834753081306815
1772868616738212000,10.328212158203126,-0.05409925445616245,-0.6041689855732023,-0.7652258820351213
1772868616748278000,10.338278076171875,-0.3547276301503181,-0.3465184586010873,-0.8880734593510627
1772868616758344200,10.34834423828125,-0.6978951708883047,-0.1808285685762763,-1.0717463114425538
1772868616768409900,10.358409912109375,-1.0338736769050358,-0.09457754144743084,-1.3182676877655088
1772868616778477300,10.368477294921876,-1.3405892635583876,0.005364303512126207,-1.4885827533729374
1772868616788543000,10.37854296875,-1.6040478922873735,0.11676014716103672,-1.6224686612494288
1772868616798609000,10.38860888671875,-1.7835463813036678,0.24155849321857092,-1.6846528763532638
1772868616808675000,10.398675048828125,-2.06014213950336,0.21404066395685076,-1.7955726269230246
1772868616818742000,10.408741943359376,-2.5714789659917354,0.00990881507396698,-1.97052791955173
1772868616828808200,10.41880810546875,-3.2752702091813086,-0.12025061962530016,-1.9699892826303838
1772868616838874000,10.4288740234375,-3.9564135672330853,-0.004861614686995744,-1.6104375933244823
1772868616848940000,10.43893994140625,-4.455473680472374,0.18566665625721215,-0.9336584948968142
1772868616859007200,10.44900732421875,-4.583598540604115,0.46274420662447807,0.06905433376876172
1772868616869073200,10.4590732421875,-4.339398739096522,0.8297748535089194,1.397030258835107
1772868616879139000,10.46913916015625,-3.8951235244899984,1.0773621054977178,2.7676734460040926
1772868616889206300,10.479206298828124,-3.1226760937035083,1.2252652866803109,4.1096994643673295
1772868616899272000,10.48927197265625,-2.3031787424504757,1.254243543883413,5.040847803074121
1772868616909338000,10.499338134765624,-1.4503811791419983,0.996870957069844,5.45944964724183
1772868616919404000,10.509404052734375,-0.6384153924375772,0.8968854190990329,5.734108884420991
1772868616929471000,10.519470947265624,-0.02404430793225765,0.8453925477489829,5.844364325863123
1772868616939537200,10.529537109375,0.41940263915657994,0.6740931472793221,5.762929905235767
1772868616949603000,10.53960302734375,0.9400970765769481,0.6448607691846787,5.48843258062005
1772868616959669000,10.5496689453125,1.5028028557747601,0.6490520833946765,5.133483416673541
1772868616969736200,10.559736083984374,2.0334932020306584,0.5217904159635305,4.691961300167441
1772868616979802000,10.569802001953125,2.3393489569842814,0.21269918622002004,4.068371720939874
1772868616989868300,10.579868408203126,2.412456278771162,-0.30908114674091336,3.1550086297705766
1772868616999935200,10.589935302734375,2.342937921386957,-0.934673882484436,2.2345710701704022
1772868617010001200,10.600001220703126,2.364737665262818,-1.599176340728253,1.2839090526983141
1772868617020067000,10.610067138671875,2.2886668174952267,-2.148746013368666,0.26820187773332
1772868617030133000,10.620133056640626,2.2086288196623323,-2.2350480400323867,-0.3965317589178681
1772868617040200000,10.630199951171875,2.079520793712139,-1.913436497542262,-0.6150285255007445
1772868617050266000,10.64026611328125,1.847888797354698,-1.3441066240295767,-0.47795755784735083
1772868617060332000,10.65033203125,1.6108669246524572,-0.8115068639557809,-0.40207116326857356
1772868617070398200,10.660398193359375,1.507877674821019,-0.33334326214231547,-0.2721013328572735
1772868617080465000,10.67046484375,1.497540405201912,0.1183167289532721,-0.22942535315863788
1772868617090530800,10.68053076171875,1.5546125379890203,0.564974089455977,-0.12296594299860297
1772868617100597000,10.690596923828124,1.5402905826479196,0.9856359348934143,0.01614059473616071
1772868617110663000,10.700662841796875,1.4436726214140654,1.407404499463737,0.16621515600793063
1772868617120729900,10.710729736328124,1.3879407973200082,1.702791175112128,0.27997672414118424
1772868617130796000,10.720796142578125,1.317690034008026,1.7609540257453917,0.21994811616865917
1772868617140861700,10.73086181640625,1.1987573651134966,1.6084505111604928,0.015379108844371511
1772868617150928000,10.740927978515625,1.0559037224054335,1.3208984746605157,-0.12827625130116938
1772868617160994800,10.750994873046874,0.8221773841172456,0.9438943499680608,-0.18980076038725674
1772868617171060700,10.761060791015625,0.5183879140436649,0.48815125427730377,-0.26144420190034434
1772868617181127000,10.771126953125,0.20611527778506278,0.09785393276959657,-0.33225356720946725
1772868617191193900,10.78119384765625,-0.10558686510920524,-0.2600448016975075,-0.32340920302923765
1772868617201259800,10.791259765625,-0.42923254377543923,-0.5783554760113359,-0.26344368688818065
1772868617211326000,10.801325927734375,-0.6568880377173424,-0.8727796633031218,-0.2529976596649736
1772868617221392000,10.811391845703126,-0.7810673750936985,-1.0948246969521045,-0.337613194546476
1772868617231458800,10.821458740234375,-0.8512351362973452,-1.2627730334281921,-0.5315179196538403
1772868617241525000,10.83152490234375,-0.9103642016142606,-1.3788415450632572,-0.783686617681384
1772868617251591000,10.8415908203125,-0.9344546867758035,-1.3644509084001182,-0.9317901437416672
1772868617261656800,10.85165673828125,-0.9155214382469653,-1.25587625965178,-1.0202459874384104
1772868617271724000,10.86172412109375,-0.7677718401908874,-1.1484617407239972,-1.1327094603188335
1772868617281789700,10.871789794921876,-0.4928045599758625,-1.0699219455596058,-1.1902243684373794
1772868617291856000,10.88185595703125,-0.21236147869825361,-0.9501603515602648,-1.1838432890981434
1772868617301921800,10.891921875,-0.024763854378461837,-0.819589997972548,-1.1653230052843688
1772868617311988700,10.90198876953125,0.1487543911844492,-0.7115186956364661,-1.1174703901328147
1772868617322055000,10.912054931640625,0.3024129210233688,-0.6529686723165213,-1.093062217324227
1772868617332120800,10.922120849609374,0.3583522503882646,-0.554938067805767,-1.111952065102756
1772868617342187000,10.93218701171875,0.4138064265847206,-0.3253501444965601,-0.9543401214629411
1772868617352254000,10.94225390625,0.5133066652566194,-0.07403320446014404,-0.695903193353489
1772868617362320000,10.95231982421875,0.5210463195979594,0.0844711579747498,-0.5454562459722161
1772868617372386000,10.962385986328124,0.4592985962152481,0.0534508735500276,-0.43609168895520267
1772868617382451700,10.97245166015625,0.30449849512577054,-0.12086027595624327,-0.37145650050267576
1772868617392518700,10.9825185546875,0.03567395544946193,-0.3266873844496906,-0.25677292215367775
1772868617402584800,10.992584716796875,-0.33197043941915033,-0.4729154720269143,-0.0849646405801177
1772868617412650800,11.002650634765626,-0.8195388523072004,-0.5872251572959125,0.10748245133114978
1772868617422717000,11.012717041015625,-1.3825000675708055,-0.6768764943875372,0.23719668127987534
1772868617432784000,11.022783935546874,-1.9187158992499111,-0.767589030969888,0.2689039981206879
1772868617442849800,11.032849853515625,-2.350032848083973,-0.8671469911783933,0.2310940718221478
1772868617452916000,11.042916015625,-2.6616911518365143,-0.9481674241773783,0.20733424338707698
1772868617462982000,11.05298193359375,-2.7931360963016747,-0.9635735214933753,0.17519112894488498
1772868617473048800,11.063048828125,-2.8141239392727613,-0.9790843943580985,0.13395942977042868
1772868617483115000,11.073114990234375,-2.827414213478565,-0.9755116504378616,0.04164415243286639
1772868617493180700,11.0831806640625,-2.8093606703937053,-0.8642053847685456,0.07660985001511872
1772868617503246800,11.093246826171875,-2.6375410454422235,-0.5199288598753512,0.3474614020070061
1772868617513313800,11.103313720703126,-2.3360183512568473,-0.022866642455011604,0.7372156661465764
1772868617523379700,11.113379638671875,-2.0844752012491226,0.3531834694482386,1.097396812462434
1772868617533446000,11.12344580078125,-2.0087632499217984,0.4397577371820807,1.1668334829125553
1772868617543511800,11.13351171875,-1.9479455008655786,0.34599370407462116,1.0457159442596138
1772868617553578800,11.143578857421875,-1.710809061872959,0.3391416462227702,1.0203257016111165
1772868617563645000,11.15364501953125,-1.151823764503002,0.4232591684542596,0.9165608642973005
1772868617573710800,11.1637109375,-0.4079974480450153,0.3876807823337614,0.5441924365814775
1772868617583777000,11.173777099609374,0.17339432692229748,0.35728637472242114,0.1020815238693729
1772868617593844000,11.183843994140625,0.5970201367318629,0.46658729191869497,-0.26916173574142155
1772868617603910000,11.193909912109374,0.8193208256423473,0.5973600362107158,-0.594296410856396
1772868617613975800,11.203975830078125,0.9216916513144969,0.7028142148509621,-0.8505749188229441
1772868617624041700,11.214041748046874,0.7673346178174019,0.8670476224571466,-0.8414166298553347
1772868617634108700,11.224108642578125,0.41879765900075433,1.1372852438017724,-0.6717828245103359
1772868617644174800,11.2341748046875,0.016327449944615362,1.3948051301315425,-0.5211382721977308
1772868617654240800,11.24424072265625,-0.2632528770238161,1.584523692128062,-0.4793817819641903
1772868617664307000,11.254306884765626,-0.40531098544001576,1.7919848315641282,-0.42913540354389695
1772868617674374000,11.264373779296875,-0.40427462812960147,2.1393711590409277,-0.28311153330188243
1772868617684439800,11.274439697265626,-0.24011750063002107,2.5574223835885523,-0.07238430474195628
1772868617694506000,11.284506103515625,0.007637947532534599,2.9171637502476573,0.14218049268685282
1772868617704572000,11.294572021484376,0.3096691757619381,3.200861449407041,0.4081798919398337
1772868617714638800,11.304638916015625,0.6164303551226854,3.2906825901076195,0.6320218920081854
1772868617724705000,11.314705078125,0.9920528892636299,3.1289661337584254,0.6893317790739237
1772868617734770700,11.324770751953125,1.369818865174055,2.7943916493207213,0.5955232492376119
1772868617744836900,11.3348369140625,1.6708932310700415,2.2865303899884224,0.34602928684465584
1772868617754903800,11.34490380859375,1.863357000121474,1.7465251028984785,0.11265318676624446
1772868617764969700,11.3549697265625,1.8903695102095603,1.2149927528604865,-0.04617518345862627
1772868617775036000,11.365035888671875,1.7687462870568036,0.749298025867343,-0.15369296183148398
1772868617785101800,11.375101806640625,1.5916747329264878,0.40966801160573957,-0.232948997240141
1772868617795168800,11.385168701171875,1.335581080007553,0.20355185703784226,-0.27850875221416355
1772868617805235000,11.39523486328125,1.0791975042313338,0.11350625993162393,-0.24393216354735195
1772868617815300900,11.40530078125,0.8800766153782605,0.08693009543418884,-0.14470465000276453
1772868617825367000,11.415366943359375,0.6432604943811893,0.11753244670778512,-0.01914225392030785
1772868617835434000,11.42543408203125,0.390450100916624,0.2025570007815957,0.14107793827243148
1772868617845499600,11.435499755859375,0.13889058429598808,0.34345950942188497,0.35484047940764574
1772868617855565800,11.44556591796875,0.015844634863734244,0.5362187542885541,0.6588863719277084
1772868617865631700,11.4556318359375,-0.04940379011631012,0.62212885902524,0.7958434308778494
1772868617875698700,11.46569873046875,-0.11629530612826347,0.5736413069710136,0.8143832231096922
1772868617885764900,11.475764892578125,-0.12810264829993248,0.4169540769606828,0.6744852153368294
1772868617895830800,11.485830810546876,-0.09660276366472244,0.2520800333634019,0.5179820001238957
1772868617905897000,11.49589697265625,-0.01139408519566059,0.12400018141716718,0.3816487721605226
1772868617915964000,11.5059638671875,0.10760346562862395,-0.029736674354970453,0.26186120346970854
1772868617926029800,11.51602978515625,0.2274947504222393,-0.17663988471478223,0.20117159257149322
1772868617936096000,11.526095947265626,0.3033493250906467,-0.30426643993556496,0.19286133526796473
1772868617946162000,11.536161865234375,0.29766426519155503,-0.5708405703365802,0.06614263387341052
1772868617956228900,11.546228759765626,0.1752922694981098,-0.9209149678535758,-0.11528532536812126
1772868617966294800,11.556294677734375,0.02459200494289398,-1.145673132918775,-0.22862532535474747
1772868617976360700,11.566360595703125,-0.08193243327736854,-1.3076916409544646,-0.27994163456149396
1772868617986427000,11.576427001953125,-0.09152209939956664,-1.4333954114191234,-0.34253822985850274
1772868617996492800,11.586492919921875,-0.046916064953804015,-1.5363618648968635,-0.4584332480901852
1772868618006559700,11.596559814453125,0.013342881175875662,-1.6256849929474293,-0.64072732264176
1772868618016626000,11.6066259765625,-0.035781507477164264,-1.731719747954607,-0.7898740010794252
1772868618026691800,11.61669189453125,-0.21538053425848483,-1.7163300172515212,-0.8220086034215986
1772868618036758000,11.626758056640625,-0.4205547318011522,-1.5900200975872576,-0.7268837302897125
1772868618046825000,11.636824951171874,-0.5997977847516537,-1.4834576654441654,-0.6459032639749348
1772868618056891000,11.646890869140625,-0.6985825686305761,-1.38386711814031,-0.6339468687213957
1772868618066956800,11.656956787109374,-0.7170932078331709,-1.2531937425695359,-0.609598609406501
1772868618077022700,11.667022705078125,-0.6388602135956287,-1.143761454078555,-0.6150563633557409
1772868618087090200,11.677090087890624,-0.5473813688158988,-1.1178307478778065,-0.6921121305074542
1772868618097156400,11.68715625,-0.5254220504641532,-1.1563695912390948,-0.8052882086366414
1772868618107222300,11.69722216796875,-0.6403805550307035,-1.1705126828819512,-0.8299339895933866
1772868618117288400,11.707288330078125,-0.7718395280212164,-1.0800795477628706,-0.7933771868947893
1772868618127355400,11.71735546875,-0.8420248248815536,-0.9518772384807467,-0.7814147272266447
1772868618137421300,11.72742138671875,-0.7357511465519666,-0.7936217362403869,-0.8468503453418612
1772868618147487500,11.737487548828126,-0.5098638313263655,-0.5981424187600612,-0.9401890657093376
1772868618157553400,11.747553466796875,-0.3120160311490297,-0.4129460103631019,-0.9676412093237042
1772868618167619600,11.75761962890625,-0.17161621133387087,-0.29743104095757006,-1.0132352318935096
1772868618177686500,11.7676865234375,-0.046319852626323696,-0.2503337742179632,-1.1142357190605252
1772868618187752400,11.77775244140625,0.045510874330997465,-0.2928773231759667,-1.1303003533504903
1772868618197818400,11.787818359375,-0.06264554900527,-0.3982949691981077,-1.110635137285292
1772868618207884300,11.79788427734375,-0.3917342955082655,-0.5615349818527698,-1.1491202776979654
1772868618217951200,11.807951171875,-1.0011901354432104,-0.7736199816972017,-1.2328352835431695
1772868618228017400,11.818017333984375,-1.6645844863146542,-0.9293103096246719,-1.269004036772251
1772868618238083300,11.828083251953124,-2.3141595706701277,-0.9794842073306441,-1.1797929177287965
1772868618248149500,11.8381494140625,-2.9032892464131117,-0.8570350547477602,-0.9322495779469608
1772868618258216400,11.848216552734375,-3.3591917704492804,-0.5645739111572504,-0.46871034848727283
1772868618268282400,11.858282470703125,-3.5559757407873867,-0.12742957134395838,0.12361629666611551
1772868618278348500,11.8683486328125,-3.4152690469801423,0.3810331610128283,0.706997638015449
1772868618288414500,11.87841455078125,-2.8476725731313226,0.8682695654675364,1.1711799876842648
1772868618298480400,11.88848046875,-1.882065207722783,1.2296519773319363,1.4975044571056961
1772868618308547300,11.89854736328125,-0.8012433171600103,1.5163205089956522,1.6796899932488798
1772868618318613200,11.90861328125,0.2570645437777042,1.751198063145578,1.843520226881653
1772868618328679400,11.918679443359375,1.052078026637435,1.96305860658437,2.0131993326731026
1772868618338745300,11.928745361328126,1.5779191792964935,2.186926106420159,2.2256867758385837
1772868618348812300,11.938812255859375,1.8793226310163735,2.340060612384975,2.4649346540272234
1772868618358878500,11.94887841796875,1.9902742380291223,2.4298297306373713,2.68367823497802
1772868618368944400,11.9589443359375,1.9235890582442283,2.3183321801796555,2.7383742862835523
1772868618379010600,11.969010498046876,1.7461124304443596,1.9277143214806913,2.566166246536374
1772868618389077500,11.979077392578125,1.533081674182415,1.3810343789324164,2.2410488878823815
1772868618399143400,11.989143310546876,1.2655430826634169,0.7568690456435084,1.8872009631760418
1772868618409208300,11.999208251953124,1.0075386276870966,0.06317308001071215,1.5021758099175988
1772868618419275300,12.009275146484375,0.7953495829463004,-0.5468839406877756,1.147466592206806
1772868618429341400,12.019341552734375,0.597090863880515,-0.9883508198752998,0.8474453886255622
1772868618439407400,12.029407470703125,0.48795711994469165,-1.2587664281353355,0.6746614486865699
1772868618449473300,12.039473388671874,0.43719665452241896,-1.3286071493417024,0.5865568661129101
1772868618459540500,12.04954052734375,0.4595592929780483,-1.1825865670353173,0.619313363213092
1772868618469606400,12.0596064453125,0.5853536643356084,-0.9087142424501479,0.6278374459303915
1772868618479672300,12.06967236328125,0.6834744313478469,-0.6661651307590305,0.5644432339822874
1772868618489738500,12.079738525390624,0.7858096011847258,-0.5226952558487653,0.4829159109070897
1772868618499804200,12.08980419921875,0.8926748156666755,-0.4146360092766583,0.40596192362941796
1772868618509871400,12.099871337890624,0.9731360073477029,-0.3212697433151305,0.38661019396018237
1772868618519937300,12.109937255859375,1.006558384478092,-0.2661313550695777,0.3811624864809215
1772868618530003200,12.120003173828126,0.974157751610875,-0.26003932180479167,0.44013665349707004
1772868618540069400,12.1300693359375,0.821231043177843,-0.25405498669818044,0.5451900693167001
1772868618550136300,12.14013623046875,0.6039642567813396,-0.29350889907777306,0.5988881225608289
1772868618560202200,12.1502021484375,0.41141514753401276,-0.36862376129478214,0.596648600005731
1772868618570268400,12.160268310546876,0.21791969734728336,-0.44086087611839175,0.5139456207472831
1772868618580334300,12.170334228515625,0.008052958074212075,-0.6135976159147918,0.3734009856339544
1772868618590400500,12.180400390625,-0.18755203161239623,-0.6957789093866944,0.288159555672761
1772868618600467500,12.190467529296875,-0.33477088379263875,-0.6654220573067665,0.23723367055570704
1772868618610533400,12.200533447265625,-0.43688159722387787,-0.6822011965416371,0.06737732676751912
1772868618620599300,12.210599365234375,-0.4794803835004568,-0.7132704346746206,-0.18018232482830063
1772868618630665200,12.220665283203125,-0.4881295539021492,-0.6943123439654707,-0.39744459944646804
1772868618640732400,12.230732421875,-0.4447533535122871,-0.6753060302004218,-0.5873540443725883
1772868618650798300,12.24079833984375,-0.4426449830561876,-0.6228381763383746,-0.7457022663976997
1772868618660864300,12.2508642578125,-0.4486801715672016,-0.559196017511189,-0.882588013677299
1772868618670930400,12.260930419921875,-0.4386334093272686,-0.5003735339254141,-0.9742897074274718
1772868618680996400,12.270996337890624,-0.3592296177446842,-0.4004917485900223,-1.024618211173266
1772868618691063300,12.281063232421875,-0.23851357256472108,-0.27098420192822814,-1.0353358584120869
1772868618701129500,12.29112939453125,-0.07616729387938975,-0.07999211286455392,-1.0132958760395645
1772868618711195400,12.3011953125,0.12762450939416883,0.11746201182007789,-0.971537997566536
1772868618721261300,12.31126123046875,0.3232347597777843,0.3161927323117852,-0.8743871715649962
1772868618731328300,12.321328369140625,0.4593880280643701,0.5048446879900992,-0.7708774049907923
1772868618741394200,12.331394287109376,0.5068249020218849,0.6595151713505387,-0.6527540797177702
1772868618751460400,12.34146044921875,0.4504880977720022,0.7682363889627158,-0.48071058288253843
1772868618761526300,12.3515263671875,0.38288989479541774,0.8624016963474452,-0.25978673528321083
1772868618771592400,12.361592529296875,0.3085042236357927,0.8437975336425005,-0.08813939815871417
1772868618781659400,12.371659423828126,0.2076268513917923,0.6984421372465789,-0.00021890344768762588
1772868618791725300,12.381725341796875,0.015720716223120688,0.38578649301975965,-0.011168459746241569
1772868618801791500,12.39179150390625,-0.3480447913855314,0.0630864246405661,0.009118395348638295
1772868618811857400,12.401857421875,-0.8024415870338678,-0.24574162412211298,0.06477357400991023
1772868618821924400,12.41192431640625,-1.2574416092723608,-0.48615898448154327,0.043951917918585236
1772868618831990500,12.421990478515625,-1.6034136860370636,-0.6640816024832427,-0.0060585328539833425
1772868618842056200,12.43205615234375,-1.8282728272587059,-0.7941501440286636,-0.03729881670493632
1772868618852122400,12.442122314453124,-1.9709739097535608,-0.9116282302007078,0.029838235033303497
1772868618862188300,12.452188232421875,-2.13207457229197,-1.0225707771241663,0.17991631256956606
1772868618872255200,12.462255126953124,-2.4819091697037217,-1.1736037807650863,0.31720505115948616
1772868618882321400,12.4723212890625,-3.068962039172649,-1.3834186437204479,0.404298045537807
1772868618892387300,12.48238720703125,-3.7735014703810212,-1.622830918690562,0.3607721710115671
1772868618902453500,12.49245361328125,-4.450225258424878,-1.7081835356749593,0.3119944769043475
1772868618912519400,12.50251953125,-4.8683302589863535,-1.446063462073356,0.36622174165435134
1772868618922586400,12.51258642578125,-4.824039281839132,-0.8145169324919581,0.5924179036334156
1772868618932652500,12.522652587890626,-4.270777038291096,0.08033376590907573,0.9303879487935454
1772868618942718200,12.53271826171875,-3.3007039256453514,0.9234709359467029,1.2939539152421056
1772868618952784400,12.542784423828126,-2.0365537586450575,1.3768641075104475,1.4231715390466153
1772868618962851300,12.552851318359375,-0.7604623939603566,1.5272297332838176,1.397096748200059
1772868618972917200,12.562917236328126,0.34307986245453354,1.4890499324932693,1.3624044972643254
1772868618982983400,12.5729833984375,1.1795943994820117,1.2889575682595371,1.2900855493761598
1772868618993049300,12.58304931640625,1.7384861733496189,1.0244950231850147,1.2001982846368104
1772868619003115500,12.593115478515625,1.9632307482808826,0.7353259068772197,0.9988753556948154
1772868619013182500,12.603182373046875,1.9617969160854816,0.568491084600985,0.7736713465582579
1772868619023248400,12.613248291015625,1.8222662803202867,0.5725514659076929,0.623888416043669
