time,seconds_elapsed,z,y,x
1772797390673433900,0.087433837890625,0.9580863118171692,-0.5675545334815979,0.2378367930650711
1772797390683460000,0.097460205078125,0.9244926571846008,-0.5428153276443481,0.29275116324424744
1772797390693486000,0.107486083984375,0.8985936641693115,-0.5029422044754028,0.31422159075737
1772797390703512000,0.117511962890625,0.8742409348487854,-0.45424580574035645,0.32108375430107117
1772797390713538000,0.1275380859375,0.8558289408683777,-0.3808051347732544,0.3254270851612091
1772797390723564000,0.13756396484375,0.8190453052520752,-0.29225316643714905,0.3518128991127014
1772797390733590800,0.1475908203125,0.7336268424987793,-0.26680028438568115,0.3393687307834625
1772797390743616800,0.15761669921875,0.6257975697517395,-0.2981334328651428,0.24305473268032074
1772797390753642800,0.167642822265625,0.5217835903167725,-0.37748682498931885,0.07921865582466125
1772797390763668700,0.177668701171875,0.4382023811340332,-0.40806952118873596,-0.08576097339391708
1772797390773695000,0.187695068359375,0.4472033381462097,-0.3838028013706207,-0.14972025156021118
1772797390783721000,0.197720947265625,0.5187121629714966,-0.3301571309566498,-0.07312800735235214
1772797390793747000,0.207746826171875,0.6655676364898682,-0.2144222855567932,0.13206349313259125
1772797390803773000,0.21777294921875,0.8403596878051758,0.032765135169029236,0.40228965878486633
1772797390813799000,0.227798828125,1.0564570426940918,0.3121832013130188,0.6561219096183777
1772797390823825000,0.237824951171875,1.2599310874938965,0.550286591053009,0.807248592376709
1772797390833851000,0.247850830078125,1.445246934890747,0.6855471730232239,0.8707894682884216
1772797390843878000,0.2578779296875,1.6051430702209473,0.7135868072509766,0.9229845404624939
1772797390853904000,0.26790380859375,1.6392086744308472,0.6174251437187195,0.9742327928543091
1772797390863930000,0.27793017578125,1.5918877124786377,0.38438335061073303,1.0110979080200195
1772797390873955800,0.287955810546875,1.5016881227493286,0.1393136829137802,1.0068471431732178
1772797390883981800,0.29798193359375,1.4305866956710815,-0.050037067383527756,0.9331972002983093
1772797390894007800,0.3080078125,1.3852038383483887,-0.10817839950323105,0.799999475479126
1772797390904033800,0.31803369140625,1.3482232093811035,-0.06559525430202484,0.599079430103302
1772797390914059800,0.328059814453125,1.269892930984497,-0.024889370426535606,0.35283157229423523
1772797390924085800,0.338085693359375,1.162466049194336,-0.05411809682846069,0.1717163622379303
1772797390934111700,0.34811181640625,1.0577082633972168,-0.1327814757823944,0.09389586746692657
1772797390944137700,0.3581376953125,0.9664579629898071,-0.2445114701986313,0.09375738352537155
1772797390954165000,0.3681650390625,0.9062862396240234,-0.34632784128189087,0.1429518312215805
1772797390964191000,0.37819091796875,0.8832226991653442,-0.3807894289493561,0.1879403442144394
1772797390974217000,0.388217041015625,0.9347777962684631,-0.3537263870239258,0.2202620655298233
1772797390984243000,0.398242919921875,0.9632941484451294,-0.21147017180919647,0.24304300546646118
1772797390994269000,0.40826904296875,0.991796612739563,-0.06871142238378525,0.23793479800224304
1772797391004295000,0.418294921875,1.0593756437301636,0.11754873394966125,0.22067564725875854
1772797391014321000,0.42832080078125,1.1662317514419556,0.2965397834777832,0.2330191433429718
1772797391024347000,0.438346923828125,1.2593337297439575,0.35051673650741577,0.31211501359939575
1772797391034372900,0.448372802734375,1.2736536264419556,0.3225564658641815,0.4423601031303406
1772797391044398800,0.45839892578125,1.2334859371185303,0.19944199919700623,0.511884868144989
1772797391054425900,0.46842578125,1.183885931968689,0.08756526559591293,0.4769841432571411
1772797391064451800,0.478451904296875,1.1366055011749268,0.026995930820703506,0.3739490807056427
1772797391074477800,0.488477783203125,1.0977743864059448,-0.006178267300128937,0.27204430103302
1772797391084503800,0.49850390625,1.0424525737762451,-0.012255334295332432,0.19919778406620026
1772797391094529800,0.50852978515625,0.9840326905250549,0.009555954486131668,0.16884121298789978
1772797391104555800,0.5185556640625,0.9637947678565979,0.02786838263273239,0.15308329463005066
1772797391114581800,0.528581787109375,0.985377848148346,0.06173820048570633,0.13259479403495789
1772797391124607700,0.538607666015625,1.030946969985962,0.12756754457950592,0.11159390211105347
1772797391134633700,0.5486337890625,1.0783679485321045,0.2286941558122635,0.053107425570487976
1772797391144660000,0.558659912109375,1.127091884613037,0.36607837677001953,-0.03409911319613457
1772797391154686000,0.56868603515625,1.1729559898376465,0.44424936175346375,-0.05927237868309021
1772797391164713000,0.578712890625,1.2170840501785278,0.4753178060054779,-0.02906414121389389
1772797391174739000,0.588739013671875,1.2685158252716064,0.4645567536354065,0.014100372791290283
1772797391184765000,0.598764892578125,1.337124228477478,0.43937763571739197,0.03911251574754715
1772797391194791000,0.608791015625,1.3877767324447632,0.4152163863182068,0.033543311059474945
1772797391204817000,0.61881689453125,1.426209568977356,0.3422825038433075,-0.0064773401245474815
1772797391214843000,0.6288427734375,1.4902799129486084,0.2721755802631378,-0.04089843109250069
1772797391224868900,0.638868896484375,1.554410696029663,0.17547275125980377,-0.06045562028884888
1772797391234895000,0.64889501953125,1.6274787187576294,0.049795784056186676,-0.05097530037164688
1772797391244921000,0.658921142578125,1.6622599363327026,-0.012260926887392998,-0.02220543660223484
1772797391254947800,0.66894775390625,1.6627880334854126,-0.00914476253092289,0.019285013899207115
1772797391264973800,0.678973876953125,1.6534408330917358,0.03664989024400711,0.05077210068702698
1772797391274999800,0.688999755859375,1.6427088975906372,0.10247816890478134,0.051178764551877975
1772797391285025800,0.69902587890625,1.6310518980026245,0.1595073640346527,0.016992032527923584
1772797391295051800,0.7090517578125,1.5900627374649048,0.1763843595981598,-0.030305707827210426
1772797391305077800,0.719077880859375,1.533730149269104,0.1761646419763565,-0.06811007857322693
1772797391315103700,0.729103759765625,1.4584224224090576,0.1764432042837143,-0.09459308534860611
1772797391325130000,0.7391298828125,1.3455533981323242,0.14347194135189056,-0.04969804733991623
1772797391335156000,0.749156005859375,1.2518390417099,0.1264394372701645,0.009351423941552639
1772797391345183000,0.759182861328125,1.1950035095214844,0.11726777255535126,0.028173580765724182
1772797391355209000,0.769208984375,1.1496280431747437,0.10909905284643173,0.015111841261386871
1772797391365235000,0.77923486328125,1.0937690734863281,0.042266763746738434,0.07452776283025742
1772797391375261000,0.789260986328125,1.0330678224563599,0.019052786752581596,0.1959942728281021
1772797391385287000,0.799286865234375,0.9712015986442566,0.09935881197452545,0.3084092438220978
1772797391395313000,0.80931298828125,0.8726390600204468,0.1877986639738083,0.4072018563747406
1772797391405339000,0.8193388671875,0.7506505846977234,0.2647227346897125,0.522508978843689
1772797391415364900,0.82936474609375,0.6926261186599731,0.36111852526664734,0.5864254236221313
1772797391425390800,0.839390869140625,0.6930149793624878,0.5732036232948303,0.529830276966095
1772797391435416800,0.849416748046875,0.7398940324783325,0.7411577105522156,0.3676794767379761
1772797391445443800,0.85944384765625,0.8937443494796753,0.7357065081596375,0.13726012408733368
1772797391455469800,0.8694697265625,1.085726022720337,0.6201993227005005,-0.014155233278870583
1772797391465495800,0.879495849609375,1.227843999862671,0.40488678216934204,0.01582157425582409
1772797391475521800,0.889521728515625,1.3520724773406982,0.20054908096790314,0.20449161529541016
1772797391485547800,0.8995478515625,1.4774099588394165,0.04171761870384216,0.48834624886512756
1772797391495574000,0.909573974609375,1.5749143362045288,-0.05961992219090462,0.7482795715332031
1772797391505600000,0.91960009765625,1.6488327980041504,-0.03886270895600319,0.9144222140312195
1772797391515626000,0.9296259765625,1.7211391925811768,0.09888610243797302,0.9518790245056152
1772797391525652000,0.93965185546875,1.7838068008422852,0.29652515053749084,0.8766788244247437
1772797391535679000,0.949678955078125,1.8309706449508667,0.4996284544467926,0.7220674157142639
1772797391545705000,0.959705078125,1.8703968524932861,0.6494895815849304,0.5104363560676575
1772797391555731000,0.96973095703125,1.9083266258239746,0.6751611232757568,0.3101208508014679
1772797391565756700,0.979756591796875,1.943387746810913,0.5850299000740051,0.17739422619342804
1772797391575782700,0.98978271484375,1.9670387506484985,0.4195424020290375,0.13260012865066528
1772797391585809000,0.999808837890625,1.9738335609436035,0.23382553458213806,0.14079706370830536
1772797391595835000,1.0098349609375,1.9526214599609375,0.04555710032582283,0.15182681381702423
1772797391605860900,1.01986083984375,1.8894890546798706,-0.13771072030067444,0.16408640146255493
1772797391615888000,1.029887939453125,1.8026691675186157,-0.3379921615123749,0.14229349792003632
1772797391625913900,1.039913818359375,1.6763861179351807,-0.6016821265220642,0.06294380873441696
1772797391635939800,1.04993994140625,1.5219731330871582,-0.811277449131012,-0.051061052829027176
1772797391645965800,1.0599658203125,1.3519675731658936,-0.8706070780754089,-0.15036393702030182
1772797391655991800,1.06999169921875,1.2009708881378174,-0.7619551420211792,-0.22289113700389862
1772797391666017800,1.080017822265625,1.086463451385498,-0.48538002371788025,-0.25554150342941284
1772797391676044000,1.0900439453125,1.0411180257797241,-0.06563014537096024,-0.2519419491291046
1772797391686070000,1.100070068359375,1.0714097023010254,0.3822624087333679,-0.2619847357273102
1772797391696096000,1.110095947265625,1.1385657787322998,0.6453888416290283,-0.33053505420684814
1772797391706122800,1.120122802734375,1.2141863107681274,0.7524988055229187,-0.4344712793827057
1772797391716148700,1.130148681640625,1.284833550453186,0.7015767693519592,-0.521970272064209
1772797391726174700,1.1401748046875,1.3440638780593872,0.5628005266189575,-0.556199848651886
1772797391736200700,1.15020068359375,1.402369737625122,0.3666922450065613,-0.5050733089447021
1772797391746226700,1.160226806640625,1.4479116201400757,0.16166453063488007,-0.388795405626297
1772797391756253000,1.1702529296875,1.4847077131271362,-0.05680522695183754,-0.2511312961578369
1772797391766279000,1.18027880859375,1.5237704515457153,-0.2751609981060028,-0.1349482238292694
1772797391776305000,1.190304931640625,1.5793962478637695,-0.45494407415390015,-0.05765717104077339
1772797391786332000,1.200331787109375,1.6368485689163208,-0.5724477767944336,-0.022398250177502632
1772797391796358000,1.21035791015625,1.6711522340774536,-0.6428987979888916,-0.020316990092396736
1772797391806383900,1.2203837890625,1.670765995979309,-0.629936158657074,-0.016456738114356995
1772797391816409900,1.230409912109375,1.6385353803634644,-0.5580086708068848,-0.024031566455960274
1772797391826435800,1.240435791015625,1.5947871208190918,-0.4712652564048767,-0.043957069516181946
1772797391836461800,1.2504619140625,1.5424227714538574,-0.4013940393924713,-0.060330186039209366
1772797391846488000,1.260488037109375,1.4922990798950195,-0.3702473044395447,-0.07580821216106415
1772797391856514000,1.27051416015625,1.446974277496338,-0.3605203628540039,-0.06436567008495331
1772797391866540000,1.2805400390625,1.392271876335144,-0.35979998111724854,-0.01745888590812683
1772797391876566800,1.29056689453125,1.3422012329101562,-0.31973859667778015,0.0712033361196518
1772797391886592800,1.3005927734375,1.293515920639038,-0.3065921664237976,0.16592346131801605
1772797391896618800,1.31061865234375,1.2166845798492432,-0.3192107379436493,0.20597580075263977
1772797391906644700,1.320644775390625,1.128448486328125,-0.3514597713947296,0.18836165964603424
1772797391916670700,1.330670654296875,1.0294345617294312,-0.3608956038951874,0.13779781758785248
1772797391926696700,1.34069677734375,0.9308658838272095,-0.33777323365211487,0.08251671493053436
1772797391936723000,1.350722900390625,0.8487616777420044,-0.2833970785140991,0.0328114777803421
1772797391946749000,1.3607490234375,0.8087258338928223,-0.1670486479997635,-0.030484406277537346
1772797391956776000,1.37077587890625,0.8107469081878662,-0.0036506610922515392,-0.11949790269136429
1772797391966802000,1.380802001953125,0.8211713433265686,0.12645141780376434,-0.221276193857193
1772797391976828000,1.390827880859375,0.8289602994918823,0.18238791823387146,-0.30162402987480164
1772797391986854000,1.40085400390625,0.8409013748168945,0.17299628257751465,-0.3201870620250702
1772797391996880000,1.4108798828125,0.862766444683075,0.09380266070365906,-0.26497653126716614
1772797392006905900,1.42090576171875,0.871064305305481,0.0064866612665355206,-0.14834579825401306
1772797392016931800,1.430931884765625,0.8412379622459412,-0.11541181057691574,0.008903213776648045
1772797392026958000,1.4409580078125,0.7807559967041016,-0.30665233731269836,0.15305159986019135
1772797392036984800,1.45098486328125,0.7248477339744568,-0.45665302872657776,0.24493758380413055
1772797392047010800,1.4610107421875,0.7008758187294006,-0.5027608871459961,0.2627836763858795
1772797392057036800,1.471036865234375,0.690453290939331,-0.4856817424297333,0.23578722774982452
1772797392067062800,1.481062744140625,0.640555202960968,-0.39373984932899475,0.20034214854240417
1772797392077088800,1.4910888671875,0.5388267040252686,-0.30236172676086426,0.12298158556222916
1772797392087114800,1.50111474609375,0.4113672971725464,-0.20583012700080872,-0.004454136826097965
1772797392097140700,1.511140625,0.21323983371257782,-0.08977808803319931,-0.22206954658031464
1772797392107166700,1.521166748046875,-0.0031182952225208282,-0.0019126823171973228,-0.5228429436683655
1772797392117194000,1.531194091796875,-0.20106279850006104,0.11069215834140778,-0.7773772478103638
1772797392127220000,1.541219970703125,-0.3625481128692627,0.2735700309276581,-0.8931912183761597
1772797392137246000,1.551245849609375,-0.4063999652862549,0.3616540729999542,-0.7388002872467041
1772797392147272000,1.56127197265625,-0.30928274989128113,0.38764333724975586,-0.36946913599967957
1772797392157298000,1.5712978515625,-0.07215888053178787,0.3727000653743744,0.0564345121383667
1772797392167324000,1.581323974609375,0.2401585429906845,0.3837367296218872,0.4150882661342621
1772797392177350000,1.591349853515625,0.5067079663276672,0.35387685894966125,0.6784179210662842
1772797392187375900,1.6013759765625,0.6809402108192444,0.22796978056430817,0.8131235241889954
1772797392197403000,1.61140283203125,0.727159857749939,0.046652454882860184,0.8527860045433044
1772797392207428900,1.621428955078125,0.6771523952484131,-0.2701076567173004,0.8779789805412292
1772797392217454800,1.631454833984375,0.5922167301177979,-0.4397749900817871,0.8159139752388
1772797392227480800,1.641480712890625,0.5035361051559448,-0.3348024785518646,0.6847458481788635
1772797392237506800,1.6515068359375,0.43713125586509705,-0.1290791630744934,0.5440784692764282
1772797392247532800,1.66153271484375,0.3662501573562622,0.11941507458686829,0.39354994893074036
1772797392257558800,1.671558837890625,0.3549671471118927,0.32799065113067627,0.30720070004463196
1772797392267584800,1.681584716796875,0.36749839782714844,0.4826428294181824,0.28024229407310486
1772797392277612000,1.691612060546875,0.3869341313838959,0.550002932548523,0.28876787424087524
1772797392287638000,1.701637939453125,0.3975108861923218,0.49360838532447815,0.30602943897247314
1772797392297664000,1.7116640625,0.38321077823638916,0.287963330745697,0.3173345625400543
1772797392307690000,1.72168994140625,0.398355096578598,-0.07953131198883057,0.3322650194168091
1772797392317716000,1.731716064453125,0.3471406400203705,-0.30099233984947205,0.348926842212677
1772797392327742000,1.741741943359375,0.27164214849472046,-0.44904783368110657,0.3996201157569885
1772797392337768000,1.751767822265625,0.20385140180587769,-0.4640637934207916,0.4797801971435547
1772797392347794000,1.7617939453125,0.17428551614284515,-0.36941054463386536,0.531164288520813
1772797392357821000,1.771821044921875,0.2017965018749237,-0.2603903114795685,0.50599205493927
1772797392367847000,1.781846923828125,0.2149471938610077,-0.10781355202198029,0.43156471848487854
1772797392377873000,1.791872802734375,0.20544050633907318,0.09400133043527603,0.36647093296051025
1772797392387899000,1.80189892578125,0.22758255898952484,0.23969408869743347,0.32041874527931213
1772797392397924900,1.8119248046875,0.22459208965301514,0.2768464982509613,0.27984389662742615
1772797392407952000,1.821951904296875,0.1844595968723297,0.23898941278457642,0.2306843400001526
1772797392417977900,1.831977783203125,0.15287156403064728,0.15836940705776215,0.17911195755004883
1772797392428003800,1.84200390625,0.12290887534618378,0.07681701332330704,0.12525352835655212
1772797392438030600,1.852030517578125,0.0865255668759346,0.038845933973789215,0.07817016541957855
1772797392448056600,1.862056640625,0.04598400369286537,0.028688102960586548,0.054538074880838394
1772797392458082600,1.87208251953125,0.016326509416103363,0.04896541312336922,0.04117060452699661
1772797392468108500,1.882108642578125,0.00660463934764266,0.08212176710367203,0.018324412405490875
1772797392478134800,1.892134765625,0.025977006182074547,0.11173558235168457,-0.03274702653288841
1772797392488160800,1.902160888671875,0.05576179921627045,0.12709856033325195,-0.09676782041788101
1772797392498186800,1.912186767578125,0.0814003199338913,0.14804458618164062,-0.15696272253990173
1772797392508212700,1.922212646484375,0.08468586206436157,0.1908586323261261,-0.19470423460006714
1772797392518239700,1.93223974609375,0.07872118055820465,0.23864613473415375,-0.20435872673988342
1772797392528265700,1.942265625,0.08310980349779129,0.26886847615242004,-0.1960965394973755
1772797392538291700,1.952291748046875,0.11521447449922562,0.31757262349128723,-0.1879800260066986
1772797392548317700,1.962317626953125,0.1429068148136139,0.341611385345459,-0.18808335065841675
1772797392558343700,1.97234375,0.16906145215034485,0.3504304587841034,-0.18326649069786072
1772797392568370000,1.982369873046875,0.25250494480133057,0.31943950057029724,-0.16552771627902985
1772797392578396000,1.99239599609375,0.3675793409347534,0.27678871154785156,-0.1232718676328659
1772797392588422000,2.002421875,0.4929439127445221,0.18211014568805695,-0.06816200911998749
1772797392598448600,2.01244873046875,0.5952860116958618,0.029643379151821136,-0.01068273838609457
1772797392608474600,2.022474609375,0.6523343920707703,-0.10807906836271286,0.0541633702814579
1772797392618500600,2.03250048828125,0.7348175644874573,-0.243839830160141,0.0836954265832901
1772797392628526600,2.042526611328125,0.7649842500686646,-0.28194886445999146,0.03972584009170532
1772797392638552600,2.052552490234375,0.6598650217056274,-0.2306654304265976,-0.04699813574552536
1772797392648578600,2.06257861328125,0.47124502062797546,-0.18386171758174896,-0.13771924376487732
1772797392658604800,2.072604736328125,0.2945421636104584,-0.09820885956287384,-0.23792600631713867
1772797392668630800,2.082630859375,0.17726773023605347,0.01275920495390892,-0.32378020882606506
1772797392678657800,2.09265771484375,0.1414862871170044,0.11883370578289032,-0.3401213586330414
1772797392688683800,2.102683837890625,0.21880824863910675,0.17503173649311066,-0.28637558221817017
1772797392698709800,2.112709716796875,0.27392715215682983,0.11147938668727875,-0.2365691363811493
1772797392708735700,2.12273583984375,0.3079855144023895,-0.031255923211574554,-0.14807787537574768
1772797392718761700,2.13276171875,0.33139097690582275,-0.054070424288511276,-0.008792160078883171
1772797392728787700,2.14278759765625,0.26434722542762756,-0.11969417333602905,0.11994185298681259
1772797392738814000,2.15281396484375,0.1423531472682953,-0.18362095952033997,0.22769947350025177
1772797392748840000,2.16283984375,0.01696673221886158,-0.1652720421552658,0.3138604462146759
1772797392758866700,2.17286669921875,-0.11965636163949966,-0.12080205231904984,0.3555048406124115
1772797392768892700,2.182892578125,-0.09884881228208542,0.08844650536775589,0.2058040201663971
1772797392778918700,2.192918701171875,-0.03826136887073517,0.3641531765460968,-0.08725661039352417
1772797392788944600,2.202944580078125,-0.05157158151268959,0.4371594786643982,-0.4185221493244171
1772797392798970600,2.212970703125,-0.043227363377809525,0.37915077805519104,-0.6213697791099548
1772797392808996600,2.22299658203125,0.004005128052085638,0.3234875202178955,-0.6309524178504944
1772797392819022600,2.233022705078125,0.13054336607456207,0.21603083610534668,-0.4955194592475891
1772797392829048800,2.243048828125,0.23854705691337585,0.14367806911468506,-0.23870578408241272
1772797392839075800,2.253075927734375,0.31740912795066833,0.0922340527176857,0.04075062647461891
1772797392849101800,2.263101806640625,0.4094056189060211,0.011186874471604824,0.3046179413795471
1772797392859127800,2.2731279296875,0.4842971861362457,-0.025356488302350044,0.5517470240592957
1772797392869153800,2.28315380859375,0.5310494899749756,-0.010927748866379261,0.7952516078948975
1772797392879179800,2.2931796875,0.5417375564575195,0.05643744394183159,0.9942938685417175
1772797392889205800,2.303205810546875,0.5035400986671448,0.1424437016248703,1.0576155185699463
1772797392899231700,2.313231689453125,0.45824187994003296,0.1735994815826416,0.9460054039955139
1772797392909257700,2.3232578125,0.4763553738594055,0.1807527393102646,0.6911962628364563
1772797392919284700,2.33328466796875,0.5532045960426331,0.22743715345859528,0.37136024236679077
1772797392929310700,2.343310791015625,0.6602980494499207,0.26388198137283325,0.07648997753858566
1772797392939336700,2.353336669921875,0.7692666053771973,0.19626139104366302,-0.12307639420032501
1772797392949362700,2.36336279296875,0.8296420574188232,0.08545391261577606,-0.2474002093076706
1772797392959388700,2.373388671875,0.8147552609443665,-0.06187934800982475,-0.28968268632888794
1772797392969414700,2.38341455078125,0.7557007074356079,-0.20709726214408875,-0.2703965902328491
1772797392979440600,2.393440673828125,0.6360718011856079,-0.3909030556678772,-0.23445165157318115
1772797392989468000,2.403468017578125,0.4528955817222595,-0.6036589741706848,-0.19420862197875977
1772797392999494000,2.413493896484375,0.24889877438545227,-0.7342574596405029,-0.1502811163663864
1772797393009519900,2.423519775390625,0.08219181001186371,-0.6828635334968567,-0.11881852895021439
1772797393019545900,2.4335458984375,-0.004177967086434364,-0.43882450461387634,-0.10972756147384644
1772797393029571800,2.44357177734375,-0.022916235029697418,-0.11924809962511063,-0.1288735568523407
1772797393039597800,2.453597900390625,-0.0002516687090974301,0.15020468831062317,-0.1311955749988556
1772797393049623800,2.463623779296875,0.0334106869995594,0.2944633364677429,-0.015251390635967255
1772797393059649800,2.47364990234375,0.11657002568244934,0.3795824646949768,0.06999453157186508
1772797393069676800,2.4836767578125,0.21220546960830688,0.443745493888855,0.052669867873191833
1772797393079702800,2.493702880859375,0.2655424475669861,0.381395548582077,0.034360371530056
1772797393089728800,2.503728759765625,0.2700573205947876,0.13726943731307983,0.1064542680978775
1772797393099754800,2.513754638671875,0.3035745322704315,-0.04880668595433235,0.08101122826337814
1772797393109780700,2.52378076171875,0.311049222946167,-0.17753244936466217,0.03232092037796974
1772797393119806700,2.533806640625,0.34062841534614563,-0.2687864601612091,-0.07536586374044418
1772797393129832700,2.543832763671875,0.372461199760437,-0.30003413558006287,-0.17362558841705322
1772797393139858700,2.553858642578125,0.3751446008682251,-0.28689488768577576,-0.21916350722312927
1772797393149885700,2.5638857421875,0.37969034910202026,-0.2289343774318695,-0.22980469465255737
1772797393159912000,2.573911865234375,0.39059385657310486,-0.14058561623096466,-0.2562219202518463
1772797393169938000,2.58393798828125,0.37453073263168335,-0.0496802031993866,-0.2919546365737915
1772797393179964000,2.5939638671875,0.32985061407089233,0.02100994437932968,-0.3289533853530884
1772797393189990000,2.603989990234375,0.3081120252609253,0.07866125553846359,-0.35600632429122925
1772797393200016000,2.614015869140625,0.2635093927383423,0.09647540748119354,-0.3794032335281372
1772797393210041900,2.624041748046875,0.1959252953529358,0.07322494685649872,-0.4093843102455139
1772797393220068600,2.634068603515625,0.17125190794467926,0.04817977920174599,-0.46608009934425354
1772797393230094600,2.644094482421875,0.14390923082828522,0.015514510683715343,-0.5241873264312744
1772797393240120600,2.65412060546875,0.14497768878936768,-0.0027925907634198666,-0.558210551738739
1772797393250146800,2.664146728515625,0.17892633378505707,-0.024224912747740746,-0.5265375971794128
1772797393260172800,2.6741728515625,0.22389595210552216,-0.0620332770049572,-0.4343264102935791
1772797393270198800,2.68419873046875,0.26320207118988037,-0.06583573669195175,-0.2909758985042572
1772797393280224800,2.694224853515625,0.2825283706188202,-0.05849580094218254,-0.1414830982685089
1772797393290250800,2.704250732421875,0.28122448921203613,-0.03021249733865261,0.0035302862524986267
1772797393300277800,2.71427783203125,0.276262491941452,-0.005240035708993673,0.14493055641651154
1772797393310303700,2.7243037109375,0.27802789211273193,-0.005144428461790085,0.2744067907333374
1772797393320329700,2.734329833984375,0.2975531220436096,-0.05398200824856758,0.3739195466041565
1772797393330355700,2.744355712890625,0.3125610947608948,-0.14761289954185486,0.4347711503505707
1772797393340382000,2.7543818359375,0.3331369459629059,-0.29375866055488586,0.447706937789917
1772797393350408000,2.764407958984375,0.349638968706131,-0.4088261127471924,0.4060377776622772
1772797393360434000,2.774433837890625,0.3620988130569458,-0.48433738946914673,0.33923453092575073
1772797393370460000,2.7844599609375,0.3390134871006012,-0.4901023209095001,0.24830035865306854
1772797393380486700,2.794486572265625,0.2633530795574188,-0.4495341181755066,0.14988669753074646
1772797393390512600,2.8045126953125,0.18759466707706451,-0.37428438663482666,0.04544657841324806
1772797393400538600,2.81453857421875,0.12901604175567627,-0.29876354336738586,0.013970676809549332
1772797393410564400,2.824564453125,0.012918728403747082,-0.22876287996768951,0.03808373585343361
1772797393420590300,2.83459033203125,-0.10036202520132065,-0.1652856320142746,0.1381315141916275
1772797393430616600,2.844616455078125,-0.2512274384498596,-0.1560572385787964,0.27300411462783813
1772797393440642600,2.854642578125,-0.33838656544685364,-0.1230018213391304,0.3486011326313019
1772797393450669600,2.864669677734375,-0.3384683430194855,-0.06106868013739586,0.24084056913852692
1772797393460695600,2.874695556640625,-0.10157136619091034,-0.08496016263961792,0.19788724184036255
1772797393470721500,2.884721435546875,0.08360780775547028,-0.09017596393823624,0.17783232033252716
1772797393480747500,2.89474755859375,0.21783645451068878,-0.13479164242744446,0.17751166224479675
1772797393490773500,2.9047734375,0.2940680980682373,-0.18533363938331604,0.17249800264835358
1772797393500799500,2.914799560546875,0.3414779603481293,-0.20508231222629547,0.17762085795402527
1772797393510825500,2.924825439453125,0.4351775646209717,-0.13367284834384918,0.17471934854984283
1772797393520851700,2.934851806640625,0.5552328824996948,-0.02833683229982853,0.17954206466674805
1772797393530878500,2.94487841796875,0.6856577396392822,0.12651453912258148,0.19480331242084503
1772797393540904400,2.954904541015625,0.8085455298423767,0.2850112318992615,0.23499546945095062
1772797393550930400,2.964930419921875,0.9203064441680908,0.3118644058704376,0.28056854009628296
1772797393560956400,2.974956298828125,1.05889892578125,0.1951122283935547,0.3148524761199951
1772797393570982400,2.984982421875,1.1770000457763672,0.014312893152236938,0.3600902557373047
1772797393581008400,2.99500830078125,1.2752312421798706,-0.14910106360912323,0.4110317528247833
1772797393591034400,3.005034423828125,1.3454382419586182,-0.2752177119255066,0.44883930683135986
1772797393601060600,3.015060546875,1.3885990381240845,-0.3757256865501404,0.4447505474090576
1772797393611087600,3.025087646484375,1.398629903793335,-0.5052538514137268,0.4077930748462677
1772797393621113600,3.035113525390625,1.3461453914642334,-0.6703943610191345,0.34812602400779724
1772797393631139600,3.0451396484375,1.204440712928772,-0.8676544427871704,0.2938763499259949
1772797393641165600,3.05516552734375,1.001158356666565,-1.0313682556152344,0.23663437366485596
1772797393651191600,3.065191650390625,0.7835826873779297,-1.0977001190185547,0.17225272953510284
1772797393661217500,3.075217529296875,0.5943965315818787,-0.9845240712165833,0.07199829071760178
1772797393671243500,3.085243408203125,0.45584529638290405,-0.6991546154022217,-0.049742523580789566
1772797393681269500,3.09526953125,0.39462241530418396,-0.3003654181957245,-0.13514716923236847
1772797393691296500,3.105296630859375,0.43178683519363403,0.10593894869089127,-0.1469484269618988
1772797393701322500,3.115322509765625,0.541175901889801,0.4086732566356659,-0.08374816179275513
1772797393711348500,3.125348388671875,0.6547037959098816,0.5389564037322998,0.05896558240056038
1772797393721374500,3.13537451171875,0.7787357568740845,0.5620697140693665,0.2277199774980545
1772797393731400400,3.145400390625,0.8647893667221069,0.4989442825317383,0.33916714787483215
1772797393741426400,3.155426513671875,0.907073438167572,0.31491905450820923,0.38563159108161926
1772797393751452400,3.165452392578125,0.8918673396110535,0.08166103810071945,0.43362998962402344
1772797393761478400,3.175478515625,0.862159788608551,-0.16018621623516083,0.5325121283531189
1772797393771505700,3.185505615234375,0.8589754104614258,-0.33292630314826965,0.5682450532913208
1772797393781531600,3.19553173828125,0.8520005941390991,-0.4279707968235016,0.5153104662895203
1772797393791557600,3.2055576171875,0.8499609231948853,-0.45491132140159607,0.4352699816226959
1772797393801583600,3.21558349609375,0.8510434627532959,-0.4639737904071808,0.3699199855327606
1772797393811609600,3.225609619140625,0.8667172193527222,-0.4203038215637207,0.32601484656333923
1772797393821635600,3.235635498046875,0.8794921636581421,-0.3392702043056488,0.2980383634567261
1772797393831661600,3.24566162109375,0.8805782198905945,-0.2593551278114319,0.2628646492958069
1772797393841688300,3.255688232421875,0.8610013127326965,-0.2208375781774521,0.24497993290424347
1772797393851714600,3.265714599609375,0.8576611876487732,-0.15484283864498138,0.24206483364105225
1772797393861740500,3.275740478515625,0.8403993844985962,-0.08366773277521133,0.23662984371185303
1772797393871766500,3.2857666015625,0.8383239507675171,-0.03074513003230095,0.21450883150100708
1772797393881792500,3.29579248046875,0.8310519456863403,0.01221831701695919,0.17549166083335876
1772797393891818500,3.305818603515625,0.8302037119865417,0.04409555718302727,0.11594071984291077
1772797393901844500,3.315844482421875,0.8505151271820068,0.05733253061771393,0.07134954631328583
1772797393911870500,3.325870361328125,0.8619597554206848,0.04325852543115616,0.02509789541363716
1772797393921897500,3.3358974609375,0.8788782954216003,-0.029504628852009773,0.012150405906140804
1772797393931923700,3.345923828125,0.9160131812095642,-0.07478982210159302,-0.007361776195466518
1772797393941949700,3.35594970703125,0.9490962624549866,-0.10983728617429733,-0.019100191071629524
1772797393951975700,3.3659755859375,0.9680015444755554,-0.14932610094547272,-0.006089850328862667
1772797393962001700,3.376001708984375,0.9779273867607117,-0.1361253410577774,0.0582561157643795
1772797393972027600,3.386027587890625,0.9797189235687256,-0.061519552022218704,0.12801869213581085
1772797393982053600,3.3960537109375,0.9606844782829285,0.02545848861336708,0.1703464388847351
1772797393992080400,3.406080322265625,0.9125521183013916,0.1283441185951233,0.1825069636106491
1772797394002106400,3.4161064453125,0.8483638167381287,0.19550184905529022,0.17010541260242462
1772797394012132400,3.42613232421875,0.8030903339385986,0.23141032457351685,0.1356092244386673
1772797394022158600,3.43615869140625,0.7650678753852844,0.25335609912872314,0.13349121809005737
1772797394032184600,3.4461845703125,0.7166395783424377,0.2043057382106781,0.17516516149044037
1772797394042210600,3.45621044921875,0.6394766569137573,0.12355656176805496,0.2657448649406433
1772797394052236500,3.466236572265625,0.5444899201393127,0.02027011848986149,0.37742477655410767
1772797394062262500,3.476262451171875,0.45216241478919983,-0.06478006392717361,0.4798145294189453
1772797394072289500,3.48628955078125,0.38161420822143555,-0.18172159790992737,0.5773525238037109
1772797394082315500,3.4963154296875,0.4246639311313629,-0.21746787428855896,0.6036992073059082
1772797394092341500,3.506341552734375,0.5844059586524963,0.016030099242925644,0.43966206908226013
1772797394102367500,3.516367431640625,0.6187402009963989,0.3588353991508484,0.14805977046489716
1772797394112393700,3.526393798828125,0.7105726599693298,0.7042913436889648,-0.24709980189800262
1772797394122419700,3.536419677734375,0.870838463306427,0.9022640585899353,-0.5302090048789978
1772797394132445700,3.54644580078125,0.919179379940033,0.8263133764266968,-0.5518684983253479
1772797394142471400,3.556471435546875,0.9732822775840759,0.5043020248413086,-0.39981743693351746
1772797394152498400,3.56649853515625,1.0386067628860474,-0.003882888937368989,-0.171534463763237
1772797394162524400,3.5765244140625,1.072192668914795,-0.4466368854045868,0.1269419640302658
1772797394172550400,3.58655029296875,1.1496660709381104,-0.6207061409950256,0.46845510601997375
1772797394182576400,3.596576416015625,1.2683179378509521,-0.5238674879074097,0.7666828036308289
1772797394192602400,3.606602294921875,1.381839394569397,-0.26698002219200134,0.9668251872062683
1772797394202628600,3.616628662109375,1.4680500030517578,-0.006105563137680292,1.1712905168533325
1772797394212654600,3.626654541015625,1.5471642017364502,0.21646253764629364,1.2070045471191406
1772797394222680600,3.6366806640625,1.6195234060287476,0.469486802816391,1.017870306968689
1772797394232707600,3.64670751953125,1.6368341445922852,0.6920519471168518,0.7094749212265015
1772797394242733600,3.656733642578125,1.607778787612915,0.7822436690330505,0.39017707109451294
1772797394252759600,3.666759521484375,1.5591892004013062,0.7153556942939758,0.1556607037782669
1772797394262785500,3.67678564453125,1.5043227672576904,0.4983392357826233,0.10477568209171295
1772797394272811500,3.6868115234375,1.4815729856491089,0.22677083313465118,0.14054858684539795
1772797394282837500,3.69683740234375,1.4726591110229492,0.13058996200561523,-0.008922122418880463
1772797394292863500,3.706863525390625,1.4251983165740967,0.22404694557189941,-0.266811728477478
1772797394302890500,3.716890380859375,1.3141461610794067,0.2941266894340515,-0.4904530644416809
1772797394312916500,3.72691650390625,1.199968934059143,0.2894512414932251,-0.6322461366653442
1772797394322942500,3.7369423828125,1.098859429359436,0.20685197412967682,-0.6756285429000854
1772797394332968400,3.746968505859375,1.014526128768921,0.06011100858449936,-0.616646945476532
1772797394342994400,3.756994384765625,0.9434490203857422,-0.04692836105823517,-0.4838936924934387
1772797394353020400,3.7670205078125,0.9152112603187561,-0.05228530988097191,-0.3035936951637268
1772797394363046400,3.77704638671875,0.9245147705078125,0.0346439965069294,-0.1383509486913681
1772797394373072600,3.78707275390625,0.9770362973213196,0.18489448726177216,-0.048534248024225235
1772797394383099600,3.797099609375,1.0697022676467896,0.3458535373210907,-0.022824356332421303
1772797394393125600,3.807125732421875,1.1632016897201538,0.4680265784263611,-0.028206603601574898
1772797394403151600,3.817151611328125,1.2178022861480713,0.5093204975128174,0.0027838023379445076
1772797394413177600,3.827177490234375,1.2287681102752686,0.40122491121292114,0.10122914612293243
1772797394423203600,3.83720361328125,1.1891781091690063,0.1244889348745346,0.2683078944683075
1772797394433229600,3.8472294921875,1.1333577632904053,-0.1504978984594345,0.2925378680229187
1772797394443255600,3.857255615234375,1.0614603757858276,-0.28658995032310486,0.09405060112476349
1772797394453281300,3.86728125,0.954144299030304,-0.355579674243927,-0.12535712122917175
1772797394463308300,3.877308349609375,0.8249958753585815,-0.43700316548347473,-0.28275206685066223
1772797394473334300,3.887334228515625,0.7257031202316284,-0.41975465416908264,-0.33855995535850525
1772797394483360300,3.8973603515625,0.6995892524719238,-0.37355494499206543,-0.3074054718017578
1772797394493386200,3.90738623046875,0.7461887001991272,-0.2627336084842682,-0.26586630940437317
1772797394503412500,3.91741259765625,0.815616250038147,-0.10575572401285172,-0.22761878371238708
1772797394513438500,3.9274384765625,0.8861585855484009,0.05504247918725014,-0.20482265949249268
1772797394523464400,3.93746435546875,0.9173607230186462,0.10197563469409943,-0.20019115507602692
1772797394533491500,3.947491455078125,0.9427561163902283,0.0828796997666359,-0.21013139188289642
1772797394543517400,3.957517333984375,0.9663620591163635,0.04069096967577934,-0.21947430074214935
1772797394553543400,3.96754345703125,0.9880516529083252,-0.016619989648461342,-0.22976209223270416
1772797394563569400,3.9775693359375,0.9944544434547424,-0.08031667768955231,-0.2359326332807541
1772797394573595400,3.987595458984375,0.9803476929664612,-0.13336844742298126,-0.24782977998256683
1772797394583621400,3.997621337890625,0.9590623378753662,-0.1308823823928833,-0.2570136785507202
1772797394593647400,4.0076474609375,0.9200987219810486,-0.10121343284845352,-0.261882483959198
1772797394603673300,4.01767333984375,0.8726617097854614,-0.06515343487262726,-0.23124466836452484
1772797394613700400,4.027700439453125,0.8579197525978088,0.00621182331815362,-0.1775987595319748
1772797394623726300,4.037726318359375,0.8656682372093201,0.10133034735918045,-0.14131665229797363
1772797394633752300,4.04775244140625,0.8730127215385437,0.1654137223958969,-0.13684387505054474
1772797394643778300,4.0577783203125,0.8656109571456909,0.18459434807300568,-0.16869208216667175
1772797394653804300,4.06780419921875,0.8521287441253662,0.2064218819141388,-0.19701266288757324
1772797394663830300,4.077830322265625,0.8448740243911743,0.2182958573102951,-0.21763059496879578
1772797394673856500,4.0878564453125,0.8373795747756958,0.184534952044487,-0.21541297435760498
1772797394683882500,4.097882568359375,0.819564938545227,0.08499451726675034,-0.18523404002189636
1772797394693909500,4.107909423828125,0.7768643498420715,-0.060082778334617615,-0.11808030307292938
1772797394703935500,4.117935546875,0.7251396179199219,-0.1710716187953949,0.00481206551194191
1772797394713961500,4.12796142578125,0.6579773426055908,-0.24200516939163208,0.1738215982913971
1772797394723987500,4.137987548828125,0.6016709208488464,-0.30671679973602295,0.3252553343772888
1772797394734013400,4.148013427734375,0.5589221119880676,-0.3492322862148285,0.4480592608451843
1772797394744039400,4.158039306640625,0.5390384197235107,-0.3559868633747101,0.5584992170333862
1772797394754065200,4.168065185546875,0.5325576663017273,-0.35983940958976746,0.6510789394378662
1772797394764091400,4.17809130859375,0.5685233473777771,-0.308130145072937,0.7095540165901184
1772797394774118400,4.188118408203125,0.5911484956741333,-0.19564726948738098,0.631295382976532
1772797394784144400,4.198144287109375,0.5819611549377441,-0.117437943816185,0.3696536719799042
1772797394794170400,4.20817041015625,0.584585964679718,-0.08367519080638885,0.03615960106253624
1772797394804196400,4.2181962890625,0.564034640789032,-0.08204453438520432,-0.25092941522598267
1772797394814222300,4.228222412109375,0.5792458057403564,-0.13973446190357208,-0.4062284827232361
1772797394824248300,4.238248291015625,0.6129531264305115,-0.2727649509906769,-0.3718166947364807
1772797394834274300,4.2482744140625,0.6672001481056213,-0.46466007828712463,-0.12805862724781036
1772797394844300300,4.25830029296875,0.7740362882614136,-0.6014296412467957,0.22145196795463562
1772797394854327600,4.26832763671875,0.9128141403198242,-0.6085834503173828,0.5654761791229248
1772797394864353500,4.278353515625,1.0592036247253418,-0.5359830260276794,0.8029025793075562
1772797394874379500,4.288379638671875,1.1996976137161255,-0.36936846375465393,0.9115225076675415
1772797394884405200,4.2984052734375,1.3077143430709839,-0.13370053470134735,0.9000208973884583
1772797394894431200,4.30843115234375,1.3728781938552856,0.09173151850700378,0.8094515800476074
1772797394904457200,4.318457275390625,1.3879940509796143,0.22837485373020172,0.6700055003166199
1772797394914483200,4.328483154296875,1.3835766315460205,0.2680673897266388,0.536683976650238
1772797394924510500,4.338510498046875,1.3590537309646606,0.2146553099155426,0.4436008632183075
1772797394934536400,4.348536376953125,1.3317028284072876,0.12843866646289825,0.39809465408325195
1772797394944562400,4.3585625,1.2818039655685425,0.03951331973075867,0.39032381772994995
1772797394954588400,4.36858837890625,1.1868236064910889,-0.07614509761333466,0.37973666191101074
1772797394964614400,4.378614501953125,1.0604039430618286,-0.23430997133255005,0.3425280451774597
1772797394974640400,4.388640380859375,0.9066811800003052,-0.39454224705696106,0.2825464904308319
1772797394984666400,4.398666259765625,0.7335644960403442,-0.5141501426696777,0.22272709012031555
1772797394994692400,4.4086923828125,0.5903285145759583,-0.525632381439209,0.18452617526054382
1772797395004719600,4.4187197265625,0.5139957070350647,-0.43137750029563904,0.17431135475635529
1772797395014745600,4.42874560546875,0.4907345771789551,-0.2437141239643097,0.17635293304920197
1772797395024771300,4.438771240234375,0.4935649633407593,-0.004452805500477552,0.16367627680301666
1772797395034797300,4.44879736328125,0.545734703540802,0.24772724509239197,0.1305614709854126
1772797395044823300,4.4588232421875,0.6353279948234558,0.43977123498916626,0.09448655694723129
1772797395054849300,4.468849365234375,0.751200795173645,0.5519859194755554,0.06879104673862457
1772797395064875300,4.478875244140625,0.8562880158424377,0.5798372626304626,0.07419247180223465
1772797395074901200,4.4889013671875,0.9424548745155334,0.5441812872886658,0.10144726186990738
1772797395084928300,4.49892822265625,1.0238202810287476,0.4424874186515808,0.13443849980831146
1772797395094954500,4.50895458984375,1.06167471408844,0.2959730625152588,0.15051467716693878
1772797395104980500,4.51898046875,1.0951645374298096,0.14451776444911957,0.14857962727546692
1772797395115006500,4.52900634765625,1.1350078582763672,0.05712001025676727,0.13366858661174774
1772797395125032400,4.539032470703125,1.1685329675674438,0.0223883967846632,0.11130921542644501
1772797395135058400,4.549058349609375,1.1885082721710205,0.004180896561592817,0.08588960766792297
1772797395145084400,4.55908447265625,1.2053680419921875,-0.009077650494873524,0.06810395419597626
1772797395155110400,4.5691103515625,1.2206183671951294,-0.01727272942662239,0.0550408810377121
1772797395165137400,4.579137451171875,1.2346574068069458,-0.013423130847513676,0.05247758701443672
1772797395175163400,4.589163330078125,1.2737380266189575,-0.002213885774835944,0.06957588344812393
1772797395185189400,4.599189453125,1.3194139003753662,0.00018109494703821838,0.09367722272872925
1772797395195215400,4.60921533203125,1.3686567544937134,-0.03506797179579735,0.13143126666545868
1772797395205241300,4.619241455078125,1.4084670543670654,-0.0743168443441391,0.1612328290939331
1772797395215267300,4.629267333984375,1.402733325958252,-0.07215169072151184,0.13107971847057343
1772797395225293300,4.639293212890625,1.362016201019287,-0.03263331204652786,0.031263645738363266
1772797395235320300,4.6493203125,1.2714335918426514,0.02069702185690403,-0.10215406864881516
1772797395245346300,4.65934619140625,1.1168975830078125,0.06967335194349289,-0.2174745351076126
1772797395255372300,4.669372314453125,0.9159923791885376,0.09273073822259903,-0.260355681180954
1772797395265398500,4.6793984375,0.7748192548751831,0.12158262729644775,-0.2195376753807068
1772797395275424500,4.689424560546875,0.7556780576705933,0.14342160522937775,-0.09407749772071838
1772797395285450500,4.699450439453125,0.899891197681427,0.15619653463363647,0.11805606633424759
1772797395295476500,4.7094765625,1.0565500259399414,0.18273386359214783,0.3729586601257324
1772797395305502500,4.71950244140625,1.1901131868362427,0.1584538221359253,0.5894957780838013
1772797395315529500,4.729529541015625,1.2997698783874512,0.08822839707136154,0.7210133075714111
1772797395325555200,4.73955517578125,1.3807779550552368,0.016461264342069626,0.755020797252655
1772797395335581200,4.749581298828125,1.3963613510131836,-0.03074166737496853,0.7178571820259094
1772797395345607200,4.759607177734375,1.3414539098739624,-0.01465697307139635,0.6118332743644714
1772797395355633400,4.76963330078125,1.2131543159484863,0.013275325298309326,0.4961570203304291
1772797395365659400,4.779659423828125,1.0559569597244263,-0.015335014089941978,0.4396977424621582
1772797395375685400,4.789685302734375,1.0407383441925049,-0.007503190077841282,0.44386693835258484
1772797395385711400,4.79971142578125,1.0017949342727661,0.21083873510360718,0.369810551404953
1772797395395738400,4.80973828125,0.9548329710960388,0.48591744899749756,0.24116574227809906
1772797395405764400,4.819764404296875,1.0054292678833008,0.5922497510910034,0.060620471835136414
1772797395415790600,4.82979052734375,1.127711296081543,0.5358506441116333,-0.06619979441165924
1772797395425816600,4.839816650390625,1.2490872144699097,0.3703969717025757,-0.08251085877418518
1772797395435842800,4.8498427734375,1.3280329704284668,0.1690145879983902,0.008490690030157566
1772797395445868800,4.859868896484375,1.34700345993042,-0.0007792409160174429,0.14468741416931152
1772797395455894800,4.869894775390625,1.3108350038528442,-0.1797894686460495,0.25438833236694336
1772797395465920800,4.879920654296875,1.22617769241333,-0.29853662848472595,0.2740272879600525
1772797395475947500,4.889947509765625,1.1235549449920654,-0.3038291335105896,0.1830987185239792
1772797395485973500,4.899973388671875,1.011757493019104,-0.20357203483581543,0.046124350279569626
1772797395495999500,4.90999951171875,0.9130852818489075,-0.03419392183423042,-0.08747658878564835
1772797395506025500,4.920025390625,0.8469081521034241,0.1486147791147232,-0.18472670018672943
1772797395516051500,4.930051513671875,0.8540747165679932,0.33761346340179443,-0.20529510080814362
1772797395526077700,4.94007763671875,0.920598030090332,0.5035592913627625,-0.17280372977256775
1772797395536103700,4.950103759765625,1.0232815742492676,0.607533872127533,-0.10716640204191208
1772797395546129700,4.960129638671875,1.0997587442398071,0.6570116877555847,-0.04715579375624657
1772797395556156700,4.97015673828125,1.1585770845413208,0.6692308187484741,-0.02087438851594925
1772797395566182700,4.9801826171875,1.2034313678741455,0.6123206615447998,-0.04604099318385124
1772797395576208600,4.990208740234375,1.2286112308502197,0.47541019320487976,-0.11136940121650696
1772797395586234600,5.000234619140625,1.2214391231536865,0.26314693689346313,-0.17326553165912628
1772797395596260600,5.010260498046875,1.172767162322998,0.025914954021573067,-0.18596667051315308
1772797395606286600,5.02028662109375,1.1239149570465088,-0.1654755175113678,-0.16144748032093048
1772797395616312800,5.030312744140625,1.0992833375930786,-0.25207751989364624,-0.1692228466272354
1772797395626338800,5.0403388671875,1.085262417793274,-0.22785820066928864,-0.2456052303314209
1772797395636365600,5.050365478515625,1.0857454538345337,-0.1814315766096115,-0.3191167414188385
1772797395646391600,5.0603916015625,1.100792646408081,-0.1600562483072281,-0.35164883732795715
1772797395656417500,5.07041748046875,1.1203889846801758,-0.11587360501289368,-0.3484621047973633
1772797395666443500,5.080443603515625,1.1426870822906494,-0.05673997849225998,-0.33651596307754517
1772797395676469500,5.090469482421875,1.1579283475875854,-0.03506504371762276,-0.30518946051597595
1772797395686495500,5.10049560546875,1.1307460069656372,-0.08319848030805588,-0.2819744348526001
1772797395696521500,5.110521484375,1.1220544576644897,-0.09426551312208176,-0.30036330223083496
1772797395706547700,5.120547607421875,1.100192904472351,-0.1127350702881813,-0.3247474730014801
1772797395716574700,5.13057470703125,1.04969322681427,-0.21170133352279663,-0.3175968825817108
1772797395726600700,5.1406005859375,1.0045459270477295,-0.32035377621650696,-0.2741689682006836
1772797395736626700,5.150626708984375,1.0345408916473389,-0.386398047208786,-0.2511661946773529
1772797395746652700,5.160652587890625,1.0660569667816162,-0.4531935751438141,-0.2503938674926758
1772797395756678700,5.1706787109375,1.0709049701690674,-0.5128582715988159,-0.1988110989332199
1772797395766704600,5.18070458984375,1.0743365287780762,-0.5201563835144043,-0.0836016833782196
1772797395776730600,5.190730712890625,1.0698474645614624,-0.48458853363990784,0.05096811056137085
1772797395786756900,5.2007568359375,1.0460667610168457,-0.4162568747997284,0.16732747852802277
1772797395796783600,5.21078369140625,0.998894989490509,-0.3362022340297699,0.21448566019535065
1772797395806809600,5.2208095703125,0.9394425749778748,-0.26666259765625,0.16860206425189972
1772797395816835600,5.230835693359375,0.8736699819564819,-0.22489143908023834,0.09258612245321274
1772797395826861600,5.240861572265625,0.8564611673355103,-0.21610033512115479,0.05621187388896942
1772797395836887600,5.250887451171875,0.8597189784049988,-0.22690585255622864,0.06059730052947998
1772797395846913500,5.26091357421875,0.8535183668136597,-0.2931804656982422,0.1348411738872528
1772797395856939500,5.270939453125,0.8711945414543152,-0.32141637802124023,0.23405084013938904
1772797395866965500,5.280965576171875,0.8874422311782837,-0.3061535358428955,0.2619013786315918
1772797395876992800,5.29099267578125,0.8810415863990784,-0.29458343982696533,0.22033023834228516
1772797395887018800,5.301018798828125,0.8580643534660339,-0.28042420744895935,0.11927366256713867
1772797395897044700,5.311044677734375,0.8174207806587219,-0.27269038558006287,-0.008817460387945175
1772797395907070700,5.32107080078125,0.7572227120399475,-0.2698866128921509,-0.10680927336215973
1772797395917096700,5.3310966796875,0.7194092869758606,-0.23192457854747772,-0.16623903810977936
1772797395927122700,5.341122802734375,0.6758503317832947,-0.2263641655445099,-0.19294841587543488
1772797395937148700,5.351148681640625,0.6434633731842041,-0.24992488324642181,-0.21723298728466034
1772797395947175700,5.36117578125,0.6538020372390747,-0.26386305689811707,-0.21678903698921204
1772797395957201700,5.37120166015625,0.6837607622146606,-0.25424665212631226,-0.1796714961528778
1772797395967227600,5.3812275390625,0.6988589763641357,-0.2059347927570343,-0.11283200979232788
1772797395977253600,5.391253662109375,0.6914799213409424,-0.17887680232524872,-0.023798007518053055
1772797395987279600,5.401279541015625,0.6865450739860535,-0.16361503303050995,0.06835509091615677
1772797395997305600,5.4113056640625,0.6870404481887817,-0.1552859991788864,0.12168089300394058
1772797396007331600,5.42133154296875,0.7028992772102356,-0.15269367396831512,0.13284353911876678
1772797396017357600,5.431357666015625,0.7100043296813965,-0.1467878520488739,0.11735086143016815
1772797396027383600,5.441383544921875,0.7072218656539917,-0.12226305902004242,0.08745501190423965
1772797396037410800,5.451410888671875,0.6909211874008179,-0.09339199960231781,0.04194265604019165
1772797396047436800,5.461436767578125,0.6284932494163513,-0.057536531239748,-0.0464058481156826
1772797396057462800,5.471462890625,0.49905961751937866,-0.006397977937012911,-0.18339139223098755
1772797396067488800,5.48148876953125,0.29659944772720337,0.039315447211265564,-0.36608877778053284
1772797396077514800,5.4915146484375,0.05140407010912895,0.08669601380825043,-0.5799728035926819
1772797396087540700,5.501540771484375,-0.19110657274723053,0.1523200273513794,-0.7915639281272888
1772797396097566700,5.511566650390625,-0.35377830266952515,0.2173839807510376,-0.9549323320388794
1772797396107592700,5.5215927734375,-0.42291662096977234,0.2381473183631897,-0.9892077445983887
1772797396117619700,5.53161962890625,-0.39738357067108154,0.2435695081949234,-0.884584367275238
1772797396127645700,5.541645751953125,-0.2946409583091736,0.2516695261001587,-0.6739070415496826
1772797396137671700,5.551671630859375,-0.16308026015758514,0.25030145049095154,-0.40260204672813416
1772797396147697700,5.56169775390625,-0.03748638927936554,0.21425530314445496,-0.10722499340772629
1772797396157723600,5.5717236328125,0.08283469825983047,0.12330515682697296,0.2095111459493637
1772797396167749600,5.58174951171875,0.16603557765483856,0.026214826852083206,0.4071323573589325
1772797396177775600,5.591775634765625,0.23710602521896362,-0.0962303951382637,0.597438395023346
1772797396187801600,5.601801513671875,0.30621930956840515,-0.20225642621517181,0.8117762207984924
1772797396197828600,5.61182861328125,0.335326611995697,-0.30019497871398926,0.9993634223937988
1772797396207854800,5.621854736328125,0.366076797246933,-0.3788871169090271,1.1058927774429321
1772797396217880800,5.631880859375,0.3786351978778839,-0.362007200717926,1.0979976654052734
1772797396227906800,5.64190673828125,0.39329084753990173,-0.3085018992424011,1.0040303468704224
1772797396237932800,5.651932861328125,0.463438481092453,-0.20024122297763824,0.8902108669281006
1772797396247958800,5.661958740234375,0.5190050601959229,-0.15087366104125977,0.840949296951294
1772797396257984500,5.671984619140625,0.5273340940475464,-0.16236121952533722,0.7500492334365845
1772797396268010500,5.682010498046875,0.5074906349182129,-0.1591891199350357,0.5669278502464294
1772797396278037500,5.69203759765625,0.45636141300201416,-0.12333258986473083,0.2701638340950012
1772797396288063500,5.7020634765625,0.3758300840854645,-0.08218754827976227,-0.0701306164264679
1772797396298089700,5.71208984375,0.3018637001514435,-0.04466281086206436,-0.3533194363117218
1772797396308115700,5.72211572265625,0.22811253368854523,-0.0792362317442894,-0.5761189460754395
1772797396318141700,5.7321416015625,0.16938769817352295,-0.1495378315448761,-0.7095025777816772
1772797396328167700,5.742167724609375,0.1004033014178276,-0.13911181688308716,-0.6951289772987366
1772797396338193700,5.752193603515625,0.04400128126144409,-0.05855092778801918,-0.5042258501052856
1772797396348219600,5.7622197265625,0.030101975426077843,0.05175560712814331,-0.19805076718330383
1772797396358246700,5.77224658203125,0.02515781670808792,0.1548287272453308,0.15899737179279327
1772797396368272600,5.782272705078125,0.039741020649671555,0.19581930339336395,0.4399334490299225
1772797396378298600,5.792298583984375,0.08073559403419495,0.1291571855545044,0.6036691069602966
1772797396388324900,5.802324951171875,0.15928232669830322,0.014160826802253723,0.6635279059410095
1772797396398350600,5.8123505859375,0.24555090069770813,-0.11030307412147522,0.6912053227424622
1772797396408376600,5.82237646484375,0.29490888118743896,-0.2218668907880783,0.7050564289093018
1772797396418402300,5.83240234375,0.3265927731990814,-0.31485646963119507,0.6841564774513245
1772797396428428300,5.84242822265625,0.3380507528781891,-0.35362279415130615,0.6062350869178772
1772797396438454300,5.852454345703125,0.36299097537994385,-0.3266015648841858,0.5082933306694031
1772797396448481300,5.862481201171875,0.3682752251625061,-0.2681073546409607,0.381914347410202
1772797396458507300,5.87250732421875,0.3747704029083252,-0.20046386122703552,0.2302345335483551
1772797396468533200,5.882533203125,0.3759440779685974,-0.14470233023166656,0.07838162034749985
1772797396478559200,5.892559326171875,0.3768966794013977,-0.08775222301483154,-0.045700374990701675
1772797396488585200,5.902585205078125,0.3852235972881317,-0.07326169312000275,-0.12515366077423096
1772797396498611200,5.912611083984375,0.40255624055862427,-0.08418066054582596,-0.16060298681259155
1772797396508637200,5.92263720703125,0.40905702114105225,-0.14189667999744415,-0.17598195374011993
1772797396518663200,5.9326630859375,0.42003297805786133,-0.23375603556632996,-0.1828065663576126
1772797396528690400,5.9426904296875,0.42333075404167175,-0.3183228373527527,-0.17901955544948578
1772797396538716400,5.95271630859375,0.42134085297584534,-0.3711375892162323,-0.19376493990421295
1772797396548742400,5.962742431640625,0.4135521650314331,-0.4153580665588379,-0.22682754695415497
1772797396558768400,5.972768310546875,0.4086306393146515,-0.4259462356567383,-0.2532157599925995
1772797396568794400,5.98279443359375,0.3872888684272766,-0.3612615168094635,-0.24341638386249542
1772797396578820400,5.9928203125,0.3313305377960205,-0.25134915113449097,-0.19308289885520935
1772797396588846000,6.00284619140625,0.22875142097473145,-0.12089259922504425,-0.09913963079452515
1772797396598872000,6.0128720703125,0.1539432257413864,-0.004628307651728392,0.04518132656812668
1772797396608898000,6.02289794921875,0.12574967741966248,0.07434800267219543,0.16111432015895844
1772797396618925300,6.03292529296875,0.14943796396255493,0.10446116328239441,0.2084469497203827
1772797396628951300,6.042951416015625,0.20178452134132385,0.11455667018890381,0.2039472758769989
1772797396638977300,6.052977294921875,0.23190194368362427,0.1201610267162323,0.1760738343000412
1772797396649003300,6.063003173828125,0.27485498785972595,0.08807739615440369,0.14516118168830872
1772797396659029200,6.073029296875,0.3296356797218323,0.049422409385442734,0.12382553517818451
1772797396669055200,6.08305517578125,0.3887307047843933,0.06081381440162659,0.1028163954615593
1772797396679081200,6.093081298828125,0.43537092208862305,0.07387395948171616,0.06782112270593643
1772797396689107200,6.103107177734375,0.45239463448524475,0.07956913113594055,0.021941784769296646
1772797396699134500,6.113134521484375,0.44429489970207214,0.12919767200946808,-0.07267047464847565
1772797396709160400,6.123160400390625,0.4136909246444702,0.24427445232868195,-0.22463950514793396
1772797396719186400,6.1331865234375,0.39689168334007263,0.3927121162414551,-0.4342001974582672
1772797396729212200,6.143212158203125,0.40394455194473267,0.520552396774292,-0.6769944429397583
1772797396739238100,6.153238037109375,0.3430092930793762,0.5987966060638428,-0.917530357837677
1772797396749264100,6.16326416015625,0.22913651168346405,0.6135582327842712,-1.0121111869812012
1772797396759290000,6.1732900390625,0.18604789674282074,0.4753555953502655,-0.8799680471420288
1772797396769316000,6.183316162109375,0.1406673640012741,0.2936422824859619,-0.5727114677429199
1772797396779342000,6.193342041015625,0.05073694512248039,0.07563537359237671,-0.1849333643913269
1772797396789369300,6.203369384765625,-0.02027411200106144,-0.1535586714744568,0.1976132094860077
1772797396799395300,6.213395263671875,-0.06851886957883835,-0.24965377151966095,0.5371667742729187
1772797396809421300,6.22342138671875,-0.0830722525715828,-0.15342390537261963,0.7831099629402161
1772797396819447300,6.233447265625,-0.022604910656809807,0.07905860245227814,0.8911128640174866
1772797396829473300,6.243473388671875,0.13143764436244965,0.3092425465583801,0.8527039885520935
1772797396839499300,6.253499267578125,0.3346405625343323,0.48563408851623535,0.7309762239456177
1772797396849525200,6.263525146484375,0.5477163791656494,0.5945498943328857,0.5240456461906433
1772797396859551200,6.27355126953125,0.7463559508323669,0.6286634206771851,0.2835920453071594
1772797396869578200,6.283578125,0.9369828701019287,0.5889610052108765,0.11717935651540756
1772797396879604200,6.293604248046875,1.0633511543273926,0.5472977161407471,0.08610106259584427
1772797396889630200,6.303630126953125,1.1207164525985718,0.5022527575492859,0.15554192662239075
1772797396899656200,6.31365625,1.1504690647125244,0.4114493429660797,0.287852019071579
1772797396909682200,6.32368212890625,1.155199408531189,0.29258793592453003,0.43242812156677246
1772797396919708200,6.333708251953125,1.1683192253112793,0.15518824756145477,0.5216008424758911
1772797396929734100,6.343734130859375,1.1756607294082642,0.015079616568982601,0.5000929236412048
1772797396939760000,6.353760009765625,1.1639001369476318,-0.11947473138570786,0.3965774476528168
1772797396949786000,6.3637861328125,1.1220859289169312,-0.24721351265907288,0.2464531809091568
1772797396959813400,6.3738134765625,1.0619463920593262,-0.34978437423706055,0.06961476057767868
1772797396969839400,6.38383935546875,0.9744756817817688,-0.41293537616729736,-0.09541413933038712
1772797396979865300,6.393865234375,0.8764846324920654,-0.46005070209503174,-0.23427508771419525
1772797396989891300,6.403891357421875,0.7817951440811157,-0.497094988822937,-0.31060874462127686
1772797396999917300,6.413917236328125,0.6935926079750061,-0.4912557601928711,-0.30708935856819153
1772797397009943300,6.423943359375,0.6188472509384155,-0.39654070138931274,-0.2354002743959427
1772797397019969300,6.43396923828125,0.5710800290107727,-0.21221186220645905,-0.1331588476896286
1772797397029995300,6.443995361328125,0.5486098527908325,-0.016620788723230362,-0.046788543462753296
1772797397040021200,6.454021240234375,0.5042996406555176,0.09890740364789963,0.021756161004304886
1772797397050048300,6.46404833984375,0.46630191802978516,0.10965272784233093,0.10592030733823776
1772797397060074200,6.47407421875,0.4787282347679138,0.08102401345968246,0.1377996802330017
1772797397070100200,6.484100341796875,0.5107953548431396,-0.011928831227123737,0.11644884943962097
1772797397080126200,6.494126220703125,0.5194857716560364,-0.15060575306415558,0.07424440234899521
1772797397090152200,6.504152099609375,0.5170820355415344,-0.26884958148002625,0.04683408513665199
1772797397100178200,6.51417822265625,0.5155786871910095,-0.3422958254814148,0.039253927767276764
1772797397110204200,6.5242041015625,0.5131586194038391,-0.3997894823551178,0.04024568945169449
1772797397120230100,6.534230224609375,0.5279056429862976,-0.43874219059944153,0.029579997062683105
1772797397130256100,6.544256103515625,0.5544770359992981,-0.46412238478660583,0.00046871634549461305
1772797397140283400,6.554283447265625,0.5819728374481201,-0.4607961177825928,0.01631132885813713
1772797397150309400,6.564309326171875,0.6346110701560974,-0.392527312040329,0.04993773251771927
1772797397160335400,6.57433544921875,0.7097105979919434,-0.2846381366252899,0.05649736523628235
1772797397170361300,6.584361328125,0.7882940769195557,-0.17353077232837677,0.016395485028624535
1772797397180387300,6.59438720703125,0.8272926211357117,-0.09187346696853638,-0.07919096201658249
1772797397190413300,6.604413330078125,0.8773765563964844,-0.04695259407162666,-0.2167442888021469
1772797397200439300,6.614439208984375,0.8884862065315247,-0.05455485358834267,-0.34905919432640076
1772797397210465300,6.62446533203125,0.8915877342224121,-0.12409185618162155,-0.45835158228874207
1772797397220491300,6.6344912109375,0.8898462653160095,-0.17827439308166504,-0.5031784772872925
1772797397230518300,6.644518310546875,0.8904995322227478,-0.21889320015907288,-0.502406656742096
1772797397240544300,6.654544189453125,0.8708299398422241,-0.29005125164985657,-0.41991445422172546
1772797397250570200,6.6645703125,0.8363545536994934,-0.3534393012523651,-0.27117452025413513
1772797397260596200,6.67459619140625,0.7862921953201294,-0.3421935737133026,-0.1291065812110901
1772797397270622200,6.684622314453125,0.699208676815033,-0.2567364573478699,-0.08474631607532501
1772797397280648200,6.694648193359375,0.5802258253097534,-0.08526669442653656,-0.20326204597949982
1772797397290674200,6.704674072265625,0.4740738272666931,0.1732942909002304,-0.4106042981147766
1772797397300700200,6.7147001953125,0.3223034739494324,0.3618905544281006,-0.4745793044567108
1772797397310727400,6.7247275390625,0.11722968518733978,0.35018491744995117,-0.3237546384334564
1772797397320753400,6.73475341796875,-0.05399665609002113,0.23141804337501526,-0.12274190038442612
1772797397330779400,6.744779296875,-0.16563503444194794,0.034866902977228165,0.05049460008740425
1772797397340805400,6.754805419921875,-0.1935311108827591,-0.17077547311782837,0.19991151988506317
1772797397350831400,6.764831298828125,-0.15906821191310883,-0.35925376415252686,0.33316969871520996
1772797397360857300,6.774857421875,-0.09988877922296524,-0.4220590889453888,0.49809926748275757
1772797397370883300,6.78488330078125,-0.06367778033018112,-0.40751877427101135,0.6799108982086182
1772797397380909300,6.794909423828125,-0.05596446618437767,-0.40021345019340515,0.8453352451324463
1772797397390935300,6.804935302734375,-0.08283549547195435,-0.36402562260627747,0.924857497215271
1772797397400961300,6.814961181640625,-0.12836569547653198,-0.2868781089782715,0.8084448575973511
1772797397410988300,6.82498828125,-0.2214927077293396,-0.277692586183548,0.5209686160087585
1772797397421014300,6.83501416015625,-0.27807876467704773,-0.29741278290748596,0.2340087741613388
1772797397431040300,6.845040283203125,-0.2577545642852783,-0.3365767002105713,0.05306880921125412
1772797397441066200,6.855066162109375,-0.21284009516239166,-0.30704808235168457,0.013449495658278465
1772797397451092200,6.86509228515625,-0.11412736773490906,-0.2476034015417099,0.09365858137607574
1772797397461118200,6.8751181640625,0.04351818189024925,-0.18263106048107147,0.2781999409198761
1772797397471144200,6.885144287109375,0.22804808616638184,-0.06690579652786255,0.5087080001831055
1772797397481170200,6.895170166015625,0.39367273449897766,0.01763864792883396,0.7748568058013916
1772797397491196200,6.905196044921875,0.5230776071548462,-0.0751405581831932,1.0699678659439087
1772797397501223400,6.915223388671875,0.6381855607032776,-0.21317246556282043,1.2245222330093384
1772797397511249400,6.92524951171875,0.7288193106651306,-0.18692834675312042,1.0136460065841675
1772797397521275400,6.935275390625,0.7168675661087036,-0.13983432948589325,0.7578070163726807
1772797397531301400,6.94530126953125,0.6378576755523682,-0.18882663547992706,0.5923674702644348
1772797397541327400,6.955327392578125,0.5400757193565369,-0.27967265248298645,0.5196136236190796
1772797397551353300,6.965353271484375,0.44518810510635376,-0.3110806345939636,0.45822829008102417
1772797397561379000,6.975379150390625,0.3533801734447479,-0.3130471408367157,0.3034331202507019
1772797397571405000,6.985405029296875,0.26033836603164673,-0.24914458394050598,0.05011243373155594
1772797397581431000,6.99543115234375,0.1568383425474167,-0.15651904046535492,-0.20888663828372955
1772797397591458300,7.005458251953125,0.04968499764800072,-0.11230576783418655,-0.33448609709739685
1772797397601484300,7.015484375,-0.020009927451610565,-0.11685338616371155,-0.25659504532814026
1772797397611510300,7.02551025390625,-0.033181656152009964,-0.145774245262146,0.005801696330308914
1772797397621536300,7.035536376953125,-0.009571400471031666,-0.13463930785655975,0.3335665166378021
1772797397631562200,7.045562255859375,0.05356975272297859,-0.08748990297317505,0.5729737877845764
1772797397641588200,7.055588134765625,0.13967613875865936,-0.04495575651526451,0.6578274369239807
1772797397651614200,7.0656142578125,0.22976794838905334,0.0032716933637857437,0.5994994044303894
1772797397661640200,7.07564013671875,0.2875646650791168,0.10495065152645111,0.46023550629615784
1772797397671666200,7.085666259765625,0.3161736726760864,0.1701544225215912,0.38678446412086487
1772797397681692400,7.0956923828125,0.35642683506011963,0.20862218737602234,0.3668842613697052
1772797397691719200,7.10571923828125,0.3919216990470886,0.2227609008550644,0.3838416635990143
1772797397701745200,7.1157451171875,0.3869762122631073,0.1673985868692398,0.39090782403945923
1772797397711771100,7.125771240234375,0.36998817324638367,0.09743068367242813,0.3262084722518921
1772797397721797000,7.135797119140625,0.3679644465446472,0.09954709559679031,0.18579517304897308
1772797397731823000,7.145822998046875,0.36491936445236206,0.12263856828212738,0.02034015953540802
1772797397741849000,7.15584912109375,0.3619347810745239,0.13351625204086304,-0.08988434821367264
1772797397751875000,7.165875,0.349045068025589,0.14425331354141235,-0.1413070559501648
1772797397761901300,7.1759013671875,0.34020206332206726,0.14003966748714447,-0.1562844067811966
1772797397771927300,7.18592724609375,0.32738158106803894,0.10905884206295013,-0.13825960457324982
1772797397781954300,7.195954345703125,0.33501794934272766,0.09109395742416382,-0.08660413324832916
1772797397791980300,7.205980224609375,0.3548180162906647,0.08066768199205399,-0.027726968750357628
1772797397802006300,7.21600634765625,0.39055657386779785,0.04231097176671028,0.005109540652483702
1772797397812032300,7.2260322265625,0.41820257902145386,0.004378769546747208,0.0024375913199037313
1772797397822058200,7.236058349609375,0.4282938241958618,-0.0189577117562294,-0.018636003136634827
1772797397832084200,7.246084228515625,0.4436171352863312,-0.022537000477313995,-0.02876986190676689
1772797397842110200,7.256110107421875,0.45596325397491455,-0.029699305072426796,-0.027669178321957588
1772797397852136400,7.266136474609375,0.4535834789276123,-0.01489372830837965,-0.015895608812570572
1772797397862162400,7.276162353515625,0.45052215456962585,0.004282895475625992,-0.007808388210833073
1772797397872189200,7.286189208984375,0.4802728593349457,0.011960522271692753,0.00133850472047925
1772797397882215200,7.296215087890625,0.4857374131679535,0.009138104505836964,0.0025774072855710983
1772797397892241200,7.3062412109375,0.4430226981639862,0.008558334782719612,0.000028495824153651483
1772797397902267100,7.31626708984375,0.3609158396720886,-0.001888980157673359,0.008291219361126423
1772797397912293000,7.326293212890625,0.28813326358795166,-0.04003450274467468,0.028117122128605843
1772797397922319000,7.336319091796875,0.24322889745235443,-0.03653404116630554,0.04192241653800011
1772797397932345000,7.346344970703125,0.18940775096416473,0.000012250540748937055,0.02599831111729145
1772797397942371300,7.356371337890625,0.12604181468486786,0.07225555181503296,-0.041844118386507034
1772797397952397300,7.366397216796875,0.05812082812190056,0.1716388612985611,-0.07391976565122604
1772797397962423300,7.37642333984375,0.08491116017103195,0.21629048883914948,0.022527413442730904
1772797397972450300,7.3864501953125,0.16982392966747284,0.20680910348892212,0.1296195089817047
1772797397982476300,7.396476318359375,0.2468036562204361,0.1676742136478424,0.13682974874973297
1772797397992502300,7.406502197265625,0.2831059992313385,0.13313861191272736,0.06462373584508896
1772797398002528300,7.4165283203125,0.27315881848335266,0.09869541972875595,-0.025245968252420425
1772797398012554200,7.42655419921875,0.14837323129177094,0.0638764500617981,-0.08109325170516968
1772797398022580200,7.436580322265625,0.0769384577870369,0.08161470293998718,-0.04703861474990845
1772797398032606500,7.4466064453125,0.07125420868396759,0.21358472108840942,0.012738165445625782
1772797398042632400,7.456632568359375,0.048461008816957474,0.46145763993263245,0.06186576560139656
1772797398052658400,7.466658447265625,0.10337432473897934,0.707349419593811,0.027088874951004982
1772797398062684400,7.476684326171875,0.25425413250923157,0.813978374004364,-0.07995261996984482
1772797398072711200,7.486711181640625,0.35972967743873596,0.81263667345047,-0.12899526953697205
1772797398082737200,7.496737060546875,0.4466603100299835,0.6499833464622498,-0.0679207295179367
1772797398092763100,7.50676318359375,0.5036125183105469,0.4416908621788025,0.03808240592479706
1772797398102789000,7.5167890625,0.5351384878158569,0.2614625096321106,0.1741052269935608
1772797398112815000,7.526815185546875,0.5830588936805725,0.196804940700531,0.26287609338760376
1772797398122841300,7.53684130859375,0.7245931029319763,0.2091612070798874,0.4126285910606384
1772797398132867300,7.546867431640625,0.8537132740020752,0.15203693509101868,0.605355441570282
1772797398142893300,7.556893310546875,0.9825868606567383,0.118735171854496,0.8050919771194458
1772797398152919300,7.566919189453125,1.0689566135406494,0.04879763349890709,0.9535788893699646
1772797398162946300,7.5769462890625,1.1329315900802612,-0.03695056214928627,1.029370903968811
1772797398172972300,7.58697216796875,1.1426372528076172,-0.09496965259313583,1.0256563425064087
1772797398182998300,7.596998291015625,1.1380563974380493,-0.09054215252399445,0.9141929149627686
1772797398193024300,7.607024169921875,1.1339846849441528,-0.0378565676510334,0.7059246301651001
1772797398203050500,7.617050537109375,1.1153336763381958,0.025498701259493828,0.46427100896835327
1772797398213076500,7.627076416015625,1.0925333499908447,0.09438695758581161,0.16910913586616516
1772797398223102200,7.637102294921875,1.0947836637496948,0.18466438353061676,-0.15818004310131073
1772797398233128200,7.647128173828125,1.0784924030303955,0.22447705268859863,-0.4653559625148773
1772797398243154200,7.657154296875,1.0276483297348022,0.08674581348896027,-0.6237922310829163
1772797398253180200,7.66718017578125,1.005324363708496,-0.18675044178962708,-0.6704297661781311
1772797398263207200,7.677207275390625,0.936659574508667,-0.5352535843849182,-0.5956649780273438
1772797398273233200,7.687233154296875,0.8127879500389099,-0.7850660681724548,-0.41522330045700073
1772797398283259100,7.697259033203125,0.686273992061615,-0.7772643566131592,-0.20969809591770172
1772797398293285400,7.707285400390625,0.6433374285697937,-0.548945963382721,-0.07548809796571732
1772797398303311400,7.717311279296875,0.6431168913841248,-0.20626741647720337,-0.09033895283937454
1772797398313337300,7.72733740234375,0.6282958984375,0.17273874580860138,-0.24250930547714233
1772797398323363300,7.73736328125,0.6096705198287964,0.36207884550094604,-0.28233954310417175
1772797398333389300,7.747389404296875,0.6350515484809875,0.3303203880786896,-0.2053086757659912
1772797398343415300,7.757415283203125,0.6869844794273376,0.27186319231987,-0.1421334445476532
1772797398353441300,7.767441162109375,0.721705973148346,0.1765366792678833,-0.12179487943649292
1772797398363468300,7.77746826171875,0.7461820244789124,0.022518891841173172,-0.19074784219264984
1772797398373494300,7.787494384765625,0.7557371854782104,-0.10490963608026505,-0.3181425631046295
1772797398383520300,7.797520263671875,0.7415758371353149,-0.19292578101158142,-0.43018385767936707
1772797398393546200,7.807546142578125,0.7148686051368713,-0.19115903973579407,-0.4884466528892517
1772797398403572200,7.817572265625,0.6587978601455688,-0.12856383621692657,-0.5188221335411072
1772797398413598500,7.827598388671875,0.5504791140556335,-0.061419419944286346,-0.5564395189285278
1772797398423624400,7.83762451171875,0.43582046031951904,-0.013710219413042068,-0.6050816178321838
1772797398433650400,7.847650390625,0.2989707291126251,0.026762105524539948,-0.6483513712882996
1772797398443676400,7.857676513671875,0.15310485661029816,0.07918616384267807,-0.6808648109436035
1772797398453702400,7.867702392578125,0.059953346848487854,0.11202480643987656,-0.66745924949646
1772797398463729700,7.877729736328125,0.010245180688798428,0.08287783712148666,-0.6025636196136475
1772797398473755600,7.887755615234375,0.033364348113536835,0.02941754274070263,-0.4804355800151825
1772797398483781600,7.89778173828125,0.15030907094478607,0.0009598032338544726,-0.33067911863327026
1772797398493807600,7.9078076171875,0.25013020634651184,0.00881905760616064,-0.1932903677225113
1772797398503833600,7.91783349609375,0.34157729148864746,0.05760230869054794,-0.04935183748602867
1772797398513859600,7.927859619140625,0.43252480030059814,0.10086829215288162,0.07967299222946167
1772797398523885600,7.937885498046875,0.4738836884498596,0.1081930473446846,0.18442922830581665
1772797398533911600,7.94791162109375,0.5910241603851318,0.13879862427711487,0.2810913324356079
1772797398543937500,7.9579375,0.723494291305542,0.1211160346865654,0.33148765563964844
1772797398553963800,7.9679638671875,0.8388592600822449,0.041551172733306885,0.3231423795223236
1772797398563990500,7.977990478515625,0.9271928668022156,-0.04368383064866066,0.2647096812725067
1772797398574016500,7.9880166015625,0.9837192296981812,-0.11737482994794846,0.13745878636837006
1772797398584042500,7.99804248046875,1.0129849910736084,-0.13758821785449982,0.016639163717627525
1772797398594068500,8.008068359375,1.0098896026611328,-0.14507649838924408,-0.04868897423148155
1772797398604094500,8.018094482421875,1.0160857439041138,-0.1554521769285202,-0.04770200699567795
1772797398614120400,8.028120361328124,1.0303280353546143,-0.1403840035200119,-0.021449897438287735
1772797398624146400,8.038146484375,1.0188841819763184,-0.08537561446428299,0.014944860711693764
1772797398634172400,8.04817236328125,0.9750977754592896,-0.015742210671305656,0.026742931455373764
1772797398644198700,8.05819873046875,0.8941049575805664,0.03710555657744408,0.019585685804486275
1772797398654224600,8.068224609375,0.7575989961624146,-0.0020210728980600834,-0.00866273045539856
1772797398664250600,8.078250732421875,0.6115083694458008,-0.060433514416217804,-0.03573242947459221
1772797398674277600,8.088277587890625,0.4901483952999115,-0.09127212315797806,-0.042698461562395096
1772797398684303600,8.0983037109375,0.41286665201187134,-0.1543344408273697,0.002606169320642948
1772797398694329600,8.10832958984375,0.373023122549057,-0.22088603675365448,0.0812663584947586
1772797398704355600,8.11835546875,0.38408535718917847,-0.16469627618789673,0.0815153643488884
1772797398714381600,8.128381591796876,0.4027879238128662,-0.047987766563892365,-0.06493958830833435
1772797398724407600,8.138407470703125,0.41814371943473816,-0.09078609198331833,-0.2909354269504547
1772797398734433500,8.14843359375,0.4422719478607178,-0.24698209762573242,-0.3618317246437073
1772797398744459500,8.15845947265625,0.49423742294311523,-0.39066097140312195,-0.2562893033027649
1772797398754485500,8.168485595703125,0.5330132842063904,-0.48265746235847473,-0.11432924121618271
1772797398764511500,8.178511474609374,0.5887788534164429,-0.4566461145877838,0.12185613065958023
1772797398774538500,8.18853857421875,0.6708223223686218,-0.3164826035499573,0.5160346031188965
1772797398784564500,8.198564453125,0.8235764503479004,-0.1987820714712143,1.0697550773620605
1772797398794590500,8.208590576171876,1.0746145248413086,-0.08688882738351822,1.5066919326782227
1772797398804616400,8.218616455078125,1.2591763734817505,-0.01733291707932949,1.6565098762512207
1772797398814642700,8.228642578125,1.4033037424087524,0.011238805949687958,1.5318379402160645
1772797398824668700,8.238668701171875,1.492628812789917,0.0978996679186821,1.1897757053375244
1772797398834694700,8.248694580078125,1.5003641843795776,0.12635740637779236,0.9036790132522583
1772797398844720600,8.258720703125,1.4579964876174927,-0.15031573176383972,0.9968352913856506
1772797398854746600,8.26874658203125,1.4231873750686646,-0.6311755776405334,1.3337690830230713
1772797398864772600,8.278772705078126,1.4185277223587036,-0.8204355239868164,1.3581479787826538
1772797398874799600,8.288799560546876,1.3956884145736694,-0.7395665049552917,1.0720897912979126
1772797398884825300,8.298825439453125,1.3457008600234985,-0.6115667223930359,0.5939549803733826
1772797398894851300,8.308851318359375,1.2410434484481812,-0.4537256956100464,0.11109962314367294
1772797398904877600,8.318877685546875,1.1069761514663696,-0.2642369866371155,-0.24824203550815582
1772797398914903600,8.328903564453125,0.9719738960266113,-0.14207537472248077,-0.4498606324195862
1772797398924929500,8.338929443359374,0.8506733179092407,-0.1329953372478485,-0.48228809237480164
1772797398934955500,8.34895556640625,0.7471581101417542,-0.20914337038993835,-0.340000182390213
1772797398944981500,8.3589814453125,0.6982898712158203,-0.25851064920425415,-0.10304941982030869
1772797398955007500,8.369007568359375,0.7369973063468933,-0.21134047210216522,0.13635757565498352
1772797398965033500,8.379033447265625,0.8295011520385742,-0.05464939773082733,0.3192243278026581
1772797398975060500,8.389060546875,0.9508896470069885,0.16330184042453766,0.4385789632797241
1772797398985086500,8.39908642578125,1.0800063610076904,0.33598625659942627,0.5315967798233032
1772797398995112700,8.40911279296875,1.1719248294830322,0.4444597363471985,0.6431001424789429
1772797399005138700,8.419138671875,1.2316970825195312,0.4406501054763794,0.6925020217895508
1772797399015164700,8.42916455078125,1.259421706199646,0.37337225675582886,0.7010648846626282
1772797399025190700,8.439190673828126,1.275495171546936,0.2483099400997162,0.6902005076408386
1772797399035216600,8.449216552734375,1.2653056383132935,0.07118682563304901,0.6558281779289246
1772797399045242600,8.45924267578125,1.221247911453247,-0.09868210554122925,0.5722931027412415
1772797399055268600,8.4692685546875,1.1974296569824219,-0.2565809190273285,0.5308516025543213
1772797399065294600,8.479294677734375,1.2404931783676147,-0.2791173756122589,0.48233017325401306
1772797399075320600,8.489320556640624,1.2964321374893188,-0.2412744015455246,0.361068993806839
1772797399085347600,8.49934765625,1.3415279388427734,-0.21613788604736328,0.21026642620563507
1772797399095373600,8.50937353515625,1.3460439443588257,-0.13849955797195435,0.053705837577581406
1772797399105399600,8.519399658203126,1.3275796175003052,0.012057728134095669,-0.11408688873052597
1772797399115425500,8.529425537109375,1.3107415437698364,0.13440734148025513,-0.2067965865135193
1772797399125451500,8.539451416015625,1.282065749168396,0.18804126977920532,-0.1933889091014862
1772797399135477500,8.5494775390625,1.253299593925476,0.17732231318950653,-0.12395656853914261
1772797399145503500,8.55950341796875,1.2439467906951904,0.09866319596767426,-0.044923000037670135
1772797399155529500,8.569529541015624,1.233351469039917,-0.008836368098855019,0.000892691605258733
1772797399165555500,8.579555419921874,1.2212300300598145,-0.08084611594676971,0.003653324441984296
1772797399175581400,8.58958154296875,1.1881173849105835,-0.0697638988494873,-0.0301432553678751
1772797399185607400,8.599607421875,1.1661601066589355,-0.01031628716737032,-0.06602775305509567
1772797399195634700,8.609634765625,1.155366063117981,0.013040700927376747,-0.11822597682476044
1772797399205660700,8.61966064453125,1.1512951850891113,-0.006869357544928789,-0.18288859724998474
1772797399215686700,8.629686767578125,1.1636109352111816,-0.06993754208087921,-0.22780492901802063
1772797399225712600,8.639712646484375,1.1686699390411377,-0.11625710129737854,-0.23026995360851288
1772797399235738600,8.649738525390624,1.169767141342163,-0.1389123499393463,-0.20058342814445496
1772797399245764600,8.6597646484375,1.202948808670044,-0.1621026247739792,-0.19346719980239868
1772797399255790600,8.66979052734375,1.2330087423324585,-0.1778208613395691,-0.2223433256149292
1772797399265816600,8.679816650390626,1.2211778163909912,-0.21389897167682648,-0.2124672532081604
1772797399275842600,8.689842529296875,1.172012209892273,-0.17889384925365448,-0.13136841356754303
1772797399285868500,8.69986865234375,1.1105823516845703,-0.10606758296489716,-0.05721801519393921
1772797399295894500,8.70989453125,1.0561164617538452,-0.0212448351085186,0.01780163310468197
1772797399305921500,8.719921630859375,1.0260515213012695,0.04658055305480957,0.06703443080186844
1772797399315947500,8.729947509765625,1.0552877187728882,0.09258905798196793,0.1113709956407547
1772797399325973500,8.739973388671874,1.1080619096755981,0.13377749919891357,0.14561206102371216
1772797399335999500,8.74999951171875,1.1373956203460693,0.11396811157464981,0.15226677060127258
1772797399346025500,8.760025390625,1.1417125463485718,0.05365896597504616,0.15882107615470886
1772797399356051500,8.770051513671875,1.1512401103973389,0.0009177253232337534,0.17433398962020874
1772797399366077700,8.78007763671875,1.2036864757537842,0.014677746221423149,0.13066266477108002
1772797399376103700,8.790103759765625,1.214087724685669,0.09480080753564835,0.04165956377983093
1772797399386129700,8.800129638671875,1.1650389432907104,0.32946738600730896,-0.04300898686051369
1772797399396155600,8.81015576171875,1.1144440174102783,0.6112279295921326,-0.10293011367321014
1772797399406182400,8.820182373046874,1.0389702320098877,0.9568819999694824,0.0959547609090805
1772797399416208100,8.8302080078125,0.8861873745918274,0.5441511869430542,0.2686988413333893
1772797399426234000,8.840234130859375,0.7934169173240662,0.08295586705207825,0.46313703060150146
1772797399436260000,8.850260009765625,0.8461432456970215,-0.054614510387182236,0.6565824151039124
1772797399446286000,8.8602861328125,0.9603124260902405,-0.054851531982421875,0.7339890003204346
1772797399456312000,8.87031201171875,1.021160364151001,-0.031127559021115303,0.6994502544403076
1772797399466337800,8.880337890625,1.1011481285095215,0.06816361099481583,0.6078004837036133
1772797399476363800,8.89036376953125,1.276862382888794,0.13594025373458862,0.5071939826011658
1772797399486389800,8.9003896484375,1.384660005569458,0.26589933037757874,0.374115526676178
1772797399496415700,8.910415771484375,1.4901065826416016,0.44973865151405334,0.20567433536052704
1772797399506441700,8.920441650390625,1.5701366662979126,0.5836498737335205,0.057378869503736496
1772797399516469000,8.930468994140625,1.609038233757019,0.6910756230354309,0.01341647282242775
