time,seconds_elapsed,z,y,x
1772790203338871000,0.08387109375,0.08844926782548428,-0.11136515624970197,0.30158344792928543
1772790203348937000,0.09393701171875,0.13820727820694445,-0.18985884725004434,0.30661132256127893
1772790203359001900,0.104001953125,0.2383312017351389,-0.27481501226276156,0.30962190255410965
1772790203369068000,0.114068115234375,0.356033452051878,-0.33414836798012254,0.30646906454637646
1772790203379134000,0.124134033203125,0.4507183993965387,-0.3117392600342631,0.2435362595649436
1772790203389199000,0.13419921875,0.5270230559200049,-0.28435791663378474,0.14125563292689622
1772790203399265000,0.14426513671875,0.5711760859012603,-0.32143764722794294,0.09227806886602193
1772790203409331200,0.154331298828125,0.5206862541139126,-0.36710225081592796,0.1517229586664587
1772790203419395800,0.164395751953125,0.38281624503731726,-0.451691336081922,0.22294231128226966
1772790203429462000,0.1744619140625,0.21670155372917652,-0.5161939111307263,0.22252529144659636
1772790203439528000,0.18452783203125,0.1802256342470646,-0.5128396322667599,0.2232907776600681
1772790203449593000,0.194593017578125,0.10838204878568648,-0.5066656198069452,0.21847714856695383
1772790203459659000,0.204658935546875,0.04430559019446373,-0.520340217155218,0.18354299690043552
1772790203469725000,0.214724853515625,0.08694295491576194,-0.5710428149104118,0.2638885993777774
1772790203479790000,0.2247900390625,0.010776830080151557,-0.5220408835932612,0.29200017501525577
1772790203489856000,0.23485595703125,0.09500760342776775,-0.4709790971368551,0.2782530421537347
1772790203499922000,0.244921875,0.212636788508296,-0.5043874457418919,0.31688765577338635
1772790203509986800,0.25498681640625,0.07973930714726447,-0.5438946957439184,0.4151243407828733
1772790203520053000,0.265052978515625,-0.09671031569242478,-0.602464081351459,0.5283556196980178
1772790203530119000,0.275118896484375,-0.21375965505838393,-0.6711135469466447,0.6098133481357246
1772790203540184000,0.28518408203125,-0.292654912596941,-0.6792395702570676,0.6447009024478495
1772790203550250000,0.29525,-0.3457259930491447,-0.6618444910809397,0.6408868971176445
1772790203560316200,0.305316162109375,-0.4774374794960022,-0.6919254488289356,0.6313583865981549
1772790203570381800,0.3153818359375,-0.656685208621621,-0.7086553420946001,0.6469890133850276
1772790203580447000,0.325447021484375,-0.7573983302146196,-0.7747752892121672,0.7888247112222015
1772790203590513000,0.335512939453125,-0.8497714934855699,-0.8538672383666038,0.9010666503064334
1772790203600579000,0.3455791015625,-0.9821183552265167,-0.9002800299733876,0.9513798834178596
1772790203610644000,0.35564404296875,-1.2941729648202658,-0.9682914899259805,0.943155514299497
1772790203620710000,0.3657099609375,-1.4502034844875336,-0.9985033805772662,1.0339872933473437
1772790203630775800,0.37577587890625,-1.5821861890912055,-0.915975319494307,0.9594734657634049
1772790203640841000,0.385841064453125,-1.6040817945569752,-0.7644337818093597,0.8981326426811516
1772790203650907100,0.3959072265625,-1.672926782724261,-0.5813171022959053,0.764906952279061
1772790203660973000,0.40597314453125,-1.7064064429998398,-0.36055911278277636,0.658784372857958
1772790203671038000,0.416037841796875,-1.729397442486882,-0.09622355508878827,0.5430770592181011
1772790203681104000,0.426103759765625,-1.8373668188184498,0.12785729523673653,0.3210521550416946
1772790203691170000,0.436170166015625,-1.8303823667585848,0.2711749021947384,0.27152850140538065
1772790203701235000,0.44623486328125,-1.7776000401198864,0.4672776122704148,0.14745024978332222
1772790203711301000,0.456301025390625,-1.7492285166382788,0.6912072175569832,0.023508520555123685
1772790203721366800,0.46636669921875,-1.6028297486692666,0.8913226704053581,-0.12536452857293187
1772790203731432000,0.476431884765625,-1.3057172721415757,1.0982093709543346,-0.25808548432327805
1772790203741498000,0.486498046875,-0.9721686236202717,1.2846632320664821,-0.38521388076357543
1772790203751564000,0.49656396484375,-0.6887526640117168,1.3689435436442494,-0.5213032535010949
1772790203761630000,0.5066298828125,-0.602872369891405,1.4284522559285162,-0.4738811021886766
1772790203771694800,0.51669482421875,-0.6440747333735227,1.4241953291364013,-0.36972945751436054
1772790203781761000,0.526760986328125,-0.63180795699656,1.3887563514865935,-0.34062976588867605
1772790203791827000,0.536826904296875,-0.5425158086061478,1.3145846153385936,-0.3715517775706947
1772790203801892000,0.54689208984375,-0.37698330110013484,1.2674592915482819,-0.4310043757535517
1772790203811958000,0.5569580078125,-0.098321258020401,1.2700281191229819,-0.5142074134886264
1772790203822024000,0.56702392578125,0.30073358963429925,1.2409142528414725,-0.5420038404960185
1772790203832088800,0.5770888671875,0.4331804046183824,1.1457071813188493,-0.5531586370430887
1772790203842155000,0.587155029296875,0.32438392981290814,1.0082041058585047,-0.5478994013406336
1772790203852221000,0.597220947265625,0.1859890200793743,0.8520625270321964,-0.5668162832565605
1772790203862286000,0.6072861328125,0.08270283312797545,0.7917857529848814,-0.6596580138873308
1772790203872352000,0.61735205078125,-0.02305880402624607,0.8127864554375409,-0.7831050184011459
1772790203882418000,0.62741796875,-0.050611996862292286,0.8006490045286715,-0.7622074109967798
1772790203892483000,0.637483154296875,-0.11363397796452045,0.800729960810393,-0.7346576522268354
1772790203902549000,0.647549072265625,-0.21243805106580257,0.9221187906853854,-0.8404056992471217
1772790203912615200,0.657615234375,-0.048176878669857974,1.0148818300567566,-0.776421083657816
1772790203922679800,0.6676796875,0.11625088246464729,1.0350196320697664,-0.7835418023832141
1772790203932746000,0.67774609375,0.2125496947467327,1.084583288922906,-0.8420918257031589
1772790203942812000,0.68781201171875,0.4052887736082077,1.0864061204358935,-0.794878092977032
1772790203952877000,0.697876953125,0.5505003776192665,0.9959645097494125,-0.7199388795878737
1772790203962942500,0.7079423828125,0.6228285317271948,0.890473213969171,-0.6305846257466823
1772790203973008400,0.71800830078125,0.7616361139148473,0.7419967629432678,-0.5420134851071984
1772790203983074300,0.72807421875,0.8947750028163194,0.5771995839744806,-0.45398010460622606
1772790203993139500,0.738139404296875,0.9627572366744279,0.41131256394237276,-0.4004094771340489
1772790204003205600,0.74820556640625,1.0599737483233214,0.24270313320904968,-0.3433003002721816
1772790204013271300,0.758271240234375,1.2344243063002824,0.1083092758104205,-0.23750008467324077
1772790204023336400,0.76833642578125,1.2378951972812413,0.06117284610420465,-0.15820727918446062
1772790204033402400,0.77840234375,1.2136743637382983,-0.025112813946604726,-0.11730353332273662
1772790204043468500,0.788468505859375,1.080823059606552,-0.14165084278956055,-0.06426460157446563
1772790204053533400,0.798533447265625,0.8961421995162964,-0.2037491331756115,-0.05029328630194067
1772790204063599400,0.808599365234375,0.8319576043754816,-0.2480254972755909,-0.08893902410380541
1772790204073665300,0.818665283203125,0.8775526498585939,-0.24373963664993642,-0.12432203378267585
1772790204083730400,0.82873046875,0.8644798177957534,-0.27063480396866796,-0.13213329205550253
1772790204093796600,0.838796630859375,0.7569336353123187,-0.35863925063610075,-0.10895298054143786
1772790204103862500,0.848862548828125,0.6449018318474292,-0.4427759159594774,-0.133964745266363
1772790204113927400,0.858927490234375,0.5731868412017822,-0.5388793517999351,-0.1311487379975617
1772790204123993300,0.868993408203125,0.4179921878367662,-0.6200919463701546,-0.07883570937104523
1772790204134059500,0.8790595703125,0.31819676561057564,-0.6999218544103205,-0.05448540422953665
1772790204144124400,0.88912451171875,0.36371348516047,-0.7815946138381957,-0.06023607671074569
1772790204154190600,0.899190673828125,0.4428665168523788,-0.8074249284043907,-0.028635800440981983
1772790204164256300,0.90925634765625,0.42165363295376296,-0.8680097454875707,0.013857187373563647
1772790204174322400,0.919322509765625,0.3948223246514797,-0.96398897042647,0.07810768735744059
1772790204184387300,0.92938720703125,0.373769599750638,-1.0258794632807373,0.13804916503578424
1772790204194453500,0.93945361328125,0.33707214647233485,-1.026989031957835,0.20568302384763956
1772790204204519400,0.94951953125,0.29693945804834365,-1.038669240618497,0.30338476173020895
1772790204214584300,0.959584228515625,0.26430034025013444,-1.0829005965329705,0.3378204806216061
1772790204224650500,0.969650390625,0.18865034824311733,-1.046197444166243,0.40659802957586944
1772790204234716400,0.97971630859375,0.08548807993233204,-1.0340975487887858,0.44751383120156824
1772790204244781600,0.989781494140625,0.04579144483804703,-1.074847784589231,0.5402010288577527
1772790204254847500,0.999847412109375,-0.09638532152175902,-1.056244498667121,0.6802944130722433
1772790204264913700,1.00991357421875,-0.2948012769758701,-1.0305138450831175,0.7859757515318692
1772790204274978300,1.019978271484375,-0.5193710798621177,-0.9646677464708685,0.8209720999807119
1772790204285044500,1.03004443359375,-0.8270926286876201,-0.9102166098371147,0.89129563626796
1772790204295110400,1.0401103515625,-1.2123778941869734,-0.8788739615902305,0.968027943618968
1772790204305175600,1.050175537109375,-1.351847739675641,-0.7952103206060827,0.9306344709005206
1772790204315241200,1.0602412109375,-1.2916349707752466,-0.6920351928137243,0.835346516161412
1772790204325307400,1.070307373046875,-1.3383628196805715,-0.5253332031369209,0.7420001970093697
1772790204335372500,1.08037255859375,-1.5502069965064524,-0.42260041228458284,0.707837011449039
1772790204345438500,1.0904384765625,-1.8850871858924627,-0.4375663646176457,0.673048898923397
1772790204355504600,1.100504638671875,-2.1342367187619207,-0.41378319183960555,0.6495989036224782
1772790204365570600,1.110570556640625,-2.3036779241442678,-0.2902197944045067,0.5629952636636794
1772790204375635500,1.120635498046875,-2.3317174391925333,-0.11259119091331958,0.4097201071191579
1772790204385701400,1.130701416015625,-2.435419805729389,0.0748126644000411,0.1167660654451698
1772790204395767600,1.140767578125,-2.325931257006526,0.25493746862113476,-0.07000891738012432
1772790204405832400,1.15083251953125,-2.148371042576432,0.41565059314668173,-0.2210113797523081
1772790204415898400,1.1608984375,-1.8242641761392353,0.5993525252021848,-0.3967755045458674
1772790204425964300,1.17096435546875,-1.304297468471527,0.8063495542578398,-0.5797093017730861
1772790204436029400,1.181029541015625,-0.763082221069932,0.9538723578207194,-0.7595155415643006
1772790204446095400,1.191095458984375,-0.2413584406018257,1.0340423114702104,-0.7917759622432291
1772790204456161500,1.20116162109375,0.12955167806446552,1.047226348822564,-0.7154280510999262
1772790204466226400,1.211226318359375,0.27168109815120695,1.0340640849106013,-0.6159167795773596
1772790204476292400,1.221292236328125,0.06624152767062187,0.9561116611801087,-0.5811969830475747
1772790204486358500,1.231358642578125,-0.03190788091421127,0.8797593661226332,-0.5594562028173357
1772790204496423400,1.24142333984375,0.06370645623505115,0.8927192393302917,-0.509231890098378
1772790204506489600,1.251489501953125,0.17558160783350465,0.9555085807204245,-0.6106039139915257
1772790204516555500,1.261555419921875,0.33576866265833377,1.034121806447208,-0.7377217159725725
1772790204526620400,1.271620361328125,0.6316752705276012,1.1517387165680526,-0.8867553624898195
1772790204536686300,1.281686279296875,0.8445417761385441,1.2014905894696712,-0.9550530920378864
1772790204546752500,1.29175244140625,0.7553267846375703,1.21271077940315,-1.0278875882327556
1772790204556817400,1.3018173828125,0.7728408140182494,1.2193544552013278,-1.0338712657522409
1772790204566883300,1.31188330078125,0.7622592142492532,1.157909514157474,-1.1050659588508307
1772790204576949200,1.32194921875,0.7804962972074747,1.1632386002257467,-1.1116733212266117
1772790204587015400,1.332015380859375,0.7992313928157091,1.0804895898684859,-1.0987582370087503
1772790204597080600,1.34208056640625,0.7746002249062061,0.9671329675406217,-1.0788787206057457
1772790204607146500,1.352146484375,0.9570546411186456,0.8618880477368831,-0.9103517074588686
1772790204617212400,1.36221240234375,0.8791127387821673,0.6859507583335042,-0.8267742103882133
1772790204627277300,1.37227734375,0.7861381024867296,0.5439870502024888,-0.7361805509451776
1772790204637343500,1.382343505859375,1.0623439845860003,0.44644671342670916,-0.5947115675285458
1772790204647409400,1.392409423828125,1.1615735896229744,0.29627485665977,-0.4262748630136251
1772790204657474600,1.402474609375,0.9834171628654003,0.2467550389483571,-0.3768908005110919
1772790204667540500,1.41254052734375,1.0216659372389316,0.16714067335501312,-0.27343882853873075
1772790204677606400,1.4226064453125,1.0264286215960978,0.031195348730683324,-0.21913009605035186
1772790204687671300,1.43267138671875,0.8915075254529714,-0.057277884492278094,-0.13526654857993126
1772790204697737500,1.442737548828125,0.890741801777482,-0.11855945166796446,-0.04845796063356101
1772790204707803400,1.452803466796875,0.8078858239144087,-0.28962533564269544,0.05869264666102826
1772790204717868300,1.462868408203125,0.7018740113914013,-0.36386239211186766,0.05218406848460436
1772790204727934500,1.4729345703125,0.676816142502427,-0.5191314258873463,0.10698153433799742
1772790204738000400,1.48300048828125,0.5203431397646665,-0.6548461566261947,0.17759711237438022
1772790204748065500,1.4930654296875,0.20780805317759513,-0.7470994929097592,0.24474435671307146
1772790204758131500,1.50313134765625,-0.07327332600355148,-0.8553050160847604,0.2448580462206155
1772790204768197600,1.51319775390625,-0.30403964544236656,-0.9020077305488288,0.2944683917596936
1772790204778262300,1.52326220703125,-0.548686606195569,-0.8715062093012035,0.3270372938659042
1772790204788328400,1.533328369140625,-0.7777829465955496,-0.8432451604567468,0.2344548717584461
1772790204798394400,1.543394287109375,-0.8027385241538286,-0.7708093081906437,0.16768479016907512
1772790204808460500,1.55346044921875,-0.7567787370115518,-0.6868510681740939,0.15800539993681012
1772790204818525400,1.563525390625,-0.763542824319005,-0.6239220260523259,0.1446486363660544
1772790204828591400,1.57359130859375,-0.7412795545846224,-0.6100578974813222,0.10106704959720372
1772790204838657300,1.5836572265625,-0.6624480099320411,-0.5645278800584376,0.10885960316956042
1772790204848722400,1.593722412109375,-0.5750637409895658,-0.5159009195335209,0.14249481933303176
1772790204858788600,1.60378857421875,-0.4908429045140743,-0.5245215944930911,0.1337296213362366
1772790204868854500,1.6138544921875,-0.4194996697902679,-0.5898660271935164,0.1293030370656401
1772790204878919400,1.62391943359375,-0.44676586237847804,-0.6570591565005481,0.1748184414412826
1772790204888985300,1.6339853515625,-0.45018122377991676,-0.7475479673296213,0.24445779485665262
1772790204899051500,1.644051513671875,-0.3755553141236305,-0.8280917227275669,0.29977482760474083
1772790204909116400,1.654116455078125,-0.2772866630733013,-0.8758528602033853,0.287001636075601
1772790204919182600,1.6641826171875,-0.18412322620749472,-0.8956872953556477,0.2672642315570265
1772790204929248300,1.674248291015625,-0.052912090498209,-0.8961721562631427,0.23804390922635793
1772790204939313400,1.6843134765625,0.07476327230036259,-0.8853139315098524,0.23568265998773275
1772790204949379300,1.69437939453125,0.074462243527174,-0.8892670530498027,0.22774003042019902
1772790204959445500,1.704445556640625,0.019611293920874594,-0.8936666031830012,0.2388586596753448
1772790204969511000,1.714510986328125,-0.014628829333186148,-0.8660684021614491,0.2616485105670988
1772790204979577000,1.7245771484375,-0.02084755771756172,-0.8246158633105456,0.25972594500668345
1772790204989643000,1.73464306640625,-0.0016366612911224365,-0.7743452272318303,0.26968071811422706
1772790204999708200,1.744708251953125,0.05103694427609443,-0.7014006947912276,0.2826344538420439
1772790205009774000,1.754774169921875,0.026641923210024832,-0.6456866986148059,0.3033815468598157
1772790205019840000,1.764840087890625,0.023778350472450256,-0.5588605019465088,0.28049437307342884
1772790205029906000,1.774906005859375,0.10788111352622508,-0.46471974448114634,0.27223054872751234
1772790205039971000,1.78497119140625,0.0586632013708353,-0.43693873423859475,0.30813400208391245
1772790205050037200,1.795037353515625,-0.16122925735414026,-0.4089126631937921,0.3162604637857526
1772790205060103200,1.805103271484375,-0.2929810758113861,-0.4305252139344811,0.3900971958257258
1772790205070168000,1.81516796875,-0.34446985550820824,-0.388067735824734,0.4029234327163547
1772790205080234000,1.82523388671875,-0.3231488350600004,-0.32590558642223477,0.42770694164335726
1772790205090300200,1.835300048828125,-0.44177579900622366,-0.33089579592496154,0.4060224216450006
1772790205100365000,1.845364990234375,-0.5441968935608863,-0.3368028280116617,0.43267545077092945
1772790205110431000,1.855430908203125,-0.6338947001427412,-0.45720513106733557,0.5232447064250707
1772790205120497000,1.865496826171875,-0.8772773400485515,-0.5329141597852111,0.5939362723071128
1772790205130562000,1.87556201171875,-1.252625733423233,-0.5631529384434223,0.6206573251679539
1772790205140628200,1.885628173828125,-1.695809061139822,-0.5483810473777353,0.5924315668325871
1772790205150694100,1.895694091796875,-2.053682588100433,-0.44107028108537194,0.5211327557723969
1772790205160759000,1.905759033203125,-2.134068376457691,-0.17601546920612454,0.39486565233655274
1772790205170825000,1.915824951171875,-1.9900223090946674,0.14177972986623644,0.2543633950602263
1772790205180891100,1.92589111328125,-1.9084896887898444,0.42689211812913413,0.12280571093559264
1772790205190956000,1.9359560546875,-1.7704864087224006,0.7232542146809399,0.007418897954374551
1772790205201022200,1.946022216796875,-1.7247592612922191,0.9548905949525535,-0.0227862706951797
1772790205211088100,1.956088134765625,-1.4856372014403343,1.182713992807269,-0.1886542207006365
1772790205221153000,1.966153076171875,-1.1583902834117412,1.3165176292277871,-0.31948687848635016
1772790205231219000,1.976218994140625,-0.7583931864708662,1.4582061736792324,-0.4304585784390568
1772790205241285000,1.98628515625,-0.2730214068442583,1.4998970513306558,-0.34140177317447956
1772790205251350300,1.996350341796875,-0.033084523478150364,1.4616614286996423,-0.22225896866060793
1772790205261416000,2.006416015625,0.1543745691537857,1.3448936827540396,-0.14182693000882862
1772790205271482000,2.016482177734375,0.41539398803710936,1.1925737080425023,-0.07124876137338579
1772790205281548000,2.026548095703125,0.6476233657658099,1.1331351383849977,-0.06806859696730971
1772790205291613200,2.03661328125,0.9576759878873824,1.1114476227119565,-0.023087591729313135
1772790205301679000,2.04667919921875,1.2556254997611045,1.023548974506557,0.11573781837597488
1772790205311745300,2.056745361328125,1.1662152779489754,0.9154394590519368,0.19775325376167893
1772790205321810000,2.066809814453125,1.1997989831209181,0.7760125759221613,0.40400647871270773
1772790205331876000,2.0768759765625,1.2038462126851082,0.6514576832316815,0.5329271653972566
1772790205341942000,2.08694189453125,1.1078110197752713,0.6424741663090884,0.570024285517633
1772790205352007200,2.097007080078125,1.1683616423279046,0.627586686039716,0.6644744011931121
1772790205362073000,2.107072998046875,0.9018786973416805,0.5789775534324347,0.6615162820398807
1772790205372139000,2.117138916015625,0.6775964792251586,0.5929973109565675,0.7116103925079107
1772790205382204200,2.1272041015625,0.4481605316072702,0.6440523754112422,0.7475365691527723
1772790205392270000,2.13727001953125,0.15372574985623358,0.7370112296156585,0.7603645596090703
1772790205402336000,2.1473359375,-0.12910861047208308,0.8462858433268964,0.7531804933238774
1772790205412401000,2.15740087890625,-0.37989363558888434,0.9388670963905751,0.6556023818209767
1772790205422467000,2.167467041015625,-0.49942953107357024,1.0285017746083438,0.5922616901583969
1772790205432533000,2.177532958984375,-0.6342389835357666,1.0794206454627215,0.5239802541580051
1772790205442598100,2.18759814453125,-0.7303887427359819,1.1591345259077845,0.4113730619579553
1772790205452664000,2.1976640625,-0.6568430295318365,1.2403671403527259,0.2811458227194846
1772790205462730200,2.207730224609375,-0.4249082508355379,1.3368725811228155,0.23269275745674967
1772790205472795100,2.217795166015625,-0.23633564400374887,1.3528195073172449,0.2662443139247596
1772790205482861000,2.227861083984375,-0.10631693294942378,1.3164214753769337,0.3248162568155676
1772790205492927000,2.237927001953125,0.017632687324285506,1.2047269410423933,0.36592750794813034
1772790205502992100,2.2479921875,0.038008535876870156,0.9838649066329002,0.4136659221354872
1772790205513058000,2.25805810546875,0.018664952981472013,0.7302266840420663,0.5407959990762173
1772790205523124000,2.2681240234375,0.10915361768007278,0.5022492646694183,0.6582064268395305
1772790205533189000,2.278189208984375,0.27159517343342304,0.2914592730715871,0.7857749682627618
1772790205543255000,2.288255126953125,0.2767144161432981,0.16262509562671185,0.8484529582329093
1772790205553321200,2.2983212890625,0.2513023269891739,0.08582593358457088,0.8881148873399942
1772790205563385900,2.3083857421875,0.2134995428174734,0.018111995273828504,0.8664758139185607
1772790205573452000,2.3184521484375,0.23131167836189268,-0.007131313184648751,0.7637038600996137
1772790205583518000,2.32851806640625,0.2637736860275268,-0.004323708418011665,0.695445731909573
1772790205593584000,2.338584228515625,0.23189327764213083,0.025415596285462378,0.6279383490215986
1772790205603649000,2.34864892578125,0.13692191457152367,0.039369741227477786,0.5240172251675278
1772790205613715200,2.358715087890625,0.03024257805049419,0.031980361628532405,0.41907194589748975
1772790205623780900,2.36878076171875,-0.05815934350192546,0.034264819303900004,0.3438775156382471
1772790205633846000,2.378845947265625,-0.10659458084702492,0.030353052687644957,0.2794828579433262
1772790205643912200,2.388912109375,-0.16241232965886593,0.04911109078004956,0.21493695520944892
1772790205653978000,2.39897802734375,-0.14203355849683283,0.053547758053243154,0.17290698179677128
1772790205664043000,2.40904296875,-0.051913142588734626,0.04598462932258844,0.13222922671064732
1772790205674109000,2.41910888671875,0.07978431533277035,0.0681049834549427,0.10990107504650949
1772790205684175000,2.429175048828125,0.13843816435337067,0.014007336433976888,0.11923340540677309
1772790205694240000,2.439239990234375,0.14071195450425147,-0.05602876121401786,0.12759747525677084
1772790205704306200,2.44930615234375,0.18531681990623472,-0.08943199525251984,0.13539426661282777
1772790205714372000,2.4593720703125,0.26251871753036976,-0.13423910522833465,0.14228548743128774
1772790205724437000,2.46943701171875,0.30159049872457977,-0.1902151133418083,0.21906462959870696
1772790205734503000,2.4795029296875,0.25410569397211075,-0.23788199666291474,0.31085166354477406
1772790205744569000,2.489569091796875,0.19610300233662128,-0.25709026274085045,0.3231853676781058
1772790205754634200,2.49963427734375,0.20397651219069957,-0.2770928940668702,0.33283860055580733
1772790205764700200,2.5097001953125,0.18753858760893344,-0.28741555063873525,0.4006226814933121
1772790205774766000,2.51976611328125,0.15906886444985865,-0.301920169070363,0.47024975994899865
1772790205784831000,2.5298310546875,0.06713701520562172,-0.3436073934599757,0.6037196343705058
1772790205794897200,2.539897216796875,-0.028034838873147963,-0.5215577762514353,0.7526075888067484
1772790205804963000,2.549963134765625,-0.09586918869316577,-0.8698442674383521,0.9632496963664888
1772790205815028000,2.560028076171875,-0.22153204262554643,-1.2299033217445015,1.1973429682709276
1772790205825094000,2.570093994140625,-0.6756786629050969,-1.4115651262745261,1.3020195866674185
1772790205835160000,2.58016015625,-1.4026321704953908,-1.307283206284046,1.296641693021357
1772790205845225200,2.59022509765625,-2.3392104252964256,-1.2825097072944045,1.2814051070533692
1772790205855291100,2.600291015625,-3.0128502758502957,-1.1486547790780663,1.2576866700746119
1772790205865357000,2.610357177734375,-3.2021646409600972,-0.7688387387700378,0.9017242374323308
1772790205875423000,2.620423095703125,-3.0756922242105005,-0.359837082118541,0.5760729180321097
1772790205885488000,2.630488037109375,-2.8639579374998805,0.25935338536724445,0.16777765608429906
1772790205895554000,2.640553955078125,-2.5135943477779628,0.8407257249817252,-0.32642939110063013
1772790205905620200,2.6506201171875,-2.0043582929611206,1.4160714977830648,-0.6962040759962052
1772790205915685000,2.66068505859375,-1.3895447253853082,1.8135533970326183,-1.1146950802005826
1772790205925751000,2.6707509765625,-0.6945826853394508,1.9982256354250012,-1.1292431724477558
1772790205935817000,2.68081689453125,-0.06917290494740008,2.043357155049592,-0.9463745494112372
1772790205945882000,2.690882080078125,0.2734989612281322,1.9469151349045335,-0.6785726307809352
1772790205955948000,2.700947998046875,0.509038486418128,1.7779419854253529,-0.5029726105079054
1772790205966014000,2.711013916015625,0.8283972815454006,1.4998948593735695,-0.36285248441696166
1772790205976079000,2.7210791015625,0.9638456164330244,1.162862752650678,-0.17709595791921018
1772790205986145000,2.73114501953125,0.900493964985013,0.8850076420396565,0.015421879407018422
1772790205996211000,2.7412109375,0.8003805628508329,0.610823036634922,0.16246829762980342
1772790206006275800,2.75127587890625,0.9725263510167598,0.3375099533677101,0.39861616397649047
1772790206016342000,2.761342041015625,1.1302052224129437,0.11450900723338127,0.6263641585074364
1772790206026408000,2.771407958984375,1.1327741961181164,-0.02695785729140043,0.7949114837899803
1772790206036473000,2.78147314453125,0.9844365690410136,-0.18739158035367726,0.8827804675094783
1772790206046538800,2.791538818359375,0.776193047055602,-0.31041561021506786,0.9085364016652107
1772790206056605000,2.80160498046875,0.7195838556051254,-0.27715426886528727,0.9469164012029766
1772790206066669800,2.811669921875,0.702113080844283,-0.17184300582706927,1.0542923416860401
1772790206076736000,2.821736083984375,0.5711778394669293,0.03393500282764435,1.0719855270259082
1772790206086802000,2.831802001953125,0.39033728819191454,0.2897837410748005,1.0549745517965405
1772790206096866800,2.84186669921875,0.22456571123301983,0.5377630611211062,1.0674511715319006
1772790206106933000,2.85193310546875,0.10065408488214016,0.7925298493504523,1.1185188762724398
1772790206116999000,2.8619990234375,0.04166939647197723,1.014430725288391,1.15058297066167
1772790206127064000,2.87206396484375,-0.004828150808811187,1.164888120998442,1.1953110240519047
1772790206137130000,2.8821298828125,-0.07131283958554267,1.2890519685447215,1.2720963036991655
1772790206147196200,2.892196044921875,-0.03515723809897899,1.4271607548132539,1.3469649360701441
1772790206157260800,2.9022607421875,-0.03587386193573475,1.5853046133726834,1.4191504668369888
1772790206167327000,2.912326904296875,-0.12419278137981891,1.6649030507445335,1.5363558735474943
1772790206177393000,2.922392822265625,-0.15732231304347513,1.7465213035061955,1.5384968310989438
1772790206187458000,2.9324580078125,-0.10144552752077579,1.7902984859123825,1.523253961520642
1772790206197523700,2.942523681640625,-0.011749474504590034,1.8676476830527184,1.5465170559473336
1772790206207590000,2.95258984375,-0.0028857845693826675,1.8668761141583323,1.5412126659289
1772790206217655800,2.96265576171875,-0.03907996450066566,1.894030955326557,1.507402896916121
1772790206227721000,2.972720947265625,-0.019058920735120773,1.8994848368182777,1.4542258718714116
1772790206237787100,2.982787109375,0.005649988585710525,1.816586773379147,1.3321758016087113
1772790206247853000,2.99285302734375,0.05750467898547649,1.7286381485521793,1.1934479335937649
1772790206257918000,3.00291796875,0.1777116055995226,1.6642594921439886,1.1082562062595038
1772790206267984000,3.01298388671875,0.2939946367681026,1.5696338737711308,1.1166563703361898
1772790206278050000,3.023050048828125,0.3569727787286043,1.4605875158578157,1.1553987003803252
1772790206288115000,3.033114990234375,0.34048283169865606,1.3448703018784522,1.2589528906181453
1772790206298181000,3.04318115234375,0.272816824182868,1.2041183076247572,1.323070850263536
1772790206308246800,3.053246826171875,0.2941723314225673,1.11710141068995,1.4021855957716702
1772790206318312000,3.06331201171875,0.35325872664153574,1.0768477262347935,1.4357903437316417
1772790206328377900,3.0733779296875,0.3986971202582121,1.0369982386663557,1.510668912974745
1772790206338444000,3.083444091796875,0.3840571850091219,0.9796861596435308,1.5814865163892506
1772790206348509000,3.093509033203125,0.3095119393736124,0.9372706209793686,1.642075278995186
1772790206358574800,3.103574951171875,0.18257190511226654,0.9126149031504989,1.7486317197889087
1772790206368641000,3.11364111328125,0.12258008548617362,0.9920727630078792,1.7925611701473592
1772790206378706000,3.123705810546875,0.10852350308299064,1.0605196917682886,1.8174089034169911
1772790206388772000,3.133772216796875,-0.07261515435576439,1.13802670981884,1.792925327284634
1772790206398838000,3.143838134765625,-0.31046003387868404,1.2580226240307093,1.7137842782914638
1772790206408903000,3.15390283203125,-0.4848609074950218,1.3766555793263018,1.6262139852575956
1772790206418968800,3.16396875,-0.6836240689516067,1.5114225078210233,1.5436983452647923
1772790206429035000,3.174034912109375,-0.8457114044398069,1.6400428963847458,1.4421065411411225
1772790206439100000,3.184099853515625,-0.9399094450503587,1.7816313414625822,1.343936528159678
1772790206449165800,3.194165771484375,-1.009753381127119,1.9372585410259664,1.245480830104649
1772790206459231700,3.204231689453125,-1.1210171228289603,2.0854846705526113,1.160936460763216
1772790206469297000,3.214296875,-1.3258207334935663,2.2230177027598024,1.0742616552643478
1772790206479363000,3.224363037109375,-1.3209037353575228,2.2512734909072516,1.0004078990243375
1772790206489429000,3.234428955078125,-1.2725859869122504,2.351078996136039,0.8522012779157608
1772790206499494000,3.244493896484375,-1.22060913143754,2.402644202069938,0.7887415629833936
1772790206509559800,3.254559814453125,-1.3053759113579988,2.3845114562690255,0.7755346562121063
1772790206519626000,3.2646259765625,-1.2952081530869006,2.403705693821609,0.7468592544130981
1772790206529691000,3.27469091796875,-1.1428840867221355,2.37259510076493,0.7084856846161186
1772790206539757000,3.284757080078125,-1.0383329944014548,2.336523232039064,0.6266248552702367
1772790206549823000,3.294822998046875,-0.915893194168806,2.2916125155583025,0.5349305776415393
1772790206559888000,3.304887939453125,-0.7672340800523757,2.196851872628927,0.45452210252843794
1772790206569953800,3.314953857421875,-0.625948125052452,2.1625085812613367,0.37942806390374895
1772790206580020000,3.32502001953125,-0.5516740975737572,2.137153190730512,0.34899748900048433
1772790206590085000,3.335085205078125,-0.47764615381062026,2.0783584719344974,0.29899611658351494
1772790206600150800,3.34515087890625,-0.41036183908879753,2.0605654794819652,0.2660583811649121
1772790206610217000,3.355217041015625,-0.3303255948215723,2.0122889398299155,0.3431617685843259
1772790206620283000,3.365282958984375,-0.20819851379990575,1.986015119279921,0.3486221528820693
1772790206630348000,3.37534814453125,0.010643559089303017,1.968747612006217,0.35184867718052115
1772790206640414000,3.3854140625,0.2834609677940607,1.9631151590771971,0.4093083845131099
1772790206650480000,3.395480224609375,0.4558247826248407,1.94828773843199,0.4495301394600421
1772790206660544800,3.405544677734375,0.47797465511262416,1.8823069075241683,0.5074887362254783
1772790206670611000,3.41561083984375,0.45167117007672786,1.7918427927449345,0.5916041030324996
1772790206680676900,3.4256767578125,0.37660862256884575,1.6756994623079895,0.7236277241684496
1772790206690742000,3.435741943359375,0.30796704801917074,1.5777018832840024,0.8670725377026944
1772790206700808000,3.445807861328125,0.33601240828633305,1.4970684037759898,0.9810874778088181
1772790206710873900,3.455873779296875,0.4486801715672016,1.4311410566210745,1.0889286977160721
1772790206720939000,3.46593896484375,0.5708920082628727,1.3573244175210595,1.2052522800907493
1772790206731005000,3.4760048828125,0.5396329466462135,1.2360916549906134,1.2897592400312423
1772790206741071000,3.486071044921875,0.5480687665581703,1.1742238123595714,1.3808325727500022
1772790206751135700,3.4961357421875,0.5332400307387113,1.0450848067492247,1.4718784329399466
1772790206761202000,3.506201904296875,0.3628022155344486,0.927092633575201,1.5004276510760188
1772790206771267800,3.516267822265625,0.33736090028584004,0.8744596522793173,1.5199443985812364
1772790206781333000,3.5263330078125,0.249946236205101,0.7416495569407939,1.5939922160886226
1772790206791399000,3.53639892578125,0.1357394267886877,0.6276446998372673,1.6878779758796094
1772790206801465000,3.546465087890625,0.14206687624454498,0.5656874253571034,1.663496544947475
1772790206811530000,3.556530029296875,0.1934177087754011,0.4702000755883753,1.57252667260319
1772790206821596000,3.566595947265625,0.10531447790861129,0.3636000879138708,1.575812270145118
1772790206831661800,3.576661865234375,-0.08428045770823955,0.2410181027315557,1.6088191983424127
1772790206841727000,3.58672705078125,-0.2771872943520546,0.09964008553400636,1.604825744792074
1772790206851793200,3.596793212890625,-0.5015794025838375,-0.03847030816972256,1.6317229579374193
1772790206861858800,3.60685888671875,-0.8387298749893903,-0.1356017718836665,1.7055444193430245
1772790206871924000,3.616924072265625,-1.23131406532526,-0.16056509435698388,1.61740772459805
1772790206881990000,3.626989990234375,-1.4474445411682129,-0.17318886747807263,1.5230428029879928
1772790206892056000,3.63705615234375,-1.62522219774127,-0.1305181850090623,1.5197970990650356
1772790206902120700,3.64712060546875,-2.0962901422053575,-0.10783347499221563,1.4183940955117345
1772790206912187000,3.657186767578125,-2.41956581851542,-0.09722045717164873,1.3362370596982538
1772790206922252800,3.667252685546875,-2.727754400330782,0.00901931888833642,1.1292119735918937
1772790206932318000,3.67731787109375,-2.887807015120983,0.12727306560799478,0.8616602303303778
1772790206942384000,3.687384033203125,-2.8259096541345117,0.243554416276142,0.6462824725508689
1772790206952450000,3.697449951171875,-2.8127111498653887,0.34622568619959054,0.2125780440583825
1772790206962515000,3.707514892578125,-2.52460264852643,0.4303875590294599,-0.08134177390784025
1772790206972581000,3.7175810546875,-2.2857985685825346,0.534812979143858,-0.2863486520595848
1772790206982647300,3.727647216796875,-1.999450647175312,0.5011014828737825,-0.3648593672599643
1772790206992712000,3.7377119140625,-1.8032751641243696,0.47000214186348016,-0.45259771033711726
1772790207002778000,3.747778076171875,-1.8362556427061556,0.44959275636747476,-0.6788119924947619
1772790207012844000,3.757843994140625,-2.0844898142963646,0.3233182733427733,-1.030835989709571
1772790207022909200,3.7679091796875,-2.099161898249388,0.1847122781418264,-1.051355119190365
1772790207032974800,3.777974853515625,-1.9563713839054107,0.12738164054900408,-0.9480265544019639
1772790207043041000,3.788041015625,-1.8544968173176049,0.05849332469664514,-0.9603257717438042
1772790207053107000,3.79810693359375,-1.6279957541078327,0.13209157180562614,-1.1858085978217423
1772790207063172000,3.808172119140625,-0.875629572841525,0.2762400035645813,-1.544493295034766
1772790207073238000,3.818238037109375,-0.16460779387652874,0.4074864297829568,-1.7840253969922661
1772790207083304200,3.82830419921875,0.34688977613151073,0.4187677753191441,-1.7851676988951861
1772790207093369000,3.838369140625,0.5426888270854949,0.3483547341175377,-1.9635775158919393
1772790207103435000,3.84843505859375,0.6960252853631973,0.11072028247490524,-1.9553163218945264
1772790207113501200,3.858501220703125,0.6181038412928581,-0.04443564631491899,-1.8332976696833967
1772790207123566000,3.868566162109375,0.5522264707595109,-0.1838151831716299,-1.6873729489669202
1772790207133632300,3.87863232421875,0.7016606609016657,-0.34240473967194557,-1.5694558868557213
1772790207143698000,3.888697998046875,0.8716267669409513,-0.4106215129382908,-1.4999889673978088
1772790207153763000,3.89876318359375,0.9765291569173336,-0.43932080706954,-1.4434205463491379
1772790207163829000,3.9088291015625,0.8826029189854859,-0.5374506341710686,-1.361264095057547
1772790207173895200,3.918895263671875,0.8000637519866227,-0.5945943708896637,-1.3045812538489698
1772790207183960000,3.9289599609375,0.8582377085357904,-0.5675336377456784,-1.2460862486518918
1772790207194026000,3.93902587890625,0.9716466455727815,-0.6188816937975585,-1.224701076926291
1772790207204092000,3.949091796875,0.9457254378527402,-0.5697077669143676,-1.1876562715150416
1772790207214157000,3.959156982421875,0.8201929323017597,-0.45451969137564296,-1.1462672994196414
1772790207224223200,3.96922314453125,0.8206833461672067,-0.5045061036854982,-1.165136542801559
1772790207234289200,3.9792890625,0.7052671609610319,-0.5238420877963305,-1.1645400382131337
1772790207244354000,3.98935400390625,0.6212462309718132,-0.48480011721849436,-1.2150367381326854
1772790207254419200,3.999419189453125,0.706591103041172,-0.4469333278998732,-1.2470049709320068
1772790207264485000,4.009485107421875,0.6532768614828586,-0.44105698321238157,-1.326498194363713
1772790207274551000,4.019551025390625,0.32586452375948427,-0.580367400355637,-1.3235603873461483
1772790207284616000,4.029615966796875,0.12247370250225066,-0.7667531646676361,-1.2003421500869094
1772790207294682000,4.03968212890625,-0.003481412374973297,-0.8851347755506634,-1.0991527892842887
1772790207304748000,4.049748046875,-0.3718967916160822,-1.0433097599007188,-1.0250516341544686
1772790207314813200,4.059813232421875,-0.5035995102345943,-1.1069272226780653,-0.9630953825876116
1772790207324879000,4.069879150390625,-0.5103869784176349,-1.0915013977482915,-0.9885292451821267
1772790207334945000,4.079945068359375,-0.41493280026614665,-1.0830120940834282,-1.1319317539446054
1772790207345010000,4.090010009765625,-0.17069383579194544,-1.1447402359828351,-1.2025627487458288
1772790207355076000,4.100076171875,-0.2995896802961826,-1.1635681244410574,-1.2297475466609
1772790207365142000,4.11014208984375,-0.47341596889495846,-1.2624934858344494,-1.0596448086299002
1772790207375207000,4.12020703125,-0.6100748486161232,-1.3819563160829245,-0.9165101570233702
1772790207385273000,4.130273193359375,-0.6226479144632816,-1.4268017122425138,-0.7721094310037792
1772790207395339000,4.140339111328125,-0.5881698908001184,-1.2752106363274156,-0.6931038449585437
1772790207405404200,4.150404052734375,-0.2712836232662201,-1.3068978602282701,-0.7469866801850498
1772790207415470000,4.160469970703125,-0.14346914425790308,-1.3126282205738127,-0.7936633834250271
1772790207425536300,4.170536376953125,-0.3977577935814857,-1.1307136103264988,-0.7610004463598131
1772790207435602000,4.180601806640625,-0.263700620791316,-1.0914579969979823,-0.5861927455082535
1772790207445667000,4.1906669921875,-0.062379591545462604,-0.9749323892451822,-0.49868645762130615
1772790207455733000,4.20073291015625,-0.0704880791991949,-0.9329692705236374,-0.42439094896316526
1772790207465799200,4.210799072265625,-0.3438993621438741,-0.8053751562677324,-0.29823578146919605
1772790207475864000,4.220864013671875,-0.46953766615688797,-0.7377770994216203,-0.18964651967361568
1772790207485930000,4.230929931640625,-0.2875257330149412,-0.8817026091448962,-0.08943769434094428
1772790207495996000,4.240995849609375,-0.31391748085618015,-0.8570565359272062,0.08465192136913538
1772790207506061000,4.25106103515625,-0.41271570873856545,-0.8130816389918327,0.2718753055490553
1772790207516127200,4.261127197265625,-0.4986497788727283,-0.7816409371979535,0.4022060051620006
1772790207526193200,4.271193115234375,-0.5403805501431227,-0.672120093640685,0.4909807055495679
1772790207536258000,4.281258056640625,-0.4306295510917902,-0.5031112883262336,0.5942869123756885
1772790207546324000,4.291323974609375,-0.269041981819272,-0.3559494270302355,0.6893802943907678
1772790207556390100,4.30139013671875,-0.11176935313642024,-0.2801522816374898,0.7734051699027419
1772790207566455000,4.311455078125,-0.1681815607100725,-0.244375450335443,0.8909516451358794
1772790207576521200,4.321521240234375,-0.22504443466067311,-0.1663020305737853,0.8938739623233676
1772790207586587000,4.3315869140625,-0.1478776083499193,-0.05574424518421292,0.8261563707508146
1772790207596652000,4.341652099609375,-0.15589666415452957,0.04230447950512171,0.663028147907555
1772790207606718000,4.351718017578125,-0.31744740854799747,0.11786591644585132,0.5223685081124305
1772790207616784100,4.3617841796875,-0.07584346875250339,0.39560120006948707,0.7465206701084971
1772790207626849300,4.371849365234375,-0.20913725595474242,0.452949373319,0.6123743577301501
1772790207636915000,4.3819150390625,-0.35402912649214263,0.3982233652666211,0.66286974247545
1772790207646981000,4.391981201171875,-0.11729074690639972,0.5475935502618551,0.6874816211625934
1772790207657046000,4.4020458984375,0.08038169670403003,0.5918363043531775,0.5424865825116634
1772790207667112200,4.4121123046875,0.18505495409965514,0.5891168162614107,0.4826515608824789
1772790207677178000,4.42217822265625,0.35094928065538405,0.6509867047190666,0.48922319435775274
1772790207687243000,4.432242919921875,0.3814671685159206,0.7116188680753112,0.40964010068550705
1772790207697309000,4.442308837890625,0.44141164186894893,0.6955930314257741,0.34518414125740526
1772790207707375000,4.452375,0.40696225977838035,0.6770546274334192,0.29264395281150934
1772790207717440300,4.462440185546875,0.40068040302991864,0.676243603311479,0.239884568656981
1772790207727506200,4.472506103515625,0.4846043023854494,0.719263829870522,0.13968363436982034
1772790207737571800,4.48257177734375,0.5468488693743944,0.7392553552806377,0.08870821102261543
1772790207747637000,4.492636962890625,0.6207850432008505,0.7381479785606264,0.11328443387448787
1772790207757703200,4.502703125,0.6817746416926384,0.6788076085805893,0.11939780218824743
1772790207767769000,4.51276904296875,0.6632645870119332,0.5624541425243019,0.1066363741621375
1772790207777834200,4.522834228515625,0.5518436089217662,0.4210179653987288,0.1200287205029279
1772790207787900000,4.53289990234375,0.613905805081129,0.34304946731626984,0.10550057506524026
1772790207797966000,4.542966064453125,0.7124222934126854,0.3139101743325591,-0.0745197458680719
1772790207808031000,4.553031005859375,0.631171997180581,0.22842530927062032,-0.026560382406413553
1772790207818097200,4.56309716796875,0.5996738661110401,-0.0045364743858575815,0.07930347301326691
1772790207828163000,4.5731630859375,0.47626726667284963,-0.195141171567142,-0.056769350448250766
1772790207838228000,4.58322802734375,0.3911269772648811,-0.19901158325970172,0.00881700124926865
1772790207848294100,4.593294189453125,0.44719665501117706,-0.2611924373626709,0.10020144574381411
1772790207858360000,4.603360107421875,0.38510523275732994,-0.3923968510702252,-0.021402853512763977
1772790207868425200,4.61342529296875,0.4042687829107046,-0.5368544218435883,-0.17392814153805375
1772790207878491100,4.6234912109375,0.4599602749943733,-0.5821580831646919,-0.17509214381612836
1772790207888557000,4.63355712890625,0.3097673754394054,-0.5787906525582075,-0.1290972122952342
1772790207898623000,4.643623046875,0.20093056862354278,-0.6282824132189154,-0.16812778469622133
1772790207908688100,4.653688232421875,0.20700082844793796,-0.6810477887228131,-0.19107669860720633
1772790207918754000,4.663754150390625,0.12998890043795108,-0.7334168583855033,-0.10260857995077967
1772790207928820200,4.6738203125,0.019256489133834837,-0.7030439319536089,-0.16581388173066078
1772790207938884900,4.683884765625,-0.1101239240169525,-0.7166714752897619,-0.2664630712419748
1772790207948951000,4.693950927734375,-0.2511830845236778,-0.7542854588910937,-0.45729617035165426
1772790207959017000,4.704016845703125,-0.2551093180567026,-0.753617058110237,-0.6297190949585288
1772790207969082000,4.71408203125,-0.3827455178886652,-0.7543494640380144,-0.6055016954816878
1772790207979147800,4.724147705078125,-0.48710254894196986,-0.7574380777031183,-0.6139892455808817
1772790207989213400,4.73421337890625,-0.5879769985765219,-0.7874313571676611,-0.5088317848648876
1772790207999278600,4.744278564453125,-0.628061171683669,-0.8602510941848158,-0.4040716529034078
1772790208009344500,4.754344482421875,-0.6847147867977619,-0.9487474160224199,-0.3624067134108394
1772790208019410700,4.76441064453125,-0.6930535760760307,-1.0509037221610547,-0.3549616581019014
1772790208029475300,4.774475341796875,-0.624918782004714,-1.0926093589901924,-0.31765199120938775
1772790208039541500,4.78454150390625,-0.6256833366364241,-1.1229495521962642,-0.20122947850488124
1772790208049607400,4.794607421875,-0.6040349839299917,-1.2095333184108137,-0.01437507376782596
1772790208059672600,4.804672607421875,-0.49484044971764085,-1.2789581522926687,0.17326543984562157
1772790208069738800,4.81473876953125,-0.3913993644654751,-1.2502107812359928,0.2793423534940928
1772790208079804700,4.8248046875,-0.43384675957262514,-1.309068336135149,0.4333508658144623
1772790208089869600,4.83486962890625,-0.5655033009618521,-1.4200190663650631,0.6021656098615378
1772790208099935500,4.844935546875,-0.6055173314422369,-1.3701388909086585,0.6891864523191005
1772790208110001700,4.855001708984375,-0.590673398053646,-1.1545704328626394,0.6842183085177094
1772790208120067600,4.865067626953125,-0.6337900707244872,-0.8944871257856488,0.5567386144217104
1772790208130132700,4.8751328125,-0.6774602856248617,-0.6265338159859181,0.39188539441674947
1772790208140198400,4.885198486328125,-0.6589204203277826,-0.2965367224663496,0.23579927210472523
1772790208150264600,4.8952646484375,-0.6917313875615596,-0.04867722940742969,0.03728847797401249
1772790208160329500,4.90532958984375,-0.624989509153366,0.13968904119729994,-0.1875862992081791
1772790208170395600,4.915395751953125,-0.6084241587996483,0.40020109508037566,-0.28649821659810837
1772790208180461600,4.925461669921875,-0.5116261648237705,0.6070943715006113,-0.29382600220292804
1772790208190526500,4.9355263671875,-0.24753683697581289,0.6050970602035523,-0.3297876885525882
1772790208200592600,4.945592529296875,-0.09287702113986014,0.7165048865512013,-0.30155981132537124
1772790208210658600,4.955658447265625,0.0068932666450738905,0.8187810196772217,-0.221434500535205
1772790208220723700,4.9657236328125,0.03577332417070865,0.8023235136121512,-0.11599011263661085
1772790208230789600,4.97578955078125,0.0715513245165348,0.8065911079287529,0.014635332139208913
1772790208240855600,4.98585546875,0.08127426162958144,0.8307318619728088,0.035426337363943454
1772790208250920400,4.99592041015625,0.2560463066458702,0.8919324728667736,0.10826624038629233
1772790208260986600,5.005986572265625,0.2343564528852701,0.9650871409267187,-0.04228131782524287
1772790208271052500,5.016052490234375,0.33116438373327256,1.0443336961209773,0.013906944799423218
1772790208281117700,5.02611767578125,0.3998071273267269,1.0933452720493078,0.026746114236861466
1772790208291183400,5.036183349609375,0.5230225881069899,1.1059022635444997,0.0729291156757623
1772790208301249500,5.04624951171875,0.680171298149228,0.9991311570867896,0.21139248753562567
1772790208311314700,5.056314697265625,0.6851034938544035,0.9107523241490125,0.2623416073977947
1772790208321380600,5.066380615234375,0.6369874054610729,0.790885589274764,0.3866637142457068
1772790208331446500,5.076446533203125,0.5613263075381517,0.6660892890438437,0.5029116010356695
1772790208341511400,5.086511474609375,0.5971200899749994,0.6541662115380168,0.5243910999812186
1772790208351577600,5.09657763671875,0.6447533632874488,0.576878096935153,0.542284411003068
1772790208361643500,5.1066435546875,0.4776619359016418,0.4502727014556527,0.619190321355313
1772790208371708700,5.116708740234375,0.32707097693979736,0.4066784744009375,0.6861711961511522
1772790208381774600,5.126774658203125,0.26540274853408335,0.35213410652577876,0.6695992699261755
1772790208391840500,5.136840576171875,0.26785949403643605,0.3982417777061462,0.5738567763525992
1772790208401905700,5.14690576171875,0.2955477114289999,0.47243952507823705,0.4634939290132373
1772790208411971600,5.1569716796875,0.1808878975480795,0.4859282444655895,0.3771633338421583
1772790208422037500,5.16703759765625,0.004545826736092567,0.43614772999137635,0.3453789331771433
1772790208432102700,5.1771025390625,0.091493457826972,0.4024684554904699,0.32925694267675276
1772790208442168600,5.18716845703125,0.23215981962382792,0.39420711536258457,0.27571144964583216
1772790208452234500,5.197234375,0.3747457513064146,0.34105186375826596,0.2737953138262033
1772790208462299600,5.207299560546875,0.45017304047346113,0.32648119435310363,0.32941220630370077
1772790208472365600,5.217365478515625,0.34925825882852074,0.23760288746058938,0.38627807592898605
1772790208482431700,5.227431640625,0.23706454280018804,0.11641513311564922,0.423546607093513
1772790208492496400,5.237496337890625,0.20720424206554888,0.04713584518432617,0.4035857690826058
1772790208502562600,5.2475625,0.35952421677708624,0.03483984271287918,0.3676444679338485
1772790208512628500,5.25762841796875,0.47599078781902787,0.0508969512835145,0.35040392173230644
1772790208522693600,5.267693603515625,0.5064589913189411,0.03270166164040565,0.29563202871158717
1772790208532759600,5.277759521484375,0.512650831696391,0.0299590849339962,0.27021752840466795
1772790208542825500,5.287825439453125,0.618034867709875,0.09647884502410888,0.2227799968600273
1772790208552890600,5.297890625,0.6872001738727093,0.0761722623154521,0.1622988593470305
1772790208562956500,5.30795654296875,0.6982809553354978,0.0020309213057160378,0.21082572049833834
1772790208573022700,5.318022705078125,0.6325789413690567,0.00848228940218687,0.1615845005325973
1772790208583087600,5.328087646484375,0.8647732477843761,-0.0400739439740777,0.16744754734709857
1772790208593153500,5.338153564453125,0.906894479677081,-0.09390519514381886,0.13636245405785738
1772790208603219500,5.348219482421875,0.8727718453228474,-0.12926876946985721,0.17816044534556566
1772790208613284600,5.35828466796875,0.9434738595336675,-0.18680325907170772,0.2573825236856937
1772790208623350500,5.3683505859375,1.1340648204505444,-0.21748422853946683,0.32820348810106514
1772790208633416700,5.378416748046875,1.1719956149160862,-0.2815782227873802,0.3584619943730533
1772790208643482400,5.388482421875,1.0699117894917727,-0.4127782525807619,0.39433264143839475
1772790208653547500,5.398547607421875,0.9314449835658073,-0.5525070412665605,0.4390460817813873
1772790208663613400,5.408613525390625,0.86724635989964,-0.6910995193988084,0.5255455307133495
1772790208673679600,5.4186796875,0.838691296544671,-0.7256853873506188,0.5335851909145712
1772790208683744800,5.428744873046875,0.8398112404853105,-0.7816524815052748,0.4930408529497683
1772790208693810400,5.438810546875,0.7852852850496769,-0.8631976690307259,0.46563875902220603
1772790208703876600,5.448876708984375,0.6498878035664558,-0.9299564985737204,0.5040564602218568
1772790208713941500,5.45894140625,0.5265501777112483,-0.9816849322453141,0.5068493058107792
1772790208724007700,5.469007568359375,0.43946810658574104,-0.9863289586588739,0.5239079926393926
1772790208734073600,5.479073486328125,0.2766162164658308,-0.9518027119398117,0.5793598307482898
1772790208744138500,5.489138427734375,0.0828314279437065,-0.9484867192596197,0.5712487127460539
1772790208754204400,5.499204345703125,-0.05030395382642746,-0.9767045134842395,0.6233573779068887
1772790208764270600,5.5092705078125,-0.26115911961495875,-0.9375129053026438,0.6178937056735158
1772790208774335700,5.519335693359375,-0.42989772968590256,-0.8867936486735939,0.6222668061912059
1772790208784401700,5.529401611328125,-0.59851768181324,-0.8637526725649833,0.6248327111564577
1772790208794467300,5.53946728515625,-0.7407476396650076,-0.8566136144652963,0.6152144034616649
1772790208804532500,5.549532470703125,-0.8747142115622758,-0.8776330216184258,0.5875061661943793
1772790208814598700,5.5595986328125,-1.0167541997998952,-0.7429664847582578,0.4425977829135954
1772790208824664600,5.56966455078125,-1.0745797813028097,-0.6523115235820413,0.3627433249540627
1772790208834729700,5.579729736328125,-1.1822639109522104,-0.7132748185887933,0.3356196095764637
1772790208844795400,5.58979541015625,-1.3681430409163235,-0.6646294456243514,0.24765783300697802
1772790208854861600,5.599861572265625,-1.428050104868412,-0.6205874748021364,0.2439575171843171
1772790208864926500,5.609926513671875,-1.6276029553979634,-0.5188023400634527,0.09590659809410572
1772790208874992600,5.61999267578125,-1.7852894255787133,-0.36929537694603204,-0.1083294418156147
1772790208885058600,5.63005859375,-1.8235826236158608,-0.23468816905766723,-0.3118916741169989
1772790208895123500,5.64012353515625,-1.9495032517015933,-0.10542962872087955,-0.4805925825260579
1772790208905189600,5.650189697265625,-1.9860873077332972,0.008919219514727591,-0.6332602016314863
1772790208915255600,5.660255615234375,-1.8726462219923734,0.16976240016072988,-0.7867861911319196
1772790208925320700,5.67032080078125,-1.6054039830714464,0.3836047650665045,-0.9628962067537009
1772790208935386600,5.68038671875,-1.3268261111438273,0.602518149626255,-1.097608920843154
1772790208945452500,5.69045263671875,-1.0250012191414832,0.7837061991646885,-1.1379682576298713
1772790208955517400,5.700517333984375,-0.8280249411016702,0.907881152626872,-1.077884521936625
1772790208965583600,5.71058349609375,-0.7139338670194149,0.9716633044466376,-1.002521822438389
1772790208975650000,5.720650146484375,-0.6075041213452815,0.915779504661262,-0.9887826354213058
1772790208985715200,5.730715087890625,-0.4924024089157581,0.8494652040153742,-0.9655525664813815
1772790208995781000,5.740781005859375,-0.43852176564633844,0.772241094559431,-1.051180493275821
1772790209005847300,5.750847412109375,-0.3112462158203125,0.6522375815629958,-1.2088431441895664
1772790209015912200,5.760912109375,-0.22156652941703794,0.5172331910505891,-1.3418630828864873
1772790209025978000,5.77097802734375,-0.21675240713357924,0.4729097729384899,-1.477263925370574
1772790209036044000,5.7810439453125,-0.08810790704190731,0.4623603218734264,-1.56051591681391
1772790209046109200,5.791109130859375,0.11753449253439903,0.45652153271734713,-1.6424796220123767
1772790209056175000,5.801175048828125,0.3860352070838213,0.4616758467406034,-1.692410943134129
1772790209066241300,5.8112412109375,0.5478109924048185,0.37620296437740325,-1.6503519628226757
1772790209076306200,5.82130615234375,0.5066945536404848,0.32691695542186494,-1.5766326466172933
1772790209086372000,5.8313720703125,0.3816775963962078,0.31651831100434064,-1.5665797468975184
1772790209096438300,5.841438232421875,0.16430676510334014,0.28200375472307204,-1.515848069178313
1772790209106503200,5.851503173828125,-0.0640963323354721,0.2513677934408188,-1.3990703863605856
1772790209116569300,5.8615693359375,-0.1756844836860895,0.1901116529673338,-1.3153310497917234
1772790209126635000,5.871635009765625,-0.1378308461099863,0.2032590115711093,-1.3617204605229198
1772790209136701200,5.881701171875,-0.021973346877098083,0.25151158582568167,-1.3649736170999704
1772790209146766000,5.89176611328125,-0.012017185530066489,0.23353227702081203,-1.359430742150545
1772790209156832300,5.901832275390625,-0.15898177068829536,0.15574994916021823,-1.287403178424388
1772790209166898200,5.911898193359375,-0.24765140326619148,0.05508037444800138,-1.152053481605649
1772790209176963000,5.921963134765625,-0.16734394084215162,-0.04527589653134346,-1.0552914357259868
1772790209187029200,5.932029296875,0.03625789281725883,-0.15978928767889738,-0.9408261215038597
1772790209197095200,5.94209521484375,0.0949877296835184,-0.2147033656492829,-0.8283389754869044
1772790209207160300,5.952160400390625,0.2618266436129808,-0.3998039124563336,-0.795267311490327
1772790209217226200,5.962226318359375,0.2869096469432115,-0.6087158352226019,-0.6498572622977197
1772790209227292400,5.97229248046875,0.2427922727972269,-0.6497802515387535,-0.48233898780196904
1772790209237357000,5.982357177734375,0.2569523155748844,-0.7551581500723957,-0.3525077621437609
1772790209247423200,5.99242333984375,0.26862814032137394,-0.779876411743462,-0.2292258119985461
1772790209257489200,6.0024892578125,0.19844518154859542,-0.7049711006239057,-0.16688231467977166
1772790209267554300,6.01255419921875,0.2437158173829317,-0.8417936464741825,-0.251854115653038
1772790209277620000,6.022619873046875,0.38554888487160205,-0.5926566808253526,-0.3005364596270025
1772790209287686100,6.03268603515625,0.5114747736543417,-0.0015393383964896201,-0.14084054931998252
1772790209297751300,6.042751220703125,0.7021008058845997,-0.05169540818482637,-0.12666808545216918
1772790209307817200,6.052817138671875,0.699998280647397,-0.2552721074029803,-0.2302045939028263
1772790209317883100,6.062883056640625,0.42392566953897476,-0.5682061301797628,-0.28913097625449297
1772790209327948000,6.072947998046875,-0.0338064080119133,-0.8866708990767598,-0.12040931731835007
1772790209338014200,6.08301416015625,-0.2364139699369669,-0.8828346819147467,-0.02897738042026758
1772790209348080000,6.093080078125,-0.1353612411260605,-0.6996256479427218,0.027225129925459623
1772790209358145300,6.103145263671875,-0.014693126741051672,-0.7170005611136555,-0.1010344625018537
1772790209368211200,6.113211181640625,0.05243862776756286,-0.7210133038863539,-0.16553674528971313
1772790209378277400,6.12327734375,0.15310440308749676,-0.709229927112162,-0.1941252725228667
1772790209388342000,6.133342041015625,0.2734182972073555,-0.7998845960274338,-0.2292236200414598
1772790209398408200,6.143408203125,0.21019114892184734,-0.7739674799606203,-0.09033449705019593
1772790209408474000,6.15347412109375,0.18466215538978575,-0.9240294466122985,-0.03371580711901188
1772790209418539300,6.163539306640625,0.2505781043678522,-1.1546844146311281,0.15436799328252673
1772790209428605200,6.173605224609375,0.43551615408957,-0.7609805726155638,0.3623891046889126
1772790209438671000,6.183671142578125,-0.21788579507768152,-0.6115313310347497,-0.06864727363809943
1772790209448736300,6.193736328125,-0.23182371953725814,-0.9091352443411945,-0.18322160119265316
1772790209458802200,6.20380224609375,0.31241584412157536,-0.9352619115054607,0.04445712749436497
1772790209468868400,6.213868408203125,-0.318265154671669,-0.6570074263133108,0.17737009868547318
1772790209478933000,6.22393310546875,-0.6464467232018709,-0.7190824819542467,0.19081132566928863
1772790209488999200,6.233999267578125,-0.5120423444092274,-0.8695783099785447,0.15416443353444337
1772790209499065000,6.244065185546875,-0.6840192057490349,-0.6860337604418396,0.2398671791307628
1772790209509130200,6.254130126953125,-0.8450047174751758,-0.3933911228045821,0.3672802377313375
1772790209519196200,6.264196044921875,-0.6464163280636072,-0.4499275412797928,0.016740268529206515
1772790209529262300,6.274262451171875,-0.6058066697776318,-0.408462435208261,-0.12085370008498429
1772790209539328000,6.284327880859375,-0.8878963492184877,-0.24346228101328013,-0.1879528674982488
1772790209549393200,6.29439306640625,-1.0383090290039778,-0.20510522395968436,-0.2068175808355212
1772790209559459300,6.304459228515625,-1.048098017090559,-0.11005319686830044,-0.07085851994678377
1772790209569525200,6.314525146484375,-1.0870493867754936,0.008001958539336919,0.13524886679276824
1772790209579590100,6.324590087890625,-1.2737065153747795,-0.026172406002134083,0.23071590442582965
1772790209589656000,6.334656005859375,-1.431073252081871,-0.10851473525464535,0.2562624336145818
1772790209599722200,6.34472216796875,-1.3530027549296617,-0.20192221000939606,0.2128527693465352
1772790209609787100,6.354787109375,-1.4935072041630744,-0.25819018680676814,0.26508257666900753
1772790209619853300,6.364853271484375,-1.54834646333158,-0.3789163149893284,0.46657428630664943
1772790209629919200,6.374919189453125,-1.2943956676602364,-0.46851811385080216,0.49114641750529403
1772790209639984000,6.384984130859375,-1.1681582287102936,-0.3702200905755162,0.5102100144155324
1772790209650050000,6.395050048828125,-1.135219835704565,-0.3892369257345795,0.5434622956760228
1772790209660116200,6.4051162109375,-1.0630144311934708,-0.4957395905144512,0.47927770053520796
1772790209670181400,6.415181396484375,-0.8074410027563571,-0.19290084529444573,0.3561221532486379
1772790209680247300,6.425247314453125,-0.6112386316984891,0.23144158835187553,0.12630787383764983
1772790209690313200,6.435313232421875,-0.5732628290474414,0.4852591130323708,-0.04570639690309763
1772790209700378000,6.445378173828125,-0.44220308450758455,0.6037022448442876,-0.3043693157881498
1772790209710444300,6.4554443359375,-0.40785599374771114,0.6627215661764144,-0.4980225868850946
1772790209720510200,6.46551025390625,-0.04373217422068119,1.1879385955877602,-0.6264253871753811
1772790209730575000,6.4755751953125,-0.16294190649092197,2.3904319323591885,-0.39178368760794396
1772790209740641000,6.48564111328125,-0.23732290147542953,1.8222855695426463,-0.11876344980746507
1772790209750707200,6.495707275390625,0.25723171703815456,1.0474831000626086,-0.6257330209970474
1772790209760772400,6.5057724609375,0.5527940415143966,0.9390972518846392,-0.7766764466583729
1772790209770838300,6.51583837890625,0.21811317409276962,1.1968275660946965,-0.8937859917789697
1772790209780904200,6.525904296875,-0.2868517792761326,1.2995523197710512,-0.7920569711416959
1772790209790969000,6.535968994140625,-0.2616577167868614,1.1840569318488239,-0.6673825437247752
1772790209801035300,6.54603515625,0.07693184851109981,1.1572224086761473,-0.654397097684443
1772790209811101200,6.55610107421875,0.4424965144962072,1.2302984585419297,-0.680044456899166
1772790209821166300,6.566166259765625,0.48230420874953267,1.1731178969442844,-0.6358762293487786
1772790209831232300,6.576232177734375,0.2813783163011074,0.9710407886341214,-0.384707757872343
1772790209841298200,6.586298095703125,0.15322481459677217,0.7230214288383722,-0.22629531150460241
1772790209851364000,6.596364013671875,0.3258236072272062,0.6176026137724518,-0.19698095421493053
1772790209861429200,6.60642919921875,0.5561158794134855,0.6500479625642299,-0.13840484660565852
1772790209871495200,6.6164951171875,0.6528384700655937,0.659292760771513,-0.023845278228819367
1772790209881561300,6.626561279296875,0.5675812762796878,0.6310235286206006,0.02154430781006813
1772790209891626200,6.636626220703125,0.5103361250132322,0.5395435147970915,0.10744359889179468
1772790209901692200,6.646692138671875,0.39410570081472396,0.3465352636054158,0.2632631061568856
1772790209911758000,6.656758056640625,0.2651169173300266,0.25165976212471725,0.29567163006961344
1772790209921823200,6.6668232421875,0.01701250959932804,0.11628478473424911,0.21267332112640142
1772790209931889400,6.676889404296875,-0.08258359066247939,0.33952129319012164,0.26227555642426015
1772790209941955000,6.686955078125,0.02699497443139553,0.607602028761804,0.36159663913697004
1772790209952020200,6.697020263671875,-0.056338557815551756,0.632374943229556,0.29773820721060035
1772790209962086100,6.707086181640625,-0.22470073578953742,0.603931815816462,0.2576490656673908
1772790209972152000,6.717152099609375,-0.229002232375741,0.6236904092535376,0.1858553106971085
1772790209982217000,6.727217041015625,-0.09823942495584487,0.6325982305914163,0.1477493057951331
1772790209992283000,6.737282958984375,0.02287175702154636,0.6264192496955394,0.003994476463645697
1772790210002348800,6.747348876953125,0.14191957672834396,0.48988195052742955,-0.10850859777480364
1772790210012414000,6.7574140625,0.38303427170217036,0.36274434786736964,-0.17580270323827862
1772790210022480100,6.767480224609375,0.5907727667748928,0.2680333892986178,-0.14929828880280255
1772790210032546000,6.777546142578125,0.5170557886570691,0.055277942846715444,-0.0676378043346107
1772790210042611000,6.78761083984375,0.37735681058764453,-0.2061795751929283,0.09373597605675459
1772790210052676900,6.7976767578125,0.3017097411900759,-0.3284580473840236,0.2637801157683134
1772790210062743000,6.807742919921875,0.5229314026921987,-0.2651391291618347,0.265536750177294
1772790210072808000,6.817807861328125,0.7720558011204004,-0.15900924321711063,0.28241014356687666
1772790210082874000,6.8278740234375,0.790531369009614,-0.0944563992857933,0.33430721180364487
1772790210092940000,6.83793994140625,0.6513280655026435,-0.19912673407196999,0.3353073287568986
1772790210103005000,6.8480048828125,0.5631675514906644,-0.32137685695141555,0.3138860628046095
1772790210113070800,6.85807080078125,0.5846165822327136,-0.35157121194601054,0.39241950129345055
1772790210123137000,6.868136962890625,0.606550181621313,-0.3825619780153036,0.39872444665655493
1772790210133203000,6.878202880859375,0.5631786574065685,-0.41881461013555527,0.3335758287891745
1772790210143267800,6.888267822265625,0.5660661955416202,-0.41615269744992256,0.28663521391600366
1772790210153334000,6.898333984375,0.4605015422642231,-0.6362699048414826,0.1339557582423091
1772790210163400000,6.90839990234375,0.2458236033171415,-0.834985427764058,0.04647475092709064
1772790210173465000,6.918465087890625,0.43208968677222725,-0.5792471641540528,0.5002373403251171
1772790210183531000,6.928531005859375,0.5919377189010382,-0.5733338484570384,0.5982853343620896
1772790210193597200,6.93859716796875,0.689102792623639,-0.6446621778726578,0.6463501309596001
1772790210203661800,6.948661865234375,0.6899392434477806,-0.631077012373507,0.7734146683834493
1772790210213728000,6.95872802734375,0.43462300464212894,-0.6693082510903478,0.8824027202382684
1772790210223794000,6.9687939453125,0.04830956513881683,-0.8131336614400148,0.8084143778331577
1772790210233859000,6.978859130859375,-0.2148503729045391,-0.8174430490717292,0.8081390680231153
1772790210243925000,6.988925048828125,-0.004749240353703499,-0.8561775611355901,0.7082292256370186
1772790210253991000,6.998990966796875,0.15987901178896427,-0.7934531016752123,0.48665100578218695
1772790210264056000,7.00905615234375,0.11058277370035648,-0.6774500564917921,0.5252148374542593
1772790210274122000,7.0191220703125,0.0807967072457075,-0.7537509136229753,0.5108490429714322
1772790210284188200,7.029188232421875,-0.03623860359489917,-0.7395669054478407,0.4694001573823392
1772790210294252800,7.039252685546875,-0.18266835122406483,-0.7550269249081611,0.5022561328016221
1772790210304319000,7.049319091796875,-0.37045185350477694,-0.8127946387439966,0.5320147267274559
1772790210314385000,7.059385009765625,-0.613747399649024,-0.8369137654781341,0.528905362535268
1772790210324450000,7.069449951171875,-0.6123334411978721,-0.8062003550454974,0.5301981788247824
1772790210334516000,7.079515869140625,-0.5915215393155813,-0.7687602667063475,0.4994217861585319
1772790210344582100,7.08958203125,-0.6027583881229162,-0.7502700857698917,0.5289648376375437
1772790210354647000,7.09964697265625,-0.6743178959459066,-0.7995067026257514,0.6211816413030028
1772790210364713000,7.109712890625,-0.8121797217160462,-0.8355237724244594,0.6986627942599356
1772790210374779000,7.11977880859375,-0.9690221422880887,-0.8479887017220258,0.7246104515954852
1772790210384844000,7.129843994140625,-1.1310293982774018,-0.9309820422291755,0.7043406937658786
1772790210394910200,7.13991015625,-1.0833674833923577,-0.9400520683914423,0.678335461024195
1772790210404975900,7.149975830078125,-1.0494126068204641,-0.8042550661966205,0.5945895485840738
1772790210415041000,7.160041015625,-1.0978513512969017,-0.7449106045633554,0.49333968976587056
1772790210425107000,7.17010693359375,-1.065647702306509,-0.7547770418003201,0.47105362367779013
1772790210435173000,7.180173095703125,-0.9408481872051954,-0.5839660093694925,0.488027262571454
1772790210445237800,7.19023779296875,-0.9042156158566474,-0.3671116031661629,0.3915408187627792
1772790210455304000,7.200303955078125,-1.0279682522535323,-0.15717793613672257,0.14330942365154622
1772790210465369900,7.210369873046875,-1.0779524726063012,0.06012655192166567,-0.04028714833334088
1772790210475435000,7.22043505859375,-0.9866168356895446,0.311207929636538,-0.19045900510028005
1772790210485501000,7.2305009765625,-0.8611386906743049,0.5641112620815635,-0.3197517399676144
1772790210495567000,7.240567138671875,-0.7792974428117275,0.7468576469779015,-0.4646414185479283
1772790210505632800,7.2506328125,-0.5764104794234037,0.8688856515392661,-0.590613776820898
1772790210515698000,7.260697998046875,-0.3175496998786926,1.0181371785908937,-0.6921257937066256
1772790210525764000,7.27076416015625,-0.13248831603825093,1.0781924188420176,-0.7986176448315382
1772790210535830000,7.280830078125,0.05022913502454757,1.1382806845799087,-0.9343523954451084
1772790210545895200,7.290895263671875,0.22259996411800384,1.010629871700704,-0.6315371772311628
1772790210555960800,7.3009609375,0.27487960193157196,0.6539861787959933,-0.3357857599236071
1772790210566027000,7.311027099609375,0.29791093342900277,0.6452218575820327,-0.2644217746727168
1772790210576092000,7.321091796875,0.3872019127756357,1.0603414125919342,-0.01230842356160283
1772790210586158000,7.331157958984375,0.3940852425485849,1.0928554427057504,-0.22831688046008347
1772790210596224000,7.34122412109375,0.5266764344394207,0.4446256354793906,-0.5014047766692936
1772790210606289000,7.351288818359375,0.3631026597857475,0.12723054164052008,-0.5356278026580811
1772790210616354800,7.361354736328125,0.18880583106577395,0.042321430639922615,-0.40623584519997236
1772790210626421000,7.3714208984375,0.1381967568129301,0.22846388771533965,-0.3767230427287519
1772790210636486100,7.381486083984375,0.2793488563001156,0.6292091726750135,-0.40597587908953425
1772790210646552000,7.391552001953125,0.3449140921443701,0.6601657442137598,-0.5450746993087232
1772790210656618000,7.401617919921875,0.17298223899006843,0.6888467720359563,-0.5733446621119975
1772790210666683000,7.411682861328125,0.1334779115974903,0.8613003109768033,-0.6098704851504415
1772790210676749000,7.4217490234375,0.23399171122610568,0.9720201550602913,-0.747819916138798
1772790210686815000,7.43181494140625,0.19944646754562853,1.0099211389094591,-0.7757697070769966
1772790210696879900,7.4418798828125,0.08749766618907451,0.9772568866699933,-0.6767077867571264
1772790210706945800,7.45194580078125,-0.041293548896908755,0.9086334322988986,-0.5581311647586524
1772790210717012000,7.462011962890625,0.08164894016087054,0.8381208031803369,-0.4508452406466007
1772790210727077000,7.4720771484375,0.10320844554007053,0.7327505034312606,-0.24097718619927763
1772790210737143000,7.48214306640625,-0.08459259239733219,0.5510127110555768,-0.23356128391958772
1772790210747209000,7.492208984375,-0.06276362242698669,0.44253392389714713,-0.2674910260502249
1772790210757273900,7.50227392578125,0.10519055926799774,0.3892337108641863,-0.2972742429606616
1772790210767340000,7.512340087890625,0.22733692951202392,0.3023702509254217,-0.3454416231498122
1772790210777406000,7.522406005859375,0.34816520289480685,0.2792477340131998,-0.2906638118449598
1772790210787471000,7.53247119140625,0.40753918288350105,0.44271220307350156,-0.18502404750473797
1772790210797537000,7.542537109375,0.4670984563112259,0.31603111200928685,-0.11898359536416828
1772790210807603000,7.55260302734375,0.4677852695316076,-0.13476912045180797,-0.2399894172709435
1772790210817667800,7.562667724609375,0.26277590716183186,-0.5276017325907946,-0.35811741871908304
1772790210827734000,7.572734130859375,0.20353402912020682,-0.6351935077816248,-0.2822315721295774
1772790210837800000,7.582800048828125,0.2759580448180437,-0.5109685776978731,-0.2247655446540564
1772790210847866000,7.5928662109375,0.3194318603634834,-0.3556073355942964,-0.177055698974058
1772790210857931000,7.602930908203125,0.2965150951564312,-0.348316009542346,-0.2536841806244105
1772790210867997000,7.612996826171875,0.3191612267285585,-0.2328185757935047,-0.40158327015377576
1772790210878062800,7.623062744140625,0.1806909136712551,-0.46487990347892044,-0.4854139382679015
1772790210888128000,7.6331279296875,0.17934592880308628,-0.6009691666185856,-0.40957412277720867
1772790210898194200,7.643194091796875,0.16629004787504673,-0.49573652177453037,-0.254411106659472
1772790210908259800,7.653259765625,0.13965513892769812,-0.43072512042075395,-0.2777666286099702
1772790210918325000,7.663324951171875,0.2930325137376785,-0.44003830768913027,-0.409554833554849
1772790210928391000,7.673390869140625,0.3881955999881029,-0.39443917055279015,-0.4404596018411219
1772790210938457000,7.68345703125,0.38669104064404963,-0.4448544757992029,-0.39087205265574154
1772790210948522000,7.69352197265625,0.35799861464500427,-0.5024240367144346,-0.30583646573126316
1772790210958588000,7.703587890625,0.3153805391460657,-0.5763602105408907,-0.2804035529848188
1772790210968653800,7.71365380859375,0.3534685699999332,-0.6167103411078453,-0.2784396325007081
1772790210978722300,7.723722412109375,0.3413438324421644,-0.6346846814766526,-0.23648155528046189
1772790210988788500,7.73378857421875,0.2468441785365343,-0.7260907532811165,-0.21338665702752768
1772790210998854400,7.7438544921875,0.3117939128309488,-0.6000839082166552,-0.1774437484435737
1772790211008919600,7.75391943359375,0.15618015727102755,-0.7967971514061093,-0.34927564835473895
1772790211018985500,7.7639853515625,0.15968787313103674,-0.791482386124134,-0.3527002890411764
1772790211029051600,7.7740517578125,0.16262801823616027,-0.5345557895123958,-0.3228295399777591
1772790211039116300,7.7841162109375,0.07039806282818317,-0.5243988448962569,-0.3908526903681457
1772790211049182500,7.794182373046875,0.013915712627768516,-0.5434381841480732,-0.38910650428794324
1772790211059248400,7.804248291015625,-0.0488338812738657,-0.5312745758846402,-0.33211642376109957
1772790211069313500,7.8143134765625,-0.07763502834439277,-0.5475035338908434,-0.31466618033163246
1772790211079379500,7.82437939453125,-0.07725859624743461,-0.5402320815831423,-0.2655320009369403
1772790211089445400,7.8344453125,-0.06058744743168354,-0.49373190395385025,-0.2238574898984283
1772790211099510500,7.844510498046875,-0.09998714540600775,-0.40402562180459495,-0.2262419008169323
1772790211109576400,7.854576416015625,-0.19449147548675536,-0.38530806185305116,-0.1951270699765533
1772790211119642600,7.864642578125,-0.30251813496351243,-0.44612142699509855,-0.12875621683783828
1772790211129707300,7.874707275390625,-0.3126268565237522,-0.4304030488595366,-0.07620842960737645
1772790211139773400,7.8847734375,-0.4184031067252159,-0.39489363632202146,-0.06119337743557989
1772790211149839400,7.89483935546875,-0.575676904451847,-0.40483226201236244,-0.07596746045835316
1772790211159904500,7.904904541015625,-0.7099339837282895,-0.37657355125546454,-0.04314005354642868
1772790211169970400,7.914970458984375,-0.8669973535746336,-0.3037701808512211,0.06260558232106268
1772790211180036600,7.92503662109375,-0.7127309209704399,-0.18779986889362335,-0.04323664578869939
1772790211190102300,7.935102294921875,-0.6820937906444072,-0.17806173421144483,-0.01555303150601685
1772790211200167400,7.94516748046875,-0.645443099117279,-0.17011369781643151,-0.02855659772492945
1772790211210233300,7.9552333984375,-0.808366300907731,-0.12388240025639534,0.03908040289208293
1772790211220299500,7.965299560546875,-1.012086792510748,-0.07844488342255354,0.03912519188188016
1772790211230364400,7.975364501953125,-1.0722381866127253,0.10958265674710273,-0.05340418486408889
1772790211240430300,7.985430419921875,-1.0198802228659392,0.3378834628552198,-0.18218363644704222
1772790211250496500,7.99549658203125,-1.0033610497415064,0.5339724366664886,-0.2832186834707856
1772790211260561400,8.0055615234375,-0.9403671256899833,0.7117842877700924,-0.3844880507070571
1772790211270627600,8.015627685546875,-0.6075310093522072,0.8846621896028518,-0.5359576191343367
1772790211280692200,8.025692138671875,-0.3028057197332382,0.9824828046247363,-0.626062837473303
1772790211290758400,8.03575830078125,-0.048726913768053055,0.984652257618308,-0.6430783427473157
1772790211300824300,8.04582421875,0.22358020732700823,0.9912442032292484,-0.6910802301764488
1772790211310889500,8.055889404296876,0.3845540286153555,0.9833093185767531,-0.6334438145700841
1772790211320955400,8.065955322265625,0.5638543647110462,0.9102312228843569,-0.5382092705186456
1772790211331021600,8.076021484375,0.6128302848041057,0.8512094173341989,-0.49328584068678316
1772790211341086500,8.08608642578125,0.6408487570643424,0.785566732339561,-0.4734473869465291
1772790211351152400,8.09615234375,0.7392483410179614,0.7274336923226714,-0.4144808917801827
1772790211361218600,8.106218505859376,0.8770259956359863,0.6538800880730151,-0.3551204288601875
1772790211371283500,8.116283447265625,0.8308762388795614,0.547362371854484,-0.20663784035444258
1772790211381349400,8.126349365234375,0.8029524591654539,0.5078200505390763,-0.05552030023522675
1772790211391415300,8.136415283203124,0.805449536678195,0.45917029366046186,0.051320510457828636
1772790211401481500,8.1464814453125,0.7598685197204351,0.5082008665502071,0.0659318771995604
1772790211411546400,8.15654638671875,0.6932523135185241,0.47955374099761244,0.1442071762088686
1772790211421612500,8.166612548828125,0.5267664508104324,0.4572393255978822,0.15154299898967147
1772790211431678500,8.176678466796876,0.44185938563644883,0.4307257049426436,0.25589155447557566
1772790211441743400,8.186743408203125,0.27375147468447686,0.3221943108141422,0.3996748792491853
1772790211451809300,8.196809326171875,0.0453612367272377,0.26083032605201006,0.526520586290583
1772790211461875500,8.20687548828125,0.08069967661201953,0.3313783187448978,0.5128117944117635
1772790211471940600,8.216940673828125,0.01961889270544052,0.3478419622898102,0.5118254867881536
1772790211482006500,8.227006591796876,-0.4060048129230737,0.343363501701504,0.5448032619562
1772790211492072400,8.237072509765625,-0.8311258297264575,0.3536737371832132,0.5959642710033803
1772790211502137300,8.247137451171875,-0.9934177478760481,0.39609570558816193,0.6162133513711393
1772790211512203500,8.25720361328125,-1.022989294797182,0.47632235786095256,0.6163777481526136
1772790211522269400,8.26726953125,-1.065491050440073,0.4892503746256232,0.6331092488534749
1772790211532334300,8.277334228515626,-1.09028237734735,0.5395036211781203,0.6080613533692434
1772790211542400300,8.287400146484375,-0.8811825307935476,0.6466695721723139,0.48832978918198494
1772790211552466400,8.297466552734376,-0.5184662399768829,0.6992242275349796,0.3674714859871194
1772790211562531600,8.307531494140624,-0.2279080073982477,0.6406726698450744,0.3045244332846254
1772790211572597500,8.317597412109375,-0.022611060258746145,0.4743434590034187,0.40290505680944766
1772790211582663400,8.327663330078124,0.06425415324568748,0.2674894916802645,0.6253052971042692
1772790211592728300,8.337728271484375,0.024929858595132828,0.07602320923358201,0.8060133811060338
1772790211602794500,8.34779443359375,-0.02111819135248661,-0.15086860685944556,0.9291470818869769
1772790211612860400,8.3578603515625,0.09800035550296306,-0.31538623823449013,0.9764975927352905
1772790211622925600,8.367925537109375,0.41024025853574275,-0.4036120725676417,1.0328670571457594
1772790211632991500,8.377991455078124,0.45954877158403395,-0.41655528690144417,1.1427500120136886
1772790211643057400,8.388057373046875,0.4170400016784668,-0.4972333362035453,1.240087154367566
1772790211653122300,8.398122314453126,0.3535919041186571,-0.5413923575341701,1.3208265784680842
1772790211663188500,8.4081884765625,0.3621563188463449,-0.4639927453808486,1.2783533182673155
1772790211673254400,8.41825439453125,0.3396405356556177,-0.39687954944223164,1.1775238037530331
1772790211683319300,8.4283193359375,0.20179273841083048,-0.3680354400128126,1.1399331279620528
1772790211693385500,8.438385498046875,0.05475099636316299,-0.3438634140476584,1.1140133815467357
1772790211703451400,8.448451416015626,-0.09095102151334285,-0.25792539839074013,1.0962368287723512
1772790211713516500,8.4585166015625,-0.33658407069444657,-0.24039894791990518,1.0492509134527295
1772790211723582500,8.46858251953125,-0.4646399572432041,-0.3032061172276735,1.0390987911421805
1772790211733648600,8.478648681640625,-0.3762614165663719,-0.2636259481199086,0.9892774332009255
1772790211743713300,8.48871337890625,-0.18342998324632642,-0.16807269350811838,0.9604374154247343
1772790211753779500,8.498779541015624,-0.16380641436576843,-0.13759542991891502,0.9718108962237835
1772790211763845400,8.508845458984375,-0.3112444622546434,-0.21710633513778446,0.9749584004692733
1772790211773910500,8.51891064453125,-0.3690934246331453,-0.22924963126555084,0.9568754851594566
1772790211783976400,8.5289765625,-0.3933586818397045,-0.2379411795042455,0.8904973254971206
1772790211794042400,8.53904248046875,-0.348248789525032,-0.27501111935675143,0.811362779309973
1772790211804107500,8.549107421875,-0.20535306124091146,-0.29976342942789197,0.7382637869600206
1772790211814173400,8.55917333984375,-0.09652268416583537,-0.3619207565248012,0.7296507838502526
1772790211824239600,8.569239501953126,-0.08628361422419548,-0.4084634581215679,0.7144508766308426
1772790211834304300,8.57930419921875,-0.1157101997166872,-0.4102933038972318,0.6876260711345821
1772790211844370400,8.589370361328125,-0.21205928088128564,-0.4891952834375202,0.6757325119841844
1772790211854436400,8.599436279296874,-0.21454174534678458,-0.5468846713401377,0.6719548200763762
1772790211864502500,8.60950244140625,-0.08640168764591216,-0.5037007786519825,0.6278988207288086
1772790211874567400,8.6195673828125,-0.07062602636516094,-0.505372803517431,0.5934949948130175
1772790211884633600,8.629633544921875,-0.1953875475436449,-0.5479432404823601,0.5718844533663243
1772790211894699300,8.63969921875,-0.33842648369073863,-0.5987110124282539,0.5544594174433499
1772790211904764400,8.649764404296874,-0.38009412659704683,-0.6546991493709385,0.5231022292144596
1772790211914830300,8.659830322265625,-0.35557109523713587,-0.6741514533378183,0.5339156284453347
1772790211924896500,8.669896484375,-0.30001988840699195,-0.6937658159986138,0.5209908630836755
1772790211934961700,8.679961669921875,-0.32732173683047294,-0.7464391293048859,0.5922371402390301
1772790211945027300,8.69002734375,-0.5689315218448638,-0.830817202168703,0.7175069762658327
1772790211955093500,8.700093505859375,-0.8723334539055824,-0.9398118298947811,0.8001051069103181
1772790211965158400,8.710158447265625,-0.9646797291696071,-0.8837652407631278,0.7747245819382369
1772790211975221000,8.720220947265625,-1.0848971771776676,-0.8962550122410059,0.8014728881321846
1772790211985287000,8.730286865234374,-1.3215852878808974,-0.9153136407151817,0.7654024807110429
1772790211995352000,8.74035205078125,-1.5335077906399965,-0.9178530960649252,0.7874025694645941
1772790212005418000,8.75041796875,-1.7669278394579886,-0.7753294159635901,0.704348438680917
1772790212015484200,8.760484130859375,-1.9801029726266859,-0.4956317462258041,0.5851800978669897
1772790212025549000,8.770549072265625,-2.1808909179091454,-0.1718308769978583,0.41540092923454935
1772790212035615000,8.780614990234374,-2.3539742791861293,0.19114260345026848,0.2517770683614537
1772790212045681000,8.790680908203125,-2.3312860620379445,0.5611734550639986,0.14262332281721754
1772790212055747000,8.8007470703125,-2.124806627115607,0.8150362801909447,0.08486494306530803
1772790212065812000,8.81081201171875,-1.9237112233191727,0.9998337523981928,-0.07948151472760363
1772790212075878000,8.8208779296875,-1.4836463198840617,1.2025934361450374,-0.24258790933154523
1772790212085944000,8.830944091796875,-0.9289654417097568,1.3017811017364262,-0.4735173103775829
1772790212096009000,8.841009033203125,-0.3340191886425018,1.3306006612464785,-0.5262667211273685
1772790212106075100,8.8510751953125,0.0028548049092292785,1.2351691333182155,-0.4137820958610624
1772790212116141000,8.86114111328125,-0.13116145134866236,0.9612896483398974,-0.3314483152411878
1772790212126206000,8.8712060546875,-0.294113294711709,0.680729954945296,-0.279873026304692
1772790212136272000,8.88127197265625,-0.07595803504288196,0.5647501445069909,-0.33686887898519635
1772790212146338000,8.891338134765626,0.35106150885820386,0.5237219685479998,-0.3470644385786727
1772790212156403000,8.90140283203125,0.4962368725121021,0.5495584205940366,-0.3480629846293479
1772790212166469000,8.91146923828125,0.4290829061716795,0.6022273499861359,-0.42308048741910603
1772790212176534800,8.92153466796875,0.3624626083165407,0.664960285013914,-0.47051096816845234
1772790212186600000,8.931599853515625,0.23660277050733564,0.71290773884207,-0.4316742013065144
1772790212196666000,8.941666015625,0.19834464378356934,0.8416866789683699,-0.4281622841954231
1772790212206732000,8.95173193359375,0.28706045359075066,1.030040674613416,-0.50987859050408
1772790212216797000,8.961796875,0.3443319083422422,1.18351420327425,-0.6295544789813459
1772790212226862800,8.97186279296875,0.4097217876195907,1.26270712858513,-0.7090962177298963
1772790212236929000,8.981928955078125,0.4412888922721147,1.2868480287596582,-0.698515640874207
1772790212246994000,8.991993896484376,0.3142044811040163,1.2164740774594247,-0.5846778109006583
1772790212257060000,9.00206005859375,0.05379121142029762,1.071342552947253,-0.443957234698534
1772790212267126000,9.0121259765625,-0.15518296292722225,0.9872804141648113,-0.3588028436999768
1772790212277191000,9.02219091796875,-0.21114625768959522,0.9359604151636362,-0.25832225222121924
1772790212287256800,9.0322568359375,-0.21226561710834502,0.8808402932271361,-0.21427533122925085
1772790212297323000,9.042322998046876,-0.14748831677138804,0.8386942191541195,-0.24237724398924038
1772790212307388200,9.05238818359375,0.014362287351489067,0.7931364369414746,-0.26686620868276806
1772790212317454000,9.0624541015625,0.08093523893356323,0.703487584067881,-0.22133542407490311
1772790212327520000,9.07252001953125,0.03348258288502693,0.6455379377938807,-0.13757846051780506
1772790212337585000,9.0825849609375,0.06480886451900005,0.5313856350436806,-0.02974482112880796
1772790212347651000,9.092651123046876,0.15778466985821724,0.4918158411994576,0.04589110582023859
1772790212357717000,9.102717041015625,0.26552082195580007,0.39733386908099055,0.12494926230292766
1772790212367782000,9.112781982421875,0.3540454931050539,0.30164354408606886,0.14410433688890187
1772790212377847800,9.122847900390624,0.47420098179280756,0.24414003414437174,0.17808683212008325
1772790212387914000,9.1329140625,0.5497077659368514,0.12787892254665492,0.22893588914126156
1772790212397979100,9.142979248046874,0.5288029250741004,0.0050523149535059925,0.27039927817974235
1772790212408045000,9.153045166015625,0.5448088879793882,-0.05985431085154414,0.28183431644029916
1772790212418111000,9.163111083984376,0.5604319890469313,-0.1475663504436612,0.3374690003028139
1772790212428176000,9.17317578125,0.5243664039313792,-0.17098887321576475,0.35700825190078467
1772790212438242000,9.183241943359375,0.5203904860377312,-0.15425415764451025,0.37509989850632847
1772790212448308000,9.193307861328124,0.4962590843439102,-0.14094327904209494,0.38069311540350315
1772790212458373000,9.203373046875,0.4489543123334646,-0.06812383428588509,0.39681090465281155
1772790212468438800,9.213438720703126,0.3540671204149723,0.0014363164134323595,0.3682825101090595
1772790212478505000,9.2235048828125,0.3517378006845712,0.07521364641636609,0.31156251522786915
1772790212488569900,9.23356982421875,0.4405915576577186,0.1432803436875343,0.3457170060250908
1772790212498636000,9.243635986328124,0.46227147454619405,0.13429551159068942,0.38918775283060963
1772790212508702000,9.253701904296875,0.4401104961425066,0.11569675571322441,0.4172203997466713
1772790212518766800,9.263766845703126,0.4401367996275425,0.0714224374398589,0.43325544261597093
1772790212528833000,9.2738330078125,0.4262929831922054,-0.024245091201364994,0.48871805784720923
1772790212538899000,9.28389892578125,0.4249538435429334,-0.12877294877693057,0.5630536427874118
1772790212548964000,9.293964111328124,0.4713356554895639,-0.18110519356057048,0.613175883371383
1772790212559030000,9.304030029296875,0.5302408489227295,-0.25068507187366484,0.6908058702144771
1772790212569096200,9.31409619140625,0.6205810450613498,-0.30507234949097034,0.7152998216103762
1772790212579160800,9.324160888671875,0.6836649854838848,-0.31333442027121783,0.7030410093441605
1772790212589227000,9.33422705078125,0.6491822856456041,-0.28523513785973187,0.7361866153597831
1772790212599293000,9.34429296875,0.4980097274035215,-0.2871661059223115,0.784191206202656
1772790212609358000,9.354358154296875,0.36754794875681396,-0.2655515093550086,0.7842484893478453
1772790212619423700,9.364423828125,0.35298517039716243,-0.18873890330940485,0.7354644385650754
1772790212629490000,9.374489990234375,0.38879473492503164,-0.13845774583667517,0.679924849107489
1772790212639555000,9.38455517578125,0.3559527880311012,-0.13421762404888868,0.704093733267486
1772790212649621000,9.39462109375,0.29288696778714657,-0.1251858840703964,0.7376485046058893
1772790212659687200,9.404687255859375,0.20562135678827761,-0.11297054561972618,0.713253629670292
1772790212669751800,9.414751708984374,0.09354279157221317,-0.11132789297923446,0.7338982121616602
1772790212679818000,9.42481787109375,-0.004067687830328941,-0.09686872112452984,0.7679450778659432
1772790212689884000,9.4348837890625,0.0016185411125421523,-0.03892060922048986,0.7504012378688901
1772790212699949000,9.444948974609375,-0.03720364923477173,0.030478213437274096,0.7464085880361497
1772790212710015000,9.455014892578125,-0.12305062560737132,0.1418058141555637,0.750760938026756
1772790212720081200,9.4650810546875,-0.21644261053204536,0.24308694489486515,0.7409485690645873
1772790212730146000,9.47514599609375,-0.4102800060242414,0.33862828987315297,0.7661779951281845
1772790212740212000,9.4852119140625,-0.5847907697558402,0.42834268226362765,0.7863580288477241
1772790212750278000,9.49527783203125,-0.6548229218810796,0.4433765122011304,0.8301949786171317
1772790212760343000,9.505343017578125,-0.8078601049512625,0.4788890665438026,0.8379119827352464
1772790212770409000,9.515408935546875,-1.1279045442551374,0.624377076343447,0.7949521080613136
1772790212780475000,9.525474853515625,-1.5202999340206385,0.7616182859972119,0.7398929225318134
1772790212790540000,9.5355400390625,-1.838233664780855,0.8717837841335684,0.6778316762205213
1772790212800606000,9.54560595703125,-1.8577496816337107,0.9878473273325711,0.6721685358922929
1772790212810672000,9.555672119140626,-1.7731418916672468,1.1562519562087952,0.7515094913717358
1772790212820736800,9.56573681640625,-1.8557494477272032,1.3518243588000536,0.525602521597594
1772790212830803000,9.575802978515625,-1.1658680719465018,1.5175044580832122,0.49148850894123314
1772790212840868900,9.585868896484374,-0.5527028560996056,1.6805542088627814,0.4046302366342395
1772790212850935000,9.59593505859375,-0.07420563841760158,1.662338314823061,0.4087270044285804
1772790212861000000,9.606,0.3352829249680042,1.5406959485784173,0.5410263007007539
1772790212871066000,9.616066162109375,0.6834077958524227,1.3965148566588759,0.8279779601547866
1772790212881131800,9.6261318359375,0.4893395142138004,1.1523458886809645,1.2519830516055226
1772790212891197000,9.636197021484374,-0.04617255311012268,0.9331186158664524,1.4792095064803956
1772790212901263000,9.64626318359375,-0.29688685107827184,0.7075857401017099,1.6067745407722889
1772790212911329000,9.6563291015625,-0.16361995188295841,0.6554331627339124,1.62305405992195
1772790212921394000,9.666393798828125,-0.051200610405206674,0.6817877203699201,1.6237475951440632
1772790212931459800,9.6764599609375,-0.1505611483454704,0.664131286843866,1.4931123596265912
1772790212941526000,9.686526123046875,-0.04608312126100063,0.7532723363257944,1.3655482021175325
1772790212951591000,9.6965908203125,0.018870120164752004,0.8050098300866783,1.363725808995962
1772790212961657000,9.706656982421874,0.05955810438394546,0.8750623674128204,1.4434449501380324
1772790212971723000,9.716722900390625,0.10135317306220532,0.9908159678798169,1.5614923606306315
1772790212981787100,9.726787109375,-0.06534428656995296,1.0277408732384443,1.578012995059788
1772790212991853300,9.736853271484375,-0.20555705938041208,1.0050406003262846,1.6559661494426428
1772790213001919200,9.746919189453125,-0.12394552862048148,1.012045218391344,1.7224805027052759
1772790213011984400,9.756984375,-0.020541268247365952,0.9339798358056693,1.73993871024549
1772790213022050300,9.76705029296875,0.04271919778585434,0.8318448647160083,1.8192175602741538
1772790213032116500,9.777116455078126,0.028083938711881636,0.7092536002486943,1.9215467387616634
1772790213042181400,9.787181396484375,-0.07128010635972022,0.5897788603667169,2.0119221523441375
1772790213052247300,9.797247314453125,-0.15864742416739464,0.515484374621883,2.095337225394696
1772790213062313200,9.807313232421874,-0.2007242323964834,0.48696763398330656,2.150922772885859
1772790213072378400,9.81737841796875,-0.1994832924246788,0.5319663575410842,2.1476593871757386
1772790213082444500,9.827444580078126,-0.18580255759656428,0.5876260662470013,2.1842611249946056
1772790213092510200,9.83751025390625,-0.1957312464147806,0.6275573138147592,2.1774515911102292
1772790213102575400,9.847575439453125,-0.2243272263020277,0.6255002351544797,2.1324676632627844
1772790213112641300,9.857641357421874,-0.20559271521568298,0.6391711061757057,2.1611735332652926
1772790213122707500,9.86770751953125,-0.244243056127429,0.6582867255341261,2.188271091288328
1772790213132772000,9.877772216796876,-0.2640799754977226,0.6716492612585425,2.1654291448831557
1772790213142838300,9.88783837890625,-0.3563572771787643,0.673183338958025,2.127317148631811
1772790213152904200,9.897904296875,-0.48156361951529975,0.6611408728562295,2.1020039898075162
1772790213162969300,9.90796923828125,-0.4961895262390375,0.7072250170305371,2.065012668149173
1772790213173035300,9.91803515625,-0.48521629680395123,0.7430173381626606,2.0550928932897747
1772790213183101400,9.928101318359374,-0.5531733962208032,0.7750815786823629,2.0777726348705587
1772790213193166300,9.938166259765625,-0.632764819329977,0.8641236978344619,2.0788551694102586
1772790213203232300,9.948232177734376,-0.7172726560533046,0.9677310064990073,2.054993524568528
1772790213213298400,9.95829833984375,-0.9022206426471471,1.0514799876790493,2.0271002861231566
1772790213223363300,9.96836328125,-1.0215063627630472,1.159385943385586,1.9724162175163626
1772790213233429500,9.978429443359374,-1.044684993776679,1.3199844285555182,1.7909096035480498
1772790213243495200,9.9884951171875,-1.0352373664736747,1.5066855424270034,1.629909624905139
1772790213253560300,9.998560302734376,-1.157428160381317,1.668773024045676,1.452048089440912
1772790213263626200,10.008626220703125,-1.4264923540323973,1.765511542919278,1.284269848834723
1772790213273692400,10.0186923828125,-1.6751584872990846,1.7687470177091658,1.135001151452586
1772790213283757300,10.02875732421875,-1.7209692213594912,1.7432444737926125,0.9540439149953425
1772790213293823200,10.0388232421875,-1.7002601953297853,1.7313041528910398,0.8608143540907651
1772790213303889200,10.04888916015625,-1.6338818895369767,1.7751039855204522,0.7081877245828508
1772790213313954300,10.058954345703125,-1.585708517998457,1.6722116201922297,0.61665028148368
1772790213324020500,10.0690205078125,-1.4908213260799645,1.65239062904343,0.5567333537247031
1772790213334086400,10.07908642578125,-1.1952052255898713,1.6935026838935912,0.4554387059167027
1772790213344151300,10.0891513671875,-1.0632757124781609,1.6922918467991053,0.3785445590674877
1772790213354217200,10.09921728515625,-1.1069564487725496,1.6416092689186335,0.4136391071937978
1772790213364283400,10.109283447265625,-1.0371247876554728,1.5265648396342992,0.4825200799899175
1772790213374348300,10.119348388671876,-0.8421949207514524,1.4096515477381646,0.5577796844398603
1772790213384414200,10.129414306640625,-0.5807540615856647,1.3080050908178091,0.6093531832780689
1772790213394480000,10.139480224609375,-0.3098860333830118,1.2452657260492443,0.6330261736799031
1772790213404545300,10.149545166015624,-0.10387713858187198,1.1669838511686772,0.6335289355702698
1772790213414611500,10.159611572265625,-0.04147825781404972,1.0836140785645694,0.6728393478259443
1772790213424677400,10.169677490234376,0.029929274317622184,1.0420992881324143,0.7347522717077285
1772790213434742300,10.1797421875,0.1138841533333063,1.0198947628479451,0.675268328538537
1772790213444808200,10.18980810546875,0.20973580636978148,1.007175931854546,0.6301175196915865
1772790213454874400,10.199874267578124,0.23647709830105304,0.9416654949374497,0.6215011555809528
1772790213464939300,10.209939208984375,0.2002548613190651,0.862516701029241,0.5923977741608396
1772790213475005400,10.22000537109375,0.3275859407246113,0.7702060816004872,0.5504892351707443
1772790213485071400,10.2300712890625,0.437638553071022,0.674828183555603,0.5288754423210397
1772790213495136300,10.24013623046875,0.4018541229844093,0.5733822176434099,0.5647267636314034
1772790213505202200,10.2502021484375,0.2996235825657844,0.4632663308024406,0.5844285853799432
1772790213515268400,10.260268310546875,0.2650467747032642,0.35120383993834253,0.6046516179909929
1772790213525333500,10.27033349609375,0.19196926353275776,0.2617646842926741,0.5673279225731268
1772790213535399200,10.280399169921875,0.16370236946940422,0.20068916108310222,0.5066965264018625
1772790213545465300,10.29046533203125,0.13076222289800643,0.1533760596357286,0.49935566211976107
1772790213555530200,10.3005302734375,0.09264730403721332,0.1267958034850657,0.49290246739238497
1772790213565596400,10.310596435546875,0.03869008840024471,0.026034312705695627,0.4241197308063507
1772790213575662300,10.320662353515624,0.033166356542706485,0.044634529887884855,0.36305187944658096
1772790213585727200,10.330727294921875,0.14658581497371195,0.011994681437313555,0.3211894811531529
1772790213595793200,10.340793212890626,0.3090378921210766,-0.038404841718077655,0.32002566153816875
1772790213605859300,10.350859375,0.34487668274343014,-0.07183262567594648,0.2512275995188393
1772790213615924500,10.360924560546875,0.22591946392953394,-0.14505042209997773,0.18926329250968993
1772790213625990400,10.370990478515624,0.034708325287699696,-0.1510201441593468,0.1524148864533752
1772790213636056300,10.381056396484375,0.01686053390800953,-0.19848332160189747,0.12269692593202926
1772790213646121200,10.391121337890626,0.03690203593969345,-0.2219737950436771,0.11725967591470107
1772790213656187400,10.4011875,0.1687175672829151,-0.17710633318275212,0.07310365939191542
1772790213666253300,10.41125341796875,0.23505963271856306,-0.19920155287384986,0.04843670778297819
1772790213676318500,10.421318359375,0.15794424433410167,-0.17154402288049458,0.03762818565662019
1772790213686384000,10.431384033203125,0.02442950785756111,-0.06354118267074227,-0.10779580986294894
1772790213696450300,10.4414501953125,-0.03251695272326469,0.0447705773577094,-0.21810681741721927
1772790213706515200,10.45151513671875,-0.03474105851352215,0.16274419196173548,-0.2772490710092708
1772790213716581400,10.461581298828126,0.04666472054123878,0.22848493050336838,-0.34340321265738455
1772790213726647300,10.471647216796875,0.1203758534401655,0.2820771122202277,-0.2490241163915023
1772790213736712200,10.481712158203125,0.04814706805348396,0.2561442140623927,-0.11828139277840964
1772790213746778400,10.4917783203125,0.19088088377416132,0.2643443255223334,-0.26067135436432437
1772790213756844300,10.50184423828125,0.22452947087585926,0.2670496389582753,-0.1965841917159967
1772790213766909400,10.511909423828126,0.40210196026563644,0.29162279307022687,-0.15595117082074283
1772790213776975400,10.521975341796875,0.4633405650824308,0.2507699736781418,-0.10634729155506938
1772790213787041500,10.53204150390625,0.3203121503293514,0.16569821946173904,-0.02668888589059934
1772790213797106200,10.542106201171874,0.1434247205942869,0.11813757299408316,0.04978301695855334
1772790213807172400,10.55217236328125,0.17108663450181483,-0.0072784665703773494,0.24160576642639933
1772790213817238300,10.56223828125,0.1320791507154703,-0.0400773049749434,0.39714791805483396
1772790213827303400,10.572303466796875,0.1763075840204954,-0.09744535196870564,0.4950223821558058
1772790213837369000,10.582369140625,0.14203180493116377,-0.1452101427063346,0.3850487533297389
1772790213847435300,10.592435302734375,0.005586860221624374,-0.208117849779129,0.2948668164927512
1772790213857500400,10.60250048828125,-0.22961130418479442,-0.2711585355818271,0.24172175748888403
1772790213867566300,10.61256640625,-0.38068215561807156,-0.3049921238616109,0.1533889921825379
1772790213877632300,10.62263232421875,-0.3609241467028856,-0.2745747737661004,0.0029185543278232215
1772790213887697200,10.632697265625,-0.2626835527032614,-0.21192396406382322,-0.14827018786408006
1772790213897763300,10.642763427734375,-0.14854688591361045,-0.1747352201372385,-0.25936682937070726
1772790213907829200,10.652829345703125,-0.18431436486542224,-0.1496881649032235,-0.3557050238151103
1772790213917894400,10.662894287109374,-0.23569325444698333,-0.08800561571121215,-0.4417996182732284
1772790213927960300,10.672960205078125,-0.23770576331317422,-0.020551789641380307,-0.45863523693569
1772790213938026500,10.683026611328126,-0.23380641778707503,0.035622517523169514,-0.3859260476209223
1772790213948091400,10.69309130859375,-0.28192425974607466,0.09634761985987424,-0.3745603482695296
1772790213958157300,10.7031572265625,-0.2379296351969242,0.16228958006203173,-0.360130621705018
1772790213968223200,10.71322314453125,-0.2779664620310068,0.21070026748776435,-0.32037465763892975
1772790213978288400,10.723288330078125,-0.3937982423007488,0.2130479996576905,-0.3394911537801847
1772790213988354600,10.7333544921875,-0.4878747023582458,0.22109920416623352,-0.3645859571460634
1772790213998420500,10.74342041015625,-0.5496896457582712,0.28547230761647224,-0.3932425811793655
1772790214008485600,10.753485595703125,-0.6141916362851858,0.33546792614609,-0.4806608254566788
1772790214018551300,10.76355126953125,-0.5028425543874502,0.40049481732994313,-0.5087765840789303
1772790214028617500,10.773617431640625,-0.25740181290805336,0.5248877974569797,-0.47250911971572784
1772790214038682400,10.783682373046876,-0.10095043748021125,0.6062193422317504,-0.501607678830251
1772790214048748500,10.79374853515625,0.02590133397579193,0.5949325168028473,-0.5596546114662662
1772790214058814500,10.803814453125,0.18111703012883662,0.5853913659974932,-0.6044859425678849
1772790214068879400,10.81387939453125,0.328878903144598,0.5656944396197795,-0.5940977464791387
1772790214078945300,10.8239453125,0.3506605268418789,0.5265852490246296,-0.5410566958390176
1772790214089011500,10.834011474609374,0.19121055411994456,0.45564621118754145,-0.5125438276579604
1772790214099076600,10.84407666015625,0.22405834623277185,0.4372442930564284,-0.5511565034404396
1772790214109142500,10.854142578125,0.5219318702608347,0.392509079273045,-0.529016933150962
1772790214119208400,10.86420849609375,0.8046066561132669,0.39850685838311906,-0.4445474191440269
1772790214129273300,10.8742734375,0.9167050950735807,0.45251171255409717,-0.34983814107570793
1772790214139339500,10.884339599609374,0.7013368357747792,0.39898441276699304,-0.2536420402494259
1772790214149405400,10.894405517578125,0.7313064421027898,0.17792466382831335,-0.11519267864860594
1772790214159470600,10.904470703125,1.3083178100287913,0.2952534046575427,-0.07577646793089807
1772790214169536300,10.914536376953125,1.0288532183945178,0.287833776050806,-0.2860332659674808
1772790214179602400,10.9246025390625,0.7075058797985315,0.15140987412929535,-0.27119457500958816
1772790214189667600,10.93466748046875,0.8445598963171244,0.024229016849398613,-0.04147803861834109
1772790214199733500,10.9447333984375,0.7133002452909946,-0.004265256229043007,-0.0447043802537024
1772790214209798400,10.95479833984375,0.8594400700628757,-0.032227029865980146,-0.04418431103550829
1772790214219864300,10.9648642578125,0.7437859844475984,0.004844517421722412,-0.016149426496587693
1772790214229930500,10.974930419921876,0.5816086325883865,-0.0007668927192687987,0.006680939068645238
1772790214239996400,10.984996337890625,0.513745641195774,0.01895195322930813,-0.011032926016359124
1772790214250061600,10.9950615234375,0.4757850361138582,0.03412497244179249,-0.07116649905056692
1772790214260127500,11.00512744140625,0.4010907373964786,-0.01373772571235895,-0.1470701644245535
1772790214270192400,11.0151923828125,0.4443436036676168,-0.07789251023679972,-0.23836291204765436
1772790214280258300,11.02525830078125,0.4695055174529552,-0.12965046226382254,-0.24932735538808629
1772790214290324500,11.035324462890625,0.4918927058279514,-0.24168898773044345,-0.20861352434158323
1772790214300390400,11.045390380859375,0.3745978672683239,-0.2897185668841004,-0.16618649616902692
1772790214310455300,11.055455322265624,0.09466273551285266,-0.3896503288410604,-0.24188535055276006
1772790214320521500,11.065521484375,-0.06830021376609802,-0.5033475813001393,-0.34036990937609224
1772790214330586400,11.07558642578125,-0.014567454534769058,-0.5748216027967632,-0.3453365188075229
1772790214340652500,11.085652587890625,0.07254442720711231,-0.6355635101377963,-0.33626517747100443
1772790214350718500,11.095718505859375,0.03563888413608074,-0.6496062101460993,-0.28807317429725077
1772790214360783400,11.105783447265624,0.036086627903580665,-0.6215653799235821,-0.3848518059855327
1772790214370849300,11.115849365234375,0.8262970943957567,-0.5738561187654734,-0.3304335487080738
1772790214380915500,11.12591552734375,1.5643068335294723,-0.3712786597177386,-0.04174872705219313
1772790214390980600,11.135980712890625,-0.1467792917191982,-0.39821050578504796,-0.23468871704693883
1772790214401046500,11.146046630859376,-1.125001224029064,-0.7471095759123564,-0.5738030368713661
1772790214411112400,11.156112548828125,-0.8932634292095899,-0.8156327847793697,-0.40854792153462766
1772790214421177300,11.16617724609375,-0.8547416831135749,-0.7096583816573023,-0.3401699663572013
1772790214431243500,11.176243408203124,-1.0529828665226697,-0.8369479600086808,-0.4884430768307298
1772790214441309400,11.186309326171875,-1.0862293025642633,-0.9141749920740723,-0.6555687718123198
1772790214451374600,11.19637451171875,-1.0551228011608123,-0.853303759264946,-0.7864801939226687
1772790214461440300,11.206440185546874,-0.9500497307926415,-0.8677065247572958,-0.7509058994553983
1772790214471506400,11.21650634765625,-0.7345441088497638,-0.9652820789769291,-0.7260594813600182
1772790214481571300,11.2265712890625,-0.4418471106767654,-0.762792882734537,-0.617771102207154
