time,seconds_elapsed,z,y,x
1772790203338871000,0.08387109375,0.6563660502433777,-0.03885786235332489,-0.14936521649360657
1772790203348937000,0.09393701171875,0.6636820435523987,-0.1150309219956398,-0.19449834525585175
1772790203359001900,0.104001953125,0.6548235416412354,-0.1628822237253189,-0.19010575115680695
1772790203369068000,0.114068115234375,0.6415585875511169,-0.18001115322113037,-0.15099722146987915
1772790203379134000,0.124134033203125,0.6329135298728943,-0.1667564958333969,-0.08994346112012863
1772790203389199000,0.13419921875,0.6221261024475098,-0.1292509287595749,-0.02776237763464451
1772790203399265000,0.14426513671875,0.5943512916564941,-0.0982196033000946,0.016964705660939217
1772790203409331200,0.154331298828125,0.5621854066848755,-0.07807998359203339,0.029486089944839478
1772790203419395800,0.164395751953125,0.5380023717880249,-0.07490939646959305,0.014827625826001167
1772790203429462000,0.1744619140625,0.512063205242157,-0.06163940578699112,-0.020744483917951584
1772790203439528000,0.18452783203125,0.49219709634780884,-0.05701795965433121,-0.06684929132461548
1772790203449593000,0.194593017578125,0.4754122793674469,-0.03468841686844826,-0.10317933559417725
1772790203459659000,0.204658935546875,0.4617546796798706,0.006104718893766403,-0.11298616230487823
1772790203469725000,0.214724853515625,0.4497414231300354,0.036629606038331985,-0.09589292854070663
1772790203479790000,0.2247900390625,0.4531497359275818,0.11140450835227966,-0.060884080827236176
1772790203489856000,0.23485595703125,0.467740923166275,0.21555408835411072,-0.02709602192044258
1772790203499922000,0.244921875,0.48014089465141296,0.28675976395606995,0.00004341959720477462
1772790203509986800,0.25498681640625,0.49552252888679504,0.3067164421081543,-0.004272232763469219
1772790203520053000,0.265052978515625,0.5061522722244263,0.31182020902633667,-0.014438453130424023
1772790203530119000,0.275118896484375,0.5139484405517578,0.3032669425010681,-0.04009827971458435
1772790203540184000,0.28518408203125,0.5200993418693542,0.3078834116458893,-0.07046406716108322
1772790203550250000,0.29525,0.525877833366394,0.3101215362548828,-0.1059512197971344
1772790203560316200,0.305316162109375,0.5303460955619812,0.29302889108657837,-0.14175456762313843
1772790203570381800,0.3153818359375,0.520873486995697,0.29543665051460266,-0.16831746697425842
1772790203580447000,0.325447021484375,0.5097247958183289,0.33956608176231384,-0.1985180675983429
1772790203590513000,0.335512939453125,0.5071650147438049,0.42582082748413086,-0.26211944222450256
1772790203600579000,0.3455791015625,0.520832359790802,0.48730841279029846,-0.3503395617008209
1772790203610644000,0.35564404296875,0.5254113674163818,0.5374983549118042,-0.4517277181148529
1772790203620710000,0.3657099609375,0.5168126821517944,0.5398761630058289,-0.5445277690887451
1772790203630775800,0.37577587890625,0.49578651785850525,0.5002312660217285,-0.6128381490707397
1772790203640841000,0.385841064453125,0.4695700407028198,0.4101736843585968,-0.6483319997787476
1772790203650907100,0.3959072265625,0.43026766180992126,0.28611430525779724,-0.6414892673492432
1772790203660973000,0.40597314453125,0.37839698791503906,0.16436883807182312,-0.618849515914917
1772790203671038000,0.416037841796875,0.3337855637073517,0.018546923995018005,-0.5760080218315125
1772790203681104000,0.426103759765625,0.2895560562610626,-0.09297718107700348,-0.5132372379302979
1772790203691170000,0.436170166015625,0.2541828751564026,-0.1509169191122055,-0.4327594041824341
1772790203701235000,0.44623486328125,0.23179931938648224,-0.17003381252288818,-0.3352186381816864
1772790203711301000,0.456301025390625,0.23939891159534454,-0.1303173005580902,-0.2131345272064209
1772790203721366800,0.46636669921875,0.2750902473926544,-0.017239604145288467,-0.07834726572036743
1772790203731432000,0.476431884765625,0.3366960883140564,0.16251736879348755,0.04712117835879326
1772790203741498000,0.486498046875,0.423598051071167,0.37366780638694763,0.15159885585308075
1772790203751564000,0.49656396484375,0.5112801790237427,0.5435591340065002,0.2051321119070053
1772790203761630000,0.5066298828125,0.5859523415565491,0.6177294254302979,0.21749919652938843
1772790203771694800,0.51669482421875,0.6501246690750122,0.6098446249961853,0.18626351654529572
1772790203781761000,0.526760986328125,0.7107507586479187,0.5566695928573608,0.14151176810264587
1772790203791827000,0.536826904296875,0.766549289226532,0.47082579135894775,0.11023879796266556
1772790203801892000,0.54689208984375,0.8079931735992432,0.39301201701164246,0.1126951351761818
1772790203811958000,0.5569580078125,0.8279815316200256,0.35634320974349976,0.14745791256427765
1772790203822024000,0.56702392578125,0.8283194303512573,0.30807986855506897,0.18872122466564178
1772790203832088800,0.5770888671875,0.8061355948448181,0.21033863723278046,0.2222309708595276
1772790203842155000,0.587155029296875,0.7647429704666138,0.0820683091878891,0.22722597420215607
1772790203852221000,0.597220947265625,0.6945300698280334,-0.03756354749202728,0.19861909747123718
1772790203862286000,0.6072861328125,0.6038962006568909,-0.15797823667526245,0.15883776545524597
1772790203872352000,0.61735205078125,0.4962528347969055,-0.22782470285892487,0.12410081923007965
1772790203882418000,0.62741796875,0.4033607542514801,-0.2609444260597229,0.09666922688484192
1772790203892483000,0.637483154296875,0.32767611742019653,-0.28407424688339233,0.08810103684663773
1772790203902549000,0.647549072265625,0.2664348781108856,-0.20667587220668793,0.09997864067554474
1772790203912615200,0.657615234375,0.2342226207256317,-0.07071805000305176,0.11802874505519867
1772790203922679800,0.6676796875,0.2292587012052536,0.08583202213048935,0.13473668694496155
1772790203932746000,0.67774609375,0.2320142686367035,0.25775450468063354,0.13702566921710968
1772790203942812000,0.68781201171875,0.24942590296268463,0.40678277611732483,0.12574319541454315
1772790203952877000,0.697876953125,0.2596607208251953,0.49933508038520813,0.09381082653999329
1772790203962942500,0.7079423828125,0.26338860392570496,0.5360027551651001,0.054854169487953186
1772790203973008400,0.71800830078125,0.2570774555206299,0.5318570137023926,0.002020783256739378
1772790203983074300,0.72807421875,0.24091807007789612,0.491987943649292,-0.04985975846648216
1772790203993139500,0.738139404296875,0.2067561149597168,0.4390866458415985,-0.08430295437574387
1772790204003205600,0.74820556640625,0.15942363440990448,0.3860211968421936,-0.10149285942316055
1772790204013271300,0.758271240234375,0.100746750831604,0.3009984493255615,-0.11047489941120148
1772790204023336400,0.76833642578125,0.04492269828915596,0.20724216103553772,-0.11877767741680145
1772790204033402400,0.77840234375,-0.00714050093665719,0.08621907234191895,-0.12895867228507996
1772790204043468500,0.788468505859375,-0.0532943457365036,-0.03369664028286934,-0.13437217473983765
1772790204053533400,0.798533447265625,-0.09159033745527267,-0.1255922168493271,-0.1279076188802719
1772790204063599400,0.808599365234375,-0.11958792060613632,-0.16327299177646637,-0.10158047825098038
1772790204073665300,0.818665283203125,-0.14259949326515198,-0.15845079720020294,-0.06412071734666824
1772790204083730400,0.82873046875,-0.1582404226064682,-0.12711814045906067,-0.03602952882647514
1772790204093796600,0.838796630859375,-0.1677710860967636,-0.08186464011669159,-0.02608848363161087
1772790204103862500,0.848862548828125,-0.1801842302083969,-0.029235566034913063,-0.03980559483170509
1772790204113927400,0.858927490234375,-0.19500765204429626,-0.0053480761125683784,-0.056297749280929565
1772790204123993300,0.868993408203125,-0.20749294757843018,-0.0003031371161341667,-0.06560027599334717
1772790204134059500,0.8790595703125,-0.21206986904144287,0.01499246247112751,-0.060218024998903275
1772790204144124400,0.88912451171875,-0.22544415295124054,0.047119565308094025,-0.040664397180080414
1772790204154190600,0.899190673828125,-0.2376672625541687,0.06176722049713135,-0.006132251117378473
1772790204164256300,0.90925634765625,-0.24634945392608643,0.060369234532117844,0.02361852116882801
1772790204174322400,0.919322509765625,-0.2527863085269928,0.035775743424892426,0.06831861287355423
1772790204184387300,0.92938720703125,-0.2650871276855469,-0.003811964765191078,0.1092081218957901
1772790204194453500,0.93945361328125,-0.2835889160633087,-0.04930860921740532,0.14867377281188965
1772790204204519400,0.94951953125,-0.2897356152534485,-0.0879230722784996,0.19042305648326874
1772790204214584300,0.959584228515625,-0.3065926134586334,-0.12010843306779861,0.21143832802772522
1772790204224650500,0.969650390625,-0.32103654742240906,-0.13285991549491882,0.2194829285144806
1772790204234716400,0.97971630859375,-0.33590149879455566,-0.12478041648864746,0.21543732285499573
1772790204244781600,0.989781494140625,-0.3585391044616699,-0.11403599381446838,0.18879951536655426
1772790204254847500,0.999847412109375,-0.37942707538604736,-0.1265621781349182,0.1406668722629547
1772790204264913700,1.00991357421875,-0.39999517798423767,-0.15984801948070526,0.06293752789497375
1772790204274978300,1.019978271484375,-0.4123495817184448,-0.2349579632282257,-0.024662360548973083
1772790204285044500,1.03004443359375,-0.4214581549167633,-0.34306585788726807,-0.09543686360120773
1772790204295110400,1.0401103515625,-0.4146500527858734,-0.4044993817806244,-0.12645284831523895
1772790204305175600,1.050175537109375,-0.3891122341156006,-0.36919498443603516,-0.10796507447957993
1772790204315241200,1.0602412109375,-0.37117800116539,-0.2798352837562561,-0.07953876256942749
1772790204325307400,1.070307373046875,-0.3526591360569,-0.18935585021972656,-0.06637205183506012
1772790204335372500,1.08037255859375,-0.3390490710735321,-0.1390996128320694,-0.07833417505025864
1772790204345438500,1.0904384765625,-0.33211490511894226,-0.1254257708787918,-0.11950398236513138
1772790204355504600,1.100504638671875,-0.32748472690582275,-0.11947866529226303,-0.186541348695755
1772790204365570600,1.110570556640625,-0.31353721022605896,-0.1094711571931839,-0.27162227034568787
1772790204375635500,1.120635498046875,-0.29252299666404724,-0.13565509021282196,-0.34807124733924866
1772790204385701400,1.130701416015625,-0.2656821310520172,-0.16217023134231567,-0.38987821340560913
1772790204395767600,1.140767578125,-0.24282048642635345,-0.20394457876682281,-0.3602100610733032
1772790204405832400,1.15083251953125,-0.21751190721988678,-0.2025897353887558,-0.2649208903312683
1772790204415898400,1.1608984375,-0.17630188167095184,-0.12566673755645752,-0.12517765164375305
1772790204425964300,1.17096435546875,-0.11579522490501404,0.023743130266666412,0.042871441692113876
1772790204436029400,1.181029541015625,-0.05703204125165939,0.19688348472118378,0.21045565605163574
1772790204446095400,1.191095458984375,-0.0068994443863630295,0.35546058416366577,0.34584829211235046
1772790204456161500,1.20116162109375,0.03232092782855034,0.4469132721424103,0.4360242486000061
1772790204466226400,1.211226318359375,0.06222621351480484,0.41254788637161255,0.4485108256340027
1772790204476292400,1.221292236328125,0.08707989007234573,0.30135399103164673,0.4039665460586548
1772790204486358500,1.231358642578125,0.0882505476474762,0.16429677605628967,0.33802756667137146
1772790204496423400,1.24142333984375,0.08112339675426483,0.016984030604362488,0.27922388911247253
1772790204506489600,1.251489501953125,0.06314191967248917,-0.11080212146043777,0.2577051520347595
1772790204516555500,1.261555419921875,0.027741581201553345,-0.15175913274288177,0.2774793803691864
1772790204526620400,1.271620361328125,-0.019107509404420853,-0.1357475370168686,0.31430602073669434
1772790204536686300,1.281686279296875,-0.07909788191318512,-0.1370069533586502,0.3548251986503601
1772790204546752500,1.29175244140625,-0.14008097350597382,-0.11553724110126495,0.3739813268184662
1772790204556817400,1.3018173828125,-0.1938568502664566,-0.0689292624592781,0.3545075058937073
1772790204566883300,1.31188330078125,-0.23557592928409576,-0.0004080692306160927,0.3009547293186188
1772790204576949200,1.32194921875,-0.2652166783809662,0.07127436995506287,0.21511012315750122
1772790204587015400,1.332015380859375,-0.27855443954467773,0.10800710320472717,0.1132335215806961
1772790204597080600,1.34208056640625,-0.3128200173377991,0.17614860832691193,0.0025056779850274324
1772790204607146500,1.352146484375,-0.34217098355293274,0.19626596570014954,-0.11593641340732574
1772790204617212400,1.36221240234375,-0.373384028673172,0.17293986678123474,-0.2208780199289322
1772790204627277300,1.37227734375,-0.40931788086891174,0.20305755734443665,-0.2989286780357361
1772790204637343500,1.382343505859375,-0.4459123909473419,0.21200737357139587,-0.3601781725883484
1772790204647409400,1.392409423828125,-0.46458277106285095,0.16136687994003296,-0.41041281819343567
1772790204657474600,1.402474609375,-0.47074559330940247,0.10841632634401321,-0.4565736651420593
1772790204667540500,1.41254052734375,-0.45407694578170776,0.06128959357738495,-0.4851750135421753
1772790204677606400,1.4226064453125,-0.42538216710090637,-0.020978646352887154,-0.4905764162540436
1772790204687671300,1.43267138671875,-0.389660507440567,-0.09917322546243668,-0.4722904860973358
1772790204697737500,1.442737548828125,-0.3517916798591614,-0.17011317610740662,-0.42331627011299133
1772790204707803400,1.452803466796875,-0.3148353099822998,-0.21459205448627472,-0.3680558502674103
1772790204717868300,1.462868408203125,-0.285230815410614,-0.21118400990962982,-0.32138291001319885
1772790204727934500,1.4729345703125,-0.2656441032886505,-0.20123626291751862,-0.2992952764034271
1772790204738000400,1.48300048828125,-0.25916436314582825,-0.20905157923698425,-0.31982743740081787
1772790204748065500,1.4930654296875,-0.25781744718551636,-0.2343498319387436,-0.3885733485221863
1772790204758131500,1.50313134765625,-0.26273229718208313,-0.2521059215068817,-0.4861465096473694
1772790204768197600,1.51319775390625,-0.26652389764785767,-0.2649434506893158,-0.5926875472068787
1772790204778262300,1.52326220703125,-0.25756368041038513,-0.28139379620552063,-0.6730145812034607
1772790204788328400,1.533328369140625,-0.2341465801000595,-0.2632698118686676,-0.6997501254081726
1772790204798394400,1.543394287109375,-0.19836513698101044,-0.23027485609054565,-0.6663436889648438
1772790204808460500,1.55346044921875,-0.15125544369220734,-0.20159964263439178,-0.5717317461967468
1772790204818525400,1.563525390625,-0.08052720874547958,-0.1721634566783905,-0.44347572326660156
1772790204828591400,1.57359130859375,-0.0014787805266678333,-0.13206768035888672,-0.28917357325553894
1772790204838657300,1.5836572265625,0.06609386950731277,-0.08687703311443329,-0.12894156575202942
1772790204848722400,1.593722412109375,0.1321844756603241,-0.02091340720653534,0.0048491936177015305
1772790204858788600,1.60378857421875,0.19443240761756897,0.039513714611530304,0.10760194063186646
1772790204868854500,1.6138544921875,0.24543265998363495,0.07192730903625488,0.16850224137306213
1772790204878919400,1.62391943359375,0.2797538638114929,0.06940742582082748,0.19851446151733398
1772790204888985300,1.6339853515625,0.3142043650150299,0.05410473421216011,0.20562990009784698
1772790204899051500,1.644051513671875,0.3415968418121338,0.03992553427815437,0.20344077050685883
1772790204909116400,1.654116455078125,0.36719438433647156,0.034312985837459564,0.20905695855617523
1772790204919182600,1.6641826171875,0.38417789340019226,0.05016438663005829,0.23063281178474426
1772790204929248300,1.674248291015625,0.398037850856781,0.08335016667842865,0.25913354754447937
1772790204939313400,1.6843134765625,0.39675793051719666,0.1131003350019455,0.2759692370891571
1772790204949379300,1.69437939453125,0.39328333735466003,0.12536722421646118,0.28250858187675476
1772790204959445500,1.704445556640625,0.38011133670806885,0.12431074678897858,0.2711898684501648
1772790204969511000,1.714510986328125,0.3759017884731293,0.11727050691843033,0.25208887457847595
1772790204979577000,1.7245771484375,0.36785823106765747,0.10514380782842636,0.233986034989357
1772790204989643000,1.73464306640625,0.36162900924682617,0.09860058128833771,0.2266026884317398
1772790204999708200,1.744708251953125,0.36346447467803955,0.09193149209022522,0.22465911507606506
1772790205009774000,1.754774169921875,0.37124666571617126,0.09488696604967117,0.22836117446422577
1772790205019840000,1.764840087890625,0.382100909948349,0.1324702948331833,0.22660215198993683
1772790205029906000,1.774906005859375,0.39712604880332947,0.17137131094932556,0.20969325304031372
1772790205039971000,1.78497119140625,0.4159785509109497,0.16943839192390442,0.17794224619865417
1772790205050037200,1.795037353515625,0.4307088851928711,0.1405790001153946,0.14513640105724335
1772790205060103200,1.805103271484375,0.44098788499832153,0.10048457980155945,0.12385188043117523
1772790205070168000,1.81516796875,0.4458679258823395,0.09646125137805939,0.11138362437486649
1772790205080234000,1.82523388671875,0.4575275182723999,0.098871149122715,0.09982870519161224
1772790205090300200,1.835300048828125,0.4671041667461395,0.12240931391716003,0.07385902106761932
1772790205100365000,1.845364990234375,0.4730832278728485,0.1649210900068283,0.025556202977895737
1772790205110431000,1.855430908203125,0.4629015624523163,0.19519704580307007,-0.06041926518082619
1772790205120497000,1.865496826171875,0.4309643805027008,0.17902633547782898,-0.18898789584636688
1772790205130562000,1.87556201171875,0.3830184042453766,0.10540042072534561,-0.3485743999481201
1772790205140628200,1.885628173828125,0.3251287341117859,-0.00932243186980486,-0.48475009202957153
1772790205150694100,1.895694091796875,0.26936230063438416,-0.11854995042085648,-0.5564077496528625
1772790205160759000,1.905759033203125,0.22769421339035034,-0.16581758856773376,-0.550029993057251
1772790205170825000,1.915824951171875,0.20969630777835846,-0.15936852991580963,-0.4790123999118805
1772790205180891100,1.92589111328125,0.20571701228618622,-0.11026594787836075,-0.3637297451496124
1772790205190956000,1.9359560546875,0.22126474976539612,-0.0554349347949028,-0.22952032089233398
1772790205201022200,1.946022216796875,0.26179271936416626,0.06405843794345856,-0.09495746344327927
1772790205211088100,1.956088134765625,0.35196033120155334,0.23820559680461884,0.03279853239655495
1772790205221153000,1.966153076171875,0.47033384442329407,0.44712260365486145,0.1449253410100937
1772790205231219000,1.976218994140625,0.5807197690010071,0.6664963960647583,0.23722641170024872
1772790205241285000,1.98628515625,0.6755269169807434,0.808330774307251,0.29875287413597107
1772790205251350300,1.996350341796875,0.745518684387207,0.8846173882484436,0.32467368245124817
1772790205261416000,2.006416015625,0.8103940486907959,0.9254774451255798,0.32004907727241516
1772790205271482000,2.016482177734375,0.8661644458770752,0.902587890625,0.30561918020248413
1772790205281548000,2.026548095703125,0.9067009687423706,0.8558914661407471,0.28873980045318604
1772790205291613200,2.03661328125,0.9301453828811646,0.7999618053436279,0.2707119286060333
1772790205301679000,2.04667919921875,0.9392142295837402,0.6497496366500854,0.25607919692993164
1772790205311745300,2.056745361328125,0.9317029714584351,0.4833950102329254,0.23865370452404022
1772790205321810000,2.066809814453125,0.916246235370636,0.30015942454338074,0.2141246497631073
1772790205331876000,2.0768759765625,0.8820688724517822,0.11217023432254791,0.1930152326822281
1772790205341942000,2.08694189453125,0.8352784514427185,-0.030022326856851578,0.15785431861877441
1772790205352007200,2.097007080078125,0.7920186519622803,-0.19399942457675934,0.10553539544343948
1772790205362073000,2.107072998046875,0.7427917718887329,-0.3629910945892334,0.04202831909060478
1772790205372139000,2.117138916015625,0.6809728741645813,-0.5066616535186768,-0.030463989824056625
1772790205382204200,2.1272041015625,0.6165251731872559,-0.6146091222763062,-0.09436254948377609
1772790205392270000,2.13727001953125,0.5569753646850586,-0.6887444853782654,-0.15500295162200928
1772790205402336000,2.1473359375,0.5137285590171814,-0.72755366563797,-0.20374785363674164
1772790205412401000,2.15740087890625,0.48238199949264526,-0.7043094038963318,-0.23597529530525208
1772790205422467000,2.167467041015625,0.45858797430992126,-0.6183942556381226,-0.2521398961544037
1772790205432533000,2.177532958984375,0.4608754515647888,-0.4747002422809601,-0.24568027257919312
1772790205442598100,2.18759814453125,0.4890921711921692,-0.28500860929489136,-0.20118631422519684
1772790205452664000,2.1976640625,0.5311697721481323,-0.03102402202785015,-0.1297636777162552
1772790205462730200,2.207730224609375,0.5917300581932068,0.24037739634513855,-0.04474306106567383
1772790205472795100,2.217795166015625,0.6574198603630066,0.501060426235199,0.02963799610733986
1772790205482861000,2.227861083984375,0.7194986939430237,0.7164044380187988,0.06424017995595932
1772790205492927000,2.237927001953125,0.7850250601768494,0.8398079872131348,0.0605839267373085
1772790205502992100,2.2479921875,0.8176500797271729,0.8551733493804932,0.021251169964671135
1772790205513058000,2.25805810546875,0.8189347982406616,0.8200038075447083,-0.030014347285032272
1772790205523124000,2.2681240234375,0.7965032458305359,0.7658596038818359,-0.07830038666725159
1772790205533189000,2.278189208984375,0.7545672655105591,0.6613809466362,-0.12088839709758759
1772790205543255000,2.288255126953125,0.7006635665893555,0.519709587097168,-0.14219926297664642
1772790205553321200,2.2983212890625,0.6514731645584106,0.3647264540195465,-0.13725769519805908
1772790205563385900,2.3083857421875,0.6141276359558105,0.22379064559936523,-0.10180328786373138
1772790205573452000,2.3184521484375,0.5882904529571533,0.12447695434093475,-0.046538665890693665
1772790205583518000,2.32851806640625,0.5574169754981995,0.06608155369758606,0.01625627651810646
1772790205593584000,2.338584228515625,0.5354292392730713,0.05194234848022461,0.06336703151464462
1772790205603649000,2.34864892578125,0.5241187810897827,0.07289823144674301,0.08518391102552414
1772790205613715200,2.358715087890625,0.5131750106811523,0.12427105009555817,0.08081932365894318
1772790205623780900,2.36878076171875,0.5034111142158508,0.18742871284484863,0.06057237461209297
1772790205633846000,2.378845947265625,0.49340683221817017,0.24831900000572205,0.029509764164686203
1772790205643912200,2.388912109375,0.4886046350002289,0.31313207745552063,0.0006296468782238662
1772790205653978000,2.39897802734375,0.4882323443889618,0.38620033860206604,-0.010318580083549023
1772790205664043000,2.40904296875,0.4960727095603943,0.45912352204322815,-0.009476222097873688
1772790205674109000,2.41910888671875,0.5074690580368042,0.5163037180900574,-0.0034751284401863813
1772790205684175000,2.429175048828125,0.5181589722633362,0.5354433059692383,0.006186553742736578
1772790205694240000,2.439239990234375,0.5254746079444885,0.5219431519508362,0.018207542598247528
1772790205704306200,2.44930615234375,0.5324390530586243,0.4934012293815613,0.037381768226623535
1772790205714372000,2.4593720703125,0.526947557926178,0.44489219784736633,0.061846062541007996
1772790205724437000,2.46943701171875,0.5179993510246277,0.3860752284526825,0.08481662720441818
1772790205734503000,2.4795029296875,0.5168696641921997,0.32986974716186523,0.10880052298307419
1772790205744569000,2.489569091796875,0.5214910507202148,0.29917386174201965,0.12527324259281158
1772790205754634200,2.49963427734375,0.5354844927787781,0.2905670404434204,0.14199163019657135
1772790205764700200,2.5097001953125,0.5513401627540588,0.281073659658432,0.16873270273208618
1772790205774766000,2.51976611328125,0.5715755224227905,0.25915345549583435,0.19879759848117828
1772790205784831000,2.5298310546875,0.6037233471870422,0.23728011548519135,0.2269836962223053
1772790205794897200,2.539897216796875,0.654484748840332,0.260677695274353,0.24213537573814392
1772790205804963000,2.549963134765625,0.7033015489578247,0.3116165101528168,0.22254277765750885
1772790205815028000,2.560028076171875,0.7284064292907715,0.3060586154460907,0.10933252424001694
1772790205825094000,2.570093994140625,0.7081528306007385,0.18189643323421478,-0.12984837591648102
1772790205835160000,2.58016015625,0.613132119178772,-0.07498626410961151,-0.4685531556606293
1772790205845225200,2.59022509765625,0.4472017288208008,-0.3496934473514557,-0.8261672258377075
1772790205855291100,2.600291015625,0.29402822256088257,-0.5747135877609253,-1.0992363691329956
1772790205865357000,2.610357177734375,0.2050245702266693,-0.7342537641525269,-1.1889487504959106
1772790205875423000,2.620423095703125,0.18647822737693787,-0.8142969012260437,-1.1109262704849243
1772790205885488000,2.630488037109375,0.2540498375892639,-0.7940163612365723,-0.88975590467453
1772790205895554000,2.640553955078125,0.38173070549964905,-0.6487739682197571,-0.5979032516479492
1772790205905620200,2.6506201171875,0.5805250406265259,-0.3792780637741089,-0.28595489263534546
1772790205915685000,2.66068505859375,0.7965964078903198,0.02865857258439064,0.012821193784475327
1772790205925751000,2.6707509765625,1.0010230541229248,0.4755396842956543,0.29033297300338745
1772790205935817000,2.68081689453125,1.1886168718338013,0.8330264091491699,0.5456000566482544
1772790205945882000,2.690882080078125,1.3595277070999146,1.0807310342788696,0.7668549418449402
1772790205955948000,2.700947998046875,1.5225467681884766,1.2503902912139893,0.932930588722229
1772790205966014000,2.711013916015625,1.6661709547042847,1.310684084892273,1.0593440532684326
1772790205976079000,2.7210791015625,1.7697844505310059,1.2299864292144775,1.1161370277404785
1772790205986145000,2.73114501953125,1.832009196281433,1.0294914245605469,1.0965625047683716
1772790205996211000,2.7412109375,1.845705509185791,0.8002330660820007,1.0314141511917114
1772790206006275800,2.75127587890625,1.791784405708313,0.5866025686264038,0.9396035671234131
1772790206016342000,2.761342041015625,1.6768590211868286,0.379157692193985,0.8159272074699402
1772790206026408000,2.771407958984375,1.5285098552703857,0.18099825084209442,0.6681327223777771
1772790206036473000,2.78147314453125,1.3735271692276,-0.0186525397002697,0.5105057954788208
1772790206046538800,2.791538818359375,1.1981204748153687,-0.18347451090812683,0.3729780316352844
1772790206056605000,2.80160498046875,1.0079693794250488,-0.28856539726257324,0.2544836401939392
1772790206066669800,2.811669921875,0.83870530128479,-0.3481925129890442,0.1453222632408142
1772790206076736000,2.821736083984375,0.7162386178970337,-0.3761303126811981,0.042008910328149796
1772790206086802000,2.831802001953125,0.6337730884552002,-0.3678888976573944,-0.0637742429971695
1772790206096866800,2.84186669921875,0.5821312069892883,-0.3008032441139221,-0.17249706387519836
1772790206106933000,2.85193310546875,0.557041585445404,-0.15402816236019135,-0.2858116328716278
1772790206116999000,2.8619990234375,0.5629798769950867,0.05033039301633835,-0.39658322930336
1772790206127064000,2.87206396484375,0.598240077495575,0.25415465235710144,-0.49283841252326965
1772790206137130000,2.8821298828125,0.6842747330665588,0.44785597920417786,-0.5710572004318237
1772790206147196200,2.892196044921875,0.7941823601722717,0.602529764175415,-0.6335517764091492
1772790206157260800,2.9022607421875,0.9253069758415222,0.68752521276474,-0.678445041179657
1772790206167327000,2.912326904296875,1.0759608745574951,0.7137839794158936,-0.7040356397628784
1772790206177393000,2.922392822265625,1.2420865297317505,0.7015433311462402,-0.6961421966552734
1772790206187458000,2.9324580078125,1.4063987731933594,0.6739406585693359,-0.6728083491325378
1772790206197523700,2.942523681640625,1.5689438581466675,0.6138432025909424,-0.6280919313430786
1772790206207590000,2.95258984375,1.7190492153167725,0.5338122844696045,-0.5768870711326599
1772790206217655800,2.96265576171875,1.8485441207885742,0.47491320967674255,-0.5187975168228149
1772790206227721000,2.972720947265625,1.9622405767440796,0.45601728558540344,-0.46819639205932617
1772790206237787100,2.982787109375,2.0700478553771973,0.4884779751300812,-0.42941972613334656
1772790206247853000,2.99285302734375,2.1663193702697754,0.5546676516532898,-0.39923039078712463
1772790206257918000,3.00291796875,2.244434356689453,0.6485061049461365,-0.3880179822444916
1772790206267984000,3.01298388671875,2.313166379928589,0.7418069839477539,-0.40234339237213135
1772790206278050000,3.023050048828125,2.371772289276123,0.8002098798751831,-0.44181475043296814
1772790206288115000,3.033114990234375,2.4339206218719482,0.8229897618293762,-0.5125818848609924
1772790206298181000,3.04318115234375,2.499321937561035,0.8412539958953857,-0.5935338139533997
1772790206308246800,3.053246826171875,2.565159320831299,0.8550326824188232,-0.6730741262435913
1772790206318312000,3.06331201171875,2.623439073562622,0.8660725355148315,-0.7468775510787964
1772790206328377900,3.0733779296875,2.6815896034240723,0.8658943772315979,-0.8105372190475464
1772790206338444000,3.083444091796875,2.741403341293335,0.835896372795105,-0.8661747574806213
1772790206348509000,3.093509033203125,2.792182207107544,0.7598636150360107,-0.9067829251289368
1772790206358574800,3.103574951171875,2.843729019165039,0.6783449053764343,-0.9249920845031738
1772790206368641000,3.11364111328125,2.8906466960906982,0.6218235492706299,-0.9321746826171875
1772790206378706000,3.123705810546875,2.9476566314697266,0.5647414326667786,-0.9425643682479858
1772790206388772000,3.133772216796875,3.006544351577759,0.5038427114486694,-0.9579470753669739
1772790206398838000,3.143838134765625,3.0635688304901123,0.4435032904148102,-0.9747996926307678
1772790206408903000,3.15390283203125,3.11643123626709,0.36477118730545044,-0.96852046251297
1772790206418968800,3.16396875,3.1672213077545166,0.281207799911499,-0.9330506920814514
1772790206429035000,3.174034912109375,3.2122857570648193,0.21536646783351898,-0.8679484128952026
1772790206439100000,3.184099853515625,3.246819496154785,0.17169712483882904,-0.7742989659309387
1772790206449165800,3.194165771484375,3.2696897983551025,0.12976326048374176,-0.6720197796821594
1772790206459231700,3.204231689453125,3.290332078933716,0.08941592276096344,-0.5701823830604553
1772790206469297000,3.214296875,3.3242380619049072,0.08708751946687698,-0.462471604347229
1772790206479363000,3.224363037109375,3.3592658042907715,0.1236417293548584,-0.35868433117866516
1772790206489429000,3.234428955078125,3.395808458328247,0.18688994646072388,-0.26274606585502625
1772790206499494000,3.244493896484375,3.4273808002471924,0.22242024540901184,-0.17008031904697418
1772790206509559800,3.254559814453125,3.453000545501709,0.2480635643005371,-0.09456238895654678
1772790206519626000,3.2646259765625,3.4712398052215576,0.2871154546737671,-0.034615397453308105
1772790206529691000,3.27469091796875,3.478496789932251,0.32589828968048096,-0.00008431531023234129
1772790206539757000,3.284757080078125,3.471870183944702,0.3651144206523895,0.005616416689008474
1772790206549823000,3.294822998046875,3.4598138332366943,0.4018985331058502,-0.0013139271177351475
1772790206559888000,3.304887939453125,3.429908514022827,0.40451088547706604,-0.014987561851739883
1772790206569953800,3.314953857421875,3.3784589767456055,0.3776145577430725,-0.036784738302230835
1772790206580020000,3.32502001953125,3.3203179836273193,0.32064715027809143,-0.04352187365293503
1772790206590085000,3.335085205078125,3.2435250282287598,0.2513461112976074,-0.028110157698392868
1772790206600150800,3.34515087890625,3.157071352005005,0.18664778769016266,0.015919245779514313
1772790206610217000,3.355217041015625,3.0745275020599365,0.13387751579284668,0.08791247755289078
1772790206620283000,3.365282958984375,3.0002260208129883,0.129844069480896,0.18605166673660278
1772790206630348000,3.37534814453125,2.9321086406707764,0.1751265972852707,0.28782224655151367
1772790206640414000,3.3854140625,2.860405206680298,0.2593943178653717,0.37674644589424133
1772790206650480000,3.395480224609375,2.7977242469787598,0.336557537317276,0.43501296639442444
1772790206660544800,3.405544677734375,2.73293137550354,0.386034220457077,0.46072694659233093
1772790206670611000,3.41561083984375,2.6625540256500244,0.39811673760414124,0.44890013337135315
1772790206680676900,3.4256767578125,2.584268808364868,0.38164642453193665,0.41360223293304443
1772790206690742000,3.435741943359375,2.500579833984375,0.3631236255168915,0.3715628981590271
1772790206700808000,3.445807861328125,2.4097368717193604,0.3735327422618866,0.33652180433273315
1772790206710873900,3.455873779296875,2.3232028484344482,0.41223591566085815,0.30746832489967346
1772790206720939000,3.46593896484375,2.2366912364959717,0.45081955194473267,0.28250569105148315
1772790206731005000,3.4760048828125,2.149411678314209,0.4939148426055908,0.2530748248100281
1772790206741071000,3.486071044921875,2.0585086345672607,0.5430841445922852,0.1987360417842865
1772790206751135700,3.4961357421875,1.9593961238861084,0.5751826763153076,0.12253368645906448
1772790206761202000,3.506201904296875,1.8497843742370605,0.6121241450309753,0.022451920434832573
1772790206771267800,3.516267822265625,1.7371960878372192,0.6355000138282776,-0.08389955759048462
1772790206781333000,3.5263330078125,1.622560739517212,0.6398468613624573,-0.1806347519159317
1772790206791399000,3.53639892578125,1.5208910703659058,0.6423105597496033,-0.2504330277442932
1772790206801465000,3.546465087890625,1.4251233339309692,0.7024855017662048,-0.3179183006286621
1772790206811530000,3.556530029296875,1.3340283632278442,0.7654416561126709,-0.38350069522857666
1772790206821596000,3.566595947265625,1.2369202375411987,0.828642725944519,-0.46100378036499023
1772790206831661800,3.576661865234375,1.142698884010315,0.8923072218894958,-0.5720986127853394
1772790206841727000,3.58672705078125,1.052706003189087,0.9465650916099548,-0.7030479907989502
1772790206851793200,3.596793212890625,0.9538628458976746,0.9637414216995239,-0.8613917827606201
1772790206861858800,3.60685888671875,0.874302327632904,0.9265888929367065,-1.0165375471115112
1772790206871924000,3.616924072265625,0.8123457431793213,0.8834052085876465,-1.1517219543457031
1772790206881990000,3.626989990234375,0.7667750120162964,0.836225152015686,-1.2596584558486938
1772790206892056000,3.63705615234375,0.7526224255561829,0.740223228931427,-1.3406236171722412
1772790206902120700,3.64712060546875,0.7660121321678162,0.6371003985404968,-1.3793646097183228
1772790206912187000,3.657186767578125,0.8072022199630737,0.5214561223983765,-1.3801920413970947
1772790206922252800,3.667252685546875,0.8747108578681946,0.43078041076660156,-1.3038315773010254
1772790206932318000,3.67731787109375,0.9508719444274902,0.4053051471710205,-1.175641655921936
1772790206942384000,3.687384033203125,1.061357021331787,0.40006202459335327,-1.0020416975021362
1772790206952450000,3.697449951171875,1.1772898435592651,0.45523926615715027,-0.7930089235305786
1772790206962515000,3.707514892578125,1.2677819728851318,0.5341185331344604,-0.5667598843574524
1772790206972581000,3.7175810546875,1.3214095830917358,0.6503679156303406,-0.35200920701026917
1772790206982647300,3.727647216796875,1.3545349836349487,0.7803671956062317,-0.1819092035293579
1772790206992712000,3.7377119140625,1.3790309429168701,0.8830017447471619,-0.11352988332509995
1772790207002778000,3.747778076171875,1.4283725023269653,0.8866477608680725,-0.12928368151187897
1772790207012844000,3.757843994140625,1.4528295993804932,0.8788308501243591,-0.2017887681722641
1772790207022909200,3.7679091796875,1.4440410137176514,0.8546674251556396,-0.2772296965122223
1772790207032974800,3.777974853515625,1.4452083110809326,0.7665426135063171,-0.3063068985939026
1772790207043041000,3.788041015625,1.4895726442337036,0.6449032425880432,-0.25362178683280945
1772790207053107000,3.79810693359375,1.5819231271743774,0.618483304977417,-0.12258492410182953
1772790207063172000,3.808172119140625,1.6761770248413086,0.6745275855064392,0.06836728006601334
1772790207073238000,3.818238037109375,1.7423994541168213,0.7887694835662842,0.2696572542190552
1772790207083304200,3.82830419921875,1.7828172445297241,0.9065271019935608,0.440653920173645
1772790207093369000,3.838369140625,1.7979525327682495,1.0157140493392944,0.5612559914588928
1772790207103435000,3.84843505859375,1.7797858715057373,1.0433768033981323,0.611162006855011
1772790207113501200,3.858501220703125,1.7402218580245972,0.9886543154716492,0.5967146158218384
1772790207123566000,3.868566162109375,1.6890708208084106,0.9266213774681091,0.5462021827697754
1772790207133632300,3.87863232421875,1.6156853437423706,0.8694055080413818,0.4690755009651184
1772790207143698000,3.888697998046875,1.5151565074920654,0.8146610856056213,0.3722980320453644
1772790207153763000,3.89876318359375,1.4049434661865234,0.7268537282943726,0.25912007689476013
1772790207163829000,3.9088291015625,1.276663899421692,0.6020010113716125,0.1543523669242859
1772790207173895200,3.918895263671875,1.1351454257965088,0.4884829819202423,0.0676688626408577
1772790207183960000,3.9289599609375,0.9959827065467834,0.40926551818847656,0.0007026510429568589
1772790207194026000,3.93902587890625,0.862054705619812,0.3323014974594116,-0.05474729463458061
1772790207204092000,3.949091796875,0.7410107254981995,0.21459507942199707,-0.09801943600177765
1772790207214157000,3.959156982421875,0.6622386574745178,0.11390361189842224,-0.12070450931787491
1772790207224223200,3.96922314453125,0.6224140524864197,-0.0031400658190250397,-0.12959091365337372
1772790207234289200,3.9792890625,0.6009513735771179,-0.11360479146242142,-0.11872627586126328
1772790207244354000,3.98935400390625,0.5815591812133789,-0.1689375936985016,-0.07867230474948883
1772790207254419200,3.999419189453125,0.5597854256629944,-0.17950288951396942,-0.055983766913414
1772790207264485000,4.009485107421875,0.5286580324172974,-0.20913246273994446,-0.05309946462512016
1772790207274551000,4.019551025390625,0.4786315858364105,-0.21568676829338074,-0.06540060043334961
1772790207284616000,4.029615966796875,0.4084181487560272,-0.1971897929906845,-0.09762751311063766
1772790207294682000,4.03968212890625,0.32452937960624695,-0.22531916201114655,-0.13046695291996002
1772790207304748000,4.049748046875,0.23859277367591858,-0.26461145281791687,-0.13931091129779816
1772790207314813200,4.059813232421875,0.16326366364955902,-0.28611114621162415,-0.11511769145727158
1772790207324879000,4.069879150390625,0.09943480789661407,-0.23908507823944092,-0.05534267798066139
1772790207334945000,4.079945068359375,0.06336335837841034,-0.08495038747787476,0.018890010192990303
1772790207345010000,4.090010009765625,0.037886906415224075,0.04409659653902054,0.07720521837472916
1772790207355076000,4.100076171875,-0.0018200273625552654,0.13181154429912567,0.10712609440088272
1772790207365142000,4.11014208984375,-0.04168350622057915,0.16091661155223846,0.11764491349458694
1772790207375207000,4.12020703125,-0.09870817512273788,0.16705012321472168,0.11844120174646378
1772790207385273000,4.130273193359375,-0.19172683358192444,0.15599577128887177,0.12554621696472168
1772790207395339000,4.140339111328125,-0.27191272377967834,0.224196657538414,0.1315218061208725
1772790207405404200,4.150404052734375,-0.32062727212905884,0.3198170065879822,0.15326404571533203
1772790207415470000,4.160469970703125,-0.3764050602912903,0.31396177411079407,0.17877447605133057
1772790207425536300,4.170536376953125,-0.4403853714466095,0.3378569483757019,0.22527381777763367
1772790207435602000,4.180601806640625,-0.5164774656295776,0.3906533420085907,0.26640501618385315
1772790207445667000,4.1906669921875,-0.5795580148696899,0.4457763731479645,0.30391034483909607
1772790207455733000,4.20073291015625,-0.6358881592750549,0.414363831281662,0.30810192227363586
1772790207465799200,4.210799072265625,-0.6844877004623413,0.33582210540771484,0.290290504693985
1772790207475864000,4.220864013671875,-0.682120680809021,0.29883480072021484,0.2650189697742462
1772790207485930000,4.230929931640625,-0.6794779896736145,0.2579120695590973,0.2300892025232315
1772790207495996000,4.240995849609375,-0.6854413151741028,0.20118378102779388,0.19930945336818695
1772790207506061000,4.25106103515625,-0.678329586982727,0.09915205836296082,0.18642181158065796
1772790207516127200,4.261127197265625,-0.6534900069236755,-0.02715342305600643,0.204366996884346
1772790207526193200,4.271193115234375,-0.6120750308036804,-0.15797820687294006,0.2619248032569885
1772790207536258000,4.281258056640625,-0.5593327283859253,-0.2938617467880249,0.3533109128475189
1772790207546324000,4.291323974609375,-0.4957755208015442,-0.4350072741508484,0.4667414128780365
1772790207556390100,4.30139013671875,-0.4239457845687866,-0.5833696126937866,0.5726465582847595
1772790207566455000,4.311455078125,-0.34446805715560913,-0.7188329696655273,0.6557758450508118
1772790207576521200,4.321521240234375,-0.27030301094055176,-0.7689078450202942,0.7197462916374207
1772790207586587000,4.3315869140625,-0.1901867836713791,-0.717139482498169,0.7335001826286316
1772790207596652000,4.341652099609375,-0.11495249718427658,-0.5915812849998474,0.6930963397026062
1772790207606718000,4.351718017578125,-0.08880681544542313,-0.4307224452495575,0.6709045171737671
1772790207616784100,4.3617841796875,-0.03329028561711311,-0.3519280254840851,0.6262179613113403
1772790207626849300,4.371849365234375,0.02838446944952011,-0.3126114010810852,0.5593709945678711
1772790207636915000,4.3819150390625,0.08042211085557938,-0.2662675976753235,0.5229674577713013
1772790207646981000,4.391981201171875,0.150736004114151,-0.252702921628952,0.5145280957221985
1772790207657046000,4.4020458984375,0.21114981174468994,-0.2894289791584015,0.5289557576179504
1772790207667112200,4.4121123046875,0.25158050656318665,-0.3026633858680725,0.5445064902305603
1772790207677178000,4.42217822265625,0.2785508632659912,-0.3232882618904114,0.5522664189338684
1772790207687243000,4.432242919921875,0.3025957942008972,-0.3497244715690613,0.5530173182487488
1772790207697309000,4.442308837890625,0.32375219464302063,-0.39289164543151855,0.5495980381965637
1772790207707375000,4.452375,0.34418994188308716,-0.4190570116043091,0.5590932965278625
1772790207717440300,4.462440185546875,0.3633444607257843,-0.4270739257335663,0.5931729674339294
1772790207727506200,4.472506103515625,0.382670521736145,-0.4384567141532898,0.6316028833389282
1772790207737571800,4.48257177734375,0.3970649242401123,-0.4399486184120178,0.660395622253418
1772790207747637000,4.492636962890625,0.4126012921333313,-0.43131837248802185,0.670808732509613
1772790207757703200,4.502703125,0.43740543723106384,-0.42780086398124695,0.6577185392379761
1772790207767769000,4.51276904296875,0.4746891260147095,-0.415167897939682,0.626550018787384
1772790207777834200,4.522834228515625,0.5036294460296631,-0.34710389375686646,0.5896807312965393
1772790207787900000,4.53289990234375,0.5577752590179443,-0.26193737983703613,0.5511414408683777
1772790207797966000,4.542966064453125,0.6082626581192017,-0.16645215451717377,0.4933854937553406
1772790207808031000,4.553031005859375,0.6486417055130005,-0.07262921333312988,0.43448805809020996
1772790207818097200,4.56309716796875,0.6715089678764343,-0.0645475834608078,0.3898358941078186
1772790207828163000,4.5731630859375,0.6530219912528992,-0.07413221895694733,0.3530239462852478
1772790207838228000,4.58322802734375,0.6131843328475952,-0.054933223873376846,0.324056476354599
1772790207848294100,4.593294189453125,0.5769016146659851,-0.027875714004039764,0.3048529624938965
1772790207858360000,4.603360107421875,0.5495783686637878,0.0013455543667078018,0.29386186599731445
1772790207868425200,4.61342529296875,0.523374080657959,0.030212506651878357,0.2901192307472229
1772790207878491100,4.6234912109375,0.48780354857444763,-0.013443094678223133,0.2831138074398041
1772790207888557000,4.63355712890625,0.45951855182647705,-0.09162433445453644,0.28869903087615967
1772790207898623000,4.643623046875,0.44277524948120117,-0.14414958655834198,0.30725330114364624
1772790207908688100,4.653688232421875,0.4155890643596649,-0.19194462895393372,0.3210237920284271
1772790207918754000,4.663754150390625,0.4033568799495697,-0.2276086062192917,0.3202807903289795
1772790207928820200,4.6738203125,0.4019349217414856,-0.19540034234523773,0.2969520390033722
1772790207938884900,4.683884765625,0.42502692341804504,-0.10750670731067657,0.2646375298500061
1772790207948951000,4.693950927734375,0.4524196982383728,0.005929445847868919,0.2447955161333084
1772790207959017000,4.704016845703125,0.46437087655067444,0.14407746493816376,0.21728159487247467
1772790207969082000,4.71408203125,0.4551149606704712,0.24254369735717773,0.21587711572647095
1772790207979147800,4.724147705078125,0.43616417050361633,0.32275092601776123,0.23207765817642212
1772790207989213400,4.73421337890625,0.40985581278800964,0.3886970579624176,0.2553236484527588
1772790207999278600,4.744278564453125,0.3851187825202942,0.4614245295524597,0.25927311182022095
1772790208009344500,4.754344482421875,0.3757128417491913,0.5250236392021179,0.2504877746105194
1772790208019410700,4.76441064453125,0.3670237362384796,0.5610926747322083,0.25225478410720825
1772790208029475300,4.774475341796875,0.3555641174316406,0.5656102895736694,0.2710345983505249
1772790208039541500,4.78454150390625,0.3338242173194885,0.5540532469749451,0.3182910680770874
1772790208049607400,4.794607421875,0.3032165467739105,0.549365758895874,0.3756665289402008
1772790208059672600,4.804672607421875,0.2511855661869049,0.5398423075675964,0.4139598608016968
1772790208069738800,4.81473876953125,0.19248512387275696,0.4951857030391693,0.3995700776576996
1772790208079804700,4.8248046875,0.13436216115951538,0.40935176610946655,0.34928959608078003
1772790208089869600,4.83486962890625,0.08066782355308533,0.2997407615184784,0.2823289632797241
1772790208099935500,4.844935546875,0.02310200408101082,0.200399249792099,0.213891863822937
1772790208110001700,4.855001708984375,-0.017167557030916214,0.10818555951118469,0.1486106812953949
1772790208120067600,4.865067626953125,-0.03920974209904671,0.05470157042145729,0.09628303349018097
1772790208130132700,4.8751328125,-0.047096818685531616,0.025359151884913445,0.09036348760128021
1772790208140198400,4.885198486328125,-0.03958244249224663,0.0011677946895360947,0.10396744310855865
1772790208150264600,4.8952646484375,-0.01423101220279932,-0.008037932217121124,0.14666122198104858
1772790208160329500,4.90532958984375,-0.007641819305717945,-0.030418338254094124,0.20897120237350464
1772790208170395600,4.915395751953125,-0.014999043196439743,-0.025033600628376007,0.2715756595134735
1772790208180461600,4.925461669921875,-0.006812219973653555,0.03800768032670021,0.3394542932510376
1772790208190526500,4.9355263671875,0.006894412450492382,0.09664012491703033,0.3817017674446106
1772790208200592600,4.945592529296875,0.031030375510454178,0.1257740557193756,0.38567227125167847
1772790208210658600,4.955658447265625,0.05956786498427391,0.10433666408061981,0.34996432065963745
1772790208220723700,4.9657236328125,0.07762622833251953,0.09799914062023163,0.2810206711292267
1772790208230789600,4.97578955078125,0.09944039583206177,0.12234527617692947,0.19684962928295135
1772790208240855600,4.98585546875,0.12132199853658676,0.22067292034626007,0.10449652373790741
1772790208250920400,4.99592041015625,0.17328189313411713,0.3053130507469177,0.009132918901741505
1772790208260986600,5.005986572265625,0.2381596863269806,0.3707019090652466,-0.06101900711655617
1772790208271052500,5.016052490234375,0.3118172287940979,0.37913113832473755,-0.0936441570520401
1772790208281117700,5.02611767578125,0.37559619545936584,0.36346563696861267,-0.08112543821334839
1772790208291183400,5.036183349609375,0.4150952100753784,0.3378516137599945,-0.05324260890483856
1772790208301249500,5.04624951171875,0.43873101472854614,0.3024877607822418,-0.03199617564678192
1772790208311314700,5.056314697265625,0.434709370136261,0.24185171723365784,-0.028569256886839867
1772790208321380600,5.066380615234375,0.4146437644958496,0.1589650958776474,-0.022900186479091644
1772790208331446500,5.076446533203125,0.38374343514442444,0.08461783826351166,-0.02011082135140896
1772790208341511400,5.086511474609375,0.359832763671875,0.03782264143228531,-0.024063218384981155
1772790208351577600,5.09657763671875,0.333706259727478,-0.03214627876877785,-0.04700425639748573
1772790208361643500,5.1066435546875,0.2961237132549286,-0.09277473390102386,-0.09271448850631714
1772790208371708700,5.116708740234375,0.26902690529823303,-0.11452314257621765,-0.14250744879245758
1772790208381774600,5.126774658203125,0.2423604130744934,-0.09908851981163025,-0.18321439623832703
1772790208391840500,5.136840576171875,0.21624469757080078,-0.047941021621227264,-0.2238137274980545
1772790208401905700,5.14690576171875,0.19613516330718994,-0.022367484867572784,-0.2575998902320862
1772790208411971600,5.1569716796875,0.1974809467792511,-0.024137604981660843,-0.27836981415748596
1772790208422037500,5.16703759765625,0.2035265862941742,-0.015904176980257034,-0.25629034638404846
1772790208432102700,5.1771025390625,0.21987596154212952,0.014796266332268715,-0.18700389564037323
1772790208442168600,5.18716845703125,0.2442428171634674,0.07038070261478424,-0.10116995126008987
1772790208452234500,5.197234375,0.26308873295783997,0.12057037651538849,-0.02715877629816532
1772790208462299600,5.207299560546875,0.276011198759079,0.1396346241235733,-0.01252337358891964
1772790208472365600,5.217365478515625,0.2825443744659424,0.13143417239189148,-0.04958196356892586
1772790208482431700,5.227431640625,0.28398168087005615,0.11086472123861313,-0.10862317681312561
1772790208492496400,5.237496337890625,0.2665025293827057,0.12525367736816406,-0.15983180701732635
1772790208502562600,5.2475625,0.23842670023441315,0.15886889398097992,-0.20686350762844086
1772790208512628500,5.25762841796875,0.21438249945640564,0.1846400946378708,-0.24806253612041473
1772790208522693600,5.267693603515625,0.18911762535572052,0.19206976890563965,-0.27490559220314026
1772790208532759600,5.277759521484375,0.1556958556175232,0.20980975031852722,-0.29745474457740784
1772790208542825500,5.287825439453125,0.14231054484844208,0.2531718909740448,-0.31483349204063416
1772790208552890600,5.297890625,0.12134630233049393,0.2946507930755615,-0.33923763036727905
1772790208562956500,5.30795654296875,0.09859438985586166,0.32331758737564087,-0.36680933833122253
1772790208573022700,5.318022705078125,0.0800333172082901,0.40331265330314636,-0.38301748037338257
1772790208583087600,5.328087646484375,0.07353466749191284,0.448762983083725,-0.39590984582901
1772790208593153500,5.338153564453125,0.07545311003923416,0.42630013823509216,-0.3870622217655182
1772790208603219500,5.348219482421875,0.07321526110172272,0.37096282839775085,-0.35392317175865173
1772790208613284600,5.35828466796875,0.067055344581604,0.3296443521976471,-0.31135663390159607
1772790208623350500,5.3683505859375,0.06624521315097809,0.27747517824172974,-0.27057352662086487
1772790208633416700,5.378416748046875,0.06799870729446411,0.2073749154806137,-0.253506064414978
1772790208643482400,5.388482421875,0.05897139385342598,0.1358320266008377,-0.2579367458820343
1772790208653547500,5.398547607421875,0.043541572988033295,0.06891582906246185,-0.2584712505340576
1772790208663613400,5.408613525390625,0.023206738755106926,0.027414992451667786,-0.2531026005744934
1772790208673679600,5.4186796875,0.01889425702393055,0.0070012155920267105,-0.2269493192434311
1772790208683744800,5.428744873046875,0.023978495970368385,0.0009063053876161575,-0.190737783908844
1772790208693810400,5.438810546875,0.030226999893784523,-0.005353199318051338,-0.15537293255329132
1772790208703876600,5.448876708984375,0.02683413401246071,0.0007707392796874046,-0.12171430885791779
1772790208713941500,5.45894140625,0.012301141396164894,0.013353155925869942,-0.10387009382247925
1772790208724007700,5.469007568359375,-0.010397778823971748,0.026505175977945328,-0.10532950609922409
1772790208734073600,5.479073486328125,-0.03645605966448784,0.03575095534324646,-0.13295674324035645
1772790208744138500,5.489138427734375,-0.06123757362365723,0.059173986315727234,-0.1723768562078476
1772790208754204400,5.499204345703125,-0.08203102648258209,0.049086377024650574,-0.20870044827461243
1772790208764270600,5.5092705078125,-0.10247291624546051,0.03564859926700592,-0.24108661711215973
1772790208774335700,5.519335693359375,-0.11263563483953476,0.012489598244428635,-0.24239575862884521
1772790208784401700,5.529401611328125,-0.11554593592882156,-0.005533078219741583,-0.22541490197181702
1772790208794467300,5.53946728515625,-0.10575279593467712,-0.0073923575691878796,-0.18488623201847076
1772790208804532500,5.549532470703125,-0.10629714280366898,-0.011533306911587715,-0.15380313992500305
1772790208814598700,5.5595986328125,-0.1119743064045906,0.02602674439549446,-0.14183782041072845
1772790208824664600,5.56966455078125,-0.11847641319036484,0.07517138868570328,-0.15581755340099335
1772790208834729700,5.579729736328125,-0.1234542652964592,0.10072594881057739,-0.21629908680915833
1772790208844795400,5.58979541015625,-0.14469778537750244,0.15040163695812225,-0.3203306496143341
1772790208854861600,5.599861572265625,-0.16298897564411163,0.15939085185527802,-0.46302127838134766
1772790208864926500,5.609926513671875,-0.16546890139579773,0.14376768469810486,-0.6282086372375488
1772790208874992600,5.61999267578125,-0.16578589379787445,0.10430841147899628,-0.7750381231307983
1772790208885058600,5.63005859375,-0.1650596410036087,0.05794090777635574,-0.8798665404319763
1772790208895123500,5.64012353515625,-0.16142329573631287,0.002920038066804409,-0.9131556153297424
1772790208905189600,5.650189697265625,-0.14995919167995453,-0.04579557105898857,-0.8557133674621582
1772790208915255600,5.660255615234375,-0.13191866874694824,-0.05781017616391182,-0.7260553240776062
1772790208925320700,5.67032080078125,-0.10674087703227997,-0.044428326189517975,-0.5500552654266357
1772790208935386600,5.68038671875,-0.0845595970749855,0.0006102891638875008,-0.3515976667404175
1772790208945452500,5.69045263671875,-0.061825260519981384,0.04803852736949921,-0.1744612455368042
1772790208955517400,5.700517333984375,-0.0340796522796154,0.07714232802391052,-0.03869286924600601
1772790208965583600,5.71058349609375,0.00728776166215539,0.08023984730243683,0.045660361647605896
1772790208975650000,5.720650146484375,0.04754699021577835,0.06629884243011475,0.0750400647521019
1772790208985715200,5.730715087890625,0.08016245812177658,0.041901350021362305,0.06321296840906143
1772790208995781000,5.740781005859375,0.08813907951116562,0.04344140365719795,0.014024105854332447
1772790209005847300,5.750847412109375,0.06995847821235657,0.051881756633520126,-0.03960556909441948
1772790209015912200,5.760912109375,0.025315595790743828,0.03569141775369644,-0.07604386657476425
1772790209025978000,5.77097802734375,-0.048411354422569275,-0.005584650672972202,-0.07434716820716858
1772790209036044000,5.7810439453125,-0.13016320765018463,-0.049620263278484344,-0.021589307114481926
1772790209046109200,5.791109130859375,-0.21177338063716888,-0.07140278816223145,0.0625934824347496
1772790209056175000,5.801175048828125,-0.3059419095516205,-0.09230063855648041,0.1433941125869751
1772790209066241300,5.8112412109375,-0.4130531847476959,-0.1391049027442932,0.19303330779075623
1772790209076306200,5.82130615234375,-0.5137292146682739,-0.22092081606388092,0.18204817175865173
1772790209086372000,5.8313720703125,-0.6163392663002014,-0.34628406167030334,0.12488182634115219
1772790209096438300,5.841438232421875,-0.7136086821556091,-0.504274845123291,0.04527522996068001
1772790209106503200,5.851503173828125,-0.8029883503913879,-0.6209660172462463,-0.0289651770144701
1772790209116569300,5.8615693359375,-0.8627011775970459,-0.6491243839263916,-0.06744224578142166
1772790209126635000,5.871635009765625,-0.9083919525146484,-0.577960729598999,-0.07319973409175873
1772790209136701200,5.881701171875,-0.9277070164680481,-0.4604950547218323,-0.0679728090763092
1772790209146766000,5.89176611328125,-0.928609311580658,-0.36282601952552795,-0.07095715403556824
1772790209156832300,5.901832275390625,-0.9178916215896606,-0.2782372534275055,-0.07820984721183777
1772790209166898200,5.911898193359375,-0.8989837169647217,-0.17672237753868103,-0.07739198952913284
1772790209176963000,5.921963134765625,-0.8893076181411743,-0.03816787153482437,-0.0855158269405365
1772790209187029200,5.932029296875,-0.8871432542800903,0.07394375652074814,-0.09967771917581558
1772790209197095200,5.94209521484375,-0.8819249868392944,0.18827971816062927,-0.13410964608192444
1772790209207160300,5.952160400390625,-0.8905344605445862,0.22863620519638062,-0.19090501964092255
1772790209217226200,5.962226318359375,-0.926288902759552,0.18953348696231842,-0.2545391023159027
1772790209227292400,5.97229248046875,-0.964324951171875,0.10445401817560196,-0.31596413254737854
1772790209237357000,5.982357177734375,-1.0122771263122559,0.006186589598655701,-0.3561502993106842
1772790209247423200,5.99242333984375,-1.0407037734985352,-0.12907403707504272,-0.3423119783401489
1772790209257489200,6.0024892578125,-0.9856997728347778,-0.2790437340736389,-0.24844539165496826
1772790209267554300,6.01255419921875,-0.9364004135131836,-0.4319959878921509,-0.09140677750110626
1772790209277620000,6.022619873046875,-0.9602941274642944,-0.6111401915550232,0.11956024914979935
1772790209287686100,6.03268603515625,-0.9866410493850708,-0.754453718662262,0.35516291856765747
1772790209297751300,6.042751220703125,-0.9779306650161743,-0.8608878254890442,0.5539731383323669
1772790209307817200,6.052817138671875,-0.923857569694519,-0.9103922843933105,0.6429320573806763
1772790209317883100,6.062883056640625,-0.8733075857162476,-0.9467602968215942,0.5941107273101807
1772790209327948000,6.072947998046875,-0.8565765023231506,-0.9016274213790894,0.4284155070781708
1772790209338014200,6.08301416015625,-0.8645713925361633,-0.7269523739814758,0.18440183997154236
1772790209348080000,6.093080078125,-0.8434048295021057,-0.49105435609817505,-0.06860831379890442
1772790209358145300,6.103145263671875,-0.7893328070640564,-0.2705206871032715,-0.28662043809890747
1772790209368211200,6.113211181640625,-0.7004796266555786,-0.0901234820485115,-0.4416174590587616
1772790209378277400,6.12327734375,-0.6109471321105957,0.026987163349986076,-0.5360446572303772
1772790209388342000,6.133342041015625,-0.5600375533103943,0.04843265935778618,-0.5792689919471741
1772790209398408200,6.143408203125,-0.539419949054718,0.02156677469611168,-0.5718098878860474
1772790209408474000,6.15347412109375,-0.5752043128013611,0.010134889744222164,-0.5091590285301208
1772790209418539300,6.163539306640625,-0.621227502822876,0.07370240986347198,-0.4280868470668793
1772790209428605200,6.173605224609375,-0.6239079833030701,-0.036847010254859924,-0.40238600969314575
1772790209438671000,6.183671142578125,-0.587105393409729,-0.06060195714235306,-0.36332714557647705
1772790209448736300,6.193736328125,-0.5693133473396301,0.05177811533212662,-0.30989721417427063
1772790209458802200,6.20380224609375,-0.5977656245231628,0.05479546636343002,-0.32689306139945984
1772790209468868400,6.213868408203125,-0.6125738620758057,0.06017771363258362,-0.36673474311828613
1772790209478933000,6.22393310546875,-0.6090947389602661,0.11008034646511078,-0.3662619888782501
1772790209488999200,6.233999267578125,-0.6190624237060547,0.12679222226142883,-0.34359556436538696
1772790209499065000,6.244065185546875,-0.6465407609939575,0.11635033786296844,-0.2873895466327667
1772790209509130200,6.254130126953125,-0.5939841270446777,0.17654496431350708,-0.17461241781711578
1772790209519196200,6.264196044921875,-0.4784618318080902,0.26294657588005066,-0.055859167128801346
1772790209529262300,6.274262451171875,-0.33108460903167725,0.2950674891471863,0.051558103412389755
1772790209539328000,6.284327880859375,-0.16163869202136993,0.32054877281188965,0.153245747089386
1772790209549393200,6.29439306640625,-0.032764606177806854,0.3789859712123871,0.24553918838500977
1772790209559459300,6.304459228515625,0.01883934624493122,0.4580973982810974,0.29529067873954773
1772790209569525200,6.314525146484375,0.029576413333415985,0.5187663435935974,0.2798976004123688
1772790209579590100,6.324590087890625,0.018735386431217194,0.5322830677032471,0.2104358822107315
1772790209589656000,6.334656005859375,0.009996755979955196,0.5973393321037292,0.1313205510377884
1772790209599722200,6.34472216796875,-0.0028324893210083246,0.5959025621414185,0.048232849687337875
1772790209609787100,6.354787109375,-0.02225652150809765,0.5848730802536011,-0.011500252410769463
1772790209619853300,6.364853271484375,-0.021502895280718803,0.6285375356674194,-0.02426837757229805
1772790209629919200,6.374919189453125,-0.025068601593375206,0.6833722591400146,-0.0168157871812582
1772790209639984000,6.384984130859375,-0.010892217047512531,0.7180222868919373,0.011832885444164276
1772790209650050000,6.395050048828125,0.015821686014533043,0.748745322227478,0.043474964797496796
1772790209660116200,6.4051162109375,0.020059484988451004,0.8157426714897156,0.043536700308322906
1772790209670181400,6.415181396484375,-0.00009744754061102867,0.8652505874633789,0.027303403243422508
1772790209680247300,6.425247314453125,0.002524192677810788,0.8529103398323059,0.0030845487490296364
1772790209690313200,6.435313232421875,0.0341297909617424,0.7556740641593933,0.0166685339063406
1772790209700378000,6.445378173828125,0.08942333608865738,0.5766968727111816,0.06721223890781403
1772790209710444300,6.4554443359375,0.11028920114040375,0.5026862621307373,0.15794984996318817
1772790209720510200,6.46551025390625,-0.005079350899904966,0.3974849283695221,0.2411852926015854
1772790209730575000,6.4755751953125,-0.08279597759246826,0.30338454246520996,0.38840270042419434
1772790209740641000,6.48564111328125,-0.037099920213222504,0.2796100378036499,0.5811159610748291
1772790209750707200,6.495707275390625,0.049410734325647354,0.3190458416938782,0.741161584854126
1772790209760772400,6.5057724609375,0.1209210455417633,0.27493852376937866,0.8349643349647522
1772790209770838300,6.51583837890625,0.16332469880580902,0.11837179213762283,0.8808841705322266
1772790209780904200,6.525904296875,0.19525323808193207,-0.016697200015187263,0.9307062029838562
1772790209790969000,6.535968994140625,0.22201640903949738,-0.05838233232498169,0.9957419037818909
1772790209801035300,6.54603515625,0.2217511534690857,-0.03201357275247574,1.0255581140518188
1772790209811101200,6.55610107421875,0.19501115381717682,-0.020430419594049454,0.9804561734199524
1772790209821166300,6.566166259765625,0.15066178143024445,-0.06469200551509857,0.857433021068573
1772790209831232300,6.576232177734375,0.12882864475250244,-0.11866495758295059,0.6999624371528625
1772790209841298200,6.586298095703125,0.14012014865875244,-0.12042227387428284,0.5670390129089355
1772790209851364000,6.596364013671875,0.16886337101459503,-0.0745629072189331,0.46396002173423767
1772790209861429200,6.60642919921875,0.2022969126701355,-0.03575790673494339,0.375059574842453
1772790209871495200,6.6164951171875,0.22756418585777283,-0.036566972732543945,0.2917281985282898
1772790209881561300,6.626561279296875,0.2468051016330719,-0.07393012940883636,0.21465997397899628
1772790209891626200,6.636626220703125,0.24737821519374847,-0.15028855204582214,0.14768600463867188
1772790209901692200,6.646692138671875,0.22789806127548218,-0.2677466869354248,0.08453250676393509
1772790209911758000,6.656758056640625,0.20762048661708832,-0.42816218733787537,0.03910829499363899
1772790209921823200,6.6668232421875,0.1376926600933075,-0.5775167942047119,0.0001610315521247685
1772790209931889400,6.676889404296875,0.030773136764764786,-0.660438597202301,-0.030349738895893097
1772790209941955000,6.686955078125,-0.056292206048965454,-0.6956811547279358,-0.04554714262485504
1772790209952020200,6.697020263671875,-0.09064538031816483,-0.6976755857467651,-0.060796935111284256
1772790209962086100,6.707086181640625,-0.07126161456108093,-0.6787630319595337,-0.053647544234991074
1772790209972152000,6.717152099609375,-0.021699653938412666,-0.6264183521270752,-0.02232610620558262
1772790209982217000,6.727217041015625,0.06352154910564423,-0.551622748374939,0.021870248019695282
1772790209992283000,6.737282958984375,0.1493150144815445,-0.44112449884414673,0.07076561450958252
1772790210002348800,6.747348876953125,0.21039357781410217,-0.29526758193969727,0.11443111300468445
1772790210012414000,6.7574140625,0.23289328813552856,-0.1679421067237854,0.13602854311466217
1772790210022480100,6.767480224609375,0.21958304941654205,-0.12057950347661972,0.12495668977499008
1772790210032546000,6.777546142578125,0.18640220165252686,-0.17885719239711761,0.09997037053108215
1772790210042611000,6.78761083984375,0.1582988202571869,-0.3024144172668457,0.09109821915626526
1772790210052676900,6.7976767578125,0.13795652985572815,-0.37910813093185425,0.1128687635064125
1772790210062743000,6.807742919921875,0.13174840807914734,-0.3827899992465973,0.15084373950958252
1772790210072808000,6.817807861328125,0.1258401870727539,-0.3497558832168579,0.1669582575559616
1772790210082874000,6.8278740234375,0.11842513084411621,-0.3128901422023773,0.14984342455863953
1772790210092940000,6.83793994140625,0.11859264224767685,-0.2642645537853241,0.09611228853464127
1772790210103005000,6.8480048828125,0.09920601546764374,-0.20672112703323364,0.014116093516349792
1772790210113070800,6.85807080078125,0.0770953893661499,-0.1724366545677185,-0.06989492475986481
1772790210123137000,6.868136962890625,0.05820399150252342,-0.19513797760009766,-0.1344950646162033
1772790210133203000,6.878202880859375,0.038790345191955566,-0.19819235801696777,-0.1855635643005371
1772790210143267800,6.888267822265625,0.06794995069503784,-0.18358388543128967,-0.21238599717617035
1772790210153334000,6.898333984375,0.12984687089920044,-0.18189625442028046,-0.2281327247619629
1772790210163400000,6.90839990234375,0.1255156248807907,-0.1434703767299652,-0.213394433259964
1772790210173465000,6.918465087890625,0.09970826655626297,-0.09539446234703064,-0.17309974133968353
1772790210183531000,6.928531005859375,0.07179088145494461,-0.03891279175877571,-0.11778870970010757
1772790210193597200,6.93859716796875,0.039746131747961044,0.02927558496594429,-0.07702716439962387
1772790210203661800,6.948661865234375,0.0019794057589024305,0.031070437282323837,-0.06690321862697601
1772790210213728000,6.95872802734375,-0.024211717769503593,-0.06955710053443909,-0.09463924169540405
1772790210223794000,6.9687939453125,-0.03524112328886986,-0.1682722121477127,-0.15708045661449432
1772790210233859000,6.978859130859375,-0.005606002174317837,-0.17267921566963196,-0.18172721564769745
1772790210243925000,6.988925048828125,0.026308715343475342,-0.13485677540302277,-0.15598338842391968
1772790210253991000,6.998990966796875,0.05319732055068016,-0.06518368422985077,-0.09998484700918198
1772790210264056000,7.00905615234375,0.09438574314117432,0.0258707907050848,-0.025187401100993156
1772790210274122000,7.0191220703125,0.13022230565547943,0.08140382915735245,0.06138051301240921
1772790210284188200,7.029188232421875,0.15617628395557404,0.10061480104923248,0.12565113604068756
1772790210294252800,7.039252685546875,0.17404130101203918,0.0827399343252182,0.17925311625003815
1772790210304319000,7.049319091796875,0.16741418838500977,0.02278115227818489,0.21962477266788483
1772790210314385000,7.059385009765625,0.15658152103424072,-0.00805905181914568,0.274286150932312
1772790210324450000,7.069449951171875,0.14899970591068268,-0.023374127224087715,0.3339623510837555
1772790210334516000,7.079515869140625,0.1413833200931549,-0.012624276801943779,0.3804837763309479
1772790210344582100,7.08958203125,0.13676653802394867,-0.005113349296152592,0.4091557264328003
1772790210354647000,7.09964697265625,0.12488936632871628,-0.028768077492713928,0.40822017192840576
1772790210364713000,7.109712890625,0.10940982401371002,-0.07485455274581909,0.3784622550010681
1772790210374779000,7.11977880859375,0.0939195454120636,-0.12649324536323547,0.3428952097892761
1772790210384844000,7.129843994140625,0.07347867637872696,-0.14169450104236603,0.34409189224243164
1772790210394910200,7.13991015625,0.04927000775933266,-0.13817167282104492,0.3523000180721283
1772790210404975900,7.149975830078125,0.028170844539999962,-0.14910396933555603,0.35783639550209045
1772790210415041000,7.160041015625,0.013596429489552975,-0.1528204083442688,0.3427559733390808
1772790210425107000,7.17010693359375,-0.024820031598210335,-0.12380778789520264,0.29333823919296265
1772790210435173000,7.180173095703125,-0.06085526570677757,-0.07491667568683624,0.19569131731987
1772790210445237800,7.19023779296875,-0.060564953833818436,-0.03985844552516937,0.06697943806648254
1772790210455304000,7.200303955078125,-0.015559396706521511,-0.020624831318855286,-0.06588699668645859
1772790210465369900,7.210369873046875,0.0401819609105587,-0.014843646436929703,-0.16439230740070343
1772790210475435000,7.22043505859375,0.10241284966468811,-0.023441128432750702,-0.21611808240413666
1772790210485501000,7.2305009765625,0.1705610454082489,-0.05830736830830574,-0.21427130699157715
1772790210495567000,7.240567138671875,0.23440739512443542,-0.08788150548934937,-0.15683650970458984
1772790210505632800,7.2506328125,0.2730587124824524,-0.07582812011241913,-0.07684540003538132
1772790210515698000,7.260697998046875,0.31957241892814636,-0.031586356461048126,0.009971247985959053
1772790210525764000,7.27076416015625,0.40494704246520996,0.013172362931072712,0.0928306132555008
1772790210535830000,7.280830078125,0.47597193717956543,0.08780638873577118,0.14876951277256012
1772790210545895200,7.290895263671875,0.502956748008728,0.10996221005916595,0.21544533967971802
1772790210555960800,7.3009609375,0.46516114473342896,0.05734693259000778,0.28798532485961914
1772790210566027000,7.311027099609375,0.3572627007961273,0.01626075990498066,0.3056600093841553
1772790210576092000,7.321091796875,0.2653231918811798,-0.03102446347475052,0.29528138041496277
1772790210586158000,7.331157958984375,0.2521655261516571,-0.06998317688703537,0.2775629162788391
1772790210596224000,7.34122412109375,0.2467590570449829,-0.14472107589244843,0.23991486430168152
1772790210606289000,7.351288818359375,0.22079968452453613,-0.23916861414909363,0.18782736361026764
1772790210616354800,7.361354736328125,0.1472538262605667,-0.33115631341934204,0.13355320692062378
1772790210626421000,7.3714208984375,0.02653866447508335,-0.3803861737251282,0.09958864748477936
1772790210636486100,7.381486083984375,-0.07926180213689804,-0.40309202671051025,0.08399370312690735
1772790210646552000,7.391552001953125,-0.17247748374938965,-0.4281514585018158,0.07159779965877533
1772790210656618000,7.401617919921875,-0.24342195689678192,-0.4172181189060211,0.0564555898308754
1772790210666683000,7.411682861328125,-0.2757366895675659,-0.3761785924434662,0.03882090747356415
1772790210676749000,7.4217490234375,-0.2639697790145874,-0.3396674692630768,0.014780819416046143
1772790210686815000,7.43181494140625,-0.22652512788772583,-0.2620978057384491,-0.03431103006005287
1772790210696879900,7.4418798828125,-0.17791099846363068,-0.20755255222320557,-0.08740966767072678
1772790210706945800,7.45194580078125,-0.14107131958007812,-0.2315184623003006,-0.12622560560703278
1772790210717012000,7.462011962890625,-0.13022905588150024,-0.22204959392547607,-0.18919658660888672
1772790210727077000,7.4720771484375,-0.11667753756046295,-0.22029021382331848,-0.2727522552013397
1772790210737143000,7.48214306640625,-0.09560368210077286,-0.18757887184619904,-0.33838504552841187
1772790210747209000,7.492208984375,-0.07040974497795105,-0.09382028132677078,-0.3871940076351166
1772790210757273900,7.50227392578125,-0.0347478874027729,-0.006028912495821714,-0.3963504731655121
1772790210767340000,7.512340087890625,-0.0024373240303248167,0.06599026918411255,-0.3784175217151642
1772790210777406000,7.522406005859375,-0.0036261591594666243,0.09042823314666748,-0.36994412541389465
1772790210787471000,7.53247119140625,-0.004440166987478733,0.08296734094619751,-0.3530910611152649
1772790210797537000,7.542537109375,0.02292141690850258,0.04175812005996704,-0.3409784734249115
1772790210807603000,7.55260302734375,0.0849582701921463,-0.05392901226878166,-0.34477442502975464
1772790210817667800,7.562667724609375,0.1353849619626999,-0.1545243263244629,-0.34590253233909607
1772790210827734000,7.572734130859375,0.13263408839702606,-0.23899541795253754,-0.3315941095352173
1772790210837800000,7.582800048828125,0.07450740039348602,-0.2793891727924347,-0.29454076290130615
1772790210847866000,7.5928662109375,0.014931883662939072,-0.2626776397228241,-0.258497953414917
1772790210857931000,7.602930908203125,-0.03740641847252846,-0.20308326184749603,-0.24474939703941345
1772790210867997000,7.612996826171875,-0.04667560011148453,-0.18491587042808533,-0.23797060549259186
1772790210878062800,7.623062744140625,-0.052261579781770706,-0.16995742917060852,-0.22877764701843262
1772790210888128000,7.6331279296875,-0.07949109375476837,-0.14674197137355804,-0.23792217671871185
1772790210898194200,7.643194091796875,-0.08244986832141876,-0.10613302886486053,-0.24413080513477325
1772790210908259800,7.653259765625,-0.04439959302544594,-0.029399529099464417,-0.23057851195335388
1772790210918325000,7.663324951171875,0.005797797814011574,0.059985749423503876,-0.20407526195049286
1772790210928391000,7.673390869140625,0.05175093561410904,0.11821241676807404,-0.16858167946338654
1772790210938457000,7.68345703125,0.08403616398572922,0.13990706205368042,-0.13649111986160278
1772790210948522000,7.69352197265625,0.10888774693012238,0.12103812396526337,-0.11511586606502533
1772790210958588000,7.703587890625,0.12638790905475616,0.08476319909095764,-0.10966570675373077
1772790210968653800,7.71365380859375,0.12581077218055725,0.030157899484038353,-0.1197306290268898
1772790210978722300,7.723722412109375,0.12405229359865189,-0.032530248165130615,-0.12385639548301697
1772790210988788500,7.73378857421875,0.09764949232339859,-0.03514022380113602,-0.12340805679559708
1772790210998854400,7.7438544921875,0.11314509809017181,-0.052708566188812256,-0.11047281324863434
1772790211008919600,7.75391943359375,0.12665142118930817,-0.05194118246436119,-0.08869178593158722
1772790211018985500,7.7639853515625,0.11221016198396683,-0.025366831570863724,-0.07522603869438171
1772790211029051600,7.7740517578125,0.11648799479007721,0.0002544242888689041,-0.07004518806934357
1772790211039116300,7.7841162109375,0.1268002837896347,0.02627776935696602,-0.06743235886096954
1772790211049182500,7.794182373046875,0.1302369236946106,0.04298384115099907,-0.05831657350063324
1772790211059248400,7.804248291015625,0.1297769993543625,0.04544619843363762,-0.03743419423699379
1772790211069313500,7.8143134765625,0.12170667946338654,0.04795007407665253,-0.003763442160561681
1772790211079379500,7.82437939453125,0.11705359816551208,0.03725029155611992,0.04330180585384369
1772790211089445400,7.8344453125,0.115945003926754,0.014539421536028385,0.08265870064496994
1772790211099510500,7.844510498046875,0.12630869448184967,-0.026647163555026054,0.11310582607984543
1772790211109576400,7.854576416015625,0.14460963010787964,-0.060269780457019806,0.14857569336891174
1772790211119642600,7.864642578125,0.15389180183410645,-0.07711081206798553,0.18160048127174377
1772790211129707300,7.874707275390625,0.15462517738342285,-0.07972753047943115,0.19654612243175507
1772790211139773400,7.8847734375,0.15099449455738068,-0.07157399505376816,0.18967463076114655
1772790211149839400,7.89483935546875,0.1420414000749588,-0.0800243392586708,0.1694938987493515
1772790211159904500,7.904904541015625,0.12133903801441193,-0.11269652843475342,0.12735630571842194
1772790211169970400,7.914970458984375,0.11110995709896088,-0.07895781099796295,0.07784726470708847
1772790211180036600,7.92503662109375,0.09662768989801407,0.013475986197590828,0.01465710997581482
1772790211190102300,7.935102294921875,0.08383398503065109,0.12271135300397873,-0.05722024291753769
1772790211200167400,7.94516748046875,0.06198834255337715,0.18685784935951233,-0.1499648243188858
1772790211210233300,7.9552333984375,0.041668087244033813,0.17064423859119415,-0.24751834571361542
1772790211220299500,7.965299560546875,0.0185872670263052,0.1158054918050766,-0.33947330713272095
1772790211230364400,7.975364501953125,0.00027868617326021194,0.04748336225748062,-0.39809274673461914
1772790211240430300,7.985430419921875,-0.007386424113065004,-0.0354946106672287,-0.42091017961502075
1772790211250496500,7.99549658203125,-0.010085659101605415,-0.0940699428319931,-0.4027307331562042
1772790211260561400,8.0055615234375,0.004987567197531462,-0.07102428376674652,-0.35507744550704956
1772790211270627600,8.015627685546875,0.03153516352176666,-0.009087678045034409,-0.30925533175468445
1772790211280692200,8.025692138671875,0.07012196630239487,0.08661994338035583,-0.2716533839702606
1772790211290758400,8.03575830078125,0.1108970046043396,0.20650334656238556,-0.24623936414718628
1772790211300824300,8.04582421875,0.13396397233009338,0.3163345158100128,-0.23784373700618744
1772790211310889500,8.055889404296876,0.1526077538728714,0.4081839323043823,-0.2579002380371094
1772790211320955400,8.065955322265625,0.16498026251792908,0.458121657371521,-0.31548523902893066
1772790211331021600,8.076021484375,0.1728149652481079,0.4600672125816345,-0.38677719235420227
1772790211341086500,8.08608642578125,0.1656164526939392,0.4501509368419647,-0.4693855345249176
1772790211351152400,8.09615234375,0.14811111986637115,0.4385300576686859,-0.5403428673744202
1772790211361218600,8.106218505859376,0.12965194880962372,0.37564003467559814,-0.598630428314209
1772790211371283500,8.116283447265625,0.10017599165439606,0.3110732138156891,-0.6292199492454529
1772790211381349400,8.126349365234375,0.07796336710453033,0.24921859800815582,-0.6422646641731262
1772790211391415300,8.136415283203124,0.07362885028123856,0.18500414490699768,-0.6495274305343628
1772790211401481500,8.1464814453125,0.07847100496292114,0.11152514070272446,-0.6620269417762756
1772790211411546400,8.15654638671875,0.08265382051467896,0.024088706821203232,-0.6851498484611511
1772790211421612500,8.166612548828125,0.08754178881645203,-0.06793815642595291,-0.7106826901435852
1772790211431678500,8.176678466796876,0.08014887571334839,-0.1803857684135437,-0.7273210883140564
1772790211441743400,8.186743408203125,0.058939192444086075,-0.3278774917125702,-0.7267460823059082
1772790211451809300,8.196809326171875,0.03158526122570038,-0.43749484419822693,-0.7149351835250854
1772790211461875500,8.20687548828125,0.002406602492555976,-0.5169845819473267,-0.7043666839599609
1772790211471940600,8.216940673828125,-0.036631129682064056,-0.6313551068305969,-0.711761474609375
1772790211482006500,8.227006591796876,-0.09422730654478073,-0.7830884456634521,-0.7236868143081665
1772790211492072400,8.237072509765625,-0.15829215943813324,-0.9057782292366028,-0.7184626460075378
1772790211502137300,8.247137451171875,-0.21397991478443146,-0.9592710137367249,-0.6840276718139648
1772790211512203500,8.25720361328125,-0.242447629570961,-0.9584421515464783,-0.6220710277557373
1772790211522269400,8.26726953125,-0.24452781677246094,-0.9194127321243286,-0.5321539044380188
1772790211532334300,8.277334228515626,-0.21759885549545288,-0.8141014575958252,-0.4153746962547302
1772790211542400300,8.287400146484375,-0.15500445663928986,-0.6164877414703369,-0.302415668964386
1772790211552466400,8.297466552734376,-0.07372191548347473,-0.3559618890285492,-0.20785753428936005
1772790211562531600,8.307531494140624,0.003956100437790155,-0.10171762108802795,-0.15887001156806946
1772790211572597500,8.317597412109375,0.04784514382481575,0.07575283944606781,-0.16461864113807678
1772790211582663400,8.327663330078124,0.058402445167303085,0.16241849958896637,-0.23118168115615845
1772790211592728300,8.337728271484375,0.05850439518690109,0.16350805759429932,-0.33875417709350586
1772790211602794500,8.34779443359375,0.06017100438475609,0.1541859209537506,-0.4350370466709137
1772790211612860400,8.3578603515625,0.04932040348649025,0.13473281264305115,-0.48598146438598633
1772790211622925600,8.367925537109375,0.025207076221704483,0.08387096226215363,-0.49122098088264465
1772790211632991500,8.377991455078124,-0.00070196483284235,-0.010778911411762238,-0.45790407061576843
1772790211643057400,8.388057373046875,-0.03561440855264664,-0.12891674041748047,-0.38720059394836426
1772790211653122300,8.398122314453126,-0.0634719729423523,-0.21491532027721405,-0.30355215072631836
1772790211663188500,8.4081884765625,-0.08130396902561188,-0.25548458099365234,-0.2296355813741684
1772790211673254400,8.41825439453125,-0.08887568861246109,-0.27775731682777405,-0.17710912227630615
1772790211683319300,8.4283193359375,-0.08816888928413391,-0.28968000411987305,-0.14444679021835327
1772790211693385500,8.438385498046875,-0.1001160740852356,-0.28512296080589294,-0.13887257874011993
1772790211703451400,8.448451416015626,-0.1019696295261383,-0.2811034619808197,-0.16010810434818268
1772790211713516500,8.4585166015625,-0.08346458524465561,-0.25566354393959045,-0.17130668461322784
1772790211723582500,8.46858251953125,-0.06246049702167511,-0.19711315631866455,-0.1542736440896988
1772790211733648600,8.478648681640625,-0.04832436516880989,-0.10137175768613815,-0.11381211876869202
1772790211743713300,8.48871337890625,-0.035905249416828156,-0.006733930204063654,-0.07949116080999374
1772790211753779500,8.498779541015624,-0.010393915697932243,0.05759786069393158,-0.08070483803749084
1772790211763845400,8.508845458984375,0.015755396336317062,0.09596442431211472,-0.10659156739711761
1772790211773910500,8.51891064453125,0.04486723616719246,0.11832451075315475,-0.14024212956428528
1772790211783976400,8.5289765625,0.07336332648992538,0.14044977724552155,-0.16567185521125793
1772790211794042400,8.53904248046875,0.09776946157217026,0.1738012284040451,-0.1712205559015274
1772790211804107500,8.549107421875,0.11098699271678925,0.2186235636472702,-0.1553206890821457
1772790211814173400,8.55917333984375,0.12507124245166779,0.22927188873291016,-0.13169440627098083
1772790211824239600,8.569239501953126,0.1328900158405304,0.20886941254138947,-0.11916317790746689
1772790211834304300,8.57930419921875,0.15089114010334015,0.15904177725315094,-0.09779270738363266
1772790211844370400,8.589370361328125,0.17996087670326233,0.0964132696390152,-0.06666647642850876
1772790211854436400,8.599436279296874,0.20426945388317108,0.061788905411958694,-0.017169900238513947
1772790211864502500,8.60950244140625,0.23413974046707153,0.04219123721122742,0.037361517548561096
1772790211874567400,8.6195673828125,0.26382359862327576,0.010711115784943104,0.07927722483873367
1772790211884633600,8.629633544921875,0.2852362096309662,-0.0209908876568079,0.10592294484376907
1772790211894699300,8.63969921875,0.3003835678100586,-0.03594443202018738,0.1319417655467987
1772790211904764400,8.649764404296874,0.3207692503929138,-0.00924411229789257,0.16136889159679413
1772790211914830300,8.659830322265625,0.34427255392074585,0.06430211663246155,0.1881142258644104
1772790211924896500,8.669896484375,0.36549821496009827,0.13356107473373413,0.19591940939426422
1772790211934961700,8.679961669921875,0.3804934024810791,0.14827682077884674,0.17334358394145966
1772790211945027300,8.69002734375,0.3880988657474518,0.1114673987030983,0.1349216252565384
1772790211955093500,8.700093505859375,0.3814268410205841,0.08987076580524445,0.08464381098747253
1772790211965158400,8.710158447265625,0.3661971986293793,0.09840396046638489,0.019189713522791862
1772790211975221000,8.720220947265625,0.3605172634124756,0.11750169843435287,-0.06417844444513321
1772790211985287000,8.730286865234374,0.3515447974205017,0.1328662633895874,-0.1678510457277298
1772790211995352000,8.74035205078125,0.3321576416492462,0.0987631231546402,-0.2840750813484192
1772790212005418000,8.75041796875,0.289960116147995,0.006665948778390884,-0.38601529598236084
1772790212015484200,8.760484130859375,0.2518232464790344,-0.1379425972700119,-0.4638447165489197
1772790212025549000,8.770549072265625,0.2201625257730484,-0.30323755741119385,-0.4856559932231903
1772790212035615000,8.780614990234374,0.19616113603115082,-0.42010101675987244,-0.44617876410484314
1772790212045681000,8.790680908203125,0.19564475119113922,-0.4489675462245941,-0.351640522480011
1772790212055747000,8.8007470703125,0.25077781081199646,-0.4045262336730957,-0.21197456121444702
1772790212065812000,8.81081201171875,0.3525811433792114,-0.24927593767642975,-0.04383908957242966
1772790212075878000,8.8208779296875,0.5060102343559265,-0.03019927628338337,0.132536843419075
1772790212085944000,8.830944091796875,0.6587313413619995,0.2552438974380493,0.29413503408432007
1772790212096009000,8.841009033203125,0.7697473764419556,0.5193344354629517,0.41357994079589844
1772790212106075100,8.8510751953125,0.8493250012397766,0.6424803137779236,0.4662253260612488
1772790212116141000,8.86114111328125,0.8897679448127747,0.6243199110031128,0.4536724388599396
1772790212126206000,8.8712060546875,0.9029388427734375,0.5657314658164978,0.4247039258480072
1772790212136272000,8.88127197265625,0.8701670169830322,0.5229347348213196,0.4116598963737488
1772790212146338000,8.891338134765626,0.7949351072311401,0.44141674041748047,0.4062608778476715
1772790212156403000,8.90140283203125,0.6928970813751221,0.31537991762161255,0.39315906167030334
1772790212166469000,8.91146923828125,0.5785872936248779,0.1544051319360733,0.3753877878189087
1772790212176534800,8.92153466796875,0.4534345269203186,-0.04516395926475525,0.3642541468143463
1772790212186600000,8.931599853515625,0.3293136656284332,-0.23980242013931274,0.3686582148075104
1772790212196666000,8.941666015625,0.22625651955604553,-0.37562277913093567,0.39220190048217773
1772790212206732000,8.95173193359375,0.16034141182899475,-0.43460381031036377,0.42064446210861206
1772790212216797000,8.961796875,0.12831737101078033,-0.41130727529525757,0.44408100843429565
1772790212226862800,8.97186279296875,0.11435973644256592,-0.331625759601593,0.44255608320236206
1772790212236929000,8.981928955078125,0.09851495176553726,-0.24068060517311096,0.398146390914917
1772790212246994000,8.991993896484376,0.08311096578836441,-0.17994935810565948,0.31005436182022095
1772790212257060000,9.00206005859375,0.05564798787236214,-0.13865435123443604,0.18434187769889832
1772790212267126000,9.0121259765625,0.02570153772830963,-0.0873541384935379,0.0493134930729866
1772790212277191000,9.02219091796875,0.008732350543141365,-0.022287746891379356,-0.0693698301911354
1772790212287256800,9.0322568359375,0.017200138419866562,0.07072527706623077,-0.15912102162837982
1772790212297323000,9.042322998046876,0.041360318660736084,0.21208100020885468,-0.20972275733947754
1772790212307388200,9.05238818359375,0.08167924731969833,0.34356045722961426,-0.22403459250926971
1772790212317454000,9.0624541015625,0.12460837513208389,0.44085124135017395,-0.22124649584293365
1772790212327520000,9.07252001953125,0.17358523607254028,0.48582297563552856,-0.20209410786628723
1772790212337585000,9.0825849609375,0.21369776129722595,0.5000596642494202,-0.16888928413391113
1772790212347651000,9.092651123046876,0.25443586707115173,0.49520519375801086,-0.1288989931344986
1772790212357717000,9.102717041015625,0.307066947221756,0.46994930505752563,-0.0950104370713234
1772790212367782000,9.112781982421875,0.35814371705055237,0.44591695070266724,-0.06887684017419815
1772790212377847800,9.122847900390624,0.3982146978378296,0.42079958319664,-0.06215314567089081
1772790212387914000,9.1329140625,0.4342544376850128,0.38741418719291687,-0.0790943056344986
1772790212397979100,9.142979248046874,0.4631136953830719,0.3413602411746979,-0.11377404630184174
1772790212408045000,9.153045166015625,0.4830746352672577,0.2903452515602112,-0.15535104274749756
1772790212418111000,9.163111083984376,0.4985646903514862,0.2208113968372345,-0.19221162796020508
1772790212428176000,9.17317578125,0.512065589427948,0.14780056476593018,-0.22518448531627655
1772790212438242000,9.183241943359375,0.527880847454071,0.07643212378025055,-0.24361562728881836
1772790212448308000,9.193307861328124,0.551196813583374,0.02119763009250164,-0.24799999594688416
1772790212458373000,9.203373046875,0.5960865020751953,-0.007383773103356361,-0.24369971454143524
1772790212468438800,9.213438720703126,0.6587677597999573,0.0018238397315144539,-0.2243899255990982
1772790212478505000,9.2235048828125,0.7245555520057678,0.07034672796726227,-0.19774223864078522
1772790212488569900,9.23356982421875,0.8017534017562866,0.14871397614479065,-0.18195661902427673
1772790212498636000,9.243635986328124,0.8809272050857544,0.23408928513526917,-0.18590092658996582
1772790212508702000,9.253701904296875,0.9667009711265564,0.3024846017360687,-0.22077661752700806
1772790212518766800,9.263766845703126,1.0493674278259277,0.3409997820854187,-0.2768067717552185
1772790212528833000,9.2738330078125,1.1219733953475952,0.3388274610042572,-0.3327541947364807
1772790212538899000,9.28389892578125,1.178368091583252,0.31008821725845337,-0.36892297863960266
1772790212548964000,9.293964111328124,1.2199269533157349,0.26356732845306396,-0.37547194957733154
1772790212559030000,9.304030029296875,1.2584267854690552,0.23898737132549286,-0.35270747542381287
1772790212569096200,9.31409619140625,1.3001377582550049,0.2152189165353775,-0.31124579906463623
1772790212579160800,9.324160888671875,1.3404685258865356,0.17868003249168396,-0.2724480926990509
1772790212589227000,9.33422705078125,1.3842778205871582,0.12278933078050613,-0.25194308161735535
1772790212599293000,9.34429296875,1.4338569641113281,0.07029280066490173,-0.24920393526554108
1772790212609358000,9.354358154296875,1.4854708909988403,0.058988481760025024,-0.25308868288993835
1772790212619423700,9.364423828125,1.546230673789978,0.103718601167202,-0.26116588711738586
1772790212629490000,9.374489990234375,1.6066311597824097,0.17585031688213348,-0.2801600694656372
1772790212639555000,9.38455517578125,1.6695306301116943,0.2518724203109741,-0.31958094239234924
1772790212649621000,9.39462109375,1.7397949695587158,0.3046312630176544,-0.38116201758384705
1772790212659687200,9.404687255859375,1.7991483211517334,0.31308484077453613,-0.4442359507083893
1772790212669751800,9.414751708984374,1.847278356552124,0.27893513441085815,-0.4897192716598511
1772790212679818000,9.42481787109375,1.8893970251083374,0.2415294349193573,-0.5081921219825745
1772790212689884000,9.4348837890625,1.9254306554794312,0.19990688562393188,-0.48804742097854614
1772790212699949000,9.444948974609375,1.9609335660934448,0.1533682942390442,-0.45093679428100586
1772790212710015000,9.455014892578125,2.0058205127716064,0.11305790394544601,-0.40685373544692993
1772790212720081200,9.4650810546875,2.05826997756958,0.053944364190101624,-0.37379559874534607
1772790212730146000,9.47514599609375,2.114051580429077,0.0019336268305778503,-0.3479938209056854
1772790212740212000,9.4852119140625,2.169863224029541,-0.001621193252503872,-0.33233752846717834
1772790212750278000,9.49527783203125,2.2240517139434814,0.0060670869424939156,-0.3485710918903351
1772790212760343000,9.505343017578125,2.2685649394989014,-0.03118637017905712,-0.4051128625869751
1772790212770409000,9.515408935546875,2.2951459884643555,-0.13243496417999268,-0.48707059025764465
1772790212780475000,9.525474853515625,2.3030107021331787,-0.27724528312683105,-0.5630768537521362
1772790212790540000,9.5355400390625,2.295850992202759,-0.40994688868522644,-0.5937463641166687
1772790212800606000,9.54560595703125,2.264302968978882,-0.5481654405593872,-0.5802671313285828
1772790212810672000,9.555672119140626,2.2647464275360107,-0.730277419090271,-0.5046716928482056
1772790212820736800,9.56573681640625,2.2857887744903564,-0.771474301815033,-0.34463953971862793
1772790212830803000,9.575802978515625,2.320525884628296,-0.7164965271949768,-0.1462276130914688
1772790212840868900,9.585868896484374,2.3752317428588867,-0.6019908785820007,0.06493925303220749
1772790212850935000,9.59593505859375,2.418400526046753,-0.4412526488304138,0.26098281145095825
1772790212861000000,9.606,2.435634136199951,-0.2818030118942261,0.41305041313171387
1772790212871066000,9.616066162109375,2.411604881286621,-0.22805404663085938,0.4754706621170044
1772790212881131800,9.6261318359375,2.376051187515259,-0.3199288845062256,0.4215484857559204
1772790212891197000,9.636197021484374,2.320136070251465,-0.4371527135372162,0.28821784257888794
1772790212901263000,9.64626318359375,2.233107089996338,-0.47795191407203674,0.13144859671592712
1772790212911329000,9.6563291015625,2.1222057342529297,-0.45351287722587585,-0.0030772469472140074
1772790212921394000,9.666393798828125,2.0082218647003174,-0.3919663727283478,-0.09597296267747879
1772790212931459800,9.6764599609375,1.911522626876831,-0.2894591689109802,-0.13770124316215515
1772790212941526000,9.686526123046875,1.8274213075637817,-0.18139402568340302,-0.11713089048862457
1772790212951591000,9.6965908203125,1.7543660402297974,-0.06543760001659393,-0.06970691680908203
1772790212961657000,9.706656982421874,1.705763339996338,0.04286545515060425,-0.027664553374052048
1772790212971723000,9.716722900390625,1.6891529560089111,0.1094876229763031,-0.015851035714149475
1772790212981787100,9.726787109375,1.697260856628418,0.14155295491218567,-0.02367260493338108
1772790212991853300,9.736853271484375,1.715719223022461,0.19203050434589386,-0.03594231978058815
1772790213001919200,9.746919189453125,1.744001030921936,0.2794693112373352,-0.0551753006875515
1772790213011984400,9.756984375,1.75676429271698,0.39191117882728577,-0.08088066428899765
1772790213022050300,9.76705029296875,1.7544318437576294,0.4950657784938812,-0.11578062921762466
1772790213032116500,9.777116455078126,1.7353601455688477,0.5630818605422974,-0.16471675038337708
1772790213042181400,9.787181396484375,1.7017631530761719,0.5927509665489197,-0.21628215909004211
1772790213052247300,9.797247314453125,1.667808175086975,0.5985901951789856,-0.2597215175628662
1772790213062313200,9.807313232421874,1.6413378715515137,0.5794224143028259,-0.28827759623527527
1772790213072378400,9.81737841796875,1.633381962776184,0.5511103272438049,-0.2953919768333435
1772790213082444500,9.827444580078126,1.63283371925354,0.5306739807128906,-0.29161420464515686
1772790213092510200,9.83751025390625,1.6517038345336914,0.5165258646011353,-0.27964890003204346
1772790213102575400,9.847575439453125,1.6794562339782715,0.5094066858291626,-0.255895733833313
1772790213112641300,9.857641357421874,1.7121063470840454,0.4990512728691101,-0.23191715776920319
1772790213122707500,9.86770751953125,1.7571794986724854,0.4896280765533447,-0.20628680288791656
1772790213132772000,9.877772216796876,1.8081532716751099,0.46623221039772034,-0.19007933139801025
1772790213142838300,9.88783837890625,1.8522822856903076,0.4291851222515106,-0.15837663412094116
1772790213152904200,9.897904296875,1.8889210224151611,0.41424691677093506,-0.11315003037452698
1772790213162969300,9.90796923828125,1.9153077602386475,0.40909531712532043,-0.06162707507610321
1772790213173035300,9.91803515625,1.938497543334961,0.38874638080596924,-0.00921233743429184
1772790213183101400,9.928101318359374,1.9465664625167847,0.35234540700912476,0.02451113611459732
1772790213193166300,9.938166259765625,1.9571388959884644,0.2853865921497345,0.0452028289437294
1772790213203232300,9.948232177734376,1.970166563987732,0.1990160048007965,0.0509343184530735
1772790213213298400,9.95829833984375,1.9805091619491577,0.10264766216278076,0.0559019111096859
1772790213223363300,9.96836328125,2.001112461090088,0.0256031546741724,0.07419517636299133
1772790213233429500,9.978429443359374,2.023240327835083,-0.027580970898270607,0.09946724772453308
1772790213243495200,9.9884951171875,2.041264772415161,-0.0933021605014801,0.12106886506080627
1772790213253560300,9.998560302734376,2.047455310821533,-0.19900143146514893,0.13090872764587402
1772790213263626200,10.008626220703125,2.034728527069092,-0.3188045620918274,0.1406036764383316
1772790213273692400,10.0186923828125,2.0125319957733154,-0.4035516679286957,0.17017434537410736
1772790213283757300,10.02875732421875,1.9683364629745483,-0.4463562071323395,0.221952885389328
1772790213293823200,10.0388232421875,1.927868127822876,-0.424686074256897,0.28877532482147217
1772790213303889200,10.04888916015625,1.8923289775848389,-0.3494587242603302,0.35850515961647034
1772790213313954300,10.058954345703125,1.8653303384780884,-0.22454528510570526,0.43230029940605164
1772790213324020500,10.0690205078125,1.8405672311782837,-0.0417451448738575,0.4918683171272278
1772790213334086400,10.07908642578125,1.8288816213607788,0.1281365603208542,0.5254374742507935
1772790213344151300,10.0891513671875,1.804823875427246,0.22253398597240448,0.5197754502296448
1772790213354217200,10.09921728515625,1.7829846143722534,0.2545348107814789,0.49648746848106384
1772790213364283400,10.109283447265625,1.7491040229797363,0.2576315999031067,0.47224855422973633
1772790213374348300,10.119348388671876,1.706514835357666,0.24993585050106049,0.4689432978630066
1772790213384414200,10.129414306640625,1.661359429359436,0.2665031850337982,0.4710118770599365
1772790213394480000,10.139480224609375,1.6191728115081787,0.28074178099632263,0.4825257658958435
1772790213404545300,10.149545166015624,1.5723583698272705,0.26004984974861145,0.49468162655830383
1772790213414611500,10.159611572265625,1.5178972482681274,0.23293247818946838,0.5084230303764343
1772790213424677400,10.169677490234376,1.4761617183685303,0.20879623293876648,0.519461989402771
1772790213434742300,10.1797421875,1.4368691444396973,0.19885918498039246,0.5181708931922913
1772790213444808200,10.18980810546875,1.3976972103118896,0.18627148866653442,0.5082442164421082
1772790213454874400,10.199874267578124,1.364628791809082,0.16845840215682983,0.498198002576828
1772790213464939300,10.209939208984375,1.333696961402893,0.18471530079841614,0.48795583844184875
1772790213475005400,10.22000537109375,1.300763726234436,0.21646790206432343,0.48032906651496887
1772790213485071400,10.2300712890625,1.2742998600006104,0.2354445606470108,0.46587926149368286
1772790213495136300,10.24013623046875,1.239680528640747,0.23558863997459412,0.4349229335784912
1772790213505202200,10.2502021484375,1.1907367706298828,0.25096794962882996,0.3946101665496826
1772790213515268400,10.260268310546875,1.1415103673934937,0.2601148188114166,0.34709084033966064
1772790213525333500,10.27033349609375,1.0956940650939941,0.27438440918922424,0.29950010776519775
1772790213535399200,10.280399169921875,1.0464344024658203,0.26189738512039185,0.26534080505371094
1772790213545465300,10.29046533203125,0.9954869747161865,0.23330442607402802,0.24866260588169098
1772790213555530200,10.3005302734375,0.964054524898529,0.1960875391960144,0.24861040711402893
1772790213565596400,10.310596435546875,0.9428704380989075,0.16015690565109253,0.2746291160583496
1772790213575662300,10.320662353515624,0.9168117046356201,0.14622963964939117,0.32101258635520935
1772790213585727200,10.330727294921875,0.8848493695259094,0.19157320261001587,0.3721373379230499
1772790213595793200,10.340793212890626,0.8537055850028992,0.26680830121040344,0.3992230296134949
1772790213605859300,10.350859375,0.831017792224884,0.3304085433483124,0.39740312099456787
1772790213615924500,10.360924560546875,0.7948198318481445,0.34617286920547485,0.3686947524547577
1772790213625990400,10.370990478515624,0.7718916535377502,0.33364981412887573,0.34189099073410034
1772790213636056300,10.381056396484375,0.7473825812339783,0.2954659163951874,0.3265165686607361
1772790213646121200,10.391121337890626,0.721427857875824,0.2642122209072113,0.32733967900276184
1772790213656187400,10.4011875,0.6944388151168823,0.24245421588420868,0.33021748065948486
1772790213666253300,10.41125341796875,0.650433361530304,0.20958171784877777,0.3218845725059509
1772790213676318500,10.421318359375,0.6159989237785339,0.1477402001619339,0.3042981028556824
1772790213686384000,10.431384033203125,0.5867068767547607,0.08997662365436554,0.28894028067588806
1772790213696450300,10.4414501953125,0.5597841739654541,0.04689359664916992,0.28067517280578613
1772790213706515200,10.45151513671875,0.5435801148414612,0.03880508989095688,0.29066333174705505
1772790213716581400,10.461581298828126,0.5266975164413452,0.0275079607963562,0.30182382464408875
1772790213726647300,10.471647216796875,0.5174389481544495,0.017020516097545624,0.31898781657218933
1772790213736712200,10.481712158203125,0.5443810820579529,0.06037544459104538,0.34935876727104187
1772790213746778400,10.4917783203125,0.5717718601226807,0.12807101011276245,0.37930166721343994
1772790213756844300,10.50184423828125,0.5998790860176086,0.25693124532699585,0.40901535749435425
1772790213766909400,10.511909423828126,0.6173828840255737,0.39516398310661316,0.43142980337142944
1772790213776975400,10.521975341796875,0.626849353313446,0.4800693094730377,0.43193820118904114
1772790213787041500,10.53204150390625,0.6419700384140015,0.5027175545692444,0.4254952371120453
1772790213797106200,10.542106201171874,0.6441375613212585,0.4946335256099701,0.4167984127998352
1772790213807172400,10.55217236328125,0.6296225786209106,0.4552108645439148,0.4181268513202667
1772790213817238300,10.56223828125,0.6057816743850708,0.42753902077674866,0.41574785113334656
1772790213827303400,10.572303466796875,0.6010715365409851,0.41061902046203613,0.3902219831943512
1772790213837369000,10.582369140625,0.5947396159172058,0.3846513330936432,0.3377297520637512
1772790213847435300,10.592435302734375,0.5795325040817261,0.3232654929161072,0.26692208647727966
1772790213857500400,10.60250048828125,0.5580623745918274,0.2541481852531433,0.19663676619529724
1772790213867566300,10.61256640625,0.5403999090194702,0.1967049539089203,0.14108221232891083
1772790213877632300,10.62263232421875,0.5258100628852844,0.18400700390338898,0.11879049986600876
1772790213887697200,10.632697265625,0.5088163018226624,0.22545160353183746,0.11479105800390244
1772790213897763300,10.642763427734375,0.4907206594944,0.27406415343284607,0.1231619119644165
1772790213907829200,10.652829345703125,0.47105568647384644,0.3217310309410095,0.1394483745098114
1772790213917894400,10.662894287109374,0.460592120885849,0.3509158194065094,0.1529942750930786
1772790213927960300,10.672960205078125,0.4642144441604614,0.3653712272644043,0.16977061331272125
1772790213938026500,10.683026611328126,0.4958575665950775,0.34600311517715454,0.17258237302303314
1772790213948091400,10.69309130859375,0.547023355960846,0.327687531709671,0.16256745159626007
1772790213958157300,10.7031572265625,0.591334342956543,0.29631200432777405,0.1252102255821228
1772790213968223200,10.71322314453125,0.6360121369361877,0.2522798776626587,0.0693989172577858
1772790213978288400,10.723288330078125,0.6739925742149353,0.19900761544704437,0.00401325011625886
1772790213988354600,10.7333544921875,0.6970698237419128,0.15881218016147614,-0.06356693059206009
1772790213998420500,10.74342041015625,0.7292091250419617,0.10674845427274704,-0.1078353300690651
1772790214008485600,10.753485595703125,0.7657544612884521,0.06128382682800293,-0.1089898943901062
1772790214018551300,10.76355126953125,0.795640766620636,0.04529260843992233,-0.06771435588598251
1772790214028617500,10.773617431640625,0.8319762945175171,0.04425404220819473,-0.0028094742447137833
1772790214038682400,10.783682373046876,0.8797475099563599,0.06217605620622635,0.06820185482501984
1772790214048748500,10.79374853515625,0.9305694699287415,0.08850894868373871,0.12477317452430725
1772790214058814500,10.803814453125,0.969903826713562,0.11498849093914032,0.16015034914016724
1772790214068879400,10.81387939453125,0.9874176979064941,0.12958034873008728,0.15788698196411133
1772790214078945300,10.8239453125,0.9998214244842529,0.09713852405548096,0.12186533212661743
1772790214089011500,10.834011474609374,1.014915108680725,0.06372519582509995,0.068628691136837
1772790214099076600,10.84407666015625,1.0387603044509888,0.06670234352350235,0.029503129422664642
1772790214109142500,10.854142578125,1.054551124572754,0.09218752384185791,0.008357658982276917
1772790214119208400,10.86420849609375,1.0549570322036743,0.11324593424797058,-0.009212546050548553
1772790214129273300,10.8742734375,1.0645815134048462,0.057515524327754974,-0.05467160791158676
1772790214139339500,10.884339599609374,1.0859843492507935,0.007944771088659763,-0.10462398082017899
1772790214149405400,10.894405517578125,1.095599889755249,0.14154742658138275,-0.16236048936843872
1772790214159470600,10.904470703125,1.1165851354599,0.18546028435230255,-0.23150280117988586
1772790214169536300,10.914536376953125,1.1181273460388184,0.16657181084156036,-0.2926630675792694
1772790214179602400,10.9246025390625,1.1007992029190063,0.16625969111919403,-0.33361318707466125
1772790214189667600,10.93466748046875,1.0651090145111084,0.1321466565132141,-0.36445826292037964
1772790214199733500,10.9447333984375,1.0364190340042114,0.1280757486820221,-0.36977419257164
1772790214209798400,10.95479833984375,1.008622646331787,0.10029265284538269,-0.35642290115356445
1772790214219864300,10.9648642578125,0.9937762022018433,0.04702810198068619,-0.33487099409103394
1772790214229930500,10.974930419921876,0.989997923374176,0.0047392332926392555,-0.3053796887397766
1772790214239996400,10.984996337890625,0.9938898682594299,-0.0006408840417861938,-0.27975499629974365
1772790214250061600,10.9950615234375,1.0059709548950195,0.02898252010345459,-0.25906437635421753
1772790214260127500,11.00512744140625,1.020115613937378,0.09707928448915482,-0.2402195930480957
1772790214270192400,11.0151923828125,1.023575782775879,0.18872404098510742,-0.21874378621578217
1772790214280258300,11.02525830078125,1.0168081521987915,0.30906087160110474,-0.19709734618663788
1772790214290324500,11.035324462890625,1.0207939147949219,0.3903707265853882,-0.19295033812522888
1772790214300390400,11.045390380859375,1.0218749046325684,0.42312946915626526,-0.2095484882593155
1772790214310455300,11.055455322265624,1.0215489864349365,0.43444931507110596,-0.23591677844524384
1772790214320521500,11.065521484375,1.002679705619812,0.46807387471199036,-0.24878650903701782
1772790214330586400,11.07558642578125,0.9772133231163025,0.5111809968948364,-0.24025896191596985
1772790214340652500,11.085652587890625,0.9402849078178406,0.5428768992424011,-0.20942381024360657
1772790214350718500,11.095718505859375,0.9212430119514465,0.5616732239723206,-0.17066310346126556
1772790214360783400,11.105783447265624,0.9015063047409058,0.6997016668319702,-0.030075088143348694
1772790214370849300,11.115849365234375,0.8414477705955505,0.7794334292411804,0.27286216616630554
1772790214380915500,11.12591552734375,0.8263117074966431,0.510636031627655,0.4429939389228821
1772790214390980600,11.135980712890625,0.8808417916297913,0.13565705716609955,0.4663621783256531
1772790214401046500,11.146046630859376,0.8947011232376099,-0.09765394777059555,0.4296225309371948
1772790214411112400,11.156112548828125,0.8494240045547485,-0.18175387382507324,0.3199670612812042
1772790214421177300,11.16617724609375,0.8222339153289795,-0.11363475024700165,0.12665483355522156
1772790214431243500,11.176243408203124,0.8186477422714233,0.06775335222482681,-0.10385508835315704
1772790214441309400,11.186309326171875,0.8259925246238708,0.2818395495414734,-0.3277062773704529
1772790214451374600,11.19637451171875,0.8331709504127502,0.48707929253578186,-0.5370756983757019
1772790214461440300,11.206440185546874,0.844916820526123,0.5965775847434998,-0.672754168510437
1772790214471506400,11.21650634765625,0.8388767242431641,0.6349787712097168,-0.6805528402328491
1772790214481571300,11.2265712890625,0.8415196537971497,0.5658990740776062,-0.5733211636543274
