time,seconds_elapsed,z,y,x
1772809155858200600,0.11620068359375,0.2458183318376541,0.051765307784080505,0.014365977607667446
1772809155868224300,0.126224365234375,0.2608848810195923,0.01686587929725647,0.022615008056163788
1772809155878248400,0.13624853515625,0.25865688920021057,-0.02055153250694275,0.032409049570560455
1772809155888272600,0.146272705078125,0.23660176992416382,-0.04529716819524765,0.03520629182457924
1772809155898296600,0.156296630859375,0.20809316635131836,-0.05575859919190407,0.03449229896068573
1772809155908320500,0.166320556640625,0.17230041325092316,-0.04368709400296211,0.03504769504070282
1772809155918344400,0.176344482421875,0.140704944729805,-0.01605067402124405,0.03410866856575012
1772809155928368600,0.18636865234375,0.11551441997289658,0.019412579014897346,0.016153860837221146
1772809155938392300,0.196392333984375,0.09888431429862976,0.03997538238763809,-0.006913641933351755
1772809155948416500,0.20641650390625,0.08512003719806671,0.04560115933418274,-0.027942240238189697
1772809155958440400,0.2164404296875,0.07546261698007584,0.035957854241132736,-0.042430900037288666
1772809155968464400,0.22646435546875,0.06481659412384033,0.022125359624624252,-0.045343443751335144
1772809155978487300,0.2364873046875,0.05141184478998184,0.021847059950232506,-0.03599362075328827
1772809155988511000,0.246510986328125,0.04582909494638443,0.03450959175825119,-0.01772185042500496
1772809155998535200,0.25653515625,0.033778026700019836,0.03582625836133957,0.007786973379552364
1772809156008559000,0.26655908203125,0.01784391701221466,0.02295001409947872,0.030055975541472435
1772809156018583000,0.2765830078125,0.0006481511518359184,0.009310366585850716,0.04964219778776169
1772809156028607200,0.286607177734375,-0.006653825752437115,-0.0011295946314930916,0.0646422877907753
1772809156038631200,0.296631103515625,-0.003370947204530239,-0.00021959259174764156,0.08090408146381378
1772809156048655000,0.306655029296875,0.0043328069150447845,0.006794408429414034,0.09189265966415405
1772809156058679000,0.316678955078125,0.019553571939468384,0.005349377635866404,0.09525196999311447
1772809156068703200,0.326703125,0.03383465111255646,0.008429333567619324,0.10434330254793167
1772809156078727200,0.33672705078125,0.04636082798242569,0.005848996341228485,0.11532112210988998
1772809156088751000,0.346751220703125,0.10881161689758301,-0.036328673362731934,0.11544238775968552
1772809156098775000,0.356775146484375,0.1732502579689026,-0.034348078072071075,0.10398893058300018
1772809156108799200,0.36679931640625,0.17141786217689514,-0.029115958139300346,0.08131732046604156
1772809156118823200,0.3768232421875,0.16806946694850922,-0.05298534035682678,0.07556435465812683
1772809156128847000,0.38684716796875,0.17041045427322388,-0.04855084419250488,0.06794527918100357
1772809156138871300,0.396871337890625,0.14539112150669098,-0.02404044009745121,0.05392906069755554
1772809156148895000,0.40689501953125,0.09580952674150467,-0.030024437233805656,0.041790276765823364
1772809156158919200,0.416919189453125,0.0553385391831398,-0.05554444342851639,0.024044301360845566
1772809156168943000,0.426943115234375,0.024570336565375328,-0.08697860687971115,0.0003653746098279953
1772809156178967300,0.43696728515625,-0.0025843193288892508,-0.10963544994592667,-0.02698129415512085
1772809156188991000,0.446990966796875,-0.024525661021471024,-0.11653139442205429,-0.04693163186311722
1772809156199015200,0.45701513671875,-0.03520307317376137,-0.0984882116317749,-0.05186939239501953
1772809156209039000,0.4670390625,-0.03804247826337814,-0.04843856021761894,-0.04324372485280037
1772809156219063000,0.47706298828125,-0.030904673039913177,-0.003518757177516818,-0.0389094278216362
1772809156229087200,0.487087158203125,-0.012060342356562614,0.012218816205859184,-0.031541869044303894
1772809156239111200,0.497111083984375,0.01919211819767952,0.01418263092637062,-0.024762526154518127
1772809156249135400,0.50713525390625,0.049596961587667465,-0.003428284078836441,-0.014796243980526924
1772809156259159000,0.517158935546875,0.07009503990411758,-0.025662217289209366,0.0015478422865271568
1772809156269183200,0.527183349609375,0.06947705894708633,-0.030457695946097374,0.03210242837667465
1772809156279207200,0.537207275390625,0.05602303519845009,-0.02171187475323677,0.07112466543912888
1772809156289231000,0.547231201171875,0.031208928674459457,-0.0023307609371840954,0.11234237998723984
1772809156299255000,0.557255126953125,0.002236399333924055,0.009563449770212173,0.13925282657146454
1772809156309279200,0.567279296875,-0.022676004096865654,0.007957222871482372,0.15180975198745728
1772809156319303000,0.577302978515625,-0.038869887590408325,0.008794253692030907,0.14879053831100464
1772809156329327000,0.5873271484375,-0.049075789749622345,0.0035513625480234623,0.1365872621536255
1772809156339351300,0.597351318359375,-0.05231286212801933,0.01682109571993351,0.12711919844150543
1772809156349375200,0.607375244140625,-0.04726094380021095,0.036115240305662155,0.11779143661260605
1772809156359399200,0.617399169921875,-0.029960252344608307,0.051816973835229874,0.11926550418138504
1772809156369423000,0.627423095703125,-0.014115671627223492,0.07400301098823547,0.12876422703266144
1772809156379447300,0.637447265625,0.010587810538709164,0.113498754799366,0.15082398056983948
1772809156389471000,0.647470947265625,0.03394952788949013,0.17000406980514526,0.18093560636043549
1772809156399495200,0.6574951171875,0.05525721237063408,0.21114909648895264,0.2198403924703598
1772809156409519000,0.66751904296875,0.07434754818677902,0.2031356543302536,0.24205328524112701
1772809156419543000,0.67754296875,0.1064828485250473,0.1456127017736435,0.2533370852470398
1772809156429567000,0.68756689453125,0.1514808088541031,0.07344168424606323,0.2512719929218292
1772809156439591200,0.697591064453125,0.20252880454063416,0.010247267782688141,0.2360123246908188
1772809156449615400,0.707615478515625,0.24398724734783173,-0.04581272602081299,0.21261811256408691
1772809156459639000,0.71763916015625,0.26779988408088684,-0.10422490537166595,0.19912973046302795
1772809156469663200,0.727663330078125,0.27772992849349976,-0.15765275061130524,0.18919771909713745
1772809156479687200,0.737687255859375,0.27558445930480957,-0.19452953338623047,0.1864301711320877
1772809156489711000,0.747711181640625,0.25212550163269043,-0.1862906664609909,0.17037048935890198
1772809156499735000,0.757735107421875,0.20977990329265594,-0.1544954478740692,0.13357625901699066
1772809156509759200,0.76775927734375,0.1512337327003479,-0.07997928559780121,0.053366005420684814
1772809156519783200,0.777783203125,0.09335765242576599,0.0027882931753993034,-0.06079092249274254
1772809156529807000,0.78780712890625,0.05353407934308052,0.09214507043361664,-0.18904370069503784
1772809156539831000,0.7978310546875,0.0414239875972271,0.18698544800281525,-0.3134354054927826
1772809156549855200,0.807855224609375,0.04541006311774254,0.2647404372692108,-0.40218454599380493
1772809156559879200,0.817879150390625,0.04782182350754738,0.3466547429561615,-0.46165162324905396
1772809156569903000,0.827903076171875,0.04624028503894806,0.4151556193828583,-0.490751713514328
1772809156579927300,0.83792724609375,0.04024737328290939,0.45572248101234436,-0.5004168748855591
1772809156589952300,0.8479521484375,0.03383583575487137,0.42111557722091675,-0.4844050109386444
1772809156599975200,0.85797509765625,0.04099201411008835,0.3515082597732544,-0.444649875164032
1772809156609999000,0.8679990234375,0.060669418424367905,0.2766301929950714,-0.3894220292568207
1772809156620023300,0.878023193359375,0.07790406793355942,0.2030598372220993,-0.33368340134620667
1772809156630048000,0.888048095703125,0.06686961650848389,0.10250772535800934,-0.29932188987731934
1772809156640072200,0.898072265625,0.029007725417613983,0.0035382723435759544,-0.2860623002052307
1772809156650096000,0.90809619140625,-0.023339305073022842,-0.08079814165830612,-0.29369816184043884
1772809156660120300,0.918120361328125,-0.08142897486686707,-0.13734877109527588,-0.3108374774456024
1772809156670144000,0.92814404296875,-0.14036421477794647,-0.11370274424552917,-0.3129396438598633
1772809156680168200,0.938168212890625,-0.19306524097919464,-0.05923683941364288,-0.3163181245326996
1772809156690192100,0.948192138671875,-0.21961891651153564,0.021877914667129517,-0.32026711106300354
1772809156700216000,0.958216064453125,-0.21797095239162445,0.12163220345973969,-0.3277740180492401
1772809156710240000,0.968239990234375,-0.1886521279811859,0.19619397819042206,-0.34522804617881775
1772809156720264200,0.97826416015625,-0.1457746922969818,0.23665618896484375,-0.3634786903858185
1772809156730288000,0.9882880859375,-0.08924105018377304,0.2413850724697113,-0.3761788606643677
1772809156740312000,0.99831201171875,-0.04121839255094528,0.21081838011741638,-0.37553277611732483
1772809156750336300,1.008336181640625,-0.006087167654186487,0.12732672691345215,-0.36840495467185974
1772809156760360200,1.018360107421875,-0.00426876125857234,-0.032444559037685394,-0.3706822097301483
1772809156770384100,1.028384033203125,-0.04115184769034386,-0.2636845111846924,-0.35304009914398193
1772809156780408000,1.038407958984375,-0.08385802805423737,-0.480362206697464,-0.2861180305480957
1772809156790432300,1.048432373046875,-0.1317114382982254,-0.6583977937698364,-0.19155916571617126
1772809156800456000,1.0584560546875,-0.15863706171512604,-0.7787918448448181,-0.10335100442171097
1772809156810480000,1.068480224609375,-0.14928437769412994,-0.838934063911438,-0.03937089070677757
1772809156820504000,1.078504150390625,-0.1032809391617775,-0.8182199597358704,-0.00599003117531538
1772809156830528300,1.0885283203125,-0.023021314293146133,-0.6962131261825562,0.008566603064537048
1772809156840552200,1.09855224609375,0.05217090621590614,-0.48983681201934814,0.017036786302924156
1772809156850576100,1.108576171875,0.10412842035293579,-0.2504660189151764,0.015429127030074596
1772809156860600300,1.118600341796875,0.11886102706193924,-0.01634674333035946,0.01986541971564293
1772809156870624000,1.1286240234375,0.10291814059019089,0.17031775414943695,0.013521909713745117
1772809156880648200,1.138648193359375,0.06146763265132904,0.2718137502670288,-0.005685074254870415
1772809156890672000,1.148672119140625,0.011811098083853722,0.26362159848213196,-0.02705356851220131
1772809156900696000,1.158696044921875,-0.029500655829906464,0.193326935172081,-0.01015501283109188
1772809156910720000,1.168719970703125,-0.05560682341456413,0.12470392882823944,0.05619444698095322
1772809156920744200,1.178744140625,-0.06297393143177032,0.06085490435361862,0.1625691056251526
1772809156930768100,1.18876806640625,-0.06278499960899353,-0.006505751051008701,0.27728477120399475
1772809156940792000,1.1987919921875,-0.05827493593096733,-0.07724729925394058,0.3705313503742218
1772809156950816300,1.208816162109375,-0.03626800328493118,-0.08182652294635773,0.45738527178764343
1772809156960840200,1.218840087890625,-0.005942055024206638,0.021597333252429962,0.5561866164207458
1772809156970864000,1.228864013671875,0.02364489622414112,0.19059863686561584,0.6720483899116516
1772809156980892200,1.23889208984375,0.04062068462371826,0.37258628010749817,0.7904623746871948
1772809156990916400,1.248916259765625,0.05035530403256416,0.49379032850265503,0.894254207611084
1772809157000940000,1.25893994140625,0.04806391894817352,0.5361164808273315,0.9599109888076782
1772809157010964200,1.268964111328125,0.01406314130872488,0.4431956112384796,0.9895806312561035
1772809157020988200,1.27898828125,-0.028907228261232376,0.31681451201438904,1.0208266973495483
1772809157031012000,1.28901220703125,-0.05920711159706116,0.18527044355869293,1.03844153881073
1772809157041036000,1.2990361328125,-0.058950114995241165,0.05168123543262482,1.031631350517273
1772809157051060200,1.309060302734375,-0.027426907792687416,-0.03241107985377312,1.0179311037063599
1772809157061084200,1.319084228515625,0.022998981177806854,-0.09711311012506485,0.9742074012756348
1772809157071108000,1.329108154296875,0.0771307572722435,-0.13930177688598633,0.8996013402938843
1772809157081132300,1.33913232421875,0.12214617431163788,-0.18523676693439484,0.7947303652763367
1772809157091156200,1.34915625,0.12469284236431122,-0.26247701048851013,0.6956745982170105
1772809157101180200,1.35918017578125,0.08491454273462296,-0.2232145518064499,0.6464431881904602
1772809157111204000,1.3692041015625,0.015391564927995205,-0.11573705077171326,0.6029874682426453
1772809157121228300,1.379228271484375,-0.04164322465658188,0.03126810863614082,0.5385594964027405
1772809157131252000,1.389251953125,-0.07636348903179169,0.2021014541387558,0.44928470253944397
1772809157141276200,1.399276123046875,-0.09240689873695374,0.34970954060554504,0.33147019147872925
1772809157151300000,1.409300048828125,-0.0800485759973526,0.514868438243866,0.2379499226808548
1772809157161324000,1.419323974609375,-0.05314052850008011,0.6171234250068665,0.16800597310066223
1772809157171348000,1.429347900390625,-0.006090863142162561,0.6632004380226135,0.1279095709323883
1772809157181372200,1.4393720703125,0.044445283710956573,0.6315066814422607,0.08131436258554459
1772809157191396400,1.449396240234375,0.07611306756734848,0.5041804313659668,0.02891997992992401
1772809157201420000,1.459419921875,0.07832109183073044,0.3880932629108429,0.005345413461327553
1772809157211444200,1.4694443359375,0.05115225911140442,0.2324371635913849,-0.02042221650481224
1772809157221468200,1.47946826171875,0.048068054020404816,0.04857546091079712,-0.04449479281902313
1772809157231492000,1.4894921875,0.08515353500843048,-0.07271330803632736,-0.07179966568946838
1772809157241516000,1.49951611328125,0.12880860269069672,-0.1542086899280548,-0.138154998421669
1772809157251540200,1.509540283203125,0.16761234402656555,-0.18186070024967194,-0.22701819241046906
1772809157261564200,1.519564208984375,0.19004441797733307,-0.18085668981075287,-0.31629136204719543
1772809157271588000,1.529588134765625,0.19420959055423737,-0.2090238481760025,-0.4024701416492462
1772809157281612000,1.539612060546875,0.1842365860939026,-0.30361559987068176,-0.5033360719680786
1772809157291636200,1.54963623046875,0.15510939061641693,-0.4385605454444885,-0.6144546270370483
1772809157301661200,1.5596611328125,0.12814301252365112,-0.5504237413406372,-0.7394626140594482
1772809157311685000,1.56968505859375,0.09070399403572083,-0.5992780923843384,-0.8702870607376099
1772809157321709000,1.579708984375,0.041313543915748596,-0.563066303730011,-1.0085210800170898
1772809157331733200,1.589733154296875,-0.019448474049568176,-0.46619853377342224,-1.159409523010254
1772809157341757200,1.599757080078125,-0.0788087323307991,-0.3416669964790344,-1.3177586793899536
1772809157351781000,1.609781005859375,-0.10707589238882065,-0.2195664644241333,-1.4598442316055298
1772809157361805300,1.619805419921875,-0.08306163549423218,-0.11179952323436737,-1.5504910945892334
1772809157371829000,1.6298291015625,-0.013817478902637959,0.009845947846770287,-1.5527055263519287
1772809157381853200,1.639853271484375,0.0741235613822937,0.11390257626771927,-1.4515749216079712
1772809157391877000,1.649877197265625,0.16378602385520935,0.2232346534729004,-1.2437671422958374
1772809157401901300,1.6599013671875,0.2498444765806198,0.34693557024002075,-0.9515129327774048
1772809157411925000,1.669925048828125,0.30853232741355896,0.4778852164745331,-0.6218563914299011
1772809157421949200,1.67994921875,0.3309289813041687,0.5788483023643494,-0.30929097533226013
1772809157431973000,1.68997314453125,0.3140679895877838,0.6473371982574463,-0.07289604842662811
1772809157441997000,1.6999970703125,0.25989264249801636,0.6865061521530151,0.06582348048686981
1772809157452021200,1.710021240234375,0.18803764879703522,0.6557133793830872,0.10701362043619156
1772809157462045200,1.720045166015625,0.11268750578165054,0.5690357685089111,0.07550283521413803
1772809157472069000,1.730069091796875,0.05669300630688667,0.46283742785453796,0.003540162928402424
1772809157482093000,1.740093017578125,0.0032399031333625317,0.36105912923812866,-0.06530415266752243
1772809157492117200,1.7501171875,-0.04257745295763016,0.2826966345310211,-0.09578636288642883
1772809157502141200,1.76014111328125,-0.08495047688484192,0.21599431335926056,-0.09525639563798904
1772809157512165000,1.7701650390625,-0.12284047156572342,0.1580236554145813,-0.053471773862838745
1772809157522189000,1.78018896484375,-0.14571276307106018,0.1030203327536583,0.029187951236963272
1772809157532213200,1.790213134765625,-0.15746702253818512,0.057763826102018356,0.14266936480998993
1772809157542237000,1.80023681640625,-0.1709575355052948,0.030987337231636047,0.26841479539871216
1772809157552261000,1.81026123046875,-0.18856751918792725,0.016345886513590813,0.38477542996406555
1772809157562285300,1.820285400390625,-0.2044476866722107,-0.004352201707661152,0.48138266801834106
1772809157572309200,1.830309326171875,-0.20978295803070068,-0.07973107695579529,0.5398494601249695
1772809157582333200,1.840333251953125,-0.21100987493991852,-0.2391500324010849,0.5573222041130066
1772809157592358100,1.850358154296875,-0.20156577229499817,-0.3833213150501251,0.5812190175056458
1772809157602382000,1.860382080078125,-0.17559649050235748,-0.42552921175956726,0.6322785019874573
1772809157612406300,1.87040625,-0.14813946187496185,-0.40981894731521606,0.6811528205871582
1772809157622430200,1.88043017578125,-0.09041199088096619,-0.3222358226776123,0.703054666519165
1772809157632454100,1.8904541015625,0.01761677861213684,-0.21581393480300903,0.6684714555740356
1772809157642478300,1.900478271484375,0.1720753312110901,-0.11721464991569519,0.5612640380859375
1772809157652502000,1.910501953125,0.33386021852493286,-0.125361368060112,0.3800784647464752
1772809157662526200,1.920526123046875,0.4808957278728485,-0.2796228528022766,0.21704241633415222
1772809157672550100,1.930550048828125,0.6174903512001038,-0.48047885298728943,0.20644526183605194
1772809157682574000,1.940573974609375,0.6962037682533264,-0.6436893343925476,0.3484117388725281
1772809157692598000,1.950597900390625,0.5865417122840881,-0.8322877883911133,0.521121621131897
1772809157702622200,1.960622314453125,0.24902866780757904,-0.9678989052772522,0.5951074361801147
1772809157712646100,1.970646240234375,-0.1346873790025711,-0.8745360970497131,0.49932876229286194
1772809157722670000,1.980670166015625,-0.4385721683502197,-0.5507580637931824,0.24494650959968567
1772809157732694300,1.9906943359375,-0.5976153612136841,-0.15832355618476868,-0.0752493366599083
1772809157742718200,2.00071826171875,-0.5962321162223816,0.1500270962715149,-0.3360348641872406
1772809157752742100,2.0107421875,-0.4633479714393616,0.28238627314567566,-0.46344149112701416
1772809157762766000,2.02076611328125,-0.26451316475868225,0.2220531553030014,-0.46825891733169556
1772809157772790300,2.030790283203125,-0.11670447885990143,0.09121055901050568,-0.38449352979660034
1772809157782814000,2.04081396484375,-0.09397892653942108,0.010579096153378487,-0.2761151194572449
1772809157792839200,2.050839111328125,-0.21297897398471832,0.03989461064338684,-0.17115269601345062
1772809157802863000,2.060863037109375,-0.38423624634742737,0.14740324020385742,-0.04063542187213898
1772809157812887300,2.07088720703125,-0.49045035243034363,0.3527126908302307,0.15321479737758636
1772809157822911000,2.080910888671875,-0.5124192833900452,0.5843469500541687,0.3445296287536621
1772809157832935200,2.09093505859375,-0.4498891830444336,0.6969427466392517,0.4633147418498993
1772809157842959000,2.100958984375,-0.29960036277770996,0.71634441614151,0.5005491375923157
1772809157852983300,2.1109833984375,-0.11785399913787842,0.6207894086837769,0.4479195475578308
1772809157863007000,2.121007080078125,0.02631462924182415,0.41424235701560974,0.3385874629020691
1772809157873031200,2.13103125,0.1407376229763031,0.1722693145275116,0.21510466933250427
1772809157883055000,2.14105517578125,0.21173882484436035,-0.04874589294195175,0.10039858520030975
1772809157893079000,2.1510791015625,0.2347339391708374,-0.2802548110485077,0.022678647190332413
1772809157903103200,2.161103271484375,0.24676263332366943,-0.4836462736129761,0.012499514035880566
1772809157913127200,2.171127197265625,0.2659720182418823,-0.6268579363822937,0.0398842915892601
1772809157923151400,2.1811513671875,0.2955712080001831,-0.7307936549186707,0.07249070703983307
1772809157933175000,2.191175048828125,0.3138989806175232,-0.7936054468154907,0.08763258904218674
1772809157943199200,2.20119921875,0.3127301037311554,-0.7744802236557007,0.09384840726852417
1772809157953224200,2.21122412109375,0.30215469002723694,-0.6608768701553345,0.09265369921922684
1772809157963248000,2.221248046875,0.28642234206199646,-0.5199152231216431,0.06789135932922363
1772809157973272000,2.23127197265625,0.2874719500541687,-0.3472818434238434,0.06374341249465942
1772809157983292700,2.241292724609375,0.2989443242549896,-0.17673565447330475,0.0711938738822937
1772809157993316600,2.251316650390625,0.3156854510307312,-0.11184852570295334,0.06521259248256683
1772809158003340500,2.261340576171875,0.33186522126197815,-0.09454144537448883,0.07243135571479797
1772809158013364500,2.271364501953125,0.32380956411361694,-0.1264115273952484,0.07258525490760803
1772809158023388700,2.281388671875,0.29322317242622375,-0.2402544766664505,0.032122254371643066
1772809158033412600,2.29141259765625,0.26419031620025635,-0.3920466899871826,-0.033421244472265244
1772809158043436500,2.3014365234375,0.257487952709198,-0.4615810215473175,-0.0965203195810318
1772809158053460500,2.31146044921875,0.27768275141716003,-0.4506629407405853,-0.15351760387420654
1772809158063484700,2.321484619140625,0.3233213424682617,-0.43395665287971497,-0.1916751116514206
1772809158073508600,2.331508544921875,0.3994920253753662,-0.4319169223308563,-0.19982385635375977
1772809158083533600,2.341533447265625,0.5031150579452515,-0.4179593026638031,-0.14847330749034882
1772809158093557500,2.3515576171875,0.6040981411933899,-0.35929492115974426,-0.04670993983745575
1772809158103581700,2.361581787109375,0.6887166500091553,-0.2582745850086212,0.07739762961864471
1772809158113605400,2.37160546875,0.6944310665130615,-0.09586900472640991,0.18275539577007294
1772809158123629600,2.381629638671875,0.7551146745681763,0.029866818338632584,0.2826141119003296
1772809158133653800,2.39165380859375,0.7883812785148621,0.16958875954151154,0.3342306911945343
1772809158143677700,2.401677734375,0.7585906386375427,0.31966161727905273,0.34859177470207214
1772809158153701600,2.41170166015625,0.7128443121910095,0.486033171415329,0.34751075506210327
1772809158163725600,2.4217255859375,0.6638213396072388,0.6306188702583313,0.3392975330352783
1772809158173749800,2.431749755859375,0.6132606267929077,0.7423744797706604,0.34191665053367615
1772809158183773400,2.4417734375,0.5524859428405762,0.8207449316978455,0.3380212187767029
1772809158193797600,2.451797607421875,0.5025660991668701,0.8242527842521667,0.3268352150917053
1772809158203822600,2.461822509765625,0.4656137228012085,0.7534944415092468,0.3183908760547638
1772809158213846800,2.4718466796875,0.44960224628448486,0.6350938677787781,0.3308170437812805
1772809158223870500,2.481870361328125,0.4353921413421631,0.49597546458244324,0.3619808256626129
1772809158233894700,2.491894775390625,0.41035303473472595,0.39966556429862976,0.403471440076828
1772809158243918600,2.501918701171875,0.3637080490589142,0.3265868127346039,0.45656076073646545
1772809158253942500,2.511942626953125,0.2898552417755127,0.24404500424861908,0.5089555382728577
1772809158263966500,2.521966552734375,0.1756090670824051,0.16313977539539337,0.5466190576553345
1772809158273990700,2.53199072265625,0.02101225219666958,0.07874831557273865,0.560849130153656
1772809158284014600,2.5420146484375,-0.15214301645755768,-0.06023513898253441,0.5762960314750671
1772809158294038500,2.55203857421875,-0.30552828311920166,-0.2048112452030182,0.6287497878074646
1772809158304062700,2.562062744140625,-0.4093571901321411,-0.24546200037002563,0.7265953421592712
1772809158314087700,2.572087646484375,-0.47699570655822754,-0.13286547362804413,0.7995477914810181
1772809158324111600,2.582111572265625,-0.5297081470489502,0.1594790369272232,0.7548772096633911
1772809158334135600,2.592135498046875,-0.603236198425293,0.5537077784538269,0.47961848974227905
1772809158344159500,2.602159423828125,-0.6976140737533569,0.8735390305519104,-0.02061370760202408
1772809158354183700,2.61218359375,-0.7487650513648987,0.9687767624855042,-0.588080108165741
1772809158364207600,2.62220751953125,-0.6748165488243103,0.8786090612411499,-0.9255050420761108
1772809158374231600,2.6322314453125,-0.41952240467071533,0.9465126991271973,-0.8504787683486938
1772809158384255700,2.642255859375,-0.20527322590351105,0.9532318711280823,-0.6171589493751526
1772809158394279700,2.65227978515625,-0.35323238372802734,0.2883152663707733,-0.6123958826065063
1772809158404304400,2.662304443359375,-0.7592771053314209,-0.7302607297897339,-0.8416492938995361
1772809158414328600,2.67232861328125,-0.9953764081001282,-1.27457594871521,-0.9766006469726562
1772809158424352800,2.682352783203125,-0.8633638024330139,-1.0161298513412476,-0.7743865847587585
1772809158434376700,2.692376708984375,-0.5397302508354187,-0.25996077060699463,-0.31713026762008667
1772809158444400600,2.702400634765625,-0.2527328431606293,0.606187641620636,0.0913565456867218
1772809158454424600,2.712424560546875,-0.1279754936695099,1.124389410018921,0.21456678211688995
1772809158464448800,2.72244873046875,-0.13892002403736115,1.1771320104599,0.03762581944465637
1772809158474472400,2.732472412109375,-0.25993940234184265,0.9240062832832336,-0.3282473087310791
1772809158484496600,2.74249658203125,-0.4292812943458557,0.6013249158859253,-0.7166198492050171
1772809158494520600,2.7525205078125,-0.5950930118560791,0.38566911220550537,-0.9398127794265747
1772809158504545800,2.7625458984375,-0.7061393857002258,0.4031706154346466,-0.9287260174751282
1772809158514569500,2.772569580078125,-0.6866374611854553,0.6944547891616821,-0.7113628387451172
1772809158524593700,2.78259375,-0.5159056782722473,1.085998296737671,-0.3682939112186432
1772809158534617600,2.79261767578125,-0.262265682220459,1.3585692644119263,0.003112304024398327
1772809158544641500,2.8026416015625,0.026806090027093887,1.3922615051269531,0.3152124285697937
1772809158554665500,2.81266552734375,0.3134872019290924,1.1172939538955688,0.5014173984527588
1772809158564689700,2.822689697265625,0.5718785524368286,0.5504319667816162,0.5299869775772095
1772809158574713600,2.832713623046875,0.7789629697799683,-0.18069805204868317,0.47100314497947693
1772809158584738600,2.842738525390625,0.9412304759025574,-0.8766984343528748,0.4263211786746979
1772809158594762500,2.852762451171875,1.0823057889938354,-1.3765791654586792,0.46498286724090576
1772809158604786700,2.86278662109375,1.2181453704833984,-1.714749813079834,0.6215037107467651
1772809158614810600,2.872810546875,1.3059853315353394,-1.8584980964660645,0.8709295988082886
1772809158624834600,2.88283447265625,1.2612130641937256,-1.721860408782959,1.0991613864898682
1772809158634858500,2.8928583984375,1.0704244375228882,-1.3812757730484009,1.138812780380249
1772809158644882700,2.902882568359375,0.783356249332428,-1.012603521347046,0.9182045459747314
1772809158654906600,2.91290673828125,0.48373502492904663,-0.6927480697631836,0.49485328793525696
1772809158664930600,2.9229306640625,0.2672266662120819,-0.47132784128189087,0.02109263651072979
1772809158674955500,2.93295556640625,0.14796365797519684,-0.375283420085907,-0.36590278148651123
1772809158684979700,2.942979736328125,0.12485647201538086,-0.3188587427139282,-0.5376348495483398
1772809158695003400,2.95300341796875,0.1677848994731903,-0.2988899350166321,-0.5158002376556396
1772809158705027600,2.963027587890625,0.24505360424518585,-0.31301000714302063,-0.39708107709884644
1772809158715051800,2.9730517578125,0.33744126558303833,-0.40385013818740845,-0.2963332235813141
1772809158725075500,2.983075439453125,0.40490418672561646,-0.6514860391616821,-0.27060604095458984
1772809158735099600,2.993099609375,0.4216294586658478,-1.0035611391067505,-0.2661857008934021
1772809158745124600,3.00312451171875,0.3870115578174591,-1.3426913022994995,-0.2399330735206604
1772809158755148500,3.0131484375,0.3154904544353485,-1.6123061180114746,-0.20815327763557434
1772809158765172700,3.0231728515625,0.24113497138023376,-1.7332676649093628,-0.1786973774433136
1772809158775196700,3.03319677734375,0.15781617164611816,-1.6471163034439087,-0.16386684775352478
1772809158785220600,3.043220703125,0.05014590919017792,-1.341414451599121,-0.18334947526454926
1772809158795244800,3.053244873046875,-0.072214774787426,-0.8748038411140442,-0.2188517451286316
1772809158805268500,3.0632685546875,-0.17181752622127533,-0.3863324522972107,-0.25343024730682373
1772809158815292700,3.073292724609375,-0.2076481133699417,0.03128506615757942,-0.2596238851547241
1772809158825317600,3.083317626953125,-0.21293261647224426,0.3322283923625946,-0.214167982339859
1772809158835341600,3.093341552734375,-0.12272073328495026,0.4153467118740082,-0.09051958471536636
1772809158845365500,3.103365478515625,0.018278732895851135,0.31620708107948303,0.08946802467107773
1772809158855389700,3.1133896484375,0.13396571576595306,0.19168616831302643,0.29278212785720825
1772809158865413600,3.12341357421875,0.1768186390399933,0.16474910080432892,0.48200690746307373
1772809158875437600,3.1334375,0.15258754789829254,0.1735292226076126,0.5972774624824524
1772809158885461500,3.14346142578125,0.07729225605726242,0.1384362131357193,0.6014665961265564
1772809158895486700,3.15348681640625,-0.03975865989923477,0.05140068754553795,0.5114098787307739
1772809158905510700,3.1635107421875,-0.17575591802597046,-0.052178435027599335,0.3723420202732086
1772809158915534600,3.17353466796875,-0.3171890079975128,-0.10333693772554398,0.21920107305049896
1772809158925558500,3.18355859375,-0.4441560208797455,-0.0899907723069191,0.10725483298301697
1772809158935582700,3.193582763671875,-0.5348171591758728,0.0039727226831018925,0.0623558908700943
1772809158945606700,3.203606689453125,-0.5966482758522034,0.16115036606788635,0.07539073377847672
1772809158955630600,3.213630615234375,-0.633705198764801,0.32453587651252747,0.11189627647399902
1772809158965655600,3.223655517578125,-0.6533137559890747,0.47209206223487854,0.14186377823352814
1772809158975679700,3.2336796875,-0.6427194476127625,0.5770517587661743,0.14969967305660248
1772809158985707500,3.24370751953125,-0.5952094197273254,0.5756359696388245,0.14478054642677307
1772809158995731700,3.253731689453125,-0.53419429063797,0.49670588970184326,0.12283101677894592
1772809159005755600,3.263755615234375,-0.494633287191391,0.34729933738708496,0.07517347484827042
1772809159015779600,3.273779541015625,-0.4482816755771637,0.12301801890134811,0.011529117822647095
1772809159025804500,3.283804443359375,-0.38532164692878723,-0.09007827192544937,-0.032276686280965805
1772809159035828500,3.293828369140625,-0.2907411754131317,-0.18385227024555206,-0.048273637890815735
1772809159045852700,3.303852783203125,-0.2230343222618103,-0.08640053868293762,-0.16486789286136627
1772809159055876600,3.313876708984375,-0.3091694712638855,-0.33462953567504883,-0.6407634615898132
1772809159065900500,3.323900634765625,-0.44517603516578674,-0.8126757144927979,-1.3660290241241455
1772809159075924700,3.3339248046875,-0.39780882000923157,-0.8215203285217285,-1.763289451599121
1772809159085948700,3.34394873046875,-0.22056853771209717,0.0030659823678433895,-1.5010731220245361
1772809159095973400,3.353973388671875,-0.015239071100950241,1.2516707181930542,-0.7827247977256775
1772809159105997600,3.36399755859375,0.1682969331741333,2.044168472290039,-0.027557257562875748
1772809159116021800,3.374021728515625,0.2002478837966919,2.0113017559051514,0.4319337010383606
1772809159126045700,3.384045654296875,0.12616565823554993,1.4691624641418457,0.5914126038551331
1772809159136069600,3.394069580078125,0.06361839920282364,0.8022465109825134,0.5697401165962219
1772809159146093600,3.404093505859375,0.06791940331459045,0.28410327434539795,0.4932519793510437
1772809159156118500,3.414118408203125,0.07799835503101349,0.10803468525409698,0.48274651169776917
1772809159166142700,3.424142822265625,0.04550699144601822,0.279307097196579,0.559613049030304
1772809159176166700,3.434166748046875,-0.04589444398880005,0.6910337805747986,0.6305785775184631
1772809159186190600,3.444190673828125,-0.15590617060661316,1.085288405418396,0.5771039128303528
1772809159196214800,3.45421484375,-0.24350981414318085,1.247458577156067,0.37815913558006287
1772809159206238500,3.464238525390625,-0.25649192929267883,1.1290839910507202,0.1231156513094902
1772809159216263400,3.474263427734375,-0.16602875292301178,0.8014155626296997,-0.021665196865797043
1772809159226287600,3.48428759765625,0.00040522217750549316,0.4203118681907654,0.055335842072963715
1772809159236311600,3.4943115234375,0.19708961248397827,0.04881181940436363,0.32127565145492554
1772809159246335500,3.50433544921875,0.38145890831947327,-0.27358007431030273,0.6543545722961426
1772809159256359700,3.514359619140625,0.525596022605896,-0.4908445477485657,0.9378218650817871
1772809159266383600,3.524383544921875,0.6241846084594727,-0.5841792821884155,1.088413953781128
1772809159276408600,3.53440869140625,0.6700608134269714,-0.5740122199058533,1.0955888032913208
1772809159286432500,3.5444326171875,0.683010458946228,-0.5407096147537231,0.9518276453018188
1772809159296456400,3.55445654296875,0.6860849857330322,-0.5539336800575256,0.7045431137084961
1772809159306480600,3.564480712890625,0.6916055083274841,-0.5727564096450806,0.4443874657154083
1772809159316504800,3.5745048828125,0.6844918131828308,-0.6139333844184875,0.20790331065654755
1772809159326528500,3.584528564453125,0.647424042224884,-0.6854277849197388,0.016779419034719467
1772809159336553500,3.594553466796875,0.5641223788261414,-0.7640185356140137,-0.14950403571128845
1772809159346577700,3.60457763671875,0.4448210597038269,-0.8345768451690674,-0.2964423596858978
1772809159356601600,3.6146015625,0.3352210819721222,-0.8757048845291138,-0.4012945294380188
1772809159366625500,3.62462548828125,0.2581486701965332,-0.9427534341812134,-0.44244223833084106
1772809159376649700,3.634649658203125,0.2519613206386566,-1.0337997674942017,-0.3926903307437897
1772809159386674700,3.6446748046875,0.29356417059898376,-1.0931365489959717,-0.2824631631374359
1772809159396698600,3.65469873046875,0.3418775498867035,-1.0602084398269653,-0.15206220746040344
1772809159406722600,3.66472265625,0.38463884592056274,-0.9111196398735046,-0.0392104834318161
1772809159416746500,3.67474658203125,0.4199399948120117,-0.7214879989624023,0.023151356726884842
1772809159426770700,3.684770751953125,0.4395619034767151,-0.522034227848053,0.021289806813001633
1772809159436794600,3.694794677734375,0.432606965303421,-0.3386322855949402,-0.049542296677827835
1772809159446819600,3.704819580078125,0.38628634810447693,-0.2148277759552002,-0.18524101376533508
1772809159456843500,3.714843505859375,0.31450384855270386,-0.1325131207704544,-0.3496447801589966
1772809159466867700,3.72486767578125,0.23157009482383728,-0.0369434580206871,-0.5087185502052307
1772809159476891400,3.734891357421875,0.1522154062986374,0.06936387717723846,-0.6309027075767517
1772809159486915600,3.74491552734375,0.08545155823230743,0.16856689751148224,-0.6958268284797668
1772809159496940500,3.7549404296875,0.023761294782161713,0.2425692230463028,-0.6925095915794373
1772809159506964700,3.76496484375,-0.015647631138563156,0.28262796998023987,-0.6420722603797913
1772809159516988400,3.774988525390625,-0.039533041417598724,0.25158020853996277,-0.5673219561576843
1772809159527012600,3.7850126953125,-0.10303664952516556,0.19429349899291992,-0.4628264605998993
1772809159537036500,3.79503662109375,-0.17284290492534637,0.1655966341495514,-0.31449460983276367
1772809159547060500,3.805060546875,-0.2298862189054489,0.1603667140007019,-0.13996699452400208
1772809159557085400,3.81508544921875,-0.2938832640647888,0.19493018090724945,0.013603121042251587
1772809159567109600,3.825109619140625,-0.36159199476242065,0.27153387665748596,0.12202973663806915
1772809159577133600,3.835133544921875,-0.44055765867233276,0.3753085136413574,0.1559872329235077
1772809159587157500,3.845157470703125,-0.5109359622001648,0.46680009365081787,0.12894362211227417
1772809159597181400,3.855181396484375,-0.5552009344100952,0.5392219424247742,0.05409380793571472
1772809159607206700,3.86520654296875,-0.5766410231590271,0.5268417000770569,-0.03824996575713158
1772809159617230600,3.875230712890625,-0.5861291289329529,0.3863382935523987,-0.0987037792801857
1772809159627254500,3.885254638671875,-0.5809415578842163,0.22181324660778046,-0.10255071520805359
1772809159637278500,3.895278564453125,-0.5536391139030457,0.11558511108160019,-0.05655773729085922
1772809159647302700,3.905302734375,-0.5315309166908264,0.05228070542216301,-0.013232104480266571
1772809159657327600,3.91532763671875,-0.5300667881965637,0.079441599547863,0.03241463750600815
1772809159667351600,3.9253515625,-0.5625174045562744,0.2366059273481369,0.04426916688680649
1772809159677375500,3.93537548828125,-0.652239203453064,0.49601152539253235,-0.045617230236530304
1772809159687399700,3.945399658203125,-0.7658198475837708,0.7516896724700928,-0.2980971336364746
1772809159697423600,3.955423583984375,-0.8812810182571411,0.9241116046905518,-0.6702098846435547
1772809159707448600,3.965448486328125,-0.968181848526001,0.8986366391181946,-1.0814182758331299
1772809159717472500,3.975472412109375,-1.0557019710540771,0.6072530150413513,-1.4668430089950562
1772809159727496700,3.98549658203125,-1.1404749155044556,0.22735443711280823,-1.7153213024139404
1772809159737520600,3.995520751953125,-1.1734718084335327,-0.13929973542690277,-1.714754343032837
1772809159747544600,4.005544677734375,-1.0390048027038574,-0.3175031542778015,-1.4327213764190674
1772809159757569500,4.015569580078125,-0.727867603302002,-0.22610323131084442,-0.9526810646057129
1772809159767593700,4.02559375,-0.3202987313270569,0.051759008318185806,-0.3829273283481598
1772809159777617700,4.03561767578125,0.03392593562602997,0.381977915763855,0.1538253277540207
1772809159787641600,4.0456416015625,0.14694756269454956,0.8238919377326965,0.5359218716621399
1772809159797665500,4.05566552734375,0.009424146264791489,1.1500718593597412,0.5808002948760986
1772809159807689700,4.065689697265625,-0.2679901421070099,1.0563688278198242,0.2074650675058365
1772809159817714700,4.075714599609375,-0.5343289971351624,0.6365787982940674,-0.3655050992965698
1772809159827738600,4.085738525390625,-0.6808790564537048,0.24126453697681427,-0.772704541683197
1772809159837762600,4.095762451171875,-0.6996672749519348,0.08299357444047928,-0.8325978517532349
1772809159847786800,4.105786865234375,-0.5408464670181274,0.04537482187151909,-0.5657802820205688
1772809159857811700,4.115811767578125,-0.18300482630729675,0.08190317451953888,-0.013759598135948181
1772809159867835600,4.125835693359375,0.2369900494813919,0.17379368841648102,0.7164197564125061
1772809159877859600,4.135859619140625,0.5532370209693909,0.21426239609718323,1.3641843795776367
1772809159887883800,4.1458837890625,0.7140453457832336,0.03629986196756363,1.698919653892517
1772809159897907500,4.155907470703125,0.7241978049278259,-0.34309983253479004,1.6665865182876587
1772809159907932400,4.165932373046875,0.59881991147995,-0.86874920129776,1.3562164306640625
1772809159917956600,4.17595654296875,0.45799118280410767,-1.3404510021209717,0.9448713660240173
1772809159927980500,4.18598046875,0.39427292346954346,-1.609556794166565,0.6268094778060913
1772809159938004500,4.19600439453125,0.39561837911605835,-1.6322095394134521,0.49657943844795227
1772809159948028700,4.206028564453125,0.4521905779838562,-1.4169459342956543,0.5258355736732483
1772809159958053600,4.2160537109375,0.48706403374671936,-1.0616694688796997,0.669588565826416
1772809159968077600,4.22607763671875,0.4317328631877899,-0.6541107892990112,0.8437276482582092
1772809159978101500,4.2361015625,0.335920512676239,-0.2713904082775116,0.9227403402328491
1772809159988121900,4.246121826171875,0.2725710868835449,0.0038621947169303894,0.8442292809486389
1772809159998145800,4.256145751953125,0.27158889174461365,0.17702323198318481,0.6482481360435486
1772809160008170800,4.266170654296875,0.3128407299518585,0.26133066415786743,0.42093533277511597
1772809160018194700,4.276194580078125,0.36529049277305603,0.31823715567588806,0.2394779920578003
1772809160028218600,4.286218505859375,0.3865033686161041,0.33042803406715393,0.10041438043117523
1772809160038242800,4.296242919921875,0.376327782869339,0.25261926651000977,-0.031006205826997757
1772809160048266800,4.306266845703125,0.3367484211921692,0.08606517314910889,-0.17456576228141785
1772809160058291700,4.316291748046875,0.2923089563846588,-0.18017341196537018,-0.3283084034919739
1772809160068315600,4.326315673828125,0.2542822062969208,-0.512803316116333,-0.4767037332057953
1772809160078339800,4.33633984375,0.2203884720802307,-0.8130738139152527,-0.5791276097297668
1772809160088363500,4.346363525390625,0.19963020086288452,-0.93813556432724,-0.5736023783683777
1772809160098387700,4.3563876953125,0.2251710295677185,-0.8516724705696106,-0.44665101170539856
1772809160108412700,4.36641259765625,0.276653915643692,-0.6837273836135864,-0.2388749122619629
1772809160118436900,4.376436767578125,0.29751062393188477,-0.4979664385318756,-0.0009239912033081055
1772809160128460500,4.38646044921875,0.26727283000946045,-0.29806265234947205,0.22297275066375732
1772809160138484700,4.396484619140625,0.1888161152601242,-0.09644895046949387,0.37452414631843567
1772809160148509700,4.406509765625,0.10683230310678482,0.0469212606549263,0.4301314949989319
1772809160158534000,4.416533935546875,0.025499355047941208,0.1053214892745018,0.3695946931838989
1772809160168557600,4.4265576171875,-0.04759136587381363,0.09377136081457138,0.23041844367980957
1772809160178581800,4.436581787109375,-0.11765432357788086,0.01784726232290268,0.05802571028470993
1772809160188605700,4.446605712890625,-0.18673858046531677,-0.11936518549919128,-0.10083717107772827
1772809160198631000,4.456630859375,-0.24514155089855194,-0.2877296507358551,-0.20148606598377228
1772809160208654600,4.466654541015625,-0.31072908639907837,-0.42100220918655396,-0.216751828789711
1772809160218678800,4.4766787109375,-0.39082878828048706,-0.46595537662506104,-0.14776024222373962
1772809160228702700,4.48670263671875,-0.4732655882835388,-0.4610069692134857,-0.0019433945417404175
1772809160238726700,4.4967265625,-0.5549691915512085,-0.35280153155326843,0.1961674839258194
1772809160248751600,4.506751708984375,-0.6197394132614136,-0.1591162234544754,0.38896968960762024
1772809160258775800,4.51677587890625,-0.6686995625495911,0.05162482708692551,0.5121147632598877
1772809160268799700,4.5267998046875,-0.711298406124115,0.2736770808696747,0.5583531260490417
1772809160278823700,4.53682373046875,-0.75406414270401,0.49411505460739136,0.5154889822006226
1772809160288847600,4.54684765625,-0.7776104807853699,0.7139843702316284,0.3876705467700958
1772809160298872800,4.556872802734375,-0.781825602054596,0.9314187169075012,0.21031194925308228
1772809160308896800,4.566896728515625,-0.7613219022750854,1.1129478216171265,0.006798509508371353
1772809160318920700,4.576920654296875,-0.6970163583755493,1.1604193449020386,-0.15710623562335968
1772809160328944600,4.586944580078125,-0.5829883217811584,1.0827080011367798,-0.23865781724452972
1772809160338969600,4.596969482421875,-0.4164044260978699,0.9024448990821838,-0.2702607810497284
1772809160348993800,4.606993896484375,-0.20838412642478943,0.7309565544128418,-0.313662588596344
1772809160359017700,4.617017822265625,-0.0161993857473135,0.5772843360900879,-0.39690637588500977
1772809160369041700,4.627041748046875,0.10692334175109863,0.40253114700317383,-0.5641368627548218
1772809160379065900,4.63706591796875,0.08538784086704254,0.19964762032032013,-0.8173283934593201
1772809160389090800,4.6470908203125,-0.07789908349514008,0.021567106246948242,-1.109419822692871
1772809160399114500,4.657114501953125,-0.27916190028190613,-0.05843634530901909,-1.3139201402664185
1772809160409138700,4.667138671875,-0.43473631143569946,-0.09347182512283325,-1.3342338800430298
1772809160419162600,4.67716259765625,-0.4966626465320587,-0.10123834013938904,-1.1501842737197876
1772809160429187800,4.687187744140625,-0.4201875925064087,-0.05719764903187752,-0.8095377087593079
1772809160439211800,4.697211669921875,-0.2349570393562317,0.10244672000408173,-0.4285033643245697
1772809160449235700,4.707235595703125,-0.015103500336408615,0.347627729177475,-0.14000952243804932
1772809160459259600,4.717259765625,0.17192842066287994,0.6298264265060425,0.04504819214344025
1772809160469283800,4.727283935546875,0.23843659460544586,0.9072524905204773,0.1325114518404007
1772809160479308800,4.737308837890625,0.1700623482465744,1.0433186292648315,0.11515902727842331
1772809160489332700,4.747332763671875,0.02664712816476822,0.9157002568244934,0.018823973834514618
1772809160499356700,4.757356689453125,-0.1231294646859169,0.625926673412323,-0.09178010374307632
1772809160509380900,4.767380859375,-0.2283155471086502,0.3283812701702118,-0.1558363288640976
1772809160519404500,4.777404541015625,-0.280211478471756,0.0699765607714653,-0.18908976018428802
1772809160529429800,4.7874296875,-0.24252429604530334,-0.13658618927001953,-0.21840982139110565
1772809160539453700,4.79745361328125,-0.08857780694961548,-0.30180805921554565,-0.2581915259361267
1772809160549478000,4.807477783203125,0.13246242702007294,-0.40906980633735657,-0.23764336109161377
1772809160559501600,4.81750146484375,0.3813200294971466,-0.43221360445022583,-0.07936764508485794
1772809160569526800,4.82752685546875,0.6022921204566956,-0.4284234046936035,0.19805863499641418
1772809160579550700,4.83755078125,0.7510687708854675,-0.4013996422290802,0.5121373534202576
1772809160589575000,4.847574951171875,0.799976646900177,-0.2852778434753418,0.7471506595611572
1772809160599598600,4.8575986328125,0.7547162175178528,-0.1604095995426178,0.7725310921669006
1772809160609622800,4.867622802734375,0.6448011994361877,-0.04744337871670723,0.6122729778289795
1772809160619647700,4.877647705078125,0.5119646787643433,0.052875977009534836,0.34665656089782715
1772809160629672000,4.887671875,0.3842058777809143,0.1278144121170044,0.06964118778705597
1772809160639695600,4.897695556640625,0.26895642280578613,0.16173119843006134,-0.145663782954216
1772809160649719800,4.9077197265625,0.17669972777366638,0.14528164267539978,-0.26567861437797546
1772809160659743700,4.91774365234375,0.1622440665960312,0.07066469639539719,-0.27792230248451233
1772809160669768700,4.927768798828125,0.2645035684108734,-0.09566009789705276,-0.2029828131198883
1772809160679792600,4.937792724609375,0.434319406747818,-0.3507642149925232,-0.05386361479759216
1772809160689816800,4.94781689453125,0.5850809216499329,-0.6374553442001343,0.12903456389904022
1772809160699840800,4.9578408203125,0.6564945578575134,-0.9024420380592346,0.29491567611694336
1772809160709865700,4.96786572265625,0.6266988515853882,-1.0900542736053467,0.39400577545166016
1772809160719889700,4.9778896484375,0.5376704335212708,-1.2366609573364258,0.41176384687423706
1772809160729913600,4.98791357421875,0.4217722713947296,-1.3431235551834106,0.38352689146995544
1772809160739937800,4.997937744140625,0.31705066561698914,-1.3924533128738403,0.34678682684898376
1772809160749961700,5.007961669921875,0.22602516412734985,-1.3972960710525513,0.3184411823749542
1772809160759986700,5.017986572265625,0.16524212062358856,-1.3159611225128174,0.30029618740081787
1772809160770010600,5.0280107421875,0.13640062510967255,-1.2082245349884033,0.2821051776409149
1772809160780034800,5.038034912109375,0.1359039545059204,-1.0851737260818481,0.260647714138031
1772809160790058500,5.04805859375,0.1733248233795166,-0.9580290913581848,0.25273120403289795
1772809160800082700,5.058082763671875,0.24500826001167297,-0.8520294427871704,0.26535138487815857
1772809160810107600,5.068107666015625,0.3273489475250244,-0.7519901990890503,0.2939148545265198
1772809160820131800,5.0781318359375,0.4010617434978485,-0.6691617965698242,0.34091830253601074
1772809160830155500,5.088155517578125,0.442342072725296,-0.6312772631645203,0.3806697130203247
1772809160840179700,5.0981796875,0.4168608784675598,-0.6101188659667969,0.41271325945854187
1772809160850204700,5.10820458984375,0.34289637207984924,-0.4827907085418701,0.4273073673248291
1772809160860228900,5.118228759765625,0.256538063287735,-0.26515474915504456,0.40427547693252563
1772809160870252500,5.12825244140625,0.13750725984573364,0.00192355178296566,0.3257809579372406
1772809160880276700,5.13827685546875,0.00042702630162239075,0.2739802896976471,0.20176362991333008
1772809160890300700,5.14830078125,-0.13107214868068695,0.5085725784301758,0.05621867626905441
1772809160900326000,5.158325927734375,-0.23856687545776367,0.6890945434570312,-0.08660666644573212
1772809160910349600,5.168349609375,-0.3061155676841736,0.8235120177268982,-0.20947718620300293
1772809160920373800,5.178373779296875,-0.34428107738494873,0.8923635482788086,-0.3067152500152588
1772809160930397700,5.188397705078125,-0.36211973428726196,0.8846704959869385,-0.3779017925262451
1772809160940422700,5.198422607421875,-0.3687512278556824,0.791339635848999,-0.42839282751083374
1772809160950446800,5.20844677734375,-0.3774195611476898,0.5918406248092651,-0.4706060588359833
1772809160960470800,5.218470703125,-0.38209325075149536,0.2939544916152954,-0.49976322054862976
1772809160970494700,5.22849462890625,-0.3688775897026062,-0.05690418928861618,-0.5056322813034058
1772809160980519000,5.238518798828125,-0.3419719338417053,-0.42026668787002563,-0.48050403594970703
1772809160990544000,5.2485439453125,-0.29682791233062744,-0.7323191165924072,-0.4129393696784973
1772809161000567600,5.258567626953125,-0.24382011592388153,-0.9917261004447937,-0.28379637002944946
1772809161010591700,5.268591796875,-0.16850298643112183,-1.0935051441192627,-0.13469505310058594
1772809161020616000,5.278615966796875,-0.12569664418697357,-1.0358374118804932,-0.057266827672719955
1772809161030639600,5.2886396484375,-0.14147160947322845,-0.754615843296051,-0.12947338819503784
1772809161040664600,5.29866455078125,-0.22641615569591522,-0.2875525653362274,-0.3770376741886139
1772809161050688800,5.308688720703125,-0.38365745544433594,0.05830658972263336,-0.8784893155097961
1772809161060712700,5.318712646484375,-0.5988776683807373,-0.03778288885951042,-1.6036370992660522
1772809161070736600,5.328736572265625,-0.7031446695327759,-0.07957081496715546,-2.15347957611084
1772809161080761600,5.33876171875,-0.641211748123169,0.22213566303253174,-2.1963346004486084
1772809161090785800,5.348785888671875,-0.5020466446876526,0.7265527248382568,-1.7004995346069336
1772809161100809700,5.358809814453125,-0.30730345845222473,1.3482747077941895,-0.9162868857383728
1772809161110833700,5.368833740234375,-0.00889867264777422,1.903304934501648,-0.10063942521810532
1772809161120857600,5.378857666015625,0.26467081904411316,1.9785560369491577,0.4723871648311615
1772809161130882800,5.3888828125,0.3668166399002075,1.6924515962600708,0.7247379422187805
1772809161140906800,5.39890673828125,0.3180294930934906,1.1873459815979004,0.7047131657600403
1772809161150930700,5.4089306640625,0.23156651854515076,0.5784890055656433,0.49404534697532654
1772809161160954600,5.41895458984375,0.16795125603675842,-0.05196142941713333,0.2220570594072342
1772809161170979800,5.428979736328125,0.1345464289188385,-0.5059419870376587,0.042821258306503296
1772809161181003800,5.439003662109375,0.12677522003650665,-0.623242199420929,0.026088129729032516
1772809161191027700,5.44902783203125,0.10012497752904892,-0.5195517539978027,0.06274653971195221
1772809161201051600,5.4590517578125,0.07097294926643372,-0.27068257331848145,0.11334846168756485
1772809161211075800,5.469075927734375,0.09183428436517715,0.14471809566020966,0.20842811465263367
1772809161221100800,5.479100830078125,0.1364792287349701,0.5684928297996521,0.30058494210243225
1772809161231124700,5.489124755859375,0.17594940960407257,0.8588333129882812,0.3470829427242279
1772809161241148700,5.499148681640625,0.2006169557571411,0.9127260446548462,0.3203040361404419
1772809161251172900,5.5091728515625,0.22438620030879974,0.7795126438140869,0.2610796093940735
1772809161261196500,5.519196533203125,0.23630207777023315,0.5389626026153564,0.16908365488052368
1772809161271221800,5.5292216796875,0.25421208143234253,0.23097071051597595,0.07396912574768066
1772809161281245700,5.53924560546875,0.29734551906585693,-0.03126783296465874,0.014826199971139431
1772809161291270000,5.549269775390625,0.37536734342575073,-0.09821224212646484,0.023589063435792923
1772809161301293600,5.55929345703125,0.4573359191417694,-0.013076095841825008,0.09774458408355713
1772809161311318500,5.569318603515625,0.5176120400428772,0.18773528933525085,0.20568649470806122
1772809161321342700,5.5793427734375,0.5317289233207703,0.3993380069732666,0.2708372175693512
1772809161331366700,5.58936669921875,0.511410653591156,0.49886834621429443,0.256879597902298
1772809161341390600,5.599390625,0.47667035460472107,0.47369053959846497,0.16998597979545593
1772809161351414800,5.609414794921875,0.4289265275001526,0.3206578493118286,0.016336511820554733
1772809161361439700,5.619439697265625,0.36384162306785583,0.039370790123939514,-0.16509929299354553
1772809161371463700,5.629463623046875,0.2810812294483185,-0.3455158770084381,-0.34370046854019165
1772809161381487600,5.639487548828125,0.18957258760929108,-0.752006471157074,-0.46622559428215027
1772809161391511600,5.649511474609375,0.113997682929039,-1.0697849988937378,-0.4835875332355499
1772809161401535700,5.65953564453125,0.09026885032653809,-1.2320159673690796,-0.37977007031440735
1772809161411560700,5.669560791015625,0.11651323735713959,-1.263490080833435,-0.19487345218658447
1772809161421585000,5.6795849609375,0.17044873535633087,-1.17877197265625,0.01899784803390503
1772809161431608600,5.689608642578125,0.23186175525188446,-0.997384786605835,0.2208167165517807
1772809161441632800,5.6996328125,0.280778706073761,-0.7442067265510559,0.35316357016563416
1772809161451657700,5.70965771484375,0.3321324586868286,-0.473355770111084,0.39573022723197937
1772809161461682000,5.719681884765625,0.3855646550655365,-0.26513606309890747,0.3669893443584442
1772809161471705600,5.72970556640625,0.4389421045780182,-0.1958126574754715,0.3162926137447357
1772809161481729800,5.739729736328125,0.4786331355571747,-0.25635430216789246,0.3085469901561737
1772809161491753700,5.749753662109375,0.5129618644714355,-0.38236284255981445,0.41425079107284546
1772809161501779000,5.759779052734375,0.5883022546768188,-0.5134015083312988,0.6397327184677124
1772809161511802600,5.769802734375,0.683229923248291,-0.7016971111297607,0.895224928855896
1772809161521826800,5.779826904296875,0.7355524301528931,-0.8448237180709839,1.0798364877700806
1772809161531850800,5.789850830078125,0.7517340779304504,-0.7068498730659485,1.154845118522644
1772809161541875700,5.799875732421875,0.7311593890190125,-0.36585843563079834,1.126400351524353
1772809161551899600,5.809899658203125,0.6940407752990723,0.017041519284248352,1.0144366025924683
1772809161561923800,5.819923828125,0.6264143586158752,0.3762284517288208,0.8836868405342102
1772809161571947800,5.82994775390625,0.5676701068878174,0.8307863473892212,0.7564079761505127
1772809161581971700,5.8399716796875,0.5016061067581177,1.1350558996200562,0.6016658544540405
1772809161591996700,5.84999658203125,0.4182606041431427,1.198144555091858,0.4667072594165802
1772809161602020900,5.860020751953125,0.3628697693347931,1.155911922454834,0.3866371810436249
1772809161612044800,5.870044921875,0.3091495633125305,1.0409746170043945,0.3477292060852051
1772809161622068700,5.88006884765625,0.27380314469337463,0.8751745820045471,0.34923696517944336
1772809161632093700,5.89009375,0.25886842608451843,0.703033983707428,0.38913190364837646
1772809161642117600,5.90011767578125,0.24504894018173218,0.5062251687049866,0.4343858063220978
1772809161652141800,5.910141845703125,0.24777203798294067,0.38244521617889404,0.4935370087623596
1772809161662165800,5.920165771484375,0.26083511114120483,0.1600947082042694,0.5496828556060791
1772809161672189700,5.930189697265625,0.216125950217247,-0.01820472814142704,0.6181111335754395
1772809161682214700,5.940214599609375,0.17497630417346954,-0.03305909037590027,0.690579891204834
1772809161692238800,5.95023876953125,0.14494331181049347,0.028992829844355583,0.6612315773963928
1772809161702262500,5.960262451171875,0.11735239624977112,0.13849253952503204,0.45572328567504883
1772809161712286700,5.97028662109375,0.0890887975692749,0.2746192216873169,0.11506529897451401
1772809161722311700,5.980311767578125,0.08859793841838837,0.43232476711273193,-0.2585667073726654
1772809161732335900,5.9903359375,0.1228850781917572,0.5416382551193237,-0.5756807327270508
1772809161742359600,6.000359619140625,0.17132142186164856,0.6010620594024658,-0.7339246273040771
1772809161752383700,6.0103837890625,0.1856774538755417,0.6355311274528503,-0.72445148229599
1772809161762407700,6.02040771484375,0.07194066792726517,0.5922942161560059,-0.6792548298835754
1772809161772433000,6.030432861328125,-0.21797078847885132,0.41790348291397095,-0.6962559223175049
1772809161782456600,6.04045654296875,-0.598687469959259,0.25207623839378357,-0.810248613357544
1772809161792480800,6.050480712890625,-0.8789753317832947,0.1586352288722992,-0.9959156513214111
1772809161802504700,6.060504638671875,-0.9293458461761475,0.24886740744113922,-1.1162060499191284
1772809161812530000,6.070530029296875,-0.7492780685424805,0.48902568221092224,-1.0425459146499634
1772809161822553600,6.0805537109375,-0.43297863006591797,0.6546396613121033,-0.7872493267059326
1772809161832577800,6.090577880859375,-0.135994091629982,0.6279175281524658,-0.43253251910209656
1772809161842601700,6.100601806640625,0.04488668590784073,0.3961087167263031,-0.09057777374982834
1772809161852625700,6.110625732421875,0.08035040646791458,0.011967161670327187,0.12351320683956146
1772809161862650600,6.120650634765625,-0.012360984459519386,-0.36364108324050903,0.19005127251148224
1772809161872674800,6.1306748046875,-0.18155720829963684,-0.5949264764785767,0.11706867069005966
1772809161882698800,6.14069873046875,-0.41130897402763367,-0.6518281698226929,-0.08687294274568558
1772809161892723000,6.150722900390625,-0.6509868502616882,-0.5064616799354553,-0.33754801750183105
1772809161902747600,6.16074755859375,-0.8301557302474976,-0.19793164730072021,-0.5470438599586487
1772809161912771600,6.170771484375,-0.8791757225990295,0.15076135098934174,-0.6501728892326355
1772809161922795800,6.180795654296875,-0.7721256613731384,0.4165308177471161,-0.5987821817398071
1772809161932820000,6.190820068359375,-0.556140661239624,0.5336329340934753,-0.4035903215408325
1772809161942843600,6.20084375,-0.30002105236053467,0.5265837907791138,-0.11476947367191315
1772809161952868600,6.21086865234375,-0.07606012374162674,0.44580960273742676,0.16723798215389252
1772809161962892800,6.220892822265625,0.06337958574295044,0.34546762704849243,0.34312939643859863
1772809161972916700,6.230916748046875,0.1195288747549057,0.2191765308380127,0.37033331394195557
1772809161982944800,6.24094482421875,0.13956642150878906,0.10029781609773636,0.2798875570297241
1772809161992968700,6.25096875,0.16440518200397491,-0.020986001938581467,0.14149053394794464
1772809162002994000,6.260993896484375,0.1831660270690918,-0.15445677936077118,0.038049615919589996
1772809162013017600,6.271017578125,0.19608847796916962,-0.2774253189563751,-0.003978528082370758
1772809162023041800,6.281041748046875,0.2151179164648056,-0.3953375518321991,-0.004379842896014452
1772809162033065700,6.291065673828125,0.2290494441986084,-0.5525943040847778,-0.008071251213550568
1772809162043091000,6.301091064453125,0.2416214644908905,-0.695416271686554,-0.027022581547498703
1772809162053114600,6.311114501953125,0.24018974602222443,-0.7698715925216675,-0.0641648918390274
1772809162063138800,6.321138916015625,0.22695963084697723,-0.7911249995231628,-0.0932004377245903
1772809162073162800,6.331162841796875,0.19862280786037445,-0.714892566204071,-0.0871441438794136
1772809162083186700,6.341186767578125,0.17950654029846191,-0.5457000732421875,-0.059875983744859695
1772809162093211600,6.351211669921875,0.17358820140361786,-0.32848042249679565,-0.04336971417069435
1772809162103235800,6.36123583984375,0.18742252886295319,-0.12399867922067642,-0.05897095799446106
1772809162113259800,6.371259765625,0.20099186897277832,0.030145619064569473,-0.10473870486021042
1772809162123283700,6.38128369140625,0.20199552178382874,0.09112775325775146,-0.16284959018230438
1772809162133308700,6.39130859375,0.19211332499980927,0.07065124064683914,-0.20663516223430634
1772809162143332600,6.40133251953125,0.16616703569889069,0.011879276484251022,-0.2086183875799179
1772809162153356800,6.411356689453125,0.13956525921821594,-0.032040245831012726,-0.15258201956748962
1772809162163380700,6.421380615234375,0.11321482807397842,-0.06655600666999817,-0.06069047749042511
1772809162173404700,6.43140478515625,0.09402329474687576,-0.06297005712985992,0.05873338133096695
1772809162183429600,6.4414296875,0.07821013033390045,-0.0010941056534647942,0.18450629711151123
1772809162193453800,6.451453857421875,0.04779762774705887,0.122876837849617,0.3072167634963989
1772809162203477500,6.4614775390625,0.013580845668911934,0.3069743812084198,0.4156215488910675
1772809162213501700,6.471501708984375,-0.016971206292510033,0.5274803638458252,0.5030043721199036
1772809162223526700,6.481526611328125,-0.03871471807360649,0.7341729998588562,0.5534340143203735
1772809162233550800,6.49155078125,-0.05669531598687172,0.9063050746917725,0.5596991181373596
1772809162243574500,6.501574462890625,-0.07943052053451538,1.0222628116607666,0.5343267917633057
1772809162253598700,6.5115986328125,-0.09775705635547638,1.083357572555542,0.48397096991539
1772809162263623700,6.521623779296875,-0.1125573217868805,1.0718598365783691,0.42465880513191223
1772809162273647900,6.53164794921875,-0.11861628293991089,0.9922745227813721,0.3579825758934021
1772809162283671600,6.541671630859375,-0.12225864827632904,0.861401379108429,0.2888249456882477
1772809162293695700,6.55169580078125,-0.12925957143306732,0.6634560823440552,0.2096794992685318
1772809162303719700,6.5617197265625,-0.14493514597415924,0.4206613302230835,0.14066369831562042
1772809162313745000,6.571744873046875,-0.1534588634967804,0.1480335295200348,0.09121785312891006
1772809162323768600,6.5817685546875,-0.15596988797187805,-0.1650151014328003,0.05795960873365402
1772809162333792800,6.591792724609375,-0.14173956215381622,-0.4722570478916168,0.06098336726427078
1772809162343816700,6.601816650390625,-0.12529632449150085,-0.7229288816452026,0.11041876673698425
1772809162353841700,6.611841552734375,-0.13373242318630219,-0.8815140128135681,0.2010623663663864
1772809162363865600,6.621865478515625,-0.1498783975839615,-0.9368634819984436,0.31201061606407166
1772809162373889800,6.631889892578125,-0.15789584815502167,-0.9179989695549011,0.40954703092575073
1772809162383913700,6.641913818359375,-0.1289670318365097,-0.8297705054283142,0.44630229473114014
1772809162393938000,6.65193798828125,-0.08526934683322906,-0.6937937140464783,0.3715849220752716
1772809162403962600,6.661962646484375,-0.040858104825019836,-0.5785161852836609,0.16816525161266327
1772809162413986600,6.671986572265625,-0.008971276693046093,-0.480814129114151,-0.1503293812274933
1772809162424010800,6.6820107421875,0.003511347807943821,-0.3717189133167267,-0.5478094816207886
1772809162434035000,6.692034912109375,0.01953558810055256,-0.3387705385684967,-0.9848811030387878
1772809162444059600,6.7020595703125,0.05532248318195343,-0.4611962139606476,-1.397810697555542
1772809162454083600,6.71208349609375,0.09363631159067154,-0.6792219877243042,-1.6437203884124756
1772809162464107800,6.722107666015625,0.09856859594583511,-0.8751345276832581,-1.6433485746383667
1772809162474131700,6.732131591796875,-0.003204901935532689,-1.0487226247787476,-1.439449429512024
1772809162484155600,6.74215576171875,-0.21867872774600983,-0.9502825140953064,-1.1161901950836182
1772809162494180600,6.7521806640625,-0.44263431429862976,-0.6651032567024231,-0.850124180316925
1772809162504204800,6.762204833984375,-0.5140454173088074,-0.247662752866745,-0.6981793642044067
1772809162514228700,6.772228759765625,-0.4168301820755005,0.4454787075519562,-0.5583016276359558
1772809162524252700,6.782252685546875,-0.2975214719772339,1.2654231786727905,-0.39956003427505493
1772809162534277600,6.792277587890625,-0.2373737245798111,1.9350478649139404,-0.26837167143821716
1772809162544301800,6.8023017578125,-0.22863595187664032,2.305117607116699,-0.2008058726787567
1772809162554325800,6.81232568359375,-0.2833615243434906,2.206200361251831,-0.22363023459911346
1772809162564349700,6.822349609375,-0.37856218218803406,1.7023810148239136,-0.2734084725379944
1772809162574373600,6.83237353515625,-0.48067736625671387,0.9367020130157471,-0.29432547092437744
1772809162584398800,6.84239892578125,-0.5468403697013855,0.05696694925427437,-0.2636248767375946
1772809162594422800,6.8524228515625,-0.5388551354408264,-0.7284567952156067,-0.1689569652080536
1772809162604446700,6.86244677734375,-0.460783451795578,-1.1714181900024414,0.00704975426197052
1772809162614470700,6.872470703125,-0.3380844295024872,-1.2970634698867798,0.20190978050231934
1772809162624495900,6.882495849609375,-0.16709309816360474,-1.204392671585083,0.37565669417381287
1772809162634519800,6.892519775390625,-0.0033662172500044107,-0.9812234044075012,0.5082693099975586
1772809162644543700,6.902543701171875,0.09291262924671173,-0.729082465171814,0.572198748588562
1772809162654567700,6.912567626953125,0.11495614051818848,-0.45224153995513916,0.5819169282913208
1772809162664592000,6.922591796875,0.09784792363643646,-0.12922994792461395,0.5542524456977844
1772809162674616800,6.932616943359375,0.0547526478767395,0.19171878695487976,0.4766729474067688
1772809162684640800,6.942640869140625,0.01520848274230957,0.4399398863315582,0.3618434965610504
1772809162694664700,6.952664794921875,0.006532703526318073,0.6005649566650391,0.232989102602005
1772809162704689000,6.96268896484375,0.022279564291238785,0.6103399991989136,0.08804136514663696
1772809162714713900,6.9727138671875,0.06569600850343704,0.48828762769699097,-0.03593064099550247
1772809162724737500,6.982737548828125,0.12054454535245895,0.28995317220687866,-0.09905947744846344
1772809162734761700,6.99276171875,0.15541917085647583,0.06268326193094254,-0.10760849714279175
1772809162744785700,7.00278564453125,0.1672828495502472,-0.11833848804235458,-0.07106901705265045
1772809162754809600,7.0128095703125,0.18205726146697998,-0.20359373092651367,-0.010106063447892666
1772809162764834600,7.02283447265625,0.1994376927614212,-0.24014967679977417,0.02260185405611992
1772809162774858800,7.032858642578125,0.2116570770740509,-0.2563723027706146,0.004094217903912067
1772809162784882700,7.042882568359375,0.2078205645084381,-0.27716904878616333,-0.08720923215150833
1772809162794906600,7.05290673828125,0.18099507689476013,-0.4214756190776825,-0.24771927297115326
1772809162804931600,7.062931640625,0.1651412546634674,-0.6775019764900208,-0.41887202858924866
1772809162814955800,7.072955810546875,0.17307960987091064,-0.9020557403564453,-0.5155415534973145
1772809162824979700,7.082979736328125,0.1941741555929184,-0.9935928583145142,-0.49759262800216675
1772809162835003600,7.093003662109375,0.22081267833709717,-0.9492813348770142,-0.40097635984420776
1772809162845028600,7.103028564453125,0.2591494023799896,-0.7792403101921082,-0.247645303606987
1772809162855052800,7.113052734375,0.31660762429237366,-0.5689533948898315,-0.08281293511390686
1772809162865076700,7.12307666015625,0.3918039798736572,-0.31327566504478455,0.08098617196083069
1772809162875100700,7.1331005859375,0.4747486710548401,-0.08478468656539917,0.22672206163406372
1772809162885124600,7.14312451171875,0.5571607351303101,0.06454648077487946,0.3454170227050781
1772809162895149800,7.15314990234375,0.635249674320221,0.12896089255809784,0.4423627257347107
1772809162905173800,7.163173828125,0.6819066405296326,0.10146357119083405,0.5048866868019104
1772809162915197700,7.17319775390625,0.667536735534668,0.06302510201931,0.5391109585762024
1772809162925221600,7.1832216796875,0.6107465028762817,0.10641013085842133,0.5522515177726746
1772809162935246600,7.19324658203125,0.534816324710846,0.23553909361362457,0.5354394912719727
1772809162945270800,7.203270751953125,0.4606226086616516,0.3924190402030945,0.492445707321167
1772809162955294700,7.213294677734375,0.3934294581413269,0.5481740236282349,0.41807878017425537
1772809162965318700,7.223318603515625,0.32173284888267517,0.6820994019508362,0.32675737142562866
1772809162975342800,7.2333427734375,0.2456687092781067,0.7722311615943909,0.23677155375480652
1772809162985363500,7.243363525390625,0.16741077601909637,0.8039680123329163,0.155620276927948
1772809162995387600,7.2533876953125,0.09065927565097809,0.7903984189033508,0.09468954801559448
1772809163005411600,7.26341162109375,0.02071651816368103,0.7218810319900513,0.060547057539224625
1772809163015435800,7.273435791015625,-0.04250852391123772,0.6008208990097046,0.04777533933520317
1772809163025460700,7.283460693359375,-0.09062546491622925,0.43845173716545105,0.05245831236243248
1772809163035484700,7.293484619140625,-0.13554660975933075,0.19713819026947021,0.0490819551050663
1772809163045508600,7.303508544921875,-0.18934686481952667,-0.11417634040117264,0.0431697741150856
1772809163055532800,7.31353271484375,-0.2688637971878052,-0.4889789819717407,0.022264759987592697
1772809163065557800,7.323557861328125,-0.3860383629798889,-0.9164139628410339,0.006934694014489651
1772809163075581400,7.33358154296875,-0.5226840972900391,-1.302085041999817,0.03115800768136978
1772809163085605600,7.343605712890625,-0.6415849924087524,-1.5143426656723022,0.08376087248325348
1772809163095629600,7.353629638671875,-0.726949155330658,-1.5582687854766846,0.08495236933231354
1772809163105653500,7.363653564453125,-0.7729449272155762,-1.4808776378631592,-0.04448698088526726
1772809163115678500,7.373678466796875,-0.7703619599342346,-1.2767876386642456,-0.30676013231277466
1772809163125702700,7.38370263671875,-0.6972658634185791,-0.8472160696983337,-0.6324267387390137
1772809163135726600,7.3937265625,-0.5616132616996765,-0.4368674159049988,-1.0410213470458984
1772809163145750500,7.40375048828125,-0.4685504734516144,-0.47069448232650757,-1.532162070274353
1772809163155775500,7.413775390625,-0.4511951804161072,-0.6687644124031067,-1.9210269451141357
1772809163165799700,7.423799560546875,-0.5184707045555115,-0.6535975337028503,-1.9729502201080322
1772809163175823600,7.43382373046875,-0.7060602903366089,-0.3364645838737488,-1.641838550567627
1772809163185847600,7.44384765625,-0.9413818717002869,0.1590164303779602,-1.0839364528656006
1772809163195871500,7.45387158203125,-1.0559282302856445,0.7401349544525146,-0.44872942566871643
1772809163205896700,7.463896728515625,-0.952155351638794,1.436774730682373,0.1670108437538147
1772809163215920600,7.473920654296875,-0.750863254070282,2.0732052326202393,0.6247482895851135
1772809163225944600,7.483944580078125,-0.5940681099891663,2.3074042797088623,0.7817445993423462
1772809163235968500,7.493968505859375,-0.4708106219768524,2.0271806716918945,0.6449617147445679
1772809163245993700,7.50399365234375,-0.3611907958984375,1.3306082487106323,0.3739083707332611
1772809163256017700,7.514017578125,-0.2874992787837982,0.46477752923965454,0.1630597710609436
1772809163266041600,7.52404150390625,-0.2486734390258789,-0.2431827187538147,0.1315169781446457
1772809163276065500,7.5340654296875,-0.23488757014274597,-0.7568969130516052,0.22058720886707306
1772809163286089700,7.54408984375,-0.2569172978401184,-1.0101947784423828,0.3523257076740265
1772809163296114700,7.55411474609375,-0.28047508001327515,-0.9098905324935913,0.4841151833534241
1772809163306138600,7.564138671875,-0.2701982259750366,-0.5831848382949829,0.523260235786438
1772809163316162600,7.57416259765625,-0.19505128264427185,-0.22543467581272125,0.42398640513420105
1772809163326186800,7.584186767578125,-0.06820833683013916,0.022896990180015564,0.2611056864261627
1772809163336211700,7.594211669921875,0.07639944553375244,0.15819516777992249,0.1311977505683899
1772809163346235400,7.6042353515625,0.19481278955936432,0.16824151575565338,0.0861116498708725
1772809163356259600,7.614259521484375,0.26138541102409363,0.11040084064006805,0.11410146951675415
1772809163366283800,7.62428369140625,0.28350529074668884,0.064702607691288,0.16064530611038208
1772809163376308700,7.634308837890625,0.2520589530467987,0.0265301875770092,0.15066005289554596
1772809163386332400,7.64433251953125,0.1909915804862976,-0.021217092871665955,0.1036912277340889
1772809163396356600,7.654356689453125,0.13603831827640533,-0.03118503838777542,0.06114482507109642
1772809163406380500,7.664380615234375,0.09657793492078781,0.018033038824796677,0.03127853572368622
1772809163416404500,7.674404541015625,0.08145810663700104,0.10327203571796417,0.016828224062919617
1772809163426429400,7.684429443359375,0.08761328458786011,0.21527980268001556,0.015265237540006638
1772809163436453600,7.69445361328125,0.11619725823402405,0.3083104193210602,0.010470481589436531
1772809163446477600,7.7044775390625,0.15828397870063782,0.35380178689956665,-0.003819860517978668
1772809163456501500,7.71450146484375,0.2146601676940918,0.3578614890575409,-0.03519748896360397
1772809163466526500,7.7245263671875,0.2695687413215637,0.305132120847702,-0.09796036779880524
1772809163476550700,7.734550537109375,0.3078910708427429,0.195858895778656,-0.19136221706867218
1772809163486574600,7.74457470703125,0.3104913532733917,0.08935222774744034,-0.29201534390449524
1772809163496598800,7.754598876953125,0.2843684256076813,-0.008526928722858429,-0.3916231691837311
1772809163506623500,7.76462353515625,0.2352643460035324,-0.10682708770036697,-0.48402053117752075
1772809163516647700,7.774647705078125,0.1803150773048401,-0.14649778604507446,-0.5606252551078796
1772809163526671600,7.784671630859375,0.126249298453331,-0.13418076932430267,-0.6167507171630859
1772809163536695800,7.79469580078125,0.07183371484279633,-0.08466356247663498,-0.6590456962585449
1772809163546719500,7.804719482421875,0.0332072488963604,-0.045973509550094604,-0.6994057893753052
1772809163556744400,7.814744384765625,0.024158095940947533,-0.042525514960289,-0.7228764891624451
1772809163566768600,7.8247685546875,0.05277311056852341,-0.040777821093797684,-0.7146782279014587
1772809163576792800,7.834792724609375,0.10371032357215881,-0.013448197394609451,-0.6678332686424255
1772809163586816500,7.84481640625,0.16276071965694427,0.020503811538219452,-0.581242024898529
1772809163596841500,7.854841552734375,0.21931320428848267,0.09210316091775894,-0.4675639271736145
1772809163606865700,7.86486572265625,0.2517080008983612,0.20268528163433075,-0.3438557982444763
1772809163616889600,7.8748896484375,0.2473907619714737,0.3323361873626709,-0.2246716022491455
1772809163626913500,7.88491357421875,0.2167893797159195,0.46523770689964294,-0.10369497537612915
1772809163636938500,7.8949384765625,0.16802051663398743,0.6121113300323486,0.018857840448617935
1772809163646962700,7.904962646484375,0.11005643755197525,0.7573156952857971,0.11618702113628387
1772809163656986600,7.914986572265625,0.05099764093756676,0.8846251964569092,0.17076796293258667
1772809163667010600,7.925010498046875,-0.005496371071785688,0.9539589881896973,0.1853620558977127
1772809163677034500,7.935034423828125,-0.056035179644823074,0.9764808416366577,0.16329270601272583
1772809163687059700,7.945059814453125,-0.10548782348632812,0.9532758593559265,0.12803801894187927
1772809163697083600,7.955083740234375,-0.1491335779428482,0.9109886288642883,0.09294713288545609
1772809163707107600,7.965107666015625,-0.19148573279380798,0.8603304624557495,0.0698077604174614
1772809163717131500,7.975131591796875,-0.22408868372440338,0.7851499915122986,0.04439747333526611
1772809163727156700,7.98515673828125,-0.24182745814323425,0.6635563969612122,0.026037724688649178
1772809163737180700,7.9951806640625,-0.24017709493637085,0.4720548689365387,-0.00029321666806936264
1772809163747204600,8.00520458984375,-0.21999159455299377,0.19257667660713196,-0.009210074320435524
1772809163757228500,8.015228515625,-0.1880408525466919,-0.16443763673305511,0.02233773097395897
1772809163767252700,8.025252685546874,-0.15053130686283112,-0.594470739364624,0.10505490005016327
1772809163777277700,8.035277587890626,-0.10882381349802017,-1.0630377531051636,0.23286159336566925
1772809163787301600,8.045301513671875,-0.07761747390031815,-1.544257640838623,0.39593198895454407
1772809163797325600,8.05532568359375,-0.05810023099184036,-1.9426602125167847,0.5585216879844666
1772809163807349800,8.065349853515626,-0.06318415701389313,-2.2826895713806152,0.6569232940673828
1772809163817374700,8.075374755859375,-0.11062037944793701,-2.579540491104126,0.6170773506164551
1772809163827398700,8.085398681640624,-0.16210690140724182,-2.7381958961486816,0.41236576437950134
1772809163837422600,8.095422607421876,-0.156805619597435,-2.656919002532959,0.053092554211616516
1772809163847446800,8.10544677734375,-0.07122526317834854,-2.3287014961242676,-0.41974765062332153
1772809163857471700,8.1154716796875,0.07567576318979263,-1.8145712614059448,-0.8800979256629944
1772809163867495400,8.125495361328126,0.20436842739582062,-1.1191158294677734,-1.1600137948989868
1772809163877519600,8.13551953125,0.17648807168006897,-0.27017277479171753,-1.1783381700515747
1772809163887543600,8.14554345703125,-0.06779786199331284,0.529028058052063,-0.9808648228645325
1772809163897567500,8.1555673828125,-0.3903053402900696,1.0654723644256592,-0.6752780079841614
1772809163907592400,8.165592529296875,-0.5686658024787903,1.2148395776748657,-0.37310656905174255
1772809163917616600,8.17561669921875,-0.5369464755058289,1.14826238155365,-0.04480857402086258
1772809163927640600,8.185640625,-0.3491615355014801,1.1284582614898682,0.3174959123134613
1772809163937664500,8.19566455078125,-0.12226366251707077,1.1120669841766357,0.5608291625976562
1772809163947689500,8.205689453125,0.06813099980354309,1.050148844718933,0.6447147727012634
1772809163957713700,8.215713623046875,0.18551355600357056,0.8643041849136353,0.6011720895767212
1772809163967737600,8.225737548828125,0.19763948023319244,0.5355797410011292,0.4911946952342987
1772809163977761500,8.235761474609374,0.10978339612483978,0.2318747490644455,0.39166760444641113
1772809163987786500,8.245786376953125,-0.02651594951748848,-0.008123459294438362,0.32460975646972656
1772809163997810400,8.255810546875,-0.11819260567426682,-0.21708226203918457,0.28217923641204834
1772809164007834400,8.26583447265625,-0.12006957828998566,-0.3743438720703125,0.27077212929725647
1772809164017858300,8.2758583984375,-0.04825717210769653,-0.49816808104515076,0.30224934220314026
1772809164027882200,8.28588232421875,0.08608260005712509,-0.56484454870224,0.38680732250213623
1772809164037907500,8.295907470703124,0.254580557346344,-0.582625150680542,0.5203163623809814
1772809164047931400,8.305931396484375,0.41064316034317017,-0.48562344908714294,0.674865186214447
1772809164057955300,8.315955322265625,0.502174437046051,-0.30515435338020325,0.7858516573905945
1772809164067979300,8.325979248046876,0.5112510919570923,-0.07214292138814926,0.8005669713020325
1772809164078004500,8.33600439453125,0.46273016929626465,0.17734387516975403,0.7076386213302612
1772809164088028400,8.3460283203125,0.3484741151332855,0.3861358165740967,0.5113604068756104
1772809164098052400,8.35605224609375,0.2015049159526825,0.4805622100830078,0.2430778592824936
1772809164108076300,8.366076171875,0.06181417778134346,0.4821690320968628,-0.023089874535799026
1772809164118101200,8.376101318359375,-0.04757329821586609,0.4287353456020355,-0.2411830574274063
1772809164128125400,8.38612548828125,-0.1089039072394371,0.3751157224178314,-0.38859397172927856
1772809164138149400,8.3961494140625,-0.13526201248168945,0.31526169180870056,-0.47089630365371704
1772809164148173300,8.40617333984375,-0.14199043810367584,0.230312317609787,-0.4931560158729553
1772809164158198300,8.4161982421875,-0.13074897229671478,0.14724725484848022,-0.45702064037323
1772809164168222500,8.426222412109375,-0.09924570471048355,0.09618717432022095,-0.36781686544418335
1772809164178246100,8.43624609375,-0.022233210504055023,0.06256610155105591,-0.22996045649051666
1772809164188270300,8.446270263671876,0.09089874476194382,0.060754403471946716,-0.08774079382419586
1772809164198294500,8.45629443359375,0.2006065994501114,0.07886815816164017,0.011168474331498146
1772809164208319500,8.466319580078125,0.25854530930519104,0.09216437488794327,0.05389108881354332
1772809164218343200,8.47634326171875,0.2524876892566681,0.06677006930112839,0.0318603590130806
1772809164228367400,8.486367431640625,0.1977871209383011,0.006559029687196016,-0.013110416010022163
1772809164238391300,8.496391357421874,0.12363806366920471,-0.008588763885200024,-0.046148791909217834
1772809164248416500,8.50641650390625,0.04557409882545471,0.03836102411150932,-0.04447289928793907
1772809164258440200,8.516440185546875,-0.002947364468127489,0.16191625595092773,0.0030184537172317505
1772809164268464400,8.52646435546875,0.0011235582642257214,0.32296133041381836,0.09116847813129425
1772809164278488300,8.53648828125,0.058015335351228714,0.4601953327655792,0.19837802648544312
1772809164288513500,8.546513427734375,0.1477264016866684,0.5650644898414612,0.3168398439884186
1772809164298537200,8.556537109375,0.2511531710624695,0.6215059757232666,0.42572423815727234
1772809164308561400,8.5665615234375,0.35560545325279236,0.636487603187561,0.5167546272277832
1772809164318585300,8.57658544921875,0.45042118430137634,0.6105231046676636,0.5810827612876892
1772809164328610300,8.5866103515625,0.5139237642288208,0.5752999782562256,0.6119648218154907
1772809164338634200,8.59663427734375,0.5364434719085693,0.5549132227897644,0.6094683408737183
1772809164348658400,8.606658447265625,0.5140370726585388,0.5261871814727783,0.5735194087028503
1772809164358682400,8.616682373046874,0.465643972158432,0.4632255434989929,0.5061696767807007
1772809164368707300,8.626707275390626,0.39000195264816284,0.34514740109443665,0.4177781045436859
1772809164378731300,8.636731201171875,0.3006952404975891,0.20260381698608398,0.323923259973526
1772809164388755200,8.646755126953124,0.2138877809047699,0.0635211318731308,0.24235790967941284
1772809164398779400,8.656779296875,0.14126044511795044,-0.06019069254398346,0.1853303164243698
1772809164408803600,8.666803466796875,0.0912928432226181,-0.17268778383731842,0.172091543674469
1772809164418828300,8.676828369140624,0.06508919596672058,-0.2907808721065521,0.18271222710609436
1772809164428852200,8.686852294921875,0.05250099301338196,-0.4713187515735626,0.2221619188785553
1772809164438876400,8.69687646484375,0.049773916602134705,-0.6707724928855896,0.2793083190917969
1772809164448900400,8.706900390625,0.04760297015309334,-0.8576689958572388,0.33762046694755554
1772809164458925300,8.71692529296875,0.03546294942498207,-1.0193572044372559,0.3821823298931122
1772809164468949200,8.72694921875,0.004405637737363577,-1.1843321323394775,0.38711225986480713
1772809164478973400,8.736973388671874,-0.07225318253040314,-1.3635644912719727,0.28335604071617126
1772809164488997400,8.746997314453125,-0.2145235538482666,-1.6006180047988892,0.008333797566592693
1772809164499022300,8.757022216796875,-0.4057568907737732,-1.864540696144104,-0.4669562876224518
1772809164509046300,8.76704638671875,-0.5742070078849792,-1.9566152095794678,-1.0884679555892944
1772809164519070500,8.777070556640625,-0.6396592855453491,-1.8280699253082275,-1.7860654592514038
1772809164529094400,8.787094482421875,-0.5510567426681519,-1.578129529953003,-2.4231717586517334
1772809164539119400,8.797119384765624,-0.3390187919139862,-1.2745096683502197,-2.779602289199829
1772809164549143300,8.807143310546875,-0.1495521366596222,-0.7479045391082764,-2.6091787815093994
1772809164559167500,8.81716748046875,-0.18224935233592987,-0.06798544526100159,-1.9765048027038574
1772809164569191400,8.82719140625,-0.38286733627319336,0.5637819170951843,-1.1568830013275146
1772809164579215400,8.83721533203125,-0.47485798597335815,1.0896896123886108,-0.40863779187202454
1772809164589240300,8.847240234375,-0.43621429800987244,1.52121102809906,0.15053313970565796
1772809164599264300,8.85726416015625,-0.3867071866989136,1.8825654983520508,0.4918406903743744
1772809164609288400,8.867288330078125,-0.3470248878002167,2.0406360626220703,0.5893954038619995
1772809164619312400,8.8773125,-0.27292588353157043,1.9406036138534546,0.497907817363739
1772809164629337300,8.88733740234375,-0.19243985414505005,1.5046594142913818,0.3178831934928894
1772809164639361300,8.897361328125,-0.1336178183555603,0.9382771849632263,0.20078851282596588
1772809164649385500,8.907385498046875,-0.1523497849702835,0.3726408779621124,0.21991947293281555
1772809164659409400,8.917409423828126,-0.24640730023384094,-0.18717339634895325,0.3185453712940216
1772809164669434400,8.927434326171875,-0.3415731191635132,-0.6406717300415039,0.4309864044189453
1772809164679458300,8.937458251953124,-0.35502901673316956,-0.865432620048523,0.5411112904548645
1772809164689482500,8.947482421875,-0.2786448001861572,-0.843933641910553,0.6448898315429688
1772809164699506200,8.957506103515625,-0.16526390612125397,-0.6818283200263977,0.7360982894897461
1772809164709530400,8.9675302734375,-0.07532468438148499,-0.4055544435977936,0.8198051452636719
1772809164719555300,8.977555419921876,-0.03481028228998184,-0.07645031064748764,0.8609887957572937
1772809164729579500,8.98757958984375,-0.05382185056805611,0.22200658917427063,0.8232852816581726
1772809164739603200,8.997603271484374,-0.08929009735584259,0.4900159537792206,0.7301684021949768
1772809164749627400,9.00762744140625,-0.11242081224918365,0.7155036926269531,0.599616527557373
1772809164759652400,9.01765234375,-0.11732582002878189,0.8629090785980225,0.4545842111110687
1772809164769676500,9.027676513671874,-0.11009500920772552,0.9150131940841675,0.31011515855789185
1772809164779700200,9.0377001953125,-0.08652363717556,0.8953803777694702,0.18478068709373474
1772809164789724400,9.047724365234375,-0.03816373273730278,0.8382328748703003,0.09262289106845856
1772809164799749400,9.057749267578124,0.012916761450469494,0.7626265287399292,0.022764455527067184
1772809164809773600,9.067773681640626,0.0584406815469265,0.6602979302406311,-0.044830527156591415
1772809164819797200,9.07779736328125,0.09604372084140778,0.5152313113212585,-0.11138958483934402
1772809164829821400,9.087821533203124,0.12665238976478577,0.3685399293899536,-0.14154359698295593
1772809164839846400,9.097846435546876,0.14125823974609375,0.20825889706611633,-0.12034110724925995
1772809164849870300,9.107870361328125,0.16431909799575806,0.0570264607667923,-0.0599684901535511
1772809164859894300,9.117894287109374,0.1911752074956894,-0.10557577013969421,0.0061063989996910095
1772809164869918500,9.12791845703125,0.22684882581233978,-0.2582445442676544,0.050838638097047806
1772809164879942400,9.1379423828125,0.2637211084365845,-0.37331175804138184,0.07565263658761978
1772809164889967400,9.14796728515625,0.31675413250923157,-0.4127447009086609,0.10096988826990128
1772809164899991300,9.1579912109375,0.38542693853378296,-0.3537532687187195,0.14746442437171936
1772809164910015200,9.16801513671875,0.46941274404525757,-0.192315936088562,0.21353894472122192
1772809164920039400,9.178039306640626,0.5579684376716614,0.030713165178894997,0.28861427307128906
1772809164930064400,9.188064453125,0.6301470994949341,0.2564968764781952,0.3570360541343689
1772809164940088300,9.19808837890625,0.6876950860023499,0.4473187327384949,0.4163193702697754
1772809164950112300,9.2081123046875,0.7212961316108704,0.606799840927124,0.4705673158168793
1772809164960136400,9.218136474609375,0.7251822352409363,0.7313748002052307,0.5047377943992615
1772809164970161400,9.228161376953125,0.6990855932235718,0.8178256750106812,0.527040421962738
1772809164980185300,9.238185302734376,0.6540824174880981,0.8548558354377747,0.5253485441207886
1772809164990214000,9.2482138671875,0.6060497760772705,0.8348198533058167,0.4871021807193756
1772809165000237800,9.25823779296875,0.5354166626930237,0.7353553175926208,0.39613980054855347
1772809165010261800,9.26826171875,0.42064395546913147,0.5380938053131104,0.25701847672462463
1772809165020286700,9.27828662109375,0.28780895471572876,0.27967342734336853,0.09941846132278442
1772809165030311000,9.288310791015626,0.1644064337015152,-0.004386259242892265,-0.033795297145843506
1772809165040334800,9.2983349609375,0.05758197605609894,-0.264008492231369,-0.11672213673591614
1772809165050358800,9.30835888671875,-0.03813246637582779,-0.4377071261405945,-0.13327011466026306
1772809165060383700,9.3183837890625,-0.11940334737300873,-0.4871649444103241,-0.07547765225172043
1772809165070408000,9.328407958984375,-0.19347919523715973,-0.43214109539985657,0.04642275720834732
1772809165080431900,9.338431884765624,-0.25169801712036133,-0.3018896281719208,0.20563878118991852
1772809165090455800,9.348455810546875,-0.30463290214538574,-0.14945092797279358,0.36924663186073303
1772809165100480800,9.358480712890625,-0.35634645819664,-0.0010489365085959435,0.5078161954879761
1772809165110505000,9.3685048828125,-0.41029155254364014,0.13654790818691254,0.5993263125419617
1772809165120529000,9.37852880859375,-0.4608982801437378,0.2420988380908966,0.6411818861961365
1772809165130552800,9.388552734375,-0.5002966523170471,0.3387053310871124,0.6560586094856262
1772809165140577800,9.398577880859374,-0.5268880724906921,0.4216391146183014,0.6333202719688416
1772809165150602000,9.40860205078125,-0.5700936317443848,0.4719713032245636,0.5417227149009705
1772809165160626000,9.4186259765625,-0.6507990956306458,0.4137580692768097,0.33194705843925476
1772809165170649900,9.42864990234375,-0.7616801261901855,0.10122936218976974,-0.001057170331478119
1772809165180673800,9.438673828125,-0.8461824655532837,-0.43071311712265015,-0.3934715688228607
1772809165190698800,9.44869873046875,-0.8457082509994507,-1.0271841287612915,-0.7877060174942017
1772809165200723000,9.458722900390624,-0.6777690649032593,-1.531782627105713,-1.0685776472091675
1772809165210747000,9.468746826171875,-0.3091125786304474,-1.7583001852035522,-1.0952675342559814
1772809165220770800,9.478770751953125,0.12607909739017487,-1.6582337617874146,-0.8492709398269653
1772809165230795800,9.488795654296876,0.45360425114631653,-1.2933133840560913,-0.47574636340141296
1772809165240820000,9.498820068359375,0.5214706063270569,-0.8561195731163025,-0.153359517455101
1772809165250843600,9.50884375,0.352468878030777,-0.5800670385360718,-0.03331012278795242
1772809165260867800,9.518867919921876,0.12266124784946442,-0.508921205997467,-0.12114676833152771
1772809165270892800,9.528892822265625,-0.03734968602657318,-0.4087233543395996,-0.2840668857097626
1772809165280917000,9.5389169921875,-0.13017496466636658,-0.11611916869878769,-0.3950093686580658
1772809165290940700,9.548940673828126,-0.18762415647506714,0.20823737978935242,-0.4541228711605072
1772809165300964900,9.55896484375,-0.19042792916297913,0.44183894991874695,-0.4608854353427887
1772809165310988800,9.56898876953125,-0.11006036400794983,0.5160688757896423,-0.36849430203437805
1772809165321014000,9.579013916015626,0.04912422597408295,0.49089959263801575,-0.14812228083610535
1772809165331037700,9.58903759765625,0.2231399267911911,0.3312376141548157,0.12122548371553421
1772809165341062000,9.599061767578124,0.3469207286834717,0.02513575553894043,0.3520307242870331
1772809165351085800,9.6090859375,0.3809491991996765,-0.27760419249534607,0.5020962357521057
1772809165361111000,9.619111083984375,0.3360501527786255,-0.4504111111164093,0.56634521484375
1772809165371134700,9.629134765625,0.23794607818126678,-0.4886605739593506,0.5607997179031372
1772809165381159000,9.639158935546876,0.11467287689447403,-0.35537147521972656,0.5559335947036743
1772809165391182800,9.649182861328125,-0.01986728422343731,-0.069737009704113,0.5652250647544861
1772809165401207800,9.659207763671875,-0.14152128994464874,0.3106979429721832,0.5577285289764404
1772809165411231700,9.669231689453126,-0.25560593605041504,0.6749264597892761,0.5114661455154419
1772809165421256000,9.679255859375,-0.36530977487564087,0.9408699870109558,0.4086579978466034
1772809165431279900,9.68927978515625,-0.43823450803756714,1.088710069656372,0.2624336779117584
1772809165441304000,9.699303955078125,-0.4550539553165436,1.0821467638015747,0.08936575800180435
1772809165451328800,9.709328857421875,-0.4127312898635864,0.9246081709861755,-0.055185139179229736
1772809165461352700,9.719352783203124,-0.33286839723587036,0.649391233921051,-0.14665913581848145
1772809165471377000,9.729376953125,-0.23746539652347565,0.31209054589271545,-0.1640947312116623
1772809165481401000,9.739401123046875,-0.14108878374099731,-0.019155818969011307,-0.09771650284528732
1772809165491425800,9.74942578125,-0.051606789231300354,-0.28920799493789673,0.02825741097331047
1772809165501449700,9.75944970703125,0.030264373868703842,-0.49537500739097595,0.1537221372127533
1772809165511474000,9.769473876953125,0.11277471482753754,-0.6324503421783447,0.23720763623714447
1772809165521497900,9.779497802734374,0.19008733332157135,-0.709381639957428,0.26591119170188904
1772809165531522800,9.789522705078125,0.24438178539276123,-0.7558395266532898,0.2396276891231537
1772809165541546800,9.799546630859375,0.28309857845306396,-0.790638267993927,0.19955268502235413
1772809165551571000,9.809571044921874,0.3020588159561157,-0.8018032312393188,0.18644551932811737
1772809165561595000,9.819594970703125,0.29238834977149963,-0.7730123400688171,0.20002365112304688
1772809165571618800,9.829618896484375,0.2572529911994934,-0.7151042222976685,0.20226755738258362
1772809165581643800,9.839643798828124,0.20923087000846863,-0.633605420589447,0.1860041618347168
1772809165591668000,9.84966796875,0.17620903253555298,-0.5452244877815247,0.14990343153476715
1772809165601692000,9.85969189453125,0.16423386335372925,-0.4442216753959656,0.1033492460846901
1772809165611715800,9.8697158203125,0.17918802797794342,-0.3098108172416687,0.05578703433275223
1772809165621740800,9.87974072265625,0.223828986287117,-0.136649951338768,0.021163277328014374
1772809165631765000,9.889764892578125,0.27430933713912964,0.06091093271970749,-0.018957719206809998
1772809165641789000,9.899788818359376,0.314184308052063,0.25260472297668457,-0.06858998537063599
1772809165651812900,9.909812744140625,0.33681631088256836,0.4268116056919098,-0.1296665072441101
1772809165661836800,9.9198369140625,0.3309895992279053,0.5668336749076843,-0.19937315583229065
1772809165671861800,9.92986181640625,0.29404884576797485,0.6434372067451477,-0.26324552297592163
1772809165681886000,9.939885986328125,0.24093742668628693,0.587892472743988,-0.29705995321273804
1772809165691910000,9.949909912109375,0.1705447882413864,0.5189782381057739,-0.3090668022632599
1772809165701933800,9.959933837890626,0.0519142746925354,0.48797109723091125,-0.32070988416671753
1772809165711958800,9.969958740234375,-0.13424749672412872,0.46680769324302673,-0.3466349244117737
1772809165721983000,9.97998291015625,-0.25521785020828247,0.4007035195827484,-0.3652038276195526
1772809165732007000,9.9900068359375,-0.2939249873161316,0.15143604576587677,-0.40784817934036255
1772809165742030800,10.00003076171875,-0.3424941301345825,-0.13105903565883636,-0.45393791794776917
1772809165752055800,10.010055908203125,-0.38331925868988037,-0.40040522813796997,-0.44400811195373535
1772809165762080000,10.020080078125,-0.36192822456359863,-0.41220036149024963,-0.35421645641326904
1772809165772103700,10.030103759765625,-0.3231489658355713,-0.38420626521110535,-0.20365779101848602
1772809165782127900,10.0401279296875,-0.2869901657104492,-0.28657904267311096,-0.039086416363716125
1772809165792151800,10.05015185546875,-0.24481378495693207,-0.22649887204170227,0.14237254858016968
1772809165802177000,10.060177001953125,-0.2132023274898529,-0.2068021446466446,0.33836549520492554
1772809165812200700,10.07020068359375,-0.15599164366722107,-0.09380829334259033,0.5825725793838501
1772809165822225000,10.080224853515626,-0.02865206077694893,0.38518306612968445,0.8316689133644104
1772809165832248800,10.090248779296875,0.09124665707349777,0.9976840019226074,0.9140232801437378
1772809165842274000,10.100274169921875,0.139430433511734,1.254083514213562,0.7239319086074829
1772809165852297700,10.110297607421876,0.1082114577293396,1.033879280090332,0.2995622754096985
1772809165862322000,10.120322021484375,0.0007100305519998074,0.31440067291259766,-0.27081063389778137
1772809165872345900,10.130345947265624,-0.18881431221961975,-0.8380584120750427,-0.8600505590438843
1772809165882371000,10.14037109375,-0.31084194779396057,-1.816675066947937,-1.2163065671920776
1772809165892394800,10.150394775390625,-0.3122345209121704,-2.2141621112823486,-1.2325940132141113
1772809165902419000,10.1604189453125,-0.29631468653678894,-2.0672836303710938,-1.007739543914795
1772809165912443000,10.17044287109375,-0.2751436233520508,-1.5551925897598267,-0.6913033723831177
1772809165922466800,10.180466796875,-0.1941417008638382,-0.8673965930938721,-0.37231019139289856
1772809165932491800,10.19049169921875,-0.11186377704143524,-0.027610354125499725,-0.07951457798480988
1772809165942516000,10.200515869140625,-0.18592041730880737,0.8149115443229675,0.10856238752603531
1772809165952540000,10.210539794921875,-0.41493305563926697,1.4134819507598877,0.1319267451763153
1772809165962563800,10.220563720703124,-0.652042806148529,1.705318808555603,0.05132032185792923
1772809165972588800,10.2305888671875,-0.7899149656295776,1.7212648391723633,-0.04541325196623802
1772809165982612700,10.24061279296875,-0.8048915266990662,1.5238791704177856,-0.07705746591091156
1772809165992636700,10.25063671875,-0.7220000624656677,1.1492912769317627,-0.03806344047188759
1772809166002660900,10.260660888671875,-0.5799369215965271,0.6600552797317505,0.049732454121112823
1772809166012684800,10.270684814453125,-0.37800413370132446,0.1930873990058899,0.17031842470169067
1772809166022709500,10.28070947265625,-0.1645195335149765,-0.16109757125377655,0.29141342639923096
1772809166032733700,10.290733642578125,0.008230735547840595,-0.47737476229667664,0.41020703315734863
1772809166042757600,10.300757568359375,0.1303901970386505,-0.7469471096992493,0.5408194065093994
1772809166052781800,10.31078173828125,0.1963777244091034,-0.8824503421783447,0.6737279295921326
1772809166062806800,10.320806884765625,0.21849846839904785,-0.8313237428665161,0.759840190410614
1772809166072830700,10.330830810546875,0.22395841777324677,-0.5908747315406799,0.7611324787139893
1772809166082854700,10.340854736328126,0.21111799776554108,-0.29739996790885925,0.6850981712341309
1772809166092878800,10.35087890625,0.15711712837219238,-0.015159695409238338,0.5760573148727417
1772809166102903800,10.36090380859375,0.05828110873699188,0.221831277012825,0.47143450379371643
1772809166112927700,10.370927734375,-0.07008547335863113,0.37547382712364197,0.39153483510017395
1772809166122951700,10.38095166015625,-0.18480831384658813,0.48094484210014343,0.33884286880493164
1772809166132975900,10.390975830078125,-0.2701556980609894,0.5469800233840942,0.2933613359928131
1772809166142999600,10.40099951171875,-0.319912850856781,0.5936987996101379,0.23750045895576477
1772809166153024800,10.411024658203125,-0.31644853949546814,0.6631709933280945,0.11501204967498779
1772809166163048700,10.421048583984375,-0.2633882462978363,0.958037257194519,-0.12119302898645401
1772809166173073000,10.431072998046876,-0.15510708093643188,0.7786678671836853,-0.44382762908935547
1772809166183096600,10.4410966796875,0.03528498113155365,0.29712072014808655,-0.6541292071342468
1772809166193121800,10.451121826171875,0.23169580101966858,0.022412382066249847,-0.608691930770874
1772809166203145700,10.461145751953126,0.3235793709754944,-0.12954466044902802,-0.3803170919418335
1772809166213170000,10.471169921875,0.28944122791290283,-0.33319297432899475,-0.1379924714565277
1772809166223193600,10.481193603515624,0.16761226952075958,-0.5663583278656006,0.016745438799262047
1772809166233217800,10.4912177734375,0.04657831788063049,-0.7673565745353699,0.06123765558004379
1772809166243242800,10.50124267578125,-0.03906840831041336,-0.8923323154449463,0.023331817239522934
1772809166253266700,10.5112666015625,-0.08032529056072235,-0.9133939743041992,-0.06680651009082794
1772809166263290600,10.52129052734375,-0.07991942018270493,-0.8070158958435059,-0.14772824943065643
1772809166273314800,10.531314697265625,-0.055403001606464386,-0.5817696452140808,-0.19805404543876648
1772809166283339800,10.54133984375,-0.018511831760406494,-0.292343407869339,-0.21402901411056519
1772809166293363700,10.55136376953125,0.008694874122738838,-0.001028571743518114,-0.19697444140911102
1772809166303387600,10.5613876953125,-0.003770583774894476,0.19078534841537476,-0.177439346909523
1772809166313411800,10.571411865234374,-0.024152722209692,0.25931456685066223,-0.19592450559139252
1772809166323436800,10.581436767578126,-0.011477407068014145,0.38295766711235046,-0.1937745362520218
1772809166333460700,10.591460693359375,0.022484835237264633,0.5204145908355713,-0.1613621860742569
1772809166343484700,10.601484619140624,0.06239789351820946,0.6600028276443481,-0.11429906636476517
1772809166353508600,10.611508544921875,0.08434933423995972,0.7937822341918945,-0.060896627604961395
1772809166363532800,10.62153271484375,0.06874427944421768,0.9025508165359497,-0.019075408577919006
1772809166373557800,10.631557861328124,0.01497445348650217,0.9458412528038025,0.0002703871577978134
1772809166383581700,10.641581787109375,-0.0678144320845604,0.8496848940849304,-0.02755884639918804
1772809166393605600,10.651605712890625,-0.1548606902360916,0.5903886556625366,-0.1067795380949974
1772809166403629800,10.6616298828125,-0.21809610724449158,0.18583133816719055,-0.22756001353263855
1772809166413654800,10.67165478515625,-0.2407875806093216,-0.30235108733177185,-0.3324568271636963
1772809166423678700,10.6816787109375,-0.24668088555335999,-0.8108068704605103,-0.3567730784416199
1772809166433702700,10.69170263671875,-0.26640647649765015,-1.1881434917449951,-0.3337891697883606
1772809166443726800,10.701726806640625,-0.27028509974479675,-1.3399598598480225,-0.28163808584213257
1772809166453750500,10.71175048828125,-0.22990548610687256,-1.2954543828964233,-0.20505289733409882
1772809166463775700,10.721775634765624,-0.17135456204414368,-1.0314736366271973,-0.11331924796104431
1772809166473799700,10.731799560546875,-0.1288655400276184,-0.6730341911315918,-0.021717624738812447
1772809166483823900,10.741823974609375,-0.08824887871742249,-0.21307803690433502,0.0677531361579895
1772809166493847600,10.75184765625,-0.045565202832221985,0.2929733097553253,0.1566404104232788
1772809166503872500,10.76187255859375,-0.01231643557548523,0.8346706628799438,0.2465362250804901
1772809166513896700,10.771896728515625,0.005542151629924774,1.406510829925537,0.3296297788619995
1772809166523921000,10.7819208984375,-0.014512250199913979,1.7832766771316528,0.4082825183868408
1772809166533944800,10.79194482421875,-0.10509030520915985,1.6308945417404175,0.46700432896614075
1772809166543968800,10.80196875,-0.27685752511024475,0.7551963329315186,0.3958379924297333
1772809166553993700,10.81199365234375,-0.5470610857009888,-0.6485432982444763,0.13269558548927307
1772809166564017700,10.822017578125,-0.8102207779884338,-1.6023192405700684,-0.1946420669555664
1772809166574041900,10.832041748046874,-1.0277751684188843,-1.6770362854003906,-0.41753870248794556
1772809166584065800,10.842065673828126,-1.2227330207824707,-1.1963434219360352,-0.6051334142684937
1772809166594090800,10.8520908203125,-1.3676762580871582,-0.22238507866859436,-0.7188965082168579
1772809166604114700,10.86211474609375,-1.410193920135498,0.7574416995048523,-0.8881478905677795
1772809166614139000,10.872138916015626,-1.2142399549484253,1.319076657295227,-1.2259389162063599
1772809166624162600,10.88216259765625,-0.7605361342430115,1.3924685716629028,-1.8279718160629272
1772809166634186800,10.892186767578124,-0.4111642837524414,1.3280071020126343,-2.4442505836486816
1772809166644211700,10.902211669921876,-0.2999197840690613,1.1353609561920166,-2.864518165588379
1772809166654236000,10.91223583984375,-0.28131288290023804,0.7267275452613831,-3.024980306625366
1772809166664259600,10.922259521484374,-0.20102496445178986,0.313315212726593,-2.787548303604126
1772809166674283800,10.93228369140625,-0.18348906934261322,-0.14403939247131348,-2.1606431007385254
1772809166684308700,10.942308837890625,-0.09373203665018082,-0.483771950006485,-1.334632158279419
1772809166694333000,10.9523330078125,-0.007848244160413742,-0.43787938356399536,-0.45303627848625183
1772809166704356600,10.962356689453125,-0.057278111577034,-0.13201533257961273,0.3658210337162018
1772809166714380800,10.972380859375,-0.23978103697299957,0.17359879612922668,1.0137519836425781
1772809166724404700,10.98240478515625,-0.3546428978443146,0.048164717853069305,1.2391080856323242
1772809166734430000,10.992429931640626,-0.2506827116012573,-0.40932711958885193,1.0187582969665527
1772809166744453600,11.00245361328125,-0.08601520955562592,-0.5972376465797424,0.58612459897995
1772809166754477800,11.012477783203124,0.022281205281615257,-0.38856762647628784,0.1910324990749359
1772809166764501800,11.022501708984375,0.13301171362400055,-0.007990725338459015,-0.04919049143791199
1772809166774526700,11.032526611328125,0.23583099246025085,0.39804747700691223,-0.1345064789056778
1772809166784550700,11.042550537109374,0.2837306261062622,0.7306139469146729,-0.11265205591917038
1772809166794574800,11.052574951171875,0.28710007667541504,0.9418599605560303,-0.04521297290921211
1772809166804598800,11.062598876953125,0.24249987304210663,0.9728924632072449,0.04517604410648346
1772809166814622700,11.072622802734376,0.16960367560386658,0.8792995810508728,0.17722395062446594
1772809166824647700,11.082647705078125,0.09202101081609726,0.7606541514396667,0.34921756386756897
1772809166834671600,11.092671630859375,0.02200579270720482,0.6467863917350769,0.5237369537353516
1772809166844695800,11.10269580078125,-0.027106359601020813,0.5665667057037354,0.6342056393623352
1772809166854719700,11.1127197265625,-0.04694326967000961,0.5526058673858643,0.6506892442703247
1772809166864744700,11.12274462890625,-0.029020726680755615,0.5827959775924683,0.5905271172523499
1772809166874768600,11.1327685546875,0.008411286398768425,0.5500621199607849,0.49780380725860596
1772809166884792800,11.142792724609375,0.06202764809131622,0.4044586420059204,0.42660871148109436
1772809166894816500,11.15281640625,0.11420463770627975,0.18833808600902557,0.4073209762573242
1772809166904840700,11.1628408203125,0.15196345746517181,-0.016085093840956688,0.41875338554382324
1772809166914865700,11.17286572265625,0.16649702191352844,-0.19685159623622894,0.48962336778640747
1772809166924889900,11.182889892578125,0.14687857031822205,-0.3851267099380493,0.610095202922821
1772809166934913500,11.19291357421875,0.12174525856971741,-0.5494061708450317,0.7110067009925842
1772809166944937700,11.202937744140625,0.12057052552700043,-0.5872233510017395,0.7624416351318359
1772809166954962700,11.212962646484375,0.10363565385341644,-0.49569764733314514,0.7324692606925964
1772809166964987000,11.22298681640625,0.06265439838171005,-0.36414095759391785,0.6168087124824524
1772809166975010600,11.233010498046875,0.02027135342359543,-0.24818825721740723,0.46114879846572876
1772809166985034800,11.24303466796875,-0.00038066040724515915,-0.10574215650558472,0.3261893689632416
1772809166995054300,11.253054443359375,0.0018307482823729515,0.029481152072548866,0.21890564262866974
1772809167005079300,11.263079345703124,0.03653440251946449,0.1154882088303566,0.15489816665649414
1772809167015103200,11.273103271484375,-0.036430563777685165,0.04470227286219597,0.1480531543493271
1772809167025127200,11.283127197265625,-0.19328010082244873,-0.18661616742610931,0.3206380009651184
1772809167035151400,11.2931513671875,-0.3201586604118347,-0.658126175403595,0.5530021786689758
