time,seconds_elapsed,z,y,x
1772790165280206600,0.07320654296875,0.13429098154604435,-0.22260493255406616,-0.2566192842282355
1772790165290271700,0.083271728515625,-0.08315233046114444,-0.4128472261637449,-0.323892785295099
1772790165300337700,0.093337646484375,-0.03803308579623699,-0.507343080677092,-0.2470171970158815
1772790165310403800,0.10340380859375,0.07922668145000934,-0.5265463783189654,-0.1934554104372859
1772790165320469500,0.113469482421875,0.013400748842954635,-0.5516764356613159,-0.24761910843178628
1772790165330534700,0.12353466796875,-0.1246463703662157,-0.6687634766891598,-0.33001842856854197
1772790165340600800,0.133600830078125,-0.10240122081041335,-0.7565706472188234,-0.39529929451346396
1772790165350666800,0.143666748046875,0.10971242060661315,-0.7192462942138313,-0.3818836403623223
1772790165360732700,0.153732666015625,0.19242168347537517,-0.7480880655556916,-0.38550767607837916
1772790165370797600,0.163797607421875,0.1928641665458679,-0.8034305980712175,-0.38661987510398027
1772790165380863700,0.17386376953125,0.29005379018783567,-0.7775701806277037,-0.3587596621453762
1772790165390929700,0.1839296875,0.20391630643606184,-0.8260442886784672,-0.2645128139570355
1772790165400994800,0.193994873046875,-0.009862053322792053,-0.845371797221899,-0.21151903652474283
1772790165411060700,0.204060791015625,0.013828034344315529,-0.7348337394461035,-0.27161621622145177
1772790165421126700,0.214126708984375,0.07590250546336173,-0.6264435073539615,-0.35155469920262694
1772790165431192600,0.224192626953125,0.043650925678014756,-0.6133797353804111,-0.4174724017463624
1772790165441257700,0.2342578125,0.09808218856751919,-0.5827415821410715,-0.45997211156263945
1772790165451323600,0.24432373046875,0.17682430137097835,-0.5368779488496482,-0.4174405453033745
1772790165461389800,0.254389892578125,0.19378478852212427,-0.5816530562520027,-0.31081396188288923
1772790165471455700,0.264455810546875,0.15147417153716086,-0.6156251762196421,-0.19238938864097
1772790165481520600,0.274520751953125,0.0915934110701084,-0.6051426529109477,-0.16970409410223364
1772790165491586600,0.284586669921875,0.15908289297521114,-0.5607816792674363,-0.21817542567402123
1772790165501652700,0.29465283203125,0.1833317835688591,-0.49825756468474863,-0.3438094919033348
1772790165511718700,0.30471875,0.12013970659673213,-0.4753045591205358,-0.3822717628970742
1772790165521783600,0.314783447265625,0.06900573168694972,-0.5239087232917546,-0.286233647377789
1772790165531849700,0.324849609375,0.0393090970814228,-0.5218412693679333,-0.22478899859488008
1772790165541915600,0.33491552734375,0.06616846243441105,-0.4620636770144105,-0.27737872527092694
1772790165551980800,0.344980712890625,0.11176000078618525,-0.42193624928742646,-0.32845001020804043
1772790165562046700,0.355046630859375,0.1059592055529356,-0.39224779798835513,-0.34380890738144515
1772790165572113000,0.36511279296875,0.09798340436816215,-0.4426546276673674,-0.3341400385431945
1772790165582178600,0.375178466796875,0.09490472757518291,-0.48167175606489177,-0.3295721461057663
1772790165592243700,0.38524365234375,0.017567805394530296,-0.5456964844688773,-0.2853795147664845
1772790165602309600,0.3953095703125,-0.00959200420975685,-0.6100201958194374,-0.23271482315808534
1772790165612375800,0.405375732421875,-0.04530161549448967,-0.5976198561906815,-0.2262302834443748
1772790165622441700,0.415441650390625,-0.009463993915915488,-0.5551064101099967,-0.2962194732107222
1772790165632506600,0.425506591796875,-0.014764438411593436,-0.47950727150738237,-0.3447057100906968
1772790165642572500,0.435572509765625,0.05866729302406311,-0.4132254118263721,-0.42117549404799937
1772790165652638700,0.445638671875,0.11528817491233348,-0.3807955528646707,-0.4659424181438982
1772790165662704600,0.45570458984375,0.04200900368988514,-0.49618251197636126,-0.46790363521426914
1772790165672769800,0.465769775390625,0.0028758476972579957,-0.9376917690008878,-0.44293753626197574
1772790165682835700,0.475835693359375,0.1080985556691885,-0.43241497320383787,-0.11912643790096043
1772790165692901600,0.485901611328125,-0.06486264053285122,-0.3031839053958654,-0.1902069300353527
1772790165702966800,0.495966796875,0.11724866133034229,-0.6514382478788495,-0.3299067848876118
1772790165713032700,0.50603271484375,0.26902912233769893,-0.5441036623194814,-0.18304332201629875
1772790165723099000,0.516098876953125,0.3036088528096676,-0.39479777473211286,-0.14452932083532213
1772790165733164800,0.526164794921875,0.4081272119045257,-0.5082052504643798,-0.19056582647562026
1772790165743229700,0.536229736328125,0.4713157817453146,-0.47377895698845385,-0.12967048213854432
1772790165753295600,0.546295654296875,0.3544932368725538,-0.43742227997183797,-0.06981105672046542
1772790165763361800,0.55636181640625,0.22032266683578489,-0.5252092844963073,0.023562077373266217
1772790165773427700,0.566427734375,0.17244155624210833,-0.5406766104802488,0.14708309697136282
1772790165783492900,0.576492919921875,0.07969605252742767,-0.5463458882883191,0.24544775574207303
1772790165793558500,0.58655859375,-0.005937573355436325,-0.5712640564456581,0.29590324686840175
1772790165803624700,0.596624755859375,-0.020283494094014167,-0.598775163705647,0.3332658860571682
1772790165813689600,0.606689697265625,0.00890752907693386,-0.6153370069280266,0.3064594199351966
1772790165823755800,0.616755859375,0.0360632470279932,-0.5502054863259196,0.2847797222424298
1772790165833821700,0.62682177734375,0.0577788197517395,-0.4851438160896301,0.34099399609118697
1772790165843887900,0.636887939453125,0.06145020174086094,-0.5430658437043429,0.40295740805119273
1772790165853952800,0.646952880859375,-0.047944238957762716,-0.6548670532837509,0.3890643456466496
1772790165864018700,0.657018798828125,-0.14406886371672153,-0.7041212057963013,0.3817467161096632
1772790165874084600,0.667084716796875,-0.20662147374153136,-0.7362541276380419,0.39422640458494423
1772790165884150800,0.67715087890625,-0.1928518915861845,-0.8291948616638779,0.22205255936831234
1772790165894216000,0.6872158203125,-0.19326456404030323,-0.8401078853443265,0.08633943606466055
1772790165904281600,0.697281494140625,-0.20640812325179575,-0.6787985484912991,0.1296975162759423
1772790165914347800,0.70734765625,-0.1643091031908989,-0.7026625314205884,0.22727862345352767
1772790165924413700,0.71741357421875,-0.16745090834796428,-0.9229360984176397,0.26270941779688
1772790165934479600,0.727479736328125,-0.21990122655332087,-1.0618407112389803,0.3045078474760055
1772790165944545800,0.7375458984375,-0.2633908241897821,-1.0915513743698597,0.36661622086465356
1772790165954611700,0.74761181640625,-0.2855447883307934,-1.1375105769902467,0.34632439733371134
1772790165964676900,0.7576767578125,-0.4217980098605156,-1.1703420024901627,0.2945575313478708
1772790165974742800,0.76774267578125,-0.6263935307323932,-1.235777182213962,0.21616773911342024
1772790165984808700,0.77780859375,-0.8577356042325496,-1.3281411392651497,0.10343070998862385
1772790165994874600,0.78787451171875,-1.0550982512414455,-1.3707950167298315,-0.038188276357948775
1772790166004939800,0.797939697265625,-1.1863280916512011,-1.2177252465642987,-0.18060937286764384
1772790166015006000,0.808005859375,-1.177277354711294,-1.0295167968697845,-0.2759020768471062
1772790166025071900,0.81807177734375,-1.1216513290792702,-0.8841616927348077,-0.39257074633240696
1772790166035137800,0.8281376953125,-1.053069960284233,-0.7316007488742471,-0.5114607451289892
1772790166045202700,0.83820263671875,-0.9154933811962604,-0.6118325059384108,-0.5510977589905262
1772790166055268900,0.848268798828125,-0.8221329604536295,-0.5347654867403209,-0.510166905926168
1772790166065334800,0.858334716796875,-0.7142331422269343,-0.49011283667385575,-0.47233913344368333
1772790166075400000,0.86839990234375,-0.6129243928283452,-0.48384530071169135,-0.3713293669916689
1772790166085465900,0.8784658203125,-0.6239964064627885,-0.5005189337454736,-0.22231632487103342
1772790166095531800,0.88853173828125,-0.5885767180353403,-0.46321913065984843,-0.11214315488487481
1772790166105597700,0.89859765625,-0.41372167091071604,-0.33879049469754097,0.000597089110314846
1772790166115662800,0.908662841796875,-0.25268764386773107,-0.19455533450320361,0.06358633698672056
1772790166125728800,0.918728759765625,-0.14176701651513576,-0.04768865676149726,0.07721139610484241
1772790166135795000,0.928794921875,-0.025751696372032163,0.08482815471887588,0.0013047989882528782
1772790166145860900,0.93886083984375,0.045828854238986964,0.18752382843121884,-0.10721358952820301
1772790166155925800,0.94892578125,0.08682488149404526,0.26900837181061504,-0.12035744100064039
1772790166165991700,0.95899169921875,0.11702303588092326,0.37537484299018975,-0.09191840524077415
1772790166176057900,0.969057861328125,0.18314239847660063,0.46291269505918026,-0.11462225834950804
1772790166186123000,0.979123046875,0.2758370487868786,0.5874006599932908,-0.1382144386000931
1772790166196188700,0.989188720703125,0.3950608095824718,0.7243909636259078,-0.16372136643081903
1772790166206254800,0.9992548828125,0.48202071563303467,0.8387767828710376,-0.16189663522168993
1772790166216320800,1.00932080078125,0.38953473963737484,0.880225814590603,-0.1725757040157914
1772790166226386000,1.019385986328125,0.22922785782516,0.9170495245970786,-0.18418021709173918
1772790166236451800,1.029451904296875,0.09201718944013118,0.9582612404294312,-0.19153912848718463
1772790166246518000,1.03951806640625,-0.013750877454876898,0.9523631223015486,-0.19860256406739352
1772790166256583700,1.049583740234375,-0.05326280363202095,0.9754925073459744,-0.22698015196360646
1772790166266648800,1.05964892578125,-0.049634676262736314,0.9855646962881087,-0.3019469840120524
1772790166276714800,1.06971484375,0.01964636523425579,0.9707445821665227,-0.37100561493001877
1772790166286781000,1.079781005859375,0.0719300947010517,0.9662871643662452,-0.3962123177051544
1772790166296845600,1.089845458984375,0.10992518657445907,0.9965116222381591,-0.3928273514419794
1772790166306911700,1.099911865234375,0.14117489584088325,1.039917194852978,-0.3448652845665812
1772790166316977700,1.109977783203125,0.1362497143983841,0.9839056770347058,-0.3113205231655389
1772790166327043800,1.1200439453125,0.06188099437355995,0.86757281537503,-0.35202319349721073
1772790166337108700,1.130108642578125,0.05237316131591797,0.7740427371539175,-0.42565322398394345
1772790166347175000,1.1401748046875,0.0793114371240139,0.6849620395570993,-0.4572265391815454
1772790166357240600,1.150240478515625,0.06795768393874169,0.6125806939572096,-0.4572328227918595
1772790166367306800,1.160306640625,0.11173077469170092,0.5364591389156877,-0.44428778182715173
1772790166377372000,1.170371826171875,0.20684359205961225,0.44822745936363934,-0.4240944502346217
1772790166387437800,1.180437744140625,0.2276514022886753,0.3784622876115143,-0.3741019004449248
1772790166397503700,1.190503662109375,0.2151157458424568,0.2908370495200157,-0.31170316580757496
1772790166407570000,1.20056982421875,0.23259002773463724,0.17015505274012685,-0.2543073540240526
1772790166417634800,1.210634765625,0.18755495422184465,0.057045390910655254,-0.24744316734299063
1772790166427700700,1.22070068359375,0.161632577458024,-0.07066138993948698,-0.20824147615879773
1772790166437767000,1.230766845703125,0.21861352483034133,-0.19275325351729988,-0.17651362798660994
1772790166447831800,1.240831787109375,0.21400106259882448,-0.2900276328332722,-0.16611410678625105
1772790166457898000,1.25089794921875,0.17884207093417642,-0.4088790531851351,-0.19203531450629233
1772790166467963600,1.260963623046875,0.15504267767369745,-0.5233117803119123,-0.23931875146776435
1772790166478029800,1.27102978515625,0.1611713896870613,-0.6087056060895324,-0.2991124181732535
1772790166488094700,1.2810947265625,0.2136082638889551,-0.6509058945678174,-0.32569282045438885
1772790166498161000,1.291160888671875,0.24144845697283743,-0.6824011030279099,-0.36489918781369923
1772790166508226800,1.301226806640625,0.25547581328153607,-0.739350778479129,-0.40389571181461215
1772790166518291700,1.311291748046875,0.32944296676814555,-0.7689692332819104,-0.4111974131301045
1772790166528357600,1.321357666015625,0.35787294243872164,-0.8220883906595409,-0.3722190093077719
1772790166538423800,1.331423828125,0.3321148163259029,-0.9073203038737178,-0.30729134071469305
1772790166548489700,1.34148974609375,0.3786515265733003,-0.9258017169818281,-0.23800942243486642
1772790166558555000,1.351554931640625,0.44762803216576574,-0.9514202884934843,-0.18882351285293697
1772790166568620800,1.361620849609375,0.4587754491239786,-0.9940531231701374,-0.13283946756348014
1772790166578686700,1.371686767578125,0.47006315133571624,-1.0201606472425162,-0.06536927488073706
1772790166588752600,1.381752685546875,0.4844108256399631,-1.0301178315028547,-0.025946049900352954
1772790166598817800,1.39181787109375,0.4917758014500141,-1.0621475852310658,0.044243046352267265
1772790166608884000,1.401884033203125,0.4335866473317146,-1.1029432676084339,0.10959098618403076
1772790166618950000,1.411949951171875,0.41171150013208385,-1.1321170473836362,0.1383176067136228
1772790166629014800,1.422014892578125,0.3652548693835735,-1.148082824409008,0.1589874697767198
1772790166639080700,1.432080810546875,0.4080974012881517,-1.1367692571036516,0.16490882264971732
1772790166649147000,1.44214697265625,0.45690439455509185,-1.0976593358561395,0.2709109905615449
1772790166659212800,1.452212890625,0.3180307613939047,-1.0997814425766468,0.41119624408632516
1772790166669278000,1.46227783203125,0.225520235478878,-1.1569514827802776,0.5748156114473939
1772790166679343600,1.472343505859375,0.15418050788640975,-1.1843163134373724,0.7016152143247425
1772790166689409800,1.482409912109375,0.08117781551778316,-1.1126869552485643,0.730295219233632
1772790166699475700,1.492475830078125,0.04830196635425091,-1.0625463752903044,0.7481272285223006
1772790166709540900,1.502540771484375,-0.08502864572703837,-1.0327918730176984,0.7994349525637924
1772790166719606800,1.512606689453125,-0.20996026277542112,-0.9797525028780102,0.812139097444713
1772790166729673000,1.5226728515625,-0.28099194733202454,-0.9140420133441686,0.8455835402764379
1772790166739738600,1.532738525390625,-0.39478900690376756,-0.8766464947991073,0.8657444309040904
1772790166749803800,1.5428037109375,-0.5303133296370506,-0.8822012063167989,0.9157505708277225
1772790166759869700,1.55286962890625,-0.672910951757431,-0.8891358278855681,0.9913700215660035
1772790166769936000,1.562935791015625,-0.8308908519268036,-0.8512744453944265,1.0261462975233793
1772790166780000800,1.573000732421875,-0.8382833002656698,-0.7631180230356752,0.984394045073539
1772790166790066700,1.583066650390625,-0.8728162689864635,-0.6928608299829065,0.9585133154943585
1772790166800132900,1.5931328125,-0.9753168585181236,-0.6745557963550091,0.9451737953193485
1772790166810198800,1.60319873046875,-1.0749299099147318,-0.6931551367543637,0.9654334701463579
1772790166820264000,1.613263916015625,-1.0711784484267235,-0.7230376493208109,1.0462950593218208
1772790166830329900,1.623329833984375,-1.1137772347033024,-0.7362986974321305,1.1588425572238863
1772790166840395800,1.633395751953125,-1.2172399472653865,-0.794651079288125,1.255473524069786
1772790166850460700,1.643460693359375,-1.2547691751927137,-0.8137867185212672,1.2720591865591704
1772790166860526800,1.65352685546875,-1.2511568299144507,-0.7550986749701202,1.2649673286020755
1772790166870592800,1.6635927734375,-1.2719178783923386,-0.6248226281538606,1.20198231850937
1772790166880659000,1.673658935546875,-1.2693763772159814,-0.45692207634225485,1.134258443326503
1772790166890723600,1.6837236328125,-1.3908791888594627,-0.29080782342553135,1.1035133225813507
1772790166900789800,1.693789794921875,-1.496488265800476,-0.1533316359721124,1.0466500102393328
1772790166910855700,1.703855712890625,-1.5240560716837643,-0.0037764497987926005,0.9542635490953921
1772790166920920800,1.7139208984375,-1.5642004505455493,0.16866656774803995,0.8745296487756073
1772790166930986000,1.723986083984375,-1.4783447063446045,0.38197643321231006,0.7590167251966893
1772790166941052000,1.734052001953125,-1.2524468697249889,0.5893981174208224,0.5974963028762489
1772790166951118000,1.7441181640625,-0.9042945263117551,0.7828446138992905,0.4525592049576342
1772790166961183000,1.754182861328125,-0.5846966617316007,0.9302036052025854,0.3949578606646508
1772790166971249200,1.764249267578125,-0.38118659800887106,0.8805544620230793,0.4332275316957384
1772790166981315000,1.774315185546875,-0.19955752670466897,0.8628009247981011,0.5074228679150342
1772790166991381000,1.784381103515625,0.11509469816684723,1.0042007154360413,0.5184450510583818
1772790167001446000,1.79444580078125,0.4075806839376688,1.0941910752236843,0.5121503348283469
1772790167011512000,1.804511962890625,0.6726590228229761,1.1063277954801916,0.5465903645686805
1772790167021578000,1.814577880859375,0.8783259723186493,1.1193705246657133,0.6651164254236966
1772790167031643100,1.82464306640625,1.0191834727734326,1.1504735189378261,0.7438069541703909
1772790167041709000,1.834708984375,1.202934358537197,1.147177984523773,0.8207985700447111
1772790167051775000,1.84477490234375,1.3955781603306532,1.1290516684636474,0.8996952158227562
1772790167061841000,1.8548408203125,1.3903367525458334,1.0886217506587506,1.04852954037562
1772790167071906000,1.864906005859375,1.2916758873075247,0.95424893604815,1.1802622157409786
1772790167081972200,1.87497216796875,1.2009306174993515,0.8747405150473118,1.2772503254614769
1772790167092038100,1.8850380859375,1.143774898082018,0.863494021628797,1.3270396077640354
1772790167102104000,1.89510400390625,1.0122627335995436,0.8450354048743843,1.3601964658260344
1772790167112169000,1.9051689453125,0.7920172236531973,0.8043532658740877,1.4241880226127803
1772790167122235100,1.915235107421875,0.5752689081728458,0.7584311803936958,1.4496625094786286
1772790167132301000,1.925301025390625,0.36558804686069485,0.8420093350514769,1.421261175380647
1772790167142366000,1.935365966796875,0.09403203639388084,0.9660130235999822,1.3690773991569876
1772790167152431900,1.945431884765625,-0.21077099463641644,1.0482587606102227,1.316177583618462
1772790167162498000,1.955498046875,-0.45981414452195163,1.0880734691262244,1.2699864719383418
1772790167172564000,1.96556396484375,-0.49932022548019883,1.1507710405796765,1.2384171753287314
1772790167182629000,1.975629150390625,-0.49442076300084586,1.2542308305323122,1.2144282508455215
1772790167192695000,1.985695068359375,-0.521011832806468,1.3336512809887529,1.0908827543932944
1772790167202761000,1.995760986328125,-0.4434843564897775,1.4470643096789717,0.9587778116494416
1772790167212827000,2.005826904296875,-0.2970750671267509,1.5804776316076516,0.8394846388794481
1772790167222892000,2.01589208984375,-0.15428163017332552,1.485386149288714,0.7573588019218296
1772790167232958000,2.0259580078125,-0.0866834271967411,1.5132856713443994,0.875994168370217
1772790167243024100,2.036024169921875,-0.1131914948940277,1.4755232191830872,0.9770447052240371
1772790167253089000,2.046089111328125,-0.06666004534363747,1.1377984540209174,0.9415752593707293
1772790167263155000,2.056155029296875,-0.020581015735864638,0.96248280364722,0.9264628112390637
1772790167273221000,2.06622119140625,-0.016167290946841238,0.8182894367679953,0.9203044347397983
1772790167283287000,2.076287109375,0.07760054155290126,0.6506272237569093,0.9654072397265583
1772790167293352200,2.086352294921875,0.12212766554355621,0.5107485052064061,0.9945226403780281
1772790167303418000,2.096418212890625,0.06066928049623966,0.35856413957327604,0.9669007662199437
1772790167313484000,2.106484130859375,0.038620530295372005,0.2632441091954708,0.88925360904634
1772790167323549000,2.116548828125,0.05874912608861923,0.20375907004773616,0.8031672709599137
1772790167333615000,2.126614990234375,0.003238251268863678,0.10784721125662326,0.6944308557786047
1772790167343681000,2.136680908203125,-0.016408698487281798,0.03620966976135969,0.5572339601906016
1772790167353747200,2.146747314453125,0.07864742025732993,0.04176175093054771,0.4263861413683742
1772790167363812000,2.15681201171875,0.14094693230390548,0.041133682160079475,0.3058674453914165
1772790167373878000,2.1668779296875,0.136706810516119,-0.002099018105864525,0.2106277867734432
1772790167383944000,2.17694384765625,0.019638766449689864,-0.0828144768089056,0.11574110631160438
1772790167394010000,2.187010009765625,-0.14874328526854513,-0.13615063793808221,0.06425276500619947
1772790167404075300,2.1970751953125,-0.3473655769497156,-0.22938275612592696,0.05238996632024646
1772790167414141000,2.207140869140625,-0.4112742777585983,-0.30209084946215153,-0.005536226012930274
1772790167424206800,2.217206787109375,-0.33509763152897354,-0.33481121580302714,-0.014223098076507448
1772790167434272000,2.22727197265625,-0.2321557279706001,-0.3258680308908224,-0.05414104777127504
1772790167444338200,2.237338134765625,-0.16279460697472095,-0.33957010076791044,-0.04389138337038457
1772790167454404000,2.247404052734375,-0.15077332979142666,-0.4521460941120982,-0.019724837297946215
1772790167464470300,2.25747021484375,-0.21770167068243026,-0.5875406529858708,0.06762056093886494
1772790167474535000,2.267534912109375,-0.28343641787469387,-0.6522469339132309,0.15547113221883774
1772790167484601000,2.27760107421875,-0.30717326729297634,-0.6765227125138044,0.2709772607307881
1772790167494667000,2.2876669921875,-0.45682489957809447,-0.7107400394141674,0.38596616043560206
1772790167504733200,2.297733154296875,-0.6992576914131641,-0.7559644980192184,0.5093236600350588
1772790167514797800,2.3077978515625,-0.9999982953101396,-0.7943550189509987,0.6235889216404408
1772790167524864000,2.317864013671875,-1.2881360227435827,-0.7769637391671538,0.6545055264949798
1772790167534930000,2.327929931640625,-1.5790081435769796,-0.6501376866742968,0.5498943014848977
1772790167544995000,2.3379951171875,-1.875791534280777,-0.4598237891331315,0.3385008641012013
1772790167555061000,2.34806103515625,-2.104492737883329,-0.2524009358808398,0.07755641015022993
1772790167565127200,2.358127197265625,-2.2065081742465495,-0.09667276016101241,-0.1510153218537569
1772790167575192800,2.36819287109375,-2.1523335164666175,0.07848404638916254,-0.3490250345945358
1772790167585258000,2.378258056640625,-1.889383421781659,0.3737972184099257,-0.4991666423536837
1772790167595324200,2.38832421875,-1.4077420608550308,0.7632866576008498,-0.6122608143530786
1772790167605390000,2.39839013671875,-0.8386053718268871,1.1148626918524502,-0.6162979609146714
1772790167615455200,2.408455322265625,-0.4625999758481979,1.33907900512591,-0.5570047180119901
1772790167625521000,2.41852099609375,-0.06313596287071704,1.5696506787754594,-0.3179621531371027
1772790167635587000,2.428587158203125,0.2895417490124702,1.6382190419584512,-0.20419629242122173
1772790167645653000,2.438653076171875,0.5105535671561956,1.573309639674425,-0.0837481774624437
1772790167655718100,2.44871826171875,0.72837798743546,1.5886647374555467,0.13665157319754362
1772790167665784000,2.4587841796875,0.9100696025818585,1.3922276808589695,0.2080008723359555
1772790167675850200,2.468850341796875,1.0918559102743863,1.2357032401949166,0.33356172719858584
1772790167685916000,2.478916015625,1.1483078653365373,1.0761571136221288,0.534722524381429
1772790167695981000,2.48898095703125,1.042355674046278,0.8484449210569261,0.725671943347156
1772790167706047000,2.499046875,0.9178595258057117,0.5999716800138354,0.9467773580584674
1772790167716113200,2.509113037109375,0.7842080112069845,0.3716112526729703,1.1610842717360705
1772790167726178000,2.519177978515625,0.6702811877757311,0.22298691760897635,1.29291507371366
1772790167736244000,2.529243896484375,0.5076280350983142,0.17150369087010622,1.3984408562853932
1772790167746310000,2.539309814453125,0.30760055279433723,0.11259235995709896,1.507799641148746
1772790167756376000,2.5493759765625,0.0740174223691225,0.10732727903574704,1.5651064594745636
1772790167766441200,2.559441162109375,-0.2059440128713846,0.22386574627012013,1.6195656332843005
1772790167776507100,2.569507080078125,-0.4647866722375154,0.3566986379623413,1.6562383905127644
1772790167786573000,2.579572998046875,-0.7210884149491786,0.47322073858380315,1.5922091320641338
1772790167796638000,2.589637939453125,-0.9220137228757143,0.581279546764493,1.5044567604616284
1772790167806704000,2.5997041015625,-1.0287573568046093,0.6135968852624297,1.4663411109484732
1772790167816770000,2.60977001953125,-1.1095412045687436,0.6238713187783956,1.5112103263750671
1772790167826836200,2.619836181640625,-1.020968018102646,0.7309744336694478,1.5083796329937875
1772790167836900900,2.62990087890625,-0.7163368365079165,0.9559270983934401,1.4805615056112407
1772790167846967000,2.639967041015625,-0.5154308178037404,1.1544932759732007,1.4241985440067946
1772790167857033000,2.650032958984375,-0.5327887798398733,1.2071388244897125,1.3887547440513968
1772790167867099100,2.66009912109375,-0.5134732539951801,1.1874965509086846,1.4558580031178892
1772790167877164000,2.6701640625,-0.49356502295434473,1.1084046017542482,1.5705369600906967
1772790167887230200,2.680230224609375,-0.4763543604344129,0.9675701899141073,1.6577902961298823
1772790167897296000,2.6902958984375,-0.3375532079875469,0.8351704289421439,1.6522189257383346
1772790167907361000,2.700361083984375,-0.07258475921750068,0.7527204015314578,1.5980268784321843
1772790167917427000,2.710427001953125,0.11319792463481426,0.7253644848331808,1.564682827235013
1772790167927493000,2.7204931640625,0.24160569336116314,0.7591177013531327,1.4630688112795351
1772790167937558800,2.730558837890625,0.40489012967944144,0.7551531816363334,1.3331798640847206
1772790167947624000,2.7406240234375,0.5285609330117702,0.783203510339558,1.2246229701887816
1772790167957690000,2.750690185546875,0.5672521904557943,0.8558706871435046,1.142211594288051
1772790167967756000,2.760756103515625,0.6245984640091657,0.9327955213919281,1.0358687962450086
1772790167977821000,2.770821044921875,0.6935960123896598,1.006103626447916,0.9725487089790403
1772790167987886800,2.780886962890625,0.7387281165361403,1.0489195626065135,0.918023922587186
1772790167997953000,2.790953125,0.7524369084149599,1.1202017147928476,0.8615754746563732
1772790168008019000,2.80101904296875,0.7265379125267267,1.1711553646996617,0.8064202814064919
1772790168018083800,2.811083740234375,0.5872089368134736,1.148456041635573,0.7422692232090979
1772790168028149800,2.821149658203125,0.4940443309038877,1.191377191734314,0.6540723957747221
1772790168038216000,2.8312158203125,0.4558165993183851,1.3263789518982172,0.5513122785240412
1772790168048281900,2.84128173828125,0.3090852383941412,1.338541098856926,0.31353323077894746
1772790168058347000,2.851346923828125,0.016366028389334677,1.2133031923383473,0.0262542025340721
1772790168068413000,2.861412841796875,-0.22677228136658667,1.1476058545470238,-0.14588625186961143
1772790168078478800,2.871478759765625,-0.20239128882586954,1.0973273274227977,-0.19968740016203373
1772790168088544000,2.8815439453125,-0.09945581500828266,0.9864142988547682,-0.16016126279644669
1772790168098610000,2.89160986328125,-0.06688450174927711,0.8063622676089406,-0.048187345264945176
1772790168108675800,2.90167578125,-0.2065320418924093,0.6748024645924567,0.036379076078091745
1772790168118742000,2.911741943359375,0.07115677224099635,0.5977464051797986,0.44417858583163466
1772790168128807000,2.921806884765625,0.31988018865287304,0.6606351152911781,0.7696757010508328
1772790168138872800,2.931872802734375,-0.11145137322843074,0.6083811964407563,1.052572239895165
1772790168148939000,2.94193896484375,-0.7638029365599155,0.43430473247319457,1.2422472550109027
1772790168159004000,2.95200390625,-1.3213725219130514,0.2880062100082636,1.3901461984097956
1772790168169070000,2.962070068359375,-1.6991086872071026,0.22073007859289645,1.477872851049155
1772790168179135700,2.9721357421875,-1.8635691815674305,0.2287789450138807,1.5256471402674912
1772790168189202000,2.982201904296875,-1.8905097954630852,0.2965890371754765,1.5268568083181977
1772790168199266800,2.992266845703125,-1.774353605544567,0.4187394990727305,1.537340354540199
1772790168209333000,3.0023330078125,-1.518644568029046,0.6192348911494017,1.5333656056903302
1772790168219399000,3.01239892578125,-1.2343231840133666,0.7788216419935226,1.565845149012655
1772790168229465000,3.022465087890625,-0.9698831430315971,0.9361082992017269,1.5851229731954632
1772790168239529700,3.03252978515625,-0.7221890696674584,1.083187742911279,1.6336790604412554
1772790168249596000,3.042595947265625,-0.561344427716732,1.1842156295418738,1.7052030585594475
1772790168259661800,3.052661865234375,-0.5685539207041264,1.2504188710287212,1.8097412913985549
1772790168269727000,3.06272705078125,-0.6612199294418096,1.2199477449193596,1.9245693014532326
1772790168279793200,3.072793212890625,-0.7058329781502485,1.1026435540094972,2.052577257207036
1772790168289858800,3.08285888671875,-0.7183119359731673,1.0308829706564544,2.2185684682659805
1772790168299924700,3.0929248046875,-0.6262982536643743,1.0102078468963502,2.342076336121559
1772790168309990000,3.102989990234375,-0.5049228677928448,0.9968693496346474,2.382520282451808
1772790168320056000,3.11305615234375,-0.5064420401841402,0.9895388606160879,2.380341330977529
1772790168330122000,3.1231220703125,-0.5467752196162938,1.0206830636814237,2.383697801798582
1772790168340187000,3.133186767578125,-0.5776210242569446,1.0199617636695504,2.3977491235047577
1772790168350252800,3.143252685546875,-0.6619698710262775,1.0400140793561934,2.4121084882467985
1772790168360319000,3.153319091796875,-0.6919131738692522,1.137041790434718,2.4451719689369202
1772790168370385000,3.163385009765625,-0.5911240644305944,1.2641679949179292,2.4236662395715713
1772790168380450000,3.173449951171875,-0.5208095882326365,1.4034996009796856,2.399068535540253
1772790168390515700,3.183515625,-0.5248217464834452,1.474345115314424,2.3260208349861204
1772790168400582000,3.193581787109375,-0.4611047688543796,1.5237383840367198,2.2171992257393893
1772790168410647000,3.20364697265625,-0.3917103301107883,1.6021160474419593,2.178487071637809
1772790168420713000,3.213712890625,-0.36703590758144855,1.649026851698756,2.204860699300468
1772790168430779000,3.22377880859375,-0.39405835454165933,1.6418290491491556,2.216331941385567
1772790168440845000,3.233844970703125,-0.41824762390255926,1.644329049271345,2.1664413906656206
1772790168450910000,3.243909912109375,-0.41663668157458306,1.7045456175640223,2.0570111480012536
1772790168460975900,3.253975830078125,-0.388217811819911,1.767742078450322,1.8869860052511096
1772790168471041800,3.264041748046875,-0.3586585398584604,1.8016083999559283,1.7180578639574349
1772790168481108000,3.27410791015625,-0.40074937661290166,1.8369132298320532,1.5732542562253773
1772790168491173000,3.284173095703125,-0.4094108219742775,1.9001833404764532,1.3749506751045584
1772790168501238800,3.29423876953125,-0.3175403475284576,1.9540695367038248,1.2019625178303568
1772790168511305000,3.304304931640625,-0.22839842126369475,2.0362252573430535,1.0522129781287164
1772790168521369900,3.314369873046875,-0.17652794877290726,2.1047472971662877,0.8936788050774485
1772790168531436000,3.32443603515625,-0.17782149571478365,2.131704277674854,0.7524761444468051
1772790168541502000,3.334501953125,-0.20661329043507576,2.074524300599098,0.6200381703563034
1772790168551568100,3.344568115234375,-0.19298691614270208,2.0362802024006843,0.4949317081976682
1772790168561632800,3.3546328125,-0.1269862114906311,2.04340289388746,0.3994561219319701
1772790168571699000,3.364698974609375,-0.1162766014277935,2.0211992453858256,0.2827079574696719
1772790168581764900,3.374764892578125,-0.15067279202640055,1.9291031454905867,0.15215857360474763
1772790168591830000,3.384830078125,-0.1915308721154928,1.8437714251637458,0.04048150186166167
1772790168601896000,3.39489599609375,-0.2957558012217283,1.7351117284804582,-0.07488865224570035
1772790168611961900,3.4049619140625,-0.3590834872722625,1.6153201046690344,-0.2125118469543755
1772790168622027800,3.41502783203125,-0.2991670709699392,1.5460808564871549,-0.39255248002335424
1772790168632093000,3.425093017578125,-0.27926760775744913,1.467099381969869,-0.6172206287175417
1772790168642159000,3.4351591796875,-0.3417453989803791,1.32714306813851,-0.8045802064977586
1772790168652225000,3.44522509765625,-0.5166846172571182,1.1377516922697424,-0.8969095306269824
1772790168662290000,3.4552900390625,-0.7651105120271444,0.8673542041882872,-0.9214185334615409
1772790168672355800,3.46535595703125,-0.9019880029350519,0.6168598325811326,-0.9629019058421253
1772790168682422000,3.475422119140625,-0.9155115013748407,0.5156821622163057,-0.9910983650177717
1772790168692488000,3.485488037109375,-1.0084060581713914,0.42976723517403004,-0.9558249531932175
1772790168702553000,3.495552978515625,-1.2198767255097627,0.2871887561455369,-0.9514616434171795
1772790168712618800,3.50561865234375,-1.323117319753766,0.2258449373885989,-0.9976453024432063
1772790168722685000,3.515684814453125,-1.3243711192071437,0.27451515253335235,-1.0494310192599892
1772790168732750800,3.525750732421875,-1.339296301138401,0.2609269182942808,-1.1039918998785316
1772790168742816000,3.53581591796875,-1.3882909259319305,0.1795377981133759,-1.1055747851558029
1772790168752882000,3.5458818359375,-1.4063508987575768,0.1460993466310203,-1.0636442535296082
1772790168762948000,3.555947998046875,-1.3533201503157615,0.15277853213399648,-1.020290849493444
1772790168773013000,3.566012939453125,-1.3821610448747872,0.0669317018918693,-1.0428463801726697
1772790168783079000,3.576078857421875,-1.4966004940032958,-0.10894289753884076,-1.108461738768965
1772790168793144800,3.586144775390625,-1.4982354017287491,-0.20128464275822042,-1.190744739049673
1772790168803211000,3.5962109375,-1.3376689921975136,-0.18763211111128328,-1.2628444912292063
1772790168813276000,3.60627587890625,-1.1585124484866858,-0.16931421800181268,-1.33668699542284
1772790168823341800,3.616341796875,-1.0683844337940216,-0.2074906577914953,-1.3679765983082353
1772790168833408000,3.626407958984375,-1.0670879642426967,-0.35199162931516764,-1.3988197726003826
1772790168843473000,3.636472900390625,-1.0456272430628537,-0.531189235688746,-1.3827411828503011
1772790168853539000,3.6465390625,-0.9490168806135654,-0.6438355177901685,-1.34632444620952
1772790168863605000,3.65660498046875,-0.8384761924892663,-0.687522391564399,-1.3877024585194886
1772790168873671000,3.6666708984375,-0.7571656905025244,-0.6900121625535189,-1.4112820715494454
1772790168883735800,3.67673583984375,-0.6336696592152118,-0.6876639919921755,-1.3990741857528686
1772790168893802000,3.686802001953125,-0.542916206100583,-0.6661017101339995,-1.380856830408424
1772790168903868000,3.696867919921875,-0.4838227966189384,-0.6473202911660075,-1.3321806239143013
1772790168913932800,3.706932861328125,-0.4133896624773741,-0.6143322137996554,-1.2744082339033485
1772790168923998700,3.716998779296875,-0.3847270470947027,-0.5908711125828325,-1.2452816542707383
1772790168934065200,3.727065185546875,-0.3392307858109474,-0.5220489207692444,-1.247473611357063
1772790168944131000,3.737131103515625,-0.3476403022378683,-0.47198593609184025,-1.2511816720947622
1772790168954196200,3.7471962890625,-0.39529169572889805,-0.48027694070562715,-1.3076128766298294
1772790168964262100,3.75726220703125,-0.3822662099391222,-0.5226201447859407,-1.4082872736476362
1772790168974328300,3.767328369140625,-0.38770050994753835,-0.5884460773929954,-1.5331164532348514
1772790168984393200,3.777393310546875,-0.3157394355863333,-0.6164673261322081,-1.5972481491446495
1772790168994459100,3.787459228515625,-0.13622516447901725,-0.6576330108657479,-1.6458245485261083
1772790169004525300,3.797525390625,-0.07939502375423908,-0.8021339823894202,-1.6912820852346717
1772790169014591200,3.80759130859375,-0.1923854431182146,-0.8837902290739118,-1.687139286341518
1772790169024656100,3.81765625,-0.2814800231099129,-0.960584568810463,-1.6554561540938912
1772790169034722000,3.82772216796875,-0.17432196316123008,-1.0659767881304025,-1.6753434884771703
1772790169044788200,3.837788330078125,-0.05532908851206302,-1.023090124823153,-1.7405083268269896
1772790169054854100,3.847854248046875,-0.09781681562960147,-0.8704977629110217,-1.827573154556751
1772790169064919300,3.857919189453125,-0.19957623140513897,-0.7520407487042248,-1.9245915132850406
1772790169074985200,3.867985107421875,-0.2420253800779581,-0.6579102203719317,-1.9566921402923763
1772790169085051100,3.878051025390625,-0.31849019559919833,-0.5383312163978815,-1.9435769303925334
1772790169095116000,3.888115966796875,-0.35406770493686196,-0.3547786296851933,-1.9029506132327019
1772790169105182200,3.89818212890625,-0.2173117945820093,-0.1255975336112082,-1.8346831326924264
1772790169115248000,3.908248046875,-0.05673194104731082,-0.036583617640286684,-1.8481744824282824
1772790169125314300,3.918314208984375,0.03530687570273876,-0.16124883883744479,-1.9297462656997144
1772790169135379200,3.928379150390625,0.2980319294601679,0.2942423279188573,-1.5808347744822502
1772790169145445000,3.938445068359375,0.4912187520891428,0.47599487947225566,-1.5219783886268734
1772790169155511000,3.948510986328125,0.6293132175713777,0.6822536573812366,-1.307352764388919
1772790169165576200,3.958576171875,0.8817892645150422,0.7616036729499698,-1.1798505662001668
1772790169175642400,3.968642333984375,1.130115206041932,0.681173899320513,-1.155530656196922
1772790169185708300,3.978708251953125,1.308244160270691,0.6391966059431433,-1.1205097578287124
1772790169195774000,3.98877392578125,1.2664309714138506,0.6235954244464635,-1.048877477030456
1772790169205839000,3.998839111328125,1.2712860102295875,0.4137717936627567,-1.0489923355817794
1772790169215905300,4.0089052734375,1.4839438415259123,0.14948445902466773,-0.9768864459224045
1772790169225970200,4.01897021484375,1.6046066952139137,-0.0008740063555538654,-0.9032295274287462
1772790169236036000,4.0290361328125,1.5471505315452814,-0.10669278052449226,-0.86726024229452
1772790169246102000,4.03910205078125,1.501345058181882,-0.03869987914189696,-0.7450453368589282
1772790169256168200,4.049168212890625,1.5896774216294287,0.051610652510821815,-0.598112900404632
1772790169266233000,4.059233154296875,1.6830805124700068,-0.035045448287576435,-0.5160583020523191
1772790169276299300,4.06929931640625,1.638086940011382,-0.1309274964623153,-0.420308940346539
1772790169286365200,4.079365234375,1.283774904924631,0.1093333581611514,-0.2906210686817765
1772790169296430000,4.08943017578125,1.1777385424822568,-0.22101517914459107,-0.2152270972624421
1772790169306496300,4.099496337890625,1.1737456734538079,-0.8612421510487794,-0.29589988586753607
1772790169316562200,4.109562255859375,0.8563654849231243,-0.5583718416467308,-0.19965937964394687
1772790169326628000,4.119628173828125,0.7301239543199539,-0.1880817545749247,-0.11157485347762704
1772790169336693200,4.129693359375,0.8307961593806743,-0.3499212527818978,-0.19104118890240787
1772790169346759200,4.13975927734375,0.845263660672307,-0.39553485683500766,-0.23805516127273438
1772790169356825000,4.1498251953125,0.6773989108264445,-0.38169030974730844,-0.23086174263730644
1772790169366891300,4.159891357421875,0.6390320630311965,-0.48339697242230173,-0.19883271956145762
1772790169376956200,4.1699560546875,0.698151775997877,-0.5858684819899499,-0.1399425775669515
1772790169387022300,4.180022216796875,0.6740794110149144,-0.6932780324816703,-0.05572912068031728
1772790169397088000,4.190087890625,0.5267220271468163,-0.8312270981438458,0.03803396257907152
1772790169407153200,4.200153076171875,0.393754987680912,-0.990960563982278,0.1242622664194554
1772790169417219000,4.210218994140625,0.35281449000537396,-1.0990274093389512,0.2462912208288908
1772790169427285200,4.22028515625,0.22809856153428554,-1.1900265077777206,0.35894101006165147
1772790169437351200,4.23035107421875,0.04636427628993988,-1.2847387815207243,0.47999184015393254
1772790169447416000,4.240416015625,-0.08370061199367046,-1.34302365109846,0.5675955970659852
1772790169457482000,4.25048193359375,-0.21479601236879825,-1.342067519417405,0.6188491067022085
1772790169467548200,4.260548095703125,-0.45772740137577056,-1.3596443849012254,0.7045191190727055
1772790169477613300,4.27061328125,-0.7856202160924672,-1.4374204291515051,0.7879721129808575
1772790169487679200,4.28067919921875,-1.1933902851223945,-1.516270532374084,0.8456067019563168
1772790169497745200,4.2907451171875,-1.5185750099241733,-1.55111139800027,0.9179618171364069
1772790169507811000,4.30081103515625,-1.7121119611650704,-1.464595728585869,0.9281565364796668
1772790169517876200,4.310876220703125,-1.855341451448202,-1.3274120943382381,0.8651529678169637
1772790169527942100,4.320942138671875,-2.0247341415137052,-1.2261952610068023,0.833255681362003
1772790169538008300,4.33100830078125,-2.2038450925171373,-1.1828700601518154,0.8144900444850325
1772790169548073000,4.341072998046875,-2.271362631472945,-1.21070616158247,0.8059295752801
1772790169558139100,4.35113916015625,-2.3343968875348566,-1.2390046198278666,0.8731916781701147
1772790169568205000,4.361205078125,-2.5147335809409617,-1.2416681399486957,0.9187132930908352
1772790169578271200,4.371271240234375,-2.7633582131534813,-1.2573726356893777,0.895060103368014
1772790169588336000,4.381336181640625,-2.949583380076289,-1.2513874237999318,0.8426828503988683
1772790169598402300,4.39140234375,-2.9996225454866883,-1.1804963167577982,0.8007108177185058
1772790169608468000,4.401468017578125,-2.9468296974539756,-1.1137936013162135,0.7425386878002435
1772790169618533000,4.411533203125,-2.7041905693918467,-0.9749882110856473,0.7188829407941549
1772790169628599000,4.42159912109375,-2.3461703274369237,-0.8463549630403518,0.6682359456837177
1772790169638665200,4.431665283203125,-1.9926503195106982,-0.7513244171284139,0.5841646006815135
1772790169648731100,4.441731201171875,-1.5746593007177114,-0.653238867560029,0.5501267220012843
1772790169658796000,4.451796142578125,-1.0850929920107126,-0.5587133485607803,0.5493965080305934
1772790169668862200,4.4618623046875,-0.7140162846058606,-0.4683222990177571,0.5771115403648466
1772790169678928100,4.47192822265625,-0.5347299770355224,-0.4256333502396941,0.6131451229069381
1772790169688993300,4.4819931640625,-0.378230670812726,-0.40178602618426085,0.6525318152692169
1772790169699059200,4.49205908203125,-0.1711632068693638,-0.3605509294763207,0.6874724149428307
1772790169709125400,4.50212548828125,0.10074936195015907,-0.31977482858225703,0.7347470840759575
1772790169719191000,4.51219091796875,0.2853308533191681,-0.2947662056624889,0.7744013413332402
1772790169729256200,4.522256103515625,0.34816111124157906,-0.2883963783696294,0.7955404293432832
1772790169739322000,4.532322021484375,0.3895937763482332,-0.2859123064689338,0.7817831221476197
1772790169749388300,4.54238818359375,0.4850286652773618,-0.25480653571784495,0.7603069842029363
1772790169759453200,4.552453125,0.5548527276098728,-0.1915316027678549,0.7963292416334152
1772790169769519000,4.56251904296875,0.5817062477439642,-0.15992708871439099,0.8682925810169428
1772790169779585000,4.5725849609375,0.5619119984716177,-0.19094722700864075,0.9691594318669289
1772790169789651200,4.582651123046875,0.5496662648826838,-0.2276812129050493,1.0489018808193504
1772790169799716400,4.59271630859375,0.48599137282967564,-0.28704335632547734,1.1078692527685314
1772790169809782300,4.6027822265625,0.31608021184802054,-0.32275296761021016,1.2014650166369973
1772790169819848000,4.612847900390625,0.11615268278717994,-0.32131416697874665,1.3236466043248771
1772790169829913000,4.6229130859375,-0.19108079026043415,-0.302596314766258,1.3907432875201104
1772790169839979300,4.632979248046875,-0.6071691903024912,-0.1936526865750551,1.4384665772035716
1772790169850045200,4.643045166015625,-0.964588543754816,-0.058040101036429405,1.481046804910153
1772790169860111400,4.653111328125,-1.0887281336426735,0.0827551478371024,1.4547021110810339
1772790169870176000,4.663176025390625,-1.2425491605669259,0.28354849994704123,1.3738713554352522
1772790169880242200,4.6732421875,-1.3284715402632952,0.5012229903616011,1.3771148674011229
1772790169890308000,4.68330810546875,-1.2030232058644295,0.6620300767809152,1.388607152274251
1772790169900373200,4.693373291015625,-1.0223632718533278,0.5461357526689767,1.2216724498201161
1772790169910439200,4.703439208984375,-0.8268331009685993,0.6573346124410628,1.2552969984591007
1772790169920505300,4.71350537109375,-0.3880208279430866,1.123538604130596,1.3672956303067505
1772790169930571000,4.723571044921875,0.007746084082126617,1.1787244847796856,1.1061564575012772
1772790169940636200,4.73363623046875,0.2245931837618351,1.1191438763029873,0.852793983111903
1772790169950702000,4.7437021484375,0.12720248458981515,0.9779621123299002,0.7038065138239413
1772790169960768000,4.75376806640625,-0.11822130575478076,0.8248471878483891,0.5280913427386432
1772790169970833200,4.763833251953125,-0.09313070363998413,0.6954936627045273,0.48714178497381505
1772790169980899000,4.773899169921875,0.1929687959641218,0.6114031746104359,0.5263363157648593
1772790169990965200,4.78396533203125,0.4982055422365665,0.5741138929188251,0.5275601219387724
1772790170001031200,4.79403125,0.6341138958513737,0.5749485901772976,0.4954460509279743
1772790170011096000,4.804095947265625,0.614599632564187,0.7960933870509267,0.5787735918255522
1772790170021162000,4.814161865234375,0.7656757446944713,0.5668523774832487,0.4402337937286123
1772790170031228200,4.824228271484375,1.0342378340423106,0.24254706586450336,0.14813907229769974
1772790170041293000,4.83429296875,1.0178893413096666,0.1952349873304367,0.04285670656040311
1772790170051359200,4.844359130859375,0.8146504957437515,0.15080489397346972,-0.054980055878683924
1772790170061425000,4.8544248046875,0.7738081977456808,0.10687719718068837,-0.1191349134683609
1772790170071491000,4.864490966796875,0.7658762357026339,0.10354483788758516,-0.16865071259178221
1772790170081556000,4.874555908203125,0.814880797368288,0.1858998804911971,-0.2818681456446647
1772790170091622100,4.8846220703125,0.8123053939223289,0.28338293412178756,-0.4478830298401415
1772790170101688000,4.89468798828125,0.7077315052479505,0.390101433609426,-0.6733356799755245
1772790170111753000,4.9047529296875,0.6994418158084154,0.4348755180984735,-0.8109840821906924
1772790170121819100,4.914819091796875,0.6129179630875587,0.4734577622100711,-0.9793158650264143
1772790170131885000,4.924885009765625,0.3685924893736839,0.5464227529168129,-1.155659981665015
1772790170141951000,4.934950927734375,0.156692198446393,0.625079233263433,-1.2120227240737527
1772790170152016100,4.94501611328125,0.0604495002657175,0.6796233088776469,-1.239546179358661
1772790170162082300,4.955082275390625,0.1949737060457468,0.6524594076201319,-1.244636195974052
1772790170172148000,4.96514794921875,0.3520715626835823,0.6456424210816621,-1.3085802603572607
1772790170182213000,4.975213134765625,0.36666941235661504,0.6982651732444762,-1.328703303192556
1772790170192279000,4.985279052734375,0.3226765413731336,0.6985501276656985,-1.3234671561047433
1772790170202345200,4.99534521484375,0.2151204220175743,0.6115034201145172,-1.2493719923242925
1772790170212411100,5.0054111328125,0.08906067772209644,0.44129386070817705,-1.0563042660303412
1772790170222476000,5.01547607421875,0.030475802284479138,0.25973113263845443,-0.9572445376675576
1772790170232542000,5.0255419921875,0.08745558061301707,0.043159342768788335,-0.8916349512249231
1772790170242608000,5.035608154296875,0.16517711819708347,-0.0996437387958169,-0.8830397760327905
1772790170252673000,5.045673095703125,0.16600597023665903,-0.25126287176162004,-0.8601356511116027
1772790170262739200,5.0557392578125,0.061979194051027295,-0.4021396619275212,-0.7940848237074911
1772790170272804900,5.065804931640625,-0.14960136340260505,-0.5341977698549628,-0.6891500658314674
1772790170282871000,5.07587109375,-0.32820670297145843,-0.689927260749042,-0.5082890562903136
1772790170292936200,5.085936279296875,-0.5641793588817119,-0.7933040485933422,-0.3981172014784068
1772790170303002000,5.096002197265625,-0.8172539562404155,-0.797836431325972,-0.41074258203469216
1772790170313068000,5.106068115234375,-0.9768874688357114,-0.8171554643020034,-0.4415926244590431
1772790170323133000,5.1161328125,-0.9850035552740096,-0.8518240421012043,-0.3791921362560242
1772790170333199000,5.12619921875,-1.0313362673819064,-0.8441662208244204,-0.26121866778247055
1772790170343265000,5.13626513671875,-1.2151824302136898,-0.7746478634402155,-0.2248336414542049
1772790170353330200,5.146330078125,-1.3393728735059498,-0.6621636400327086,-0.22077150658182798
1772790170363396000,5.15639599609375,-1.3149421966046093,-0.5233148490518331,-0.264846722086519
1772790170373462300,5.166462158203125,-1.2270593304902315,-0.40706338206529613,-0.28079328295476735
1772790170383528000,5.17652783203125,-1.1060223827928304,-0.26899200519770383,-0.2367610298089683
1772790170393593000,5.186593017578125,-0.9137176036953926,-0.12718144180178642,-0.2106350202318281
1772790170403659000,5.196658935546875,-0.782696437600255,-0.047502924931049344,-0.16252536157928407
1772790170413725200,5.20672509765625,-0.6740536920517682,0.03385726141631603,-0.08689246683754026
1772790170423790000,5.2167900390625,-0.5215484239012003,0.09436609065383672,0.057635502290911966
1772790170433856000,5.22685595703125,-0.49229193427860735,0.040435763023793696,0.04421144563760608
1772790170443922000,5.236921875,-0.45065585555434223,0.1031482397854328,0.14809406411219386
1772790170453988000,5.246988037109375,-0.3327373321384191,0.1988657450482249,0.22028872803356497
1772790170464053200,5.25705322265625,-0.2914823616862297,0.24835809023082256,0.29073026467729357
1772790170474119200,5.267119140625,-0.19263678753077984,0.3807473298087716,0.24948537722770123
1772790170484185000,5.27718505859375,0.004925765964388847,0.5019312847614288,0.12015044718645512
1772790170494250000,5.28725,0.11277180817723273,0.6078878599658608,0.04526617885492742
1772790170504316200,5.297316162109375,0.2242529920220375,0.7030950776189565,-0.005625694394670426
1772790170514382000,5.307382080078125,0.331021760392189,0.8632844705313444,-0.04768441897779703
1772790170524448300,5.3174482421875,0.42897886127531526,1.048540207900107,-0.09537870176248252
1772790170534513000,5.327512939453125,0.4996177471220493,1.2051759999841452,-0.1628543378053233
1772790170544579000,5.3375791015625,0.5455950699210167,1.3062827970698474,-0.27208745046239347
1772790170554645000,5.34764501953125,0.6243646552532911,1.3337699389323592,-0.3259518367167562
1772790170564710100,5.357710205078125,0.7003951710104942,1.2735057321056722,-0.2406968714205548
1772790170574776000,5.367776123046875,0.6663502780675887,1.2179437116205691,-0.15893058849032968
1772790170584842000,5.377842041015625,0.5396288549929857,1.1559814687043428,-0.13808379795774817
1772790170594908000,5.387907958984375,0.510252538383007,1.0486980288103223,-0.14420651862174272
1772790170604973000,5.39797314453125,0.48147301862239833,0.9418725618168711,-0.12471559967752545
1772790170615039200,5.408039306640625,0.4959504567861557,0.8786053737819194,-0.08897899078801273
1772790170625105200,5.418105224609375,0.6001654490202665,0.8270154717981815,-0.047645036815479394
1772790170635170000,5.428170166015625,0.6655576663851738,0.7558022931948304,0.017857764784432947
1772790170645236000,5.438236083984375,0.7164893967211247,0.7548577058210969,0.05854512794911861
1772790170655302100,5.44830224609375,0.8163380104392767,0.7636202734693884,0.06728186703640968
1772790170665367000,5.458366943359375,0.9093693453580141,0.7373647192284465,0.09030837622825055
1772790170675433200,5.46843310546875,0.8962310468435287,0.7113479421794414,0.0925601006777957
1772790170685499100,5.4784990234375,0.8544500066906213,0.6880600055724382,0.07389262694567442
1772790170695565000,5.48856494140625,0.901853562900424,0.6432444200292229,0.03390347517821938
1772790170705630000,5.4986298828125,0.918797098916769,0.615440759563446,0.013019823233969509
1772790170715696000,5.508696044921875,0.888699482294917,0.5526429426059126,-0.04119607987180352
1772790170725762000,5.518761962890625,0.9000678485274314,0.47463849642723793,-0.08494652040153741
1772790170735827000,5.528826904296875,0.9812965174496173,0.4630319375246763,-0.16468158976510167
1772790170745893000,5.53889306640625,1.0251724840551615,0.42963820196688174,-0.21135047502480447
1772790170755959000,5.548958984375,1.0212971039265393,0.3715270815208554,-0.22606135661825535
1772790170766025000,5.55902490234375,0.981737246954441,0.32513533270210027,-0.3061480158984661
1772790170776090000,5.569090087890625,1.0414256997197866,0.3011240502566099,-0.36906602516956627
1772790170786156300,5.57915625,1.0569207904934883,0.23117928415387867,-0.3677282006945461
1772790170796222000,5.589221923828125,0.9487064994901419,0.1308773737102747,-0.3408721232771873
1772790170806287000,5.599287109375,0.8154933763086796,0.05982610767036676,-0.38098449956551195
1772790170816353000,5.60935302734375,0.8662667012125254,-0.053095045849680896,-0.38141426928490396
1772790170826419200,5.619419189453125,0.8979360971957444,-0.11472528033256531,-0.32089974095895885
1772790170836485000,5.629485107421875,0.915130393102765,-0.16270400608181954,-0.3446827676065266
1772790170846550000,5.639550048828125,0.9570499649435281,-0.24387539185881613,-0.3970499375730753
1772790170856616000,5.649615966796875,0.8583604581326246,-0.3179121034502983,-0.4022937565106898
1772790170866682000,5.65968212890625,0.7467331438153981,-0.41199090159535406,-0.374409724285081
1772790170876747000,5.6697470703125,0.6851812352657318,-0.4993564658373594,-0.30263109381869435
1772790170886813200,5.679813232421875,0.6361790116876364,-0.604418430289626,-0.22848741472139952
1772790170896879000,5.689879150390625,0.5564198307961226,-0.713780722284317,-0.2027843797966838
1772790170906945000,5.699945068359375,0.5307020366936922,-0.7892160486273467,-0.19246077337674797
1772790170917010200,5.71001025390625,0.5311924505591392,-0.8719270650617778,-0.1834426235321909
1772790170927076000,5.720076171875,0.44275136604011056,-0.9760077633917331,-0.17630948371663688
1772790170937141800,5.730141845703125,0.2691553790658712,-1.1104589039355517,-0.14858283400982616
1772790170947206400,5.740206298828125,0.1140589253783226,-1.2275650880552829,-0.12047018066011368
1772790170957272600,5.7502724609375,-0.04314648328721523,-1.343152245914191,-0.10813041211217642
1772790170967338500,5.76033837890625,-0.11108546252548694,-1.4479510293856261,-0.056537441388517615
1772790170977403600,5.770403564453125,-0.23644845672845838,-1.5402892674736677,0.03768047296628356
1772790170987469300,5.78046923828125,-0.35592823811173435,-1.6114726354606448,0.10829722004644572
1772790170997535500,5.790535400390625,-0.4201654402226209,-1.634123589338362,0.12508826891481875
1772790171007601400,5.800601318359375,-0.5213590388089419,-1.5781969733245669,0.18318273048698902
1772790171017666600,5.81066650390625,-0.5904793367862701,-1.4789064318805931,0.21167758808732032
1772790171027732700,5.820732666015625,-0.7485890008151531,-1.3620667897425591,0.22303024529404936
1772790171037798700,5.830798583984375,-0.9936451268911362,-1.250046238324046,0.2818039213020354
1772790171047863600,5.840863525390625,-1.225258418548107,-1.1924402909211813,0.32369740885347126
1772790171057929500,5.850929443359375,-1.3738468055158852,-1.0921367730423808,0.2782405297320336
1772790171067995600,5.86099560546875,-1.4953221446305514,-0.9774845579460263,0.2833281351946294
1772790171078061600,5.8710615234375,-1.5612708268344402,-0.9530139874257146,0.30204971373416484
1772790171088126700,5.881126708984375,-1.7113211030483244,-0.9835703076004981,0.37980409414190797
1772790171098192400,5.8911923828125,-1.9978204156249761,-1.0300411130048335,0.5720383287537842
1772790171108258600,5.901258544921875,-2.385381809362769,-0.9883663097053765,0.8289750083681195
1772790171118323500,5.911323486328125,-2.7591128306686876,-0.8154447148613632,1.0216038317881524
1772790171128389600,5.9213896484375,-3.0094530346274375,-0.6256394974946975,1.0063412345960736
1772790171138455600,5.93145556640625,-2.9754560724794863,-0.4019762880593538,0.8413437838148325
1772790171148520400,5.9415205078125,-2.8102199175715445,-0.14178060664907097,0.6578352554395794
1772790171158586600,5.951586669921875,-2.6442823363959786,0.11581029909029603,0.4818928149370476
1772790171168652500,5.961652587890625,-2.402223054048419,0.2953007509306073,0.2798484763853252
1772790171178718500,5.971718505859375,-2.0463789870887994,0.43956674465462564,0.15287753552906214
1772790171188783600,5.98178369140625,-1.697888205501437,0.5491657680146396,0.0749902129240334
1772790171198849500,5.991849609375,-1.2970102340728045,0.563123712348938,0.0772395992860198
1772790171208915500,6.00191552734375,-0.8774865988850593,0.5711391148917376,0.09154493228588252
1772790171218980600,6.011980712890625,-0.4510194281697273,0.6140050276719033,0.11064389277044683
1772790171229046500,6.022046630859375,-0.03229541892707348,0.7019540908902883,0.14058756093960253
1772790171239112700,6.03211279296875,0.22506664649248123,0.6114959674604237,0.19051318297293035
1772790171249178600,6.0421787109375,0.24400983189344405,0.4399083976991474,0.22942164509790017
1772790171259243500,6.052243408203125,0.3306254545509815,0.29145269720032807,0.21892502019861712
1772790171269309400,6.062309326171875,0.518557425391674,0.09923121247217058,0.3409782505327835
1772790171279375600,6.072375732421875,0.5060971722692251,-0.06280410056784749,0.5300487969493494
1772790171289440500,6.0824404296875,0.41287995938956734,-0.23525822403058408,0.6934967897988855
1772790171299506400,6.09250634765625,0.22367606891691683,-0.37259544140473005,0.8075822378579527
1772790171309572400,6.102572265625,0.000796118813753128,-0.4651208726279437,0.9230539526436478
1772790171319637500,6.112637451171875,-0.274040228497982,-0.4783575169503689,1.0139446953371167
1772790171329703700,6.12270361328125,-0.5966068797558546,-0.4497733736313879,1.1140950684808193
1772790171339769600,6.13276953125,-0.9734335289895534,-0.4108475767791271,1.20499406754598
1772790171349835500,6.14283544921875,-1.2371832496196031,-0.3815127612233162,1.1582000946018844
1772790171359900400,6.152900390625,-1.3824620736479758,-0.26849472320005296,0.9545694001741707
1772790171369966600,6.162966552734375,-1.3529969097107648,-0.045201223859935996,0.7181955430518835
1772790171380032500,6.173032470703125,-1.0584458081036805,0.23672873497456312,0.44943942896928635
1772790171390097700,6.18309765625,-0.6937380512088537,0.456810871052742,0.16692573369638994
1772790171400163600,6.19316357421875,-0.3783136729210615,0.7116767357423901,-0.1695019956588745
1772790171410229500,6.2032294921875,-0.30900925054848194,0.9487121985785663,-0.3984039825305342
1772790171420294400,6.21329443359375,-0.5321165796667338,0.9683400052428245,-0.4575245357474312
1772790171430360600,6.223360595703125,-0.8326753972560167,0.8327600067995489,-0.39718956523947413
1772790171440426500,6.233426513671875,-0.980543653255701,0.6406513347961008,-0.2775996745452285
1772790171450492700,6.24349267578125,-0.9469611171275377,0.48717327609062194,-0.1467806982249953
1772790171460557600,6.2535576171875,-0.5218284098863601,0.48149055427908893,-0.1043396780597046
1772790171470623500,6.26362353515625,0.07188567103743553,0.5970002629876137,-0.26333655498558656
1772790171480689400,6.273689453125,0.48128071092069147,0.5902580952510237,-0.4509903482057154
1772790171490754600,6.283754638671875,0.6285363879799842,0.4407891260564327,-0.5757310823244973
1772790171500820700,6.29382080078125,0.5699959362059831,0.3402902317360043,-0.665021952073276
1772790171510886400,6.303886474609375,0.48710137989819047,0.26371084992438554,-0.6477053449608385
1772790171520952600,6.31395263671875,0.48567339292168615,0.195620479516685,-0.6182842393610626
1772790171531017500,6.324017578125,0.3625204759836197,0.07583177831470966,-0.59243536622487
1772790171541083600,6.334083740234375,0.19206161799132823,-0.04503536577373743,-0.5741981006035581
1772790171551149600,6.344149658203125,0.21241291662454603,-0.08643529765456914,-0.5480269001778215
1772790171561214500,6.35421435546875,0.29498598589301106,-0.12424451156705617,-0.530342592264153
1772790171571280400,6.3642802734375,0.37575697417557236,-0.1659597930073738,-0.5030464794617145
1772790171581346600,6.3743466796875,0.46626317453086374,-0.20500731654316184,-0.5306392005905509
1772790171591411700,6.38441162109375,0.48072249251604077,-0.22675854510217905,-0.5264627916887402
1772790171601477600,6.3944775390625,0.3792763804733753,-0.3082286215648055,-0.3575144843898713
1772790171611543600,6.40454345703125,0.2695563610821962,-0.34846564714610573,-0.2620484696701169
1772790171621609500,6.414609375,0.42891397934556,-0.21514760228544472,-0.2757033028719947
1772790171631674600,6.424674560546875,0.691456662273407,-0.11274199756085872,-0.3121853598339483
1772790171641740500,6.434740478515625,0.8268693413257598,-0.10555676223188638,-0.3204396126339212
1772790171651806700,6.444806640625,0.7729583029180764,-0.18384119439572094,-0.24874263256900012
1772790171661871400,6.454871337890625,0.5696686039477586,-0.3145700995460152,-0.13679090860299764
1772790171671937500,6.4649375,0.4437602508217096,-0.3691325875997543,-0.045258872331306335
1772790171682003500,6.47500341796875,0.6200111362189055,-0.370390186445415,0.0289106718596071
1772790171692068600,6.485068603515625,0.7582458869546651,-0.405405677986145,0.06514182280041277
1772790171702134500,6.495134521484375,0.6666226652681827,-0.46836277715861796,0.08936799010559916
1772790171712200700,6.50520068359375,0.49590661764442917,-0.5388900193244218,0.18552973200455306
1772790171722266400,6.515266357421875,0.41790860120654105,-0.5360395983293652,0.2365140693105757
1772790171732331500,6.52533154296875,0.452545614823699,-0.46600043194144963,0.2609584824763238
1772790171742397400,6.5353974609375,0.49698330696523185,-0.3852177532210946,0.22192286857403815
1772790171752463600,6.545463623046875,0.41746845622360707,-0.3232064104661345,0.20212854623645543
1772790171762528800,6.55552880859375,0.17933716097474098,-0.2852849683508277,0.20462657359726727
1772790171772594400,6.565594482421875,-0.09557517418265342,-0.35743133615106343,0.2812629462931305
1772790171782660600,6.57566064453125,-0.27474749998450276,-0.5277078233137726,0.434682991201058
1772790171792726500,6.5857265625,-0.3752197985589504,-0.6292682093858718,0.5024780319239944
1772790171802791700,6.595791748046875,-0.40449791549146175,-0.6509601089730859,0.5575148594912142
1772790171812857600,6.605857666015625,-0.4065595241963863,-0.6950859586864709,0.6041665744204073
1772790171822923800,6.615923828125,-0.5230594129860401,-0.6010644436866045,0.5576410431541502
1772790171832988400,6.625988525390625,-0.7480325359761715,-0.4325830232471227,0.4760026974525302
1772790171843054600,6.6360546875,-0.998266941472888,-0.2999178893372416,0.3357385597810149
1772790171853120500,6.64612060546875,-1.2169348268389701,-0.14107961877286435,0.17914134614169597
1772790171863185700,6.656185546875,-1.2971820835083723,-0.01348199738562107,0.003986000896245241
1772790171873251300,6.666251220703125,-1.2320505629062652,0.11040361774116754,-0.15440591414012014
1772790171883317500,6.6763173828125,-1.031760630273819,0.2647825708091259,-0.3219888513699174
1772790171893383400,6.686383544921875,-0.8898942450374364,0.45981356000006196,-0.5075895297188312
1772790171903448600,6.696448486328125,-0.7971668615013361,0.6871215556785464,-0.6801902220454067
1772790171913514500,6.706514404296875,-0.6251847394645214,0.8692319807589054,-0.8882759231206029
1772790171923580700,6.71658056640625,-0.39280397056639194,1.045576681919396,-1.022063923580572
1772790171933645600,6.7266455078125,-0.22527415176331997,1.18297352052629,-1.0714567539114503
1772790171943712300,6.736712158203125,-0.1259095221698284,1.2346850030630827,-1.07101712038517
1772790171953778200,6.746778076171875,-0.08895195665061473,1.1815879113867878,-1.0728802108433098
1772790171963843300,6.75684326171875,-0.09025660950839519,1.0663520511835813,-1.014401937585324
1772790171973909500,6.766909423828125,-0.050970308780670166,0.9976239673942326,-0.9483877889297903
1772790171983975400,6.776975341796875,-0.0034083471387624737,0.9598360885307192,-0.9802414554387331
1772790171994041300,6.787041259765625,0.0436269602805376,0.9557301145166158,-1.0170866466246544
1772790172004106200,6.797106201171875,0.013739771538972854,0.9578735562860965,-0.9959488737888633
1772790172014172400,6.80717236328125,-0.018469722670316695,0.9661354809358715,-0.9710612469002604
1772790172024238300,6.81723828125,0.09239829771220684,1.0239806439220904,-0.9300985373929143
1772790172034303500,6.827303466796875,0.2088765591919422,1.077424941600859,-0.8741660761602222
1772790172044369200,6.837369140625,0.22874679630994796,1.0557689901098608,-0.8848749555706977
1772790172054435300,6.847435302734375,0.20579320622384548,1.0276718996554612,-0.8734079512692987
1772790172064500200,6.857500244140625,0.17507833448648452,1.014800143122673,-0.8393165888361632
1772790172074566400,6.86756640625,0.19582009374201298,0.9677753570973873,-0.8026848212052137
1772790172084632300,6.87763232421875,0.09215455208420753,0.88413407407552,-0.649753728858009
1772790172094698500,6.887698486328125,-0.0017015432208776474,0.7089934880077838,-0.45974173687286674
1772790172104763400,6.897763427734375,0.06667232030332088,0.5826762618198991,-0.3375188673265278
1772790172114829300,6.907829345703125,0.33061785576641556,0.5356564442306757,-0.2786216928030364
1772790172124895200,6.917895263671875,0.5226449869662523,0.47562429259419436,-0.2679636485306546
1772790172134960400,6.92796044921875,0.5684639043331146,0.42853842403143644,-0.24362342639174311
1772790172145026600,6.938026611328125,0.6182236682802439,0.3571040038928389,-0.17249032728727906
1772790172155092200,6.94809228515625,0.6217939279824495,0.22349603617489336,-0.05214967302465811
1772790172165157400,6.958157470703125,0.5876005664795637,0.08972001841366291,0.06040803574416786
1772790172175223300,6.968223388671875,0.5467570994377136,-0.03871756092905998,0.13742722461200318
1772790172185289500,6.97828955078125,0.46568975855708117,-0.16417729350477456,0.17758260892499236
1772790172195355400,6.98835546875,0.38648938059210775,-0.25988924580961464,0.10573756215889006
1772790172205420300,6.998420166015625,0.4021756100237369,-0.302535670620203,0.016234985888190567
1772790172215486200,7.008486328125,0.32732816657125946,-0.37340252000391483,-0.009633304334525018
1772790172225552400,7.018552490234375,0.19310615860819816,-0.46471126891374587,-0.008890386145887896
1772790172235617300,7.0286171875,0.14812018493413925,-0.4984326289907097,-0.040034908871632066
1772790172245683500,7.038683349609375,0.17495441584587096,-0.47732028285712,-0.05691490553193725
1772790172255749000,7.0487490234375,0.20891864476799965,-0.4689189497366547,-0.07249806731473654
1772790172265814300,7.058814208984375,0.2351139932543039,-0.46046530190706253,-0.15355627504084257
1772790172275880400,7.06888037109375,0.22103052284419536,-0.4484636062070727,-0.24924977837353943
1772790172285946400,7.0789462890625,0.12299392698407173,-0.4206511779129505,-0.20110137687949461
1772790172296012300,7.08901220703125,-0.08284721003472804,-0.5166051222801208,-0.2310957705888897
1772790172306077200,7.0990771484375,-0.1689870318740606,-0.5973804944768548,-0.27364540222780775
1772790172316143400,7.109143310546875,-0.07784370265901089,-0.49257104348093267,-0.25073972467035055
1772790172326209300,7.119209228515625,0.03796586577892303,-0.44986382839381694,-0.30610368356639517
1772790172336274400,7.1292744140625,0.06204758311212062,-0.5291726351693272,-0.31820739660244435
1772790172346340400,7.13934033203125,-0.0011076689809560775,-0.6191013278976082,-0.2784172197395004
1772790172356406500,7.149406494140625,-0.03882277486920357,-0.7233525604888796,-0.2394459215113893
1772790172366471200,7.15947119140625,-0.08418401159644126,-0.8300757361516355,-0.19475935090901328
1772790172376537300,7.169537353515625,-0.0808230107307434,-0.8645882466062903,-0.1872590034825727
1772790172386603300,7.179603271484375,0.0033937340915203094,-0.854967308562994,-0.23252980371369047
1772790172396669400,7.18966943359375,0.14840426257252692,-0.8425123161375522,-0.291849825025443
1772790172406734300,7.199734375,0.1765168428570032,-0.8754898721098899,-0.2833414330676198
1772790172416800300,7.20980029296875,0.1488981835693121,-0.935388168233633,-0.259067992554605
1772790172426866200,7.2198662109375,0.14180793304741382,-1.049396240207553,-0.20702512263897804
1772790172436931300,7.229931396484375,0.04963175365328788,-1.112789392709732,-0.16826096435552462
1772790172446997500,7.23999755859375,-0.07863222268819808,-1.1618836784854532,-0.14604128716769627
1772790172457063400,7.2500634765625,0.014707155266404152,-1.12963414452672,-0.1276180796533823
1772790172467128300,7.26012841796875,0.1147030685007572,-1.1000620130836962,-0.1731686466739513
1772790172477194200,7.2701943359375,0.09981003527343273,-1.1059928644374013,-0.25449820042103527
1772790172487260400,7.280260498046875,-0.005275894576311111,-1.0656766361400485,-0.27051497698128224
1772790172497325300,7.2903251953125,-0.13359189336597918,-1.1114069984406232,-0.23264623316759242
1772790172507391500,7.3003916015625,-0.2867395510733127,-1.1520958594426511,-0.18117471513282507
1772790172517457200,7.31045703125,-0.35374271076619623,-1.1255082967683672,-0.13498305546343325
1772790172527523300,7.3205234375,-0.35877310614883895,-1.1000015150681137,-0.086087982054241
1772790172537588500,7.33058837890625,-0.4650350940406322,-1.068793891377747,-0.0792716531028971
1772790172547654400,7.340654296875,-0.5941892972201108,-1.0245043755352496,-0.10423968828395008
1772790172557720300,7.35072021484375,-0.6304606340408325,-0.9468509347513318,-0.135154521306511
1772790172567785200,7.36078515625,-0.6530576657742262,-0.857561416709423,-0.11623256135666742
1772790172577851400,7.370851318359375,-0.6555395457178353,-0.8115428851172327,-0.08536828947756439
1772790172587917300,7.380917236328125,-0.7152934649348258,-0.7680866052284836,-0.0852474761094898
1772790172597982500,7.390982421875,-0.636386516958475,-0.7368380650058388,-0.06073176953950896
1772790172608048400,7.40104833984375,-0.6013374154090881,-0.7169868248492479,-0.060512318102549756
1772790172618114300,7.4111142578125,-0.6628501609921456,-0.6786360514059663,-0.06334182417374104
1772790172628180200,7.42118017578125,-0.8815899425506591,-0.6542986057460307,-0.09432988682929426
1772790172638245400,7.431245361328125,-1.1545979053914546,-0.6553714956745504,-0.12733893391843884
1772790172648311300,7.441311279296875,-1.2715092975914477,-0.6082236677914857,-0.19663948383349925
1772790172658377500,7.45137744140625,-1.2721797441989182,-0.4961816351935267,-0.28344449158329516
1772790172668442400,7.4614423828125,-1.3524544733971358,-0.3798351833999157,-0.3651088850416243
1772790172678508300,7.47150830078125,-1.4303390925884245,-0.2531742583408952,-0.42991095449365674
1772790172688574200,7.48157421875,-1.4253700720041989,-0.03213701349496841,-0.5423757425483315
1772790172698639400,7.491639404296875,-1.2676485305100678,0.19691227289289234,-0.5760657941715791
1772790172708705500,7.50170556640625,-0.9993348629653453,0.41545273248702286,-0.6135974697843194
1772790172718771200,7.511771240234375,-0.77483520270586,0.6172919403880834,-0.6132338241036981
1772790172728837400,7.52183740234375,-0.5418932927936315,0.8075111453831195,-0.5668023277964442
1772790172738902300,7.53190234375,-0.34263562581837176,0.9491969133555889,-0.5923778638839722
1772790172748968400,7.541968505859375,-0.12792495364546774,1.0974188050985336,-0.5085293678522109
1772790172759034400,7.552034423828125,0.029328385815024373,1.2381722606569527,-0.39225484878364947
1772790172769099300,7.562099365234375,0.11035773277282714,1.2264154796287416,-0.2386538395519368
1772790172779165200,7.572165283203125,0.17439269030988216,1.1859183418065309,-0.06438451989339664
1772790172789231400,7.5822314453125,0.21055647510290146,1.0710589137002826,0.08810580641636624
1772790172799296300,7.592296142578125,0.21491174770295618,1.0012611548528074,0.16271098381187765
1772790172809362400,7.602362548828125,0.2657049463510513,0.9822031109005213,0.21559556524865328
1772790172819428400,7.612428466796875,0.28482699545025825,0.9591527824416756,0.24592563891950994
1772790172829493200,7.6224931640625,0.2908119150787592,0.9567509819969534,0.280528384940885
1772790172839559400,7.632559326171875,0.36950025186836716,0.9461915940597653,0.35460714557580647
1772790172849625300,7.642625244140625,0.434548185840249,0.8960419540122151,0.3474019269047305
1772790172859691300,7.652691162109375,0.30257366454303264,0.8819114295899867,0.2776368647504598
1772790172869756200,7.662756103515625,-0.00753682524561882,0.8314487780705094,0.23165362366735934
1772790172879822300,7.672822265625,-0.2714256620854139,0.7763464840516447,0.21314872008580713
1772790172889888300,7.68288818359375,-0.3730845400959253,0.8067123962208628,0.15102231785012407
1772790172899953400,7.692953369140625,-0.46292847715020174,0.8655971313878893,-0.02310423233686015
1772790172910019300,7.703019287109375,-0.4905027127742767,0.8819441628158092,-0.1879099234056659
1772790172920085500,7.71308544921875,-0.4595201300114393,0.8548024733901023,-0.2176829659819603
1772790172930150100,7.723150146484375,-0.36872166871130463,0.8579992236047983,-0.22328257608730345
1772790172940215800,7.7332158203125,-0.16905951258838176,0.8703139307767153,-0.2618057104228064
1772790172950282000,7.743281982421875,-0.06420797601640224,0.8734957756832241,-0.2302355735629797
1772790172960348000,7.753347900390625,-0.22163082682490348,0.821318721461296,-0.19761190906222909
1772790172970413000,7.7634130859375,-0.25125556523799897,0.7911755121320485,-0.22348664729204026
1772790172980479000,7.77347900390625,-0.0665840574979782,0.7032745258390903,-0.24231753142494708
1772790172990545200,7.783545166015625,0.0772200178027153,0.5600578950375318,-0.21399282449344173
1772790173000609800,7.79360986328125,0.07514379605054855,0.3880389481216669,-0.17795984473954884
1772790173010676000,7.803676025390625,0.09485855034589767,0.23572715671658515,-0.16642417738242074
1772790173020742000,7.813741943359375,0.16907003398239612,0.09005319589078425,-0.13881731813037768
1772790173030807000,7.82380712890625,0.25298399646580216,0.004160626810789108,-0.07416081289518624
1772790173040872700,7.833872802734375,0.2824935840666294,-0.022932255037128924,-0.03086703009176999
1772790173050939000,7.84393896484375,0.33305881917774677,-0.038513855050504205,-0.09642400956433266
1772790173061004000,7.854004150390625,0.4724994385719299,-0.0450824197858572,-0.10376019767131656
1772790173071070000,7.864070068359375,0.6044821431756019,-0.040727147185802455,-0.06855813404992223
1772790173081135900,7.874135986328125,0.633164047780633,-0.06269231075644492,-0.044888650779426095
1772790173091202000,7.8842021484375,0.5111228914767504,-0.16286737994998693,-0.0033546076575294136
1772790173101267000,7.894266845703125,0.403106168872118,-0.23093057008981704,-0.006286569456197321
1772790173111332900,7.904332763671875,0.34162615651488304,-0.2797656204074621,-0.035883360416442155
1772790173121399000,7.91439892578125,0.3339683352380991,-0.28996435833871365,-0.12669223351273684
1772790173131464000,7.9244638671875,0.4231225364625454,-0.3270233384057879,-0.1569480729036033
1772790173141529900,7.93452978515625,0.5091320099204778,-0.4101195547655225,-0.16553345735408365
1772790173151595800,7.944595703125,0.5133002355158329,-0.49188598382622,-0.18414076186418532
1772790173161661000,7.954660888671875,0.49553252363502975,-0.5201742129385472,-0.2108544716687873
1772790173171726800,7.964726806640625,0.51994508035779,-0.5859533837944269,-0.21779095640107987
1772790173181793000,7.97479296875,0.44955870796740055,-0.6132105162933469,-0.22064857432190327
1772790173191858000,7.98485791015625,0.4441775994509458,-0.5563026341572403,-0.2198763843730092
1772790173201923800,7.994923828125,0.6785229464203119,-0.543703264825046,-0.2489329675093293
1772790173211989800,8.00498974609375,0.7829577188849449,-0.5049199451833963,-0.2713728724522516
1772790173222056000,8.015055908203125,0.6068927114486694,-0.5365425794154405,-0.2602320678979158
1772790173232121000,8.02512109375,0.40624622046351433,-0.5760200188010931,-0.2576400055781007
1772790173242187000,8.03518701171875,0.353256388553977,-0.59007864703089,-0.19266816904973239
1772790173252253000,8.0452529296875,0.29099077877700325,-0.5900082121431828,-0.1346612030979246
1772790173262317800,8.05531787109375,0.17361176906526088,-0.5615472568124532,-0.1357664243934676
1772790173272384000,8.065384033203125,0.10412263777554034,-0.5386120791658758,-0.1430222407406196
1772790173282450000,8.075449951171874,0.08671791398823261,-0.542636512376368,-0.14839173188451676
1772790173292514800,8.085514892578125,-0.01381751295030117,-0.5469473613128065,-0.10371369164846837
1772790173302580700,8.095580810546876,-0.2604249601215124,-0.6364958225518464,-0.040109599809348584
1772790173312647000,8.10564697265625,-0.3602063538223505,-0.7522051454856992,0.052829563313908874
1772790173322712000,8.115712158203126,-0.3365057447612285,-0.8075134834706783,0.10870404728166759
1772790173332778000,8.125778076171875,-0.40470483624041076,-0.7975982386559247,0.09958616338968276
1772790173342844000,8.135843994140625,-0.5089946472764015,-0.8730927478402852,0.15959186541065573
1772790173352909800,8.145909912109374,-0.6145639767289162,-0.9454027817696332,0.2196556542944163
1772790173362975000,8.15597509765625,-0.8219429908394813,-0.869920839805901,0.2065183056280017
1772790173373041000,8.166041015625,-1.0294581985503435,-0.8032984961241483,0.12945073844064026
1772790173383107000,8.176107177734375,-1.2029495561063288,-0.6977119232758879,-0.023426760555803776
1772790173393172000,8.186171875,-1.2517553803294896,-0.50079146707654,-0.20839538807887584
1772790173403238000,8.19623779296875,-1.2492115410655735,-0.30316344712972637,-0.3409119803635403
1772790173413303800,8.2063037109375,-1.3286013041228055,-0.16442659209072588,-0.48056565798651424
1772790173423369000,8.216368896484376,-1.4732593659043312,-0.0414072384044528,-0.5817031424714252
1772790173433435000,8.226434814453125,-1.5086661948502063,0.12336568290591239,-0.6949517378475517
1772790173443501000,8.2365009765625,-1.446843652665615,0.3099135059118271,-0.8275923949033022
1772790173453566000,8.24656591796875,-1.3337450967520474,0.49009004032015796,-0.9129742379821837
1772790173463632000,8.2566318359375,-1.2306886269032955,0.6323235053032636,-0.9628152504719794
1772790173473697800,8.26669775390625,-1.1807657813489436,0.7647597988933325,-1.0797987580601125
1772790173483764000,8.276763916015625,-1.0937480076313018,0.8198220531627536,-1.1616256120711563
1772790173493829000,8.2868291015625,-1.0693477258682251,0.8646160113960504,-1.2324196884796024
1772790173503894800,8.296894775390625,-0.9735381584078073,0.9486436633870005,-1.3524506740048527
1772790173513961000,8.3069609375,-0.8394476678699254,0.9872250307157635,-1.4062398395985365
1772790173524025900,8.31702587890625,-0.7790753244936466,0.9814970084577799,-1.4291738482013343
1772790173534092000,8.327092041015625,-0.7234487143397331,0.9161603206723928,-1.4399772740274668
1772790173544158000,8.337157958984376,-0.6391945601165294,0.9114850223377347,-1.4228317856982349
1772790173554222800,8.347222900390625,-0.5249234532922507,0.9491346617743373,-1.4347215454563498
1772790173564288800,8.357288818359375,-0.34353052883148194,0.9422992627963424,-1.4839412111774086
1772790173574355000,8.36735498046875,-0.11857026532292365,0.9199866009622811,-1.5405767061129212
1772790173584419800,8.377419921875,-0.009034370326995849,0.8940183392301201,-1.524672157755494
1772790173594486000,8.387486083984374,-0.053746203234791755,0.8716028015434741,-1.430644505275786
1772790173604552000,8.397552001953125,-0.1076759463429451,0.7816305619344115,-1.301389764331281
1772790173614617900,8.407617919921876,-0.1182628068089485,0.7217956864356995,-1.2540572275310755
1772790173624683000,8.41768310546875,-0.10564765538573265,0.6929688204020261,-1.195178410648182
1772790173634749000,8.4277490234375,-0.08536591485738754,0.6207903038978576,-1.111720229108259
1772790173644814800,8.43781494140625,-0.07897066086232661,0.5327893643617629,-0.9556726121757179
1772790173654879700,8.447879638671875,-0.062009589189290996,0.47454263483732934,-0.8109099940411746
1772790173664946000,8.45794580078125,-0.027841362127661702,0.40823008775711056,-0.6870908682793379
1772790173675011800,8.46801171875,0.10791560031771659,0.37758302055895326,-0.6165917562294752
1772790173685077000,8.478076904296875,0.23980478141903877,0.3333049028933048,-0.5285414245937019
1772790173695143000,8.488142822265624,0.27746728033721446,0.24810586903542278,-0.38822489914782343
1772790173705209000,8.498208984375,0.3072135993033647,0.2076931946262717,-0.3090245942480862
1772790173715274000,8.50827392578125,0.41594343861341476,0.17549772894233465,-0.27131405493710187
1772790173725340000,8.51833984375,0.5214718515336513,0.09437047456800937,-0.21946561161503195
1772790173735405800,8.52840576171875,0.5615764829069375,0.0013458616510033607,-0.12802213040962815
1772790173745472000,8.538471923828125,0.547336360630393,-0.1122679503083229,-0.04306348117887974
1772790173755537200,8.548537109375,0.49386079103052616,-0.23525252494215965,-0.014281513732858001
1772790173765602800,8.558602783203124,0.4717372220277786,-0.2918260605573654,-0.012694463737122713
1772790173775668700,8.568668701171875,0.4569418039560318,-0.3126356243520975,-0.027843846345692872
1772790173785734000,8.57873388671875,0.41710722169578074,-0.28949118786901235,-0.03732059014532715
1772790173795800000,8.588800048828125,0.3566080370694399,-0.19652122774869202,-0.06992752270698548
1772790173805866000,8.598865966796875,0.3619108196526766,-0.06516776095926761,-0.16872779641598462
1772790173815931000,8.608930908203124,0.4057125519782305,0.031055063477158546,-0.2938843082614243
1772790173825996800,8.618996826171875,0.39599253747463226,0.07619213605970143,-0.3604022051880136
1772790173836063000,8.62906298828125,0.34035715949237344,0.07246084057688712,-0.4013797834709286
1772790173846127900,8.6391279296875,0.33141163649260996,0.05626227770894766,-0.41917182607538994
1772790173856194000,8.649194091796875,0.32719431105852126,0.007360884156823158,-0.43645522503796963
1772790173866259700,8.659259765625,0.25328268715143204,-0.053118134464323515,-0.5000430598620325
1772790173876324900,8.669324951171875,0.28473873264491556,-0.05912205105423927,-0.5832658252108842
1772790173886391000,8.67939111328125,0.4347463387608528,-0.09130348821282386,-0.6224632055461407
1772790173896457000,8.68945703125,0.5313146156340837,-0.16391367413252592,-0.6631165568433701
1772790173906523000,8.69952294921875,0.567514056262374,-0.24084756847023964,-0.6776023244440555
1772790173916587800,8.709587890625,0.5393664046645165,-0.3805623286306858,-0.7160353693433106
1772790173926654000,8.719654052734375,0.4172930996567011,-0.5282146037921309,-0.7263714699186384
1772790173936720000,8.729719970703124,0.26464403912127016,-0.5879904425799847,-0.7087232196990401
1772790173946789000,8.7397890625,0.31987375891208647,-0.5610787625178695,-0.7561866894025355
1772790173956855000,8.74985498046875,0.4557230758160352,-0.525577241025865,-0.8436407356455922
1772790173966921200,8.759921142578126,0.47014381535649297,-0.5140671282351017,-0.9197156020011752
1772790173976985900,8.76998583984375,0.37048224864304063,-0.5381152355596422,-0.960570028828457
1772790173987052000,8.780052001953125,0.25940321585834025,-0.5914104801565409,-0.9912844621744006
1772790173997118000,8.790117919921874,0.0980856956988573,-0.6235881179228424,-0.9571831628691404
1772790174007183000,8.80018310546875,-0.07838263184130191,-0.6417319696396588,-0.9631590224083513
1772790174017249000,8.8102490234375,-0.0927484263241291,-0.5709387700140476,-1.0329865918722003
1772790174027315200,8.820315185546875,-0.10176116934120655,-0.48703123727142805,-1.1324649840384722
1772790174037380900,8.830380859375,-0.19400515327453613,-0.42578415688723326,-1.2166693808358162
1772790174047446000,8.840446044921874,-0.3749988492846489,-0.398773692625761,-1.2715711107812822
1772790174057512000,8.850511962890625,-0.45568332832753655,-0.3102785398319363,-1.3183417759150267
1772790174067578000,8.860578125,-0.489700164219737,-0.305141176943481,-1.3878633481696248
1772790174077643300,8.870643310546875,-0.572495351806283,-0.3595151566877961,-1.3723716183967887
1772790174087709000,8.880708984375,-0.6195031866967677,-0.410144689206779,-1.326554600726068
1772790174097775000,8.890775146484375,-0.6117571026146411,-0.4667378063052892,-1.3229820029363035
1772790174107840000,8.900840087890625,-0.5658171892166137,-0.4912222592204809,-1.3165478782355784
1772790174117906200,8.91090625,-0.5716390272378922,-0.5783601521864533,-1.2268655614838004
1772790174127972000,8.92097216796875,-0.7559346874028444,-0.7613993825495242,-1.0368920748781412
1772790174138037000,8.931037109375,-1.0158861847937106,-0.9543690552964806,-0.8834249028928577
1772790174148103000,8.94110302734375,-1.1266998446404932,-0.9753668351396918,-0.8115297333747148
1772790174158169000,8.951169189453125,-1.1271896739840508,-0.906277224561572,-0.8521610920358449
1772790174168234000,8.96123388671875,-1.0879892979741095,-0.8032347832381724,-0.9114399410869926
1772790174178300200,8.971300048828125,-1.0506985549777745,-0.6635422349095345,-0.9694166945636272
1772790174188365800,8.98136572265625,-0.9574375029563903,-0.4416957195073366,-1.0175256225638092
1772790174198432000,8.991431884765625,-0.7838011839717626,-0.17735884663909673,-1.0824679772693664
1772790174208497200,9.0014970703125,-0.6232178233057261,0.04122194496542215,-1.1183606169708074
1772790174218563000,9.01156298828125,-0.39092473269104955,0.23788725735992192,-1.1823644487172364
1772790174228629000,9.02162890625,-0.02409574585855007,0.38134646474570033,-1.2354258845582604
1772790174238694000,9.03169384765625,0.23173311864435672,0.47697161554992196,-1.2086671300355345
1772790174248760000,9.041760009765625,0.1925859341263771,0.4446291426107287,-1.0355215902425348
1772790174258826000,9.051825927734376,0.1338619424790144,0.3624254911765456,-0.8784256333008408
1772790174268891100,9.06189111328125,0.10579437038004398,0.34351533126235007,-0.7295549953255802
1772790174278957000,9.07195703125,-0.07161386835873126,0.30237960327565666,-0.5528484020501375
1772790174289023200,9.082023193359374,-0.09665361706912518,0.35051965706646443,-0.42780134192854163
1772790174299088100,9.092088134765625,-0.07278992640078068,0.36013679571747775,-0.3163036453403532
1772790174309154000,9.102154052734376,-0.034189854371547694,0.4110670647487044,-0.22971944073438644
1772790174319220000,9.112219970703125,0.03286123611629009,0.4718304532691836,-0.21107158501818774
1772790174329285000,9.12228515625,-0.027681203129887578,0.5309872833758592,-0.245086959605664
1772790174339351000,9.13235107421875,-0.16958733585476873,0.6147320267722011,-0.2721992768064141
1772790174349417000,9.1424169921875,-0.29305881722271443,0.7610352254122495,-0.3246380507044494
1772790174359483000,9.15248291015625,-0.4273147274553776,0.9783049344182014,-0.38898675036579367
1772790174369548000,9.162548095703125,-0.6647451809585094,1.19670890815109,-0.4946745185662061
1772790174379614200,9.1726142578125,-1.0790320845365524,1.351668875977397,-0.5836046287111938
1772790174389680000,9.18268017578125,-1.481706291732192,1.4073103914394973,-0.6766317989114672
1772790174399745000,9.1927451171875,-1.5618886664718388,1.4793778487846254,-0.7459929929725825
1772790174409811000,9.20281103515625,-1.550399888730049,1.6188295740947127,-0.7511863968972117
1772790174419877000,9.212877197265625,-1.7509937727451323,1.7066040113985537,-0.7880052845980972
1772790174429942000,9.22294189453125,-1.7738187680155038,1.7855547985166311,-0.8562502610456197
1772790174440008000,9.233008056640625,-1.5728624804288147,1.9488582317963241,-0.9399594216719269
1772790174450073900,9.243073974609375,-1.361799224847555,2.0096885480731723,-0.9950529478624462
1772790174460139000,9.253138916015626,-1.2265069573044776,2.049869167292118,-1.0777546850118787
1772790174470205200,9.263205078125,-1.1681214038312435,2.026538268326223,-1.1323754791241138
1772790174480271000,9.27327099609375,-1.0748404780656098,1.9224194299429653,-1.0660860206585376
1772790174490336000,9.2833359375,-0.9814192670464515,1.7738716672465205,-0.894198518102616
1772790174500402000,9.29340185546875,-0.8756424323230981,1.5438663953080773,-0.7423722451921552
1772790174510468000,9.303468017578124,-0.6872814224153757,1.3099658694967626,-0.630398090198636
1772790174520534000,9.313533935546875,-0.6253454829841851,1.1154884225353598,-0.5388648118179291
1772790174530599200,9.32359912109375,-0.5100713365972042,1.029990405730903,-0.50248139292486
1772790174540665000,9.3336650390625,-0.25621698703765866,0.9607043957978486,-0.48261868152618403
1772790174550731000,9.34373095703125,-0.1341618022084236,0.867938433817029,-0.4857460197664797
1772790174560796000,9.3537958984375,-0.13898469232022762,0.8229659041464328,-0.4797011866442859
1772790174570862000,9.363862060546875,-0.14851298364400864,0.8040335324004292,-0.46494149747304614
1772790174580928000,9.373927978515624,-0.14565876325666904,0.7916618343442678,-0.4952067257467657
1772790174590993000,9.383992919921875,-0.2755687532395124,0.810953102530539,-0.5821851903673261
1772790174601059000,9.39405908203125,-0.4481429959505796,0.8198898577019572,-0.6776303814947605
1772790174611125000,9.404125,-0.39969080747067925,0.8612439046144486,-0.7269488314151763
1772790174621190100,9.414190185546875,-0.22228607586324214,0.9034291416540742,-0.7425427794534712
1772790174631256000,9.424256103515624,-0.20870821688771246,0.9018272594153881,-0.7701238101445138
1772790174641322200,9.434322265625,-0.3269353678613901,0.88996204957664,-0.7438627029456197
1772790174651387000,9.444386962890626,-0.2940215247750282,0.8729808118984103,-0.6656877955708652
1772790174661453000,9.454453125,-0.18252748144865036,0.8837278313621878,-0.5898744296956807
1772790174671519000,9.46451904296875,-0.18263561799824238,0.8960168195709586,-0.5455744655244052
1772790174681585200,9.474585205078125,-0.20779460917413234,0.9501908928290009,-0.5297239854417741
1772790174691650000,9.484650146484375,-0.30466391482055183,0.9876508549124002,-0.5083738850295544
1772790174701716000,9.494716064453126,-0.39959903753399845,0.9590729952037333,-0.38817645689621566
1772790174711782000,9.504781982421875,-0.4271154054909944,0.906404065811634,-0.2701954627033323
1772790174721847000,9.514846923828125,-0.47804421321749685,0.9306570480585098,-0.23547537391260265
1772790174731913200,9.524913330078125,-0.5525765993714332,0.8985115589961409,-0.16234299074970185
1772790174741979100,9.534979248046875,-0.5885340479373932,0.8340551611766218,-0.0278764334410429
1772790174752044000,9.5450439453125,-0.49059798984229563,0.8521887837603688,0.05482815325260162
1772790174762110000,9.55510986328125,-0.5167693729311228,0.8988482436046004,0.09217406050227582
1772790174772176100,9.565176025390626,-0.7746592616170644,0.9028761839464307,0.10285817079767584
1772790174782241000,9.575240966796875,-0.971886299547553,0.8848089045971631,0.12293204072900116
1772790174792307200,9.58530712890625,-1.056363741132617,0.8901745232835412,0.07539185252748429
1772790174802372900,9.595372802734374,-1.086455512535572,0.923058555753529,-0.016471461525186894
1772790174812438000,9.60543798828125,-1.067863040268421,0.9088365536555647,-0.10074432044886052
1772790174822504000,9.61550390625,-0.9653156889855861,0.9007906098440289,-0.1734850739456713
1772790174832570000,9.625570068359375,-0.8410983576864004,0.9170274588957429,-0.21984109386391937
1772790174842635300,9.63563525390625,-0.7601385688334703,0.886741333964467,-0.27051936089545486
1772790174852701000,9.645700927734374,-0.7357593298584222,0.8166229648604989,-0.27978629786930975
1772790174862767000,9.65576708984375,-0.6941659212321043,0.7147475214898585,-0.24359379843845963
1772790174872833000,9.6658330078125,-0.5207879609227181,0.5900885839030147,-0.1823367081169039
1772790174882898200,9.675898193359375,-0.31833646634221074,0.4965294257178902,-0.1599373909126967
1772790174892964000,9.685964111328126,-0.15794015268087386,0.4117036090865731,-0.1605815340351313
1772790174903030300,9.6960302734375,-0.018043606212735173,0.37888533532917495,-0.15763810099437833
1772790174913095000,9.706094970703125,0.07018295877277851,0.3512874265685677,-0.17066965119875965
1772790174923161000,9.7161611328125,0.07153086625039577,0.34603754321634766,-0.1763514962274581
1772790174933227000,9.72622705078125,-0.017356208470463753,0.3654544836089015,-0.15841580736860633
1772790174943289000,9.7362890625,-0.09392974506318569,0.4549482920512557,-0.22914083712883293
1772790174953355000,9.74635498046875,-0.13227905720174313,0.5286965420901775,-0.41759471295177936
1772790174963421000,9.7564208984375,-0.20897943504452704,0.5901116725176573,-0.606605272809416
1772790174973485800,9.76648583984375,-0.2617395498514175,0.6256658009797335,-0.780352943214029
1772790174983552000,9.776552001953124,-0.199078218755126,0.6235375567793846,-0.8882272616732865
1772790174993618000,9.786617919921875,-0.11472703389823435,0.5895286119326949,-0.9755136962644755
1772790175003682800,9.796682861328126,-0.03852116157412529,0.49162820967286824,-0.9814595990568399
1772790175013749000,9.8067490234375,-0.093802319291234,0.30589930183440445,-0.9917885392390191
1772790175023815000,9.81681494140625,-0.2537988199800253,0.1546729675784707,-0.9934071534167974
1772790175033880800,9.826880859375,-0.3640963469982147,0.0221098327383399,-1.013962523254752
1772790175043946000,9.836946044921875,-0.4053519019722938,-0.07934738522022962,-1.041019310875982
1772790175054012200,9.84701220703125,-0.3897141878575086,-0.15967764399796724,-1.078535313995555
1772790175064077800,9.857077880859375,-0.3907172274202108,-0.19504823258668183,-1.1981352146271615
1772790175074143000,9.86714306640625,-0.41845805178284645,-0.2535939450576901,-1.2322510539144276
1772790175084209000,9.877208984375,-0.45723055776953697,-0.26484043847620486,-1.2196919435273854
1772790175094275000,9.887275146484376,-0.4372200353980064,-0.3860112416863441,-1.1846287403874098
1772790175104340000,9.897340087890624,-0.3857236569166183,-0.3945595820620656,-1.1395504122547804
1772790175114406000,9.907406005859375,-0.2858043160498142,-0.3208279908969998,-1.0739958439350128
1772790175124471800,9.917471923828124,-0.1943295629233122,-0.16766455109864473,-0.9534186957690864
1772790175134537000,9.927536865234375,-0.07074702239632606,-0.21155220814198256,-0.7696369034104049
1772790175144603100,9.93760302734375,-0.20522680451273917,-0.2795259664326906,-0.516670369536057
1772790175154669000,9.9476689453125,-0.27284429671168325,-0.3160629684522748,-0.32590295607373115
1772790175164734000,9.95773388671875,-0.10732640225291251,-0.3175461927473545,-0.2187112130511552
1772790175174800000,9.9677998046875,-0.002119476372003555,-0.275032454405725,-0.07938888627439737
1772790175184866000,9.977865966796875,0.0017249240964651107,-0.2982543400391936,0.09694368605688214
1772790175194931000,9.987930908203126,0.02383563361763954,-0.33217560660243034,0.25414098448120054
1772790175204997000,9.9979970703125,0.1612462084889412,-0.33486148468554017,0.3669080434180796
1772790175215062800,10.008062744140625,0.3435872274547815,-0.32012334975898266,0.42396680526696146
1772790175225129000,10.01812890625,0.3706096744149923,-0.2911085599377751,0.4825366292659193
1772790175235193900,10.02819384765625,0.328537542361021,-0.2759787953451276,0.6177624074440449
1772790175245260000,10.038260009765626,0.27530688743293286,-0.33334844977408645,0.8305311517689377
1772790175255326000,10.048325927734375,0.3024707886904478,-0.29125527493208647,0.9344099708512424
1772790175265390800,10.058390869140625,0.39120939485132694,-0.20055618235319853,0.9494929736927151
1772790175275457000,10.06845703125,0.3910831381231546,-0.19681524225920438,0.9874641001686453
1772790175285523000,10.07852294921875,0.2950146274656057,-0.2508382166087627,1.0916713474877178
1772790175295588000,10.088588134765626,0.21631752284765243,-0.26255437336564064,1.1987659137461333
1772790175305654000,10.098654052734375,0.14767477925419806,-0.2460381228506565,1.2608069940522313
1772790175315720000,10.108719970703126,0.025184710139036177,-0.23779753324985503,1.249662938094884
1772790175325784800,10.118784912109374,0.024556933629512785,-0.17561843271255492,1.1824855178136378
1772790175335851000,10.12885107421875,0.15076339291930196,-0.13562778310775755,1.1451932404473424
1772790175345917000,10.1389169921875,0.2587783619582653,-0.07898556617051362,1.175297359875217
1772790175355982000,10.148982177734375,0.2612695942521095,-0.06674860040992497,1.230572014786303
1772790175366047700,10.1590478515625,0.1102332296103239,-0.10703852522224187,1.2489680876985192
1772790175376114000,10.169114013671875,0.039700142225623125,-0.14218407288342713,1.2247792567290365
1772790175386179800,10.179179931640626,0.13465630772709847,-0.1964420250326395,1.1946085018057375
1772790175396245000,10.189244873046874,0.20510990013480185,-0.18181582604795693,1.210565511002764
1772790175406311000,10.199310791015625,0.1814443623870611,-0.213399589574337,1.2121196816422044
1772790175416377000,10.209377197265624,0.12150982590615748,-0.265132991681993,1.214938538455218
1772790175426442000,10.21944189453125,0.14242226555347443,-0.264081144541502,1.181013034108281
1772790175436508000,10.2295078125,0.22328327020704744,-0.31914456785470247,1.1435151511672883
1772790175446574000,10.239573974609375,0.2558206811964512,-0.4062815840378403,1.1907202621955424
1772790175456639000,10.249638916015625,0.20689678355157373,-0.47556759397089476,1.1865568589057773
1772790175466705000,10.259704833984374,0.20626374634504316,-0.5507394470721483,1.129247044905275
1772790175476770800,10.269770751953125,0.19183949967324732,-0.6324830797791481,1.1155726667527108
1772790175486836000,10.2798359375,0.12546411648988723,-0.7151055411472916,1.1137228011023252
1772790175496902000,10.28990185546875,0.09289280323088168,-0.7446107448339462,1.0665958698768168
1772790175506968000,10.299968017578125,0.1687608219027519,-0.8053177269920706,1.0349814189512283
1772790175517033000,10.310032958984374,0.24105039756596086,-0.8898182571917772,1.0460984407711773
1772790175527099000,10.320098876953125,0.19032383441329,-0.9714613521337508,1.0628780914627014
1772790175537164800,10.330164794921876,0.15791910989284513,-1.044142265202105,1.0793838936489075
1772790175547230000,10.34022998046875,0.2099351283341646,-1.1145628321230412,1.0620110263045877
1772790175557296000,10.350296142578125,0.34820319681763645,-1.202260989320278,1.0714306696221232
1772790175567362000,10.360362060546874,0.3658896601557731,-1.2530185321331024,1.1362131575908512
1772790175577427000,10.370427001953125,0.2227051780581474,-1.2813275117725134,1.2262068053141235
1772790175587492900,10.380492919921876,0.23867490060627458,-1.25277098711282,1.2312737333148718
1772790175597559000,10.39055908203125,0.26284897239804267,-1.1856529688686133,1.1814318440422416
1772790175607625000,10.400625,0.17701134837567806,-1.1201605059996247,1.169744182727486
1772790175617689900,10.41068994140625,0.07674597055017948,-1.0263754301041363,1.1823777465902268
1772790175627755800,10.420755859375,0.09450549912452698,-0.9290352920755743,1.145361582751572
1772790175637822000,10.430822021484374,0.0701268446713686,-0.8278203584402799,1.0321890848189592
1772790175647887000,10.44088720703125,-0.01741641422510147,-0.715156979073584,0.8872054443448781
1772790175657953000,10.450953125,-0.0848491975069046,-0.6130430507719516,0.7583424791969359
1772790175668019000,10.46101904296875,-0.15730536190867422,-0.5530053461775183,0.6982729181595146
1772790175678083800,10.471083740234375,-0.21722645438611507,-0.484729974591732,0.583846620773524
1772790175688150000,10.48114990234375,-0.17679741336405277,-0.44726825894266364,0.45117885651513934
1772790175698216000,10.4912158203125,-0.11075053148269652,-0.39025896225869655,0.374161229416728
1772790175708281000,10.501281005859376,-0.019925766697525975,-0.3520090188413858,0.34286329709440466
1772790175718347000,10.511346923828125,-0.07613280708789825,-0.3215364314273,0.3197214909598231
1772790175728413000,10.521412841796876,-0.2941886980354786,-0.3345642553046346,0.3261464094407856
1772790175738477800,10.531477783203124,-0.3927262291550636,-0.3619084815651178,0.28437150676772
1772790175748544000,10.5415439453125,-0.2899175965875387,-0.28894378311932084,0.19959829710647461
1772790175758610000,10.55160986328125,-0.23386253188848494,-0.2537038351729512,0.13548720559328795
1772790175768674800,10.5616748046875,-0.2662853765875101,-0.24451222845762965,0.11185001715719699
1772790175778741000,10.571740966796876,-0.29122751014232634,-0.18012188161164522,0.0691824034281075
1772790175788807000,10.581806884765625,-0.1713718811839819,-0.05902239007204771,-0.02492109076678753
1772790175798872800,10.591872802734375,-0.10359072285592555,0.07341127316951751,-0.11860606728866696
1772790175808938000,10.60193798828125,-0.08136135539114475,0.18093758190870285,-0.14003814689591526
1772790175819004200,10.612004150390625,-0.048480830052495,0.2299731232345104,-0.09627017070949077
1772790175829069800,10.62206982421875,0.11522738463580608,0.2804325598835945,-0.06076090430244803
1772790175839135000,10.632135009765625,0.35193244647383687,0.3416615200892091,-0.02349997192248702
1772790175849201000,10.642200927734375,0.4329752374351024,0.3058376347750425,0.0042893677569925785
1772790175859267000,10.65226708984375,0.42741994139552114,0.24586042819619178,0.06178557117506861
1772790175869332000,10.66233203125,0.5050497090429067,0.22481500981897115,0.13677461505532265
1772790175879398000,10.67239794921875,0.5881850883692502,0.2436941900730133,0.21052827192172407
1772790175889463800,10.6824638671875,0.5765677158117294,0.2612269241541624,0.28868615509644147
1772790175899529000,10.692529052734375,0.4757189851403236,0.27433628883510824,0.32404081546366215
1772790175909595100,10.70259521484375,0.388062913519144,0.2897881249889731,0.3559432895503938
1772790175919661000,10.7126611328125,0.31334406488239763,0.3505979829996824,0.4027878967031836
1772790175929726000,10.722725830078126,0.22159283290207385,0.43033261397182937,0.384980145072937
1772790175939791400,10.732791259765625,0.1443278069138527,0.5010030640006065,0.3012896160818636
1772790175949857300,10.742857177734376,0.06881926920413971,0.5560831461876631,0.24207111891582606
1772790175959922400,10.75292236328125,0.020986673927307128,0.6123986153885722,0.25369316764846445
1772790175969988400,10.76298828125,0.011721417453885078,0.6663017627507448,0.22393654648400843
1772790175980054300,10.77305419921875,-0.021605098086595532,0.6475929706275463,0.21136589178964493
1772790175990120400,10.783120361328125,-0.03018821751475334,0.6074456691563129,0.2364315786588937
1772790176000185300,10.793185302734376,0.02058919904232025,0.5268190577805042,0.27422566806748505
1772790176010251300,10.803251220703125,0.1208078151166439,0.3937769072517752,0.36668139505535363
1772790176020317400,10.8133173828125,0.17550561998784542,0.2879839981764555,0.45083734960108995
1772790176030382300,10.82338232421875,0.1826695202678442,0.1757896976262331,0.5316504234597087
1772790176040448500,10.833448486328125,0.17037760944962502,0.048936172604560846,0.573225273516029
1772790176050514200,10.84351416015625,0.14449614921808243,-0.055448915499448775,0.593666734650731
1772790176060579300,10.853579345703125,0.17243337293565272,-0.06974047570228577,0.6094460491932928
1772790176070645200,10.863645263671875,0.2693488558113575,-0.11767711587548255,0.5905753445066512
1772790176080711400,10.87371142578125,0.26430969260036946,-0.16806524085402488,0.5658794407978653
1772790176090776300,10.8837763671875,0.1476654269039631,-0.14857260487675666,0.6636217298865318
1772790176100842200,10.89384228515625,0.04381400728523731,-0.22043577182143925,0.7154534778021275
1772790176110908200,10.903908203125,0.03609071955680847,-0.2509311555892229,0.7332762808710336
1772790176120973300,10.913973388671875,0.11758125428557395,-0.1648573847234249,0.6699257984668016
1772790176131039500,10.92403955078125,0.31079438039958474,-0.08545710027217865,0.5859729652777314
1772790176141105400,10.93410546875,0.30840777752399445,-0.09310673824250698,0.49269087046831844
1772790176151170300,10.94417041015625,0.2006371386349201,-0.09983926136791706,0.413032665733248
1772790176161236200,10.954236328125,0.1820809067249298,-0.07833587009012699,0.3937573257684707
1772790176171302400,10.964302490234376,0.12685820119678973,-0.06326718803495168,0.3826822433941066
1772790176181367300,10.9743671875,0.1563438234001398,-0.029652795463800428,0.32438787533566354
1772790176191433500,10.98443359375,0.33938393054604526,0.052528936399519444,0.2577585173912346
1772790176201499100,10.9944990234375,0.4243102849423885,0.15802198574542997,0.21997049239724872
1772790176211565300,11.0045654296875,0.30816870807111263,0.1650105294585228,0.23878990528807043
1772790176221630200,11.014630126953126,0.15485212353765965,0.13853577950894833,0.20306495030373334
1772790176231696400,11.0246962890625,0.18907529565691947,0.15163403827399013,0.04972805363461375
1772790176241762300,11.03476220703125,0.37590076656043525,0.19579437477886677,-0.07512202261015773
1772790176251827200,11.0448271484375,0.35422611036896706,0.13812749096900223,-0.16616802893057464
1772790176261893400,11.054893310546875,0.2596358555704355,0.11847177338451147,-0.18521935088112948
1772790176271959300,11.064959228515624,0.26231822652220727,0.14226327559947965,-0.14997253480255604
1772790176282024400,11.0750244140625,0.3646411213994026,0.2026853033363819,-0.07741203324347734
1772790176292090400,11.08509033203125,0.3511871810644865,0.2500070264816284,0.0009349427625536918
1772790176302156500,11.095156494140625,0.179622407656908,0.24647885235548017,0.06540478458553552
1772790176312221200,11.10522119140625,-0.00251227508187294,0.177087920743227,0.07390709386244416
1772790176322287400,11.115287353515624,-0.13837678955495356,0.11449059479385613,0.11357143412232398
1772790176332353300,11.125353271484375,-0.2214075394630432,0.10527999111711979,0.1294125618547201
1772790176342418400,11.13541845703125,-0.2111591171711683,0.15835808583199976,0.06757401838339865
1772790176352484400,11.145484375,-0.32125556865930555,0.23714403777718543,-0.013050620231032371
1772790176362550300,11.15555029296875,-0.3967068232238292,0.30357553506195545,-0.12541304388977587
1772790176372615400,11.165615478515624,-0.4753793779224157,0.34377135185003277,-0.1981001675032079
1772790176382681300,11.175681396484375,-0.4654547807574272,0.3358072411030531,-0.1308545042913407
1772790176392747500,11.18574755859375,-0.3599567629754543,0.4065291290581226,-0.04842939212620258
1772790176402812200,11.195812255859375,-0.2330886249065399,0.5589537331879139,-0.030912220940366386
1772790176412878300,11.20587841796875,-0.15398293948769567,0.6977993092983961,-0.07764438069462776
1772790176422944300,11.2159443359375,-0.23247136979103086,0.7900041302651166,-0.09983122419193387
1772790176433009400,11.226009521484375,-0.4268231445461511,0.7592246688589454,-0.07832527563087642
1772790176443075300,11.236075439453124,-0.5414888036459684,0.5499611561760306,-0.0051602323073893785
1772790176453141500,11.2461416015625,-0.4644564173698425,0.4002387967422604,0.10016367101669311
1772790176463207200,11.256207275390626,-0.39168694923520087,0.3472784831881523,0.18606895344778895
1772790176473272300,11.266272216796875,-0.3485200076818466,0.3150526223659515,0.19704466710090637
1772790176483338200,11.276338134765625,-0.315605580073595,0.2978121492296457,0.2268939349848777
1772790176493404400,11.286404296875,-0.4604255544185638,0.1981763014793396,0.2364532790340483
1772790176503469300,11.29646923828125,-0.550758736294508,0.13608897087872027,0.235457472929731
1772790176513535200,11.30653515625,-0.5039069687485694,0.14015841227471829,0.26392610011026263
1772790176523601400,11.316601318359375,-0.4951823950231075,0.12678075204640626,0.2991827069304883
1772790176533666300,11.326666259765625,-0.6460889958053827,0.05947510227560997,0.3278977831527591
1772790176543732500,11.336732421875,-0.726608055153489,0.02552870127111673,0.36472996872663493
1772790176553798400,11.34679833984375,-0.693864307937026,0.0699216774880886,0.38444158121682703
1772790176563863300,11.35686328125,-0.6097118605226278,0.11491554220765829,0.272700723522529
1772790176573929200,11.36692919921875,-0.5549462511122226,0.19639906267374752,0.11745740871019661
1772790176583995400,11.376995361328126,-0.5742413186907768,0.22669804708659647,-0.011754589071124791
1772790176594060500,11.387060546875,-0.576781066301465,0.24427812744081018,-0.13322371764071286
1772790176604126500,11.39712646484375,-0.5754080243825912,0.2971916792437434,-0.1981697256080806
1772790176614192000,11.407192138671874,-0.6193523800492287,0.24805501563102006,-0.17941526771225033
1772790176624257300,11.41725732421875,-0.7062117483347654,0.2198454047128558,-0.2160696855664253
1772790176634323500,11.427323486328126,-0.7820680765688419,0.15933832904100417,-0.24329430403523145
1772790176644389400,11.437389404296875,-0.7512304552346467,0.08137129226326942,-0.2752520154405385
1772790176654454300,11.447454345703125,-0.596677022382617,0.10222966363579034,-0.33515235739089544
1772790176664520200,11.457520263671874,-0.5223574021965265,0.19135639233142138,-0.4213235242165625
1772790176674586400,11.46758642578125,-0.5239174911201,0.2456736734524369,-0.4773560848228633
1772790176684651300,11.4776513671875,-0.3798994808077812,0.2588856217250228,-0.4790196341209113
1772790176694717400,11.487717529296875,-0.18448679882287977,0.29731881275475025,-0.44286330198198554
1772790176704783400,11.497783447265626,0.029528292301297186,0.33663346279412504,-0.33786928819939493
1772790176714849300,11.507849365234375,0.07290741530060768,0.3070467183038592,-0.26573015385754406
1772790176724914400,11.51791455078125,-0.06443009433448314,0.27165596370995043,-0.23007936008796095
1772790176734980400,11.52798046875,-0.07087211008071899,0.27808628901839255,-0.19821312635838984
1772790176745046300,11.53804638671875,0.11917758356630802,0.2954498040124774,-0.15575433307439088
1772790176755111200,11.548111083984375,0.2153863794773817,0.24645371791422366,-0.14196889576278626
1772790176765177300,11.55817724609375,0.2063753900259733,0.17243395745754242,-0.10147183100581168
1772790176775243300,11.5682431640625,0.14380816695392132,0.08862316308766603,-0.036946678799018265
1772790176785308400,11.578308349609374,0.02161561948060989,0.02138268750756979,-0.014191753090173006
1772790176795374300,11.588374267578125,-0.030243747094273566,-0.03218903594315052,0.01611344186775386
1772790176805440500,11.5984404296875,-0.024078210201859473,-0.03128857997208834,0.02652370365783572
1772790176815505200,11.608505126953125,0.015505612167716025,-0.03952332435399294,0.02525879828855395
1772790176825571300,11.6185712890625,-0.04014613242745399,-0.04547434171289205,0.047587388344109055
1772790176835637200,11.62863720703125,-0.10513678325414658,-0.018956044882535935,0.062336044664680956
1772790176845702400,11.638702392578125,-0.09569266308248042,-0.013616437420248985,0.05999598434455693
1772790176855768300,11.648768310546876,-0.04032967230081558,-0.0009790741652250289,0.0783427382223308
1772790176865834200,11.658834228515625,-0.10660042606592178,-0.020213935989141462,0.10364413354359567
1772790176875899400,11.6688994140625,-0.23341887977421283,-0.07986585613638163,0.11962065115869044
1772790176885965300,11.67896533203125,-0.325348390930891,-0.12962737364917992,0.1364306969884783
1772790176896031500,11.689031494140625,-0.33531916532516476,-0.1596139311119914,0.1569805869337171
1772790176906096000,11.69909619140625,-0.22083178540170192,-0.1581248615980148,0.1683840975448489
1772790176916162300,11.709162353515625,-0.17027414907515048,-0.11699556335210799,0.12787833802476525
1772790176926228200,11.719228271484376,-0.26131635600328446,-0.0921408158197999,0.12161511291153729
1772790176936293400,11.72929345703125,-0.37599721267223357,-0.09957301164716481,0.15163739927485584
1772790176946359000,11.739359130859375,-0.30874329308867454,-0.046049803513288495,0.14753829339295624
1772790176956425200,11.74942529296875,-0.17595161018967628,0.05770224738419055,0.12634805971756577
1772790176966491100,11.7594912109375,-0.20718378379940985,0.11054273395091295,0.07220058220550417
1772790176976556000,11.76955615234375,-0.32796120377779003,0.09919833311587571,0.02193235727958381
1772790176986622200,11.779622314453125,-0.450667545992136,0.14061463160961865,0.04739171964153647
1772790176996688100,11.789688232421875,-0.5496048900842666,0.17054273688346147,0.11435418199785054
1772790177006753300,11.799753173828124,-0.5380366173654795,0.22986323311924933,0.14859488977380095
1772790177016819200,11.809819091796875,-0.46645372866690155,0.27733196351975203,0.1418935655042529
1772790177026885400,11.819885498046874,-0.22369360457360743,0.1864519614160061,0.15119842333570122
1772790177036950000,11.829949951171875,0.18905249930322168,0.1252323535606265,0.2172206091672182
1772790177047016200,11.84001611328125,0.3987473891407251,0.22347002495080232,0.43615927429869766
1772790177057082000,11.85008203125,0.1371598149806261,0.3330740167468786,0.6539083643194288
1772790177067147300,11.860147216796875,-0.2087199073255062,0.28302403768151996,0.6902542276810855
1772790177077213000,11.870212890625,-0.29867314997315403,0.30178602129668,0.7049214893285185
1772790177087279000,11.880279052734375,-0.6851993554443121,0.29059651876240966,0.9608278760470449
1772790177097344300,11.89034423828125,-0.9562427402138709,0.30565760203301906,1.0828737815912812
1772790177107410200,11.90041015625,-0.880635418304801,0.3823652863994241,0.9906044440209865
1772790177117476400,11.910476318359375,-0.7728945900321006,0.42402240791171786,0.7242329235199838
1772790177127541000,11.920541015625,-0.7388643101364374,0.4660562537819147,0.4664147848960012
1772790177137607200,11.930607177734375,-0.6986737540453672,0.4815913843050599,0.41810244327820834
1772790177147673000,11.940673095703126,-0.6105407125622033,0.35786826626360413,0.34866036600060757
1772790177157738200,11.95073828125,-0.4906628717720508,0.2240688676267862,0.29677820307202635
1772790177167804200,11.96080419921875,-0.4913561147332191,0.10906944652795791,0.21191899562776087
1772790177177870300,11.970870361328124,-0.5235357983261346,-0.017938976794481275,0.1181129500094801
1772790177187935200,11.980935302734375,-0.4348509681791067,-0.14584844060987234,0.11512735832743345
1772790177198001200,11.991001220703126,-0.30335633935332296,-0.2767299059733748,0.11128051017355173
1772790177208067000,12.001067138671875,-0.15667349374592304,-0.3311883491307497,0.06931249608118087
1772790177218132200,12.01113232421875,-0.17414076137542722,-0.42646337132304907,0.0261299916325137
1772790177228198100,12.0211982421875,-0.14960720862150192,-0.4995999192044139,-0.02840414710957557
1772790177238264000,12.03126416015625,0.07985971865653992,-0.5440808659657835,-0.054442295740172265
1772790177248330200,12.041330322265624,0.28152853842675685,-0.6335749666690826,-0.10204385874010621
1772790177258395100,12.05139501953125,0.4269692750185728,-0.7325067578032612,-0.06006620003655552
1772790177268461300,12.06146142578125,0.416968690007925,-0.8121949192851782,-0.03158573628775775
1772790177278527200,12.07152734375,0.4195265577971935,-0.8057271845757961,0.024673472681269046
1772790177288592100,12.081592041015625,0.5664040491938591,-0.758578187648952,0.11850523726269602
1772790177298658000,12.091657958984374,0.623186259123683,-0.6571472731754183,0.09858158945702016
1772790177308724200,12.10172412109375,0.5974211187481879,-0.5936091592445969,0.05809537488762289
1772790177318789000,12.1117890625,0.5498918903321027,-0.5250441570624709,0.040072701865062114
1772790177328855300,12.121855224609375,0.5009101250201463,-0.4565624492496252,0.08614427881874144
1772790177338921000,12.1319208984375,0.38482816938161846,-0.43422962141036986,0.1181804257551208
1772790177348986000,12.141986083984374,0.3564730125129223,-0.354895680193603,0.09566588467340915
1772790177359052300,12.15205224609375,0.44424540399014945,-0.26434827104508873,0.10507124373726547
1772790177369118200,12.1621181640625,0.34824294430613517,-0.2446136430054903,0.139215980325453
1772790177379183000,12.17218310546875,0.22363106073141098,-0.19502455945014951,0.08047682764157653
1772790177389249000,12.1822490234375,0.17752046694159507,-0.11748451591283082,-0.013682415328547358
1772790177399315200,12.192315185546875,0.05100011939704418,-0.07593582321107387,0.006488667899556458
1772790177409380000,12.202380126953125,0.002970540243387222,-0.06910597719103098,-0.05270761743467301
1772790177419446300,12.2124462890625,0.022489479705691335,-0.08361351823210715,-0.0017619316386058926
1772790177429512200,12.22251220703125,0.01725041000843048,-0.03306348069012165,0.06374240433126688
1772790177439577000,12.2325771484375,0.11633563813865185,0.03498597318530083,-0.010735402091220021
1772790177449643000,12.24264306640625,0.27396073352098466,0.07806815906465053,-0.08422182285618036
1772790177459709200,12.252709228515625,0.32091771500706673,0.08540858495533465,-0.14778061424884945
1772790177469774300,12.2627744140625,0.18262801921367644,0.017465514063835143,-0.12449390148455276
1772790177479840300,12.27284033203125,0.06240238789916038,-0.07349836693108082,-0.06413651821538806
1772790177489906200,12.28290625,0.03858428993821144,-0.1785603313833475,-0.012518212121073156
1772790177499971000,12.29297119140625,0.03942132528424263,-0.24807781198471784,0.028837022101506588
1772790177510037200,12.303037353515625,0.03491641508042812,-0.27167583745419976,0.051554492743639276
1772790177520103200,12.313103271484374,0.1252601183503866,-0.2780766444072127,-0.020324511090992016
1772790177530168000,12.32316796875,0.21059914520084858,-0.275168648006022,-0.09304917196952738
1772790177540234000,12.33323388671875,0.0814291599303484,-0.28182489102482794,-0.17597734741913154
1772790177550300200,12.343300048828125,-0.09820260007679461,-0.3316846082150936,-0.2650601821741089
1772790177560366000,12.353365966796876,-0.2293114444553852,-0.3963881126634776,-0.29483386407122014
1772790177570431200,12.36343115234375,-0.2525952894091606,-0.3652757660411298,-0.3596625292692333
1772790177580497200,12.3734970703125,-0.22262626760303972,-0.2813891299560666,-0.4383594877567142
1772790177590563000,12.38356298828125,-0.3300374255299568,-0.3096484252348542,-0.49030532703865315
1772790177600628200,12.393628173828125,-0.4923141461104154,-0.2976480447091162,-0.5312646390125155
1772790177610694100,12.403694091796876,-0.5209849447995424,-0.24401450806856154,-0.6156486301604658
1772790177620760300,12.41376025390625,-0.41855800502598284,-0.24739085263386368,-0.6853907132979482
1772790177630825200,12.4238251953125,-0.3993839334785938,-0.30498876286074517,-0.744116823837161
1772790177640891100,12.43389111328125,-0.2957125466018915,-0.30895255192518234,-0.7572112832099199
1772790177650957000,12.44395703125,-0.2382435234516859,-0.3365352631166577,-0.7912026193346827
1772790177661022200,12.454022216796876,-0.32446342478990553,-0.3931424087405205,-0.7625311630584299
1772790177671088000,12.464088134765625,-0.3749760529309511,-0.40567558096870776,-0.7087298686355352
1772790177681154300,12.474154296875,-0.274381589281559,-0.41698301079422234,-0.6206392780546098
1772790177691219200,12.48421923828125,-0.12186872234642505,-0.4331209295161068,-0.6079365214131772
1772790177701285000,12.49428515625,-0.03327157048285007,-0.4794543722763657,-0.6234493670392781
1772790177711351000,12.50435107421875,-0.09925064782500266,-0.5575215084277093,-0.5984609101247043
1772790177721416200,12.514416259765625,-0.23306465950906274,-0.6455227402247488,-0.5504786407114938
1772790177731482400,12.524482421875,-0.3561316517293453,-0.7563650416441261,-0.45784445188418027
1772790177741548000,12.534548095703125,-0.3004717238277197,-0.7996262373521924,-0.37961006940715014
1772790177751613200,12.54461328125,-0.024197452667355537,-0.7341001644745468,-0.34460769307632
1772790177761679000,12.55467919921875,0.17029577638506888,-0.638490211239457,-0.30153416542746125
