time,seconds_elapsed,z,y,x
1772790754569469000,0.074468994140625,0.30589157342910767,0.7838877439498901,-0.2882555425167084
1772790754579534000,0.0845341796875,0.34081414341926575,0.7138060331344604,-0.34909021854400635
1772790754589599200,0.09459912109375,0.37935328483581543,0.6343218684196472,-0.4390943944454193
1772790754599663900,0.104663818359375,0.43526381254196167,0.5758955478668213,-0.5844184160232544
1772790754609729000,0.11472900390625,0.48659998178482056,0.531528890132904,-0.7273555994033813
1772790754619795200,0.124795166015625,0.5284740924835205,0.4602975845336914,-0.7856244444847107
1772790754629859800,0.13485986328125,0.5633159279823303,0.5247873663902283,-0.7962400317192078
1772790754639925000,0.144925048828125,0.5807081460952759,0.721049427986145,-0.7324305176734924
1772790754649990100,0.154990234375,0.5805030465126038,0.9061439037322998,-0.6204699277877808
1772790754660055000,0.165054931640625,0.5528901815414429,1.0385396480560303,-0.5072369575500488
1772790754670120000,0.175119873046875,0.5039314031600952,1.1991487741470337,-0.38407641649246216
1772790754680185000,0.18518505859375,0.4517366290092468,1.3050096035003662,-0.2883109450340271
1772790754690250000,0.19525,0.42716044187545776,1.3028066158294678,-0.2128012776374817
1772790754700315000,0.20531494140625,0.5750569701194763,1.0115857124328613,-0.11060967296361923
1772790754710380000,0.215380126953125,0.7530469298362732,0.6640027165412903,-0.025250567123293877
1772790754720445000,0.22544482421875,0.7714235186576843,0.6649252772331238,-0.035067521035671234
1772790754730510000,0.235510009765625,0.6523181796073914,0.8889232277870178,-0.12426131218671799
1772790754740575000,0.245574951171875,0.5099560618400574,1.043235182762146,-0.2202865034341812
1772790754750639900,0.255639892578125,0.4146447777748108,1.0136370658874512,-0.28585195541381836
1772790754760705000,0.265705078125,0.3710600733757019,0.8313958644866943,-0.3067532777786255
1772790754770770200,0.275770263671875,0.33072277903556824,0.5510014891624451,-0.2688935101032257
1772790754780835000,0.2858349609375,0.26524391770362854,0.24387748539447784,-0.20221275091171265
1772790754790900000,0.29589990234375,0.17791834473609924,-0.017081929370760918,-0.1540931612253189
1772790754800965000,0.305965087890625,0.082053042948246,-0.1945917010307312,-0.13408803939819336
1772790754811030300,0.3160302734375,-0.005037650465965271,-0.27480238676071167,-0.15413764119148254
1772790754821095000,0.326094970703125,-0.06868207454681396,-0.281820684671402,-0.21155351400375366
1772790754831160000,0.33616015625,-0.1093035414814949,-0.25749486684799194,-0.2755407392978668
1772790754841225200,0.34622509765625,-0.1328345537185669,-0.24259498715400696,-0.32941699028015137
1772790754851290000,0.3562900390625,-0.13189207017421722,-0.23868359625339508,-0.37414050102233887
1772790754861355000,0.36635498046875,-0.09135527908802032,-0.2509365379810333,-0.38952797651290894
1772790754871421200,0.376421142578125,-0.04972793906927109,-0.25672492384910583,-0.3858693242073059
1772790754881485800,0.38648583984375,-0.036807432770729065,-0.24052056670188904,-0.37096044421195984
1772790754891551000,0.396551025390625,-0.059747904539108276,-0.20407414436340332,-0.32746198773384094
1772790754901616000,0.4066162109375,-0.08698312938213348,-0.18461760878562927,-0.23033708333969116
1772790754911681000,0.416680908203125,-0.11163175106048584,-0.15237578749656677,-0.06992103159427643
1772790754921746000,0.426745849609375,-0.11823691427707672,-0.09339812397956848,0.09083385020494461
1772790754931811000,0.43681103515625,-0.09497606754302979,-0.04769162833690643,0.22408458590507507
1772790754941876000,0.4468759765625,-0.03967397287487984,-0.06467346847057343,0.32367587089538574
1772790754951941000,0.456941162109375,0.034234873950481415,-0.13611702620983124,0.39837753772735596
1772790754962006000,0.467006103515625,0.1346503049135208,-0.20283308625221252,0.4662211537361145
1772790754972071000,0.47707080078125,0.27049386501312256,-0.2793571352958679,0.5177285671234131
1772790754982136000,0.487135986328125,0.41637060046195984,-0.3384508788585663,0.5695230960845947
1772790754992201200,0.497201171875,0.5805051922798157,-0.4113155007362366,0.6139459609985352
1772790755002265900,0.507265869140625,0.7462672591209412,-0.5145872831344604,0.6684869527816772
1772790755012331000,0.5173310546875,0.8914135098457336,-0.5865775942802429,0.7346619963645935
1772790755022396200,0.527396240234375,0.9785104990005493,-0.5673760771751404,0.8069272637367249
1772790755032460800,0.537460693359375,1.0200995206832886,-0.4909934401512146,0.8527054190635681
1772790755042526000,0.54752587890625,1.045030117034912,-0.4327884614467621,0.8675554394721985
1772790755052591000,0.557591064453125,1.0404263734817505,-0.43620821833610535,0.8885648846626282
1772790755062656000,0.567656005859375,0.9983725547790527,-0.4643908739089966,0.9489526152610779
1772790755072721000,0.577720947265625,0.9122470021247864,-0.4529813528060913,1.0222833156585693
1772790755082786000,0.5877861328125,0.8091573715209961,-0.39577341079711914,1.0653185844421387
1772790755092851000,0.597850830078125,0.6827938556671143,-0.35474395751953125,1.0918368101119995
1772790755102916000,0.607916015625,0.5389840006828308,-0.3262769281864166,1.1004976034164429
1772790755112982000,0.61798193359375,0.40989527106285095,-0.3448562026023865,1.0741286277770996
1772790755123047200,0.628047119140625,0.2518765926361084,-0.3344588279724121,1.0137741565704346
1772790755133112000,0.638112060546875,0.032367415726184845,-0.11344122141599655,0.9071217179298401
1772790755143177000,0.648177001953125,-0.18945066630840302,0.11192459613084793,0.7794329524040222
1772790755153242000,0.6582421875,-0.3529849946498871,0.26043471693992615,0.6424274444580078
1772790755163307000,0.66830712890625,-0.4208443760871887,0.35555312037467957,0.502357542514801
1772790755173372000,0.678371826171875,-0.4159143269062042,0.3877105414867401,0.38215360045433044
1772790755183437000,0.68843701171875,-0.386341392993927,0.36184096336364746,0.2729249894618988
1772790755193502000,0.698501953125,-0.34399285912513733,0.28693583607673645,0.1689908653497696
1772790755203567000,0.708567138671875,-0.3044591248035431,0.18660877645015717,0.06831643730401993
1772790755213632000,0.718632080078125,-0.273346483707428,0.07631902396678925,-0.018380645662546158
1772790755223697000,0.72869677734375,-0.25128400325775146,0.002929192967712879,-0.07553313672542572
1772790755233762000,0.738761962890625,-0.23478412628173828,-0.035083968192338943,-0.09130224585533142
1772790755243827200,0.7488271484375,-0.23700377345085144,-0.061027511954307556,-0.05240914970636368
1772790755253891800,0.758891845703125,-0.2489033043384552,-0.11442815512418747,0.0333973690867424
1772790755263957000,0.76895703125,-0.2636715769767761,-0.17976830899715424,0.13759516179561615
1772790755274022100,0.779022216796875,-0.2784915268421173,-0.2343154400587082,0.23185774683952332
1772790755284087000,0.789087158203125,-0.27688977122306824,-0.24959133565425873,0.29679417610168457
1772790755294152000,0.79915185546875,-0.2771105468273163,-0.21332761645317078,0.3402305841445923
1772790755304217000,0.809217041015625,-0.26707202196121216,-0.1351325362920761,0.3713458478450775
1772790755314282000,0.819281982421875,-0.2466900497674942,-0.020396370440721512,0.394583523273468
1772790755324347100,0.82934716796875,-0.20682036876678467,0.11070488393306732,0.4011627435684204
1772790755334412000,0.839412109375,-0.14715677499771118,0.24567176401615143,0.38889142870903015
1772790755344477000,0.849476806640625,-0.07051121443510056,0.37180808186531067,0.3472117483615875
1772790755354542000,0.8595419921875,0.013346666470170021,0.4700686037540436,0.27994057536125183
1772790755364608000,0.86960791015625,0.08951260149478912,0.508605420589447,0.2002944052219391
1772790755374673200,0.879673095703125,0.1457979828119278,0.5083023309707642,0.10198380798101425
1772790755384738000,0.889738037109375,0.2083141803741455,0.4945804476737976,-0.00009654072346165776
1772790755394803000,0.899802978515625,0.2830861508846283,0.48394885659217834,-0.11153891682624817
1772790755404868000,0.9098681640625,0.37163597345352173,0.4774554371833801,-0.22777293622493744
1772790755414933000,0.91993310546875,0.4635603129863739,0.5093081593513489,-0.36219173669815063
1772790755424998100,0.929998046875,0.5423000454902649,0.5368170738220215,-0.4949914216995239
1772790755435063000,0.94006298828125,0.6010797619819641,0.5125346183776855,-0.6136216521263123
1772790755445128000,0.9501279296875,0.6309033632278442,0.4216722846031189,-0.7017613053321838
1772790755455193000,0.960193115234375,0.6368467211723328,0.2811172902584076,-0.7626249194145203
1772790755465258200,0.97025830078125,0.6206796765327454,0.12145832180976868,-0.7916250824928284
1772790755475323000,0.980322998046875,0.5837259292602539,-0.043739959597587585,-0.8067864775657654
1772790755485388000,0.990387939453125,0.5342793464660645,-0.18393875658512115,-0.8131344318389893
1772790755495453200,1.000453125,0.487094521522522,-0.26260772347450256,-0.8255410194396973
1772790755505518000,1.01051806640625,0.4428909122943878,-0.29878875613212585,-0.8269242644309998
1772790755515583500,1.02058349609375,0.4044140875339508,-0.2908296287059784,-0.7842559218406677
1772790755525648600,1.030648681640625,0.39979657530784607,-0.22292529046535492,-0.7213399410247803
1772790755535713500,1.040713623046875,0.4366302192211151,-0.18580961227416992,-0.6646263003349304
1772790755545778400,1.0507783203125,0.44418078660964966,0.09046673774719238,-0.5736844539642334
1772790755555843600,1.060843505859375,0.48630693554878235,0.44267645478248596,-0.4991878271102905
1772790755565908500,1.070908447265625,0.5483160018920898,0.7623257637023926,-0.4788227379322052
1772790755575973600,1.0809736328125,0.5719952583312988,1.0801880359649658,-0.48528942465782166
1772790755586038500,1.09103857421875,0.4645368456840515,1.3840681314468384,-0.4665328860282898
1772790755596103400,1.101103515625,0.3263036012649536,1.582619309425354,-0.3834609091281891
1772790755606169300,1.11116943359375,0.24657665193080902,1.6884193420410156,-0.27515020966529846
1772790755616234500,1.121234375,0.20378124713897705,1.736437201499939,-0.15705685317516327
1772790755626299400,1.13129931640625,0.09914548695087433,1.6705750226974487,0.0061457776464521885
1772790755636364500,1.141364501953125,-0.07406224310398102,1.4980401992797852,0.24760180711746216
1772790755646429400,1.151429443359375,-0.20378467440605164,1.2339794635772705,0.7508328557014465
1772790755656494300,1.161494384765625,-0.2831130623817444,0.9498147964477539,1.4032788276672363
1772790755666559500,1.1715595703125,-0.1102752536535263,1.0164226293563843,1.8922290802001953
1772790755676624600,1.181624755859375,0.13446685671806335,0.7442925572395325,2.3727848529815674
1772790755686689300,1.191689208984375,0.2865658402442932,0.30280953645706177,2.7939608097076416
1772790755696754400,1.20175439453125,0.3932560682296753,-0.08178500831127167,2.9398794174194336
1772790755706819600,1.211819580078125,0.5526633858680725,-0.4105670750141144,2.510678291320801
1772790755716884500,1.221884521484375,0.7695091366767883,-0.27872434258461,1.806331753730774
1772790755726949400,1.231949462890625,0.9617913961410522,0.12300146371126175,1.1303120851516724
1772790755737014500,1.2420146484375,1.1115680932998657,0.41382184624671936,0.4665660560131073
1772790755747079700,1.25207958984375,1.1971402168273926,0.5066701173782349,-0.014063372276723385
1772790755757144600,1.26214453125,1.2089276313781738,0.49996504187583923,-0.20294088125228882
1772790755767209500,1.27220947265625,1.1855895519256592,0.5946424603462219,-0.15068110823631287
1772790755777274600,1.282274658203125,1.1003239154815674,0.7609906792640686,-0.03953355550765991
1772790755787339500,1.292339599609375,0.8334112763404846,0.784277081489563,0.09369507431983948
1772790755797404400,1.302404296875,0.40091443061828613,0.7034594416618347,0.1967381089925766
1772790755807469600,1.312469482421875,-0.03415302187204361,0.7283216714859009,0.16891397535800934
1772790755817534500,1.322534423828125,-0.3950744569301605,0.949773371219635,0.014025858603417873
1772790755827599600,1.332599609375,-0.6722490787506104,1.2329760789871216,-0.17049923539161682
1772790755837664500,1.34266455078125,-0.8587310910224915,1.4336963891983032,-0.3414877653121948
1772790755847730400,1.35273046875,-0.9599518775939941,1.502564549446106,-0.49702274799346924
1772790755857795600,1.362795654296875,-0.9703645706176758,1.4192018508911133,-0.6357177495956421
1772790755867860500,1.372860595703125,-0.8899205327033997,1.1680876016616821,-0.7537124752998352
1772790755877925400,1.38292529296875,-0.7612472176551819,0.8053529262542725,-0.8905991911888123
1772790755887990500,1.392990478515625,-0.6767871975898743,0.4078293740749359,-1.0712625980377197
1772790755898055700,1.4030556640625,-0.696387767791748,0.06777193397283554,-1.2914503812789917
1772790755908120300,1.413120361328125,-0.7946970462799072,-0.15576519072055817,-1.5121206045150757
1772790755918185500,1.423185546875,-0.8854634165763855,-0.2899981141090393,-1.6832925081253052
1772790755928250600,1.433250732421875,-0.9044361114501953,-0.3551836907863617,-1.7601512670516968
1772790755938315300,1.443315185546875,-0.8294066190719604,-0.36663421988487244,-1.7263716459274292
1772790755948380400,1.45338037109375,-0.6766965985298157,-0.36291080713272095,-1.6115119457244873
1772790755958445600,1.463445556640625,-0.4787163734436035,-0.34251657128334045,-1.4785714149475098
1772790755968510500,1.473510498046875,-0.2660871744155884,-0.25697389245033264,-1.3912080526351929
1772790755978575400,1.483575439453125,-0.08366304636001587,-0.11360500007867813,-1.3484132289886475
1772790755988640500,1.493640625,0.07089559733867645,0.04053209722042084,-1.3349251747131348
1772790755998705400,1.503705322265625,0.22058016061782837,0.13756783306598663,-1.2954835891723633
1772790756008770600,1.5137705078125,0.3587261736392975,0.18618382513523102,-1.2115566730499268
1772790756018835500,1.52383544921875,0.46918395161628723,0.21070647239685059,-1.0864150524139404
1772790756028900400,1.533900390625,0.5527036786079407,0.19900880753993988,-0.9490720629692078
1772790756038965500,1.543965576171875,0.6049613356590271,0.1483893096446991,-0.8333571553230286
1772790756049030700,1.55403076171875,0.631478488445282,0.06134647876024246,-0.7461214661598206
1772790756059095300,1.56409521484375,0.6238299012184143,-0.050194162875413895,-0.6731618046760559
1772790756069160400,1.574160400390625,0.5746258497238159,-0.20251743495464325,-0.5814496874809265
1772790756079225600,1.5842255859375,0.5079384446144104,-0.3152511715888977,-0.4636458158493042
1772790756089290500,1.59429052734375,0.4218282699584961,-0.36209702491760254,-0.31396305561065674
1772790756099356400,1.6043564453125,0.2886989712715149,-0.42202267050743103,-0.11485075205564499
1772790756109421600,1.614421630859375,0.11203550547361374,-0.48151329159736633,0.09929144382476807
1772790756119486500,1.624486572265625,-0.008011804893612862,-0.44417712092399597,0.2677779495716095
1772790756129551400,1.63455126953125,-0.01095901895314455,-0.17243477702140808,0.3718756139278412
1772790756139616500,1.644616455078125,0.13688556849956512,0.27012506127357483,0.45146071910858154
1772790756149681700,1.654681640625,0.34501364827156067,0.8755346536636353,0.617780864238739
1772790756159746300,1.664746337890625,0.5296478867530823,1.469180941581726,0.8572648167610168
1772790756169811500,1.6748115234375,0.8052986860275269,1.944514274597168,0.9592825174331665
1772790756179876600,1.684876708984375,1.188724160194397,2.184680938720703,0.81220543384552
1772790756189941500,1.69494140625,1.6221321821212769,2.190584659576416,0.4222729504108429
1772790756200006400,1.70500634765625,2.0962743759155273,2.0806615352630615,-0.16850271821022034
1772790756210071600,1.715071533203125,2.56266450881958,2.1065361499786377,-0.7993922233581543
1772790756220136400,1.725136474609375,2.880383253097534,2.0746850967407227,-1.1147937774658203
1772790756230201600,1.73520166015625,2.94203519821167,1.9546492099761963,-1.0377682447433472
1772790756240266500,1.7452666015625,2.7714812755584717,1.8734092712402344,-0.8957482576370239
1772790756250331400,1.755331298828125,2.473264694213867,1.854306936264038,-0.7867302298545837
1772790756260396500,1.765396484375,2.1308319568634033,2.0111443996429443,-0.8235273957252502
1772790756270461400,1.77546142578125,1.7319401502609253,2.2748939990997314,-0.9219804406166077
1772790756280526300,1.7855263671875,1.3390719890594482,2.5214383602142334,-0.9337158799171448
1772790756290591500,1.795591552734375,1.0076910257339478,2.6501331329345703,-0.7976667284965515
1772790756300656600,1.80565673828125,0.7466110587120056,2.5296058654785156,-0.5335416197776794
1772790756310721300,1.81572119140625,0.559087336063385,2.000192165374756,-0.2533431053161621
1772790756320786400,1.825786376953125,0.42431965470314026,1.2302751541137695,0.0005349664716050029
1772790756330852600,1.8358525390625,0.30586904287338257,0.2402830719947815,0.0870695412158966
1772790756340917500,1.84591748046875,0.1738915741443634,-0.6540295481681824,0.08306068181991577
1772790756350982400,1.855982421875,-0.004213221371173859,-1.3357939720153809,0.05729192867875099
1772790756361047600,1.866047607421875,-0.18829463422298431,-1.796812891960144,-0.014637921005487442
1772790756371112700,1.87611279296875,-0.3775879740715027,-2.054293394088745,-0.1142512783408165
1772790756381177300,1.88617724609375,-0.5482617616653442,-2.1125566959381104,-0.2235519289970398
1772790756391242500,1.896242431640625,-0.6493446826934814,-1.9885576963424683,-0.3076862394809723
1772790756401307600,1.9063076171875,-0.6549210548400879,-1.6350404024124146,-0.3349948525428772
1772790756411372500,1.91637255859375,-0.6134111881256104,-1.1235774755477905,-0.2805427312850952
1772790756421437400,1.9264375,-0.5976466536521912,-0.6707329750061035,-0.16501158475875854
1772790756431502600,1.936502685546875,-0.6364482641220093,-0.44226232171058655,-0.025195250287652016
1772790756441567500,1.9465673828125,-0.7479111552238464,-0.4427560567855835,0.09057449549436569
1772790756451632400,1.95663232421875,-0.8598462343215942,-0.6427188515663147,0.16151505708694458
1772790756461697500,1.966697509765625,-0.9331236481666565,-0.9563814401626587,0.2315836250782013
1772790756471762400,1.976762451171875,-0.9563506245613098,-1.271889090538025,0.3182245194911957
1772790756481827600,1.98682763671875,-0.9247828125953674,-1.6073960065841675,0.3864816129207611
1772790756491892500,1.996892578125,-0.879276692867279,-1.9197598695755005,0.3604719042778015
1772790756501957400,2.006957275390625,-0.7920371294021606,-2.0854873657226562,0.20218852162361145
1772790756512022500,2.0170224609375,-0.6237995028495789,-1.95002019405365,-0.05685993283987045
1772790756522087400,2.02708740234375,-0.40769994258880615,-1.5502139329910278,-0.3524620234966278
1772790756532152300,2.03715234375,-0.2096802443265915,-0.95924973487854,-0.6332229971885681
1772790756542217500,2.047217529296875,-0.11183676868677139,-0.3373446464538574,-0.8411048054695129
1772790756552282400,2.057282470703125,-0.17115750908851624,0.10473203659057617,-0.9395612478256226
1772790756562348300,2.067348388671875,-0.3263702988624573,0.3637782335281372,-0.945585310459137
1772790756572413400,2.077413330078125,-0.5158947110176086,0.4540141820907593,-0.8535779714584351
1772790756582478600,2.087478515625,-0.636991560459137,0.49369579553604126,-0.6540153622627258
1772790756592543500,2.09754345703125,-0.5881845355033875,0.765636682510376,-0.42983537912368774
1772790756602608400,2.1076083984375,-0.46958115696907043,1.4088515043258667,-0.2893887758255005
1772790756612673500,2.117673583984375,-0.4282313287258148,2.1665079593658447,-0.21325388550758362
1772790756622738400,2.127738525390625,-0.4887908101081848,2.6038851737976074,-0.0964076966047287
1772790756632803300,2.13780322265625,-0.5535916090011597,2.5849432945251465,-0.01582362875342369
1772790756642868500,2.147868408203125,-0.5016348958015442,2.089061975479126,0.05530807375907898
1772790756652933400,2.157933349609375,-0.3323160409927368,1.4564039707183838,0.20256149768829346
1772790756662998500,2.16799853515625,-0.11399007588624954,0.9462176561355591,0.5178946852684021
1772790756673063400,2.1780634765625,-0.042282961308956146,0.6408094763755798,1.044288158416748
1772790756683128300,2.18812841796875,-0.10059580206871033,0.5962129831314087,1.5860310792922974
1772790756693193500,2.198193359375,-0.18457111716270447,0.8356349468231201,1.9086039066314697
1772790756703258600,2.208258544921875,-0.2533735930919647,1.260566234588623,1.9451332092285156
1772790756713323300,2.2183232421875,-0.25074076652526855,1.6984741687774658,1.7769732475280762
1772790756723388400,2.228388427734375,-0.18881537020206451,2.0337088108062744,1.5460675954818726
1772790756733453600,2.23845361328125,-0.0971890315413475,2.1832573413848877,1.2964991331100464
1772790756743518500,2.2485185546875,0.00846309494227171,2.07266902923584,1.0773005485534668
1772790756753583400,2.258583251953125,0.11400223523378372,1.581655740737915,0.9575651288032532
1772790756763648500,2.2686484375,0.10349632799625397,0.8162032961845398,0.9209802150726318
1772790756773713400,2.27871337890625,-0.057809244841337204,-0.12978914380073547,0.8665429949760437
1772790756783778300,2.2887783203125,-0.3275006413459778,-1.1654917001724243,0.6996456384658813
1772790756793844500,2.298844482421875,-0.6452504992485046,-2.1597037315368652,0.47714120149612427
1772790756803909400,2.308909423828125,-0.9046852588653564,-2.8647048473358154,0.2628435492515564
1772790756813974300,2.318974365234375,-1.0200077295303345,-3.1160833835601807,0.07159776240587234
1772790756824039400,2.329039306640625,-1.013100266456604,-2.9052064418792725,-0.009566868655383587
1772790756834104300,2.339104248046875,-0.977827250957489,-2.4776527881622314,0.06395289301872253
1772790756844169500,2.34916943359375,-1.0138928890228271,-2.0972392559051514,0.29953664541244507
1772790756854234400,2.359234375,-1.1557008028030396,-1.9198557138442993,0.6388004422187805
1772790756864299300,2.36929931640625,-1.3633298873901367,-1.9329863786697388,0.981042742729187
1772790756874364400,2.379364501953125,-1.5473334789276123,-2.0577452182769775,1.2486064434051514
1772790756884429600,2.3894296875,-1.650977611541748,-2.252699851989746,1.3975168466567993
1772790756894494200,2.399494140625,-1.691089153289795,-2.5295753479003906,1.4025719165802002
1772790756904559400,2.409559326171875,-1.7013236284255981,-2.8160042762756348,1.3457541465759277
1772790756914624500,2.41962451171875,-1.6473716497421265,-2.9765512943267822,1.2923362255096436
1772790756924689400,2.429689453125,-1.527117371559143,-2.9116146564483643,1.2294747829437256
1772790756934754300,2.43975439453125,-1.3531336784362793,-2.604255437850952,1.131007194519043
1772790756944819500,2.4498193359375,-1.1581355333328247,-2.0710620880126953,0.9939299821853638
1772790756954884400,2.45988427734375,-1.0108113288879395,-1.4417297840118408,0.8351502418518066
1772790756964949200,2.46994921875,-0.9103190898895264,-1.0065093040466309,0.6250854134559631
1772790756975014400,2.480014404296875,-0.8650370240211487,-0.8789135813713074,0.33978766202926636
1772790756985079600,2.49007958984375,-0.8527638912200928,-0.8798430562019348,0.020866671577095985
1772790756995144400,2.50014453125,-0.7778931260108948,-0.7615168690681458,-0.34875524044036865
1772790757005210400,2.51021044921875,-0.6165462732315063,-0.5275014042854309,-0.7256976962089539
1772790757015275500,2.520275634765625,-0.3831392526626587,-0.3252255320549011,-1.070374846458435
1772790757025340400,2.53034033203125,-0.11069892346858978,-0.2679441273212433,-1.3721365928649902
1772790757035405300,2.5404052734375,0.14657774567604065,-0.2562234401702881,-1.6296238899230957
1772790757045470500,2.550470458984375,0.3800016939640045,-0.11425404250621796,-1.7975952625274658
1772790757055535400,2.560535400390625,0.6758936643600464,0.27372977137565613,-1.8203843832015991
1772790757065600500,2.5706005859375,0.9965475797653198,0.947720468044281,-1.7817049026489258
1772790757075665400,2.58066552734375,1.2051260471343994,1.8856768608093262,-1.8736308813095093
1772790757085730300,2.590730224609375,1.1574903726577759,2.6047122478485107,-2.0928468704223633
1772790757095795500,2.60079541015625,0.9989420771598816,2.7559075355529785,-2.2498116493225098
1772790757105860400,2.6108603515625,1.0616427659988403,2.1666011810302734,-2.0931146144866943
1772790757115925200,2.62092529296875,1.4720029830932617,0.9509202241897583,-1.4706332683563232
1772790757125990400,2.630990478515625,2.038116216659546,-0.4035153090953827,-0.4436054825782776
1772790757136055600,2.6410556640625,2.4799234867095947,-1.211769938468933,0.5603717565536499
1772790757146120200,2.6511201171875,2.687511920928955,-1.3144326210021973,1.1571736335754395
1772790757156185300,2.661185302734375,2.6315391063690186,-0.862207293510437,1.2449156045913696
1772790757166250500,2.67125048828125,2.3146629333496094,-0.11899758875370026,0.9304599165916443
1772790757176315400,2.6813154296875,1.7860685586929321,0.6321362257003784,0.34283918142318726
1772790757186380300,2.69138037109375,1.2157756090164185,1.1317806243896484,-0.29206666350364685
1772790757196445400,2.701445556640625,0.8297101259231567,1.2213435173034668,-0.751819372177124
1772790757206510300,2.71151025390625,0.6601732969284058,1.069110631942749,-0.9067144393920898
1772790757216576300,2.721576171875,0.5799381732940674,0.9099501967430115,-0.8180627822875977
1772790757226641400,2.731641357421875,0.5585199594497681,0.8185297846794128,-0.624208390712738
1772790757236706600,2.74170654296875,0.6298878788948059,0.9961661100387573,-0.46906059980392456
1772790757246771500,2.751771484375,0.7757835388183594,1.4035892486572266,-0.41293156147003174
1772790757256836400,2.76183642578125,0.8945044875144958,1.4805214405059814,-0.4087372422218323
1772790757266901500,2.771901611328125,0.9069755673408508,1.1214535236358643,-0.45488980412483215
1772790757276966400,2.78196630859375,0.8634588122367859,0.5117601156234741,-0.5364646315574646
1772790757287031300,2.79203125,0.8024662733078003,-0.15591219067573547,-0.5936432480812073
1772790757297096400,2.802096435546875,0.7276713848114014,-0.7900310158729553,-0.5922589302062988
1772790757307161300,2.812161376953125,0.6397513747215271,-1.3204020261764526,-0.5398532152175903
1772790757317226500,2.8222265625,0.5290963649749756,-1.644890308380127,-0.4328882098197937
1772790757327291400,2.83229150390625,0.3980312645435333,-1.6725636720657349,-0.25152134895324707
1772790757337356300,2.842356201171875,0.2577390968799591,-1.4532363414764404,0.00787425134330988
1772790757347421400,2.85242138671875,0.10983859747648239,-1.0688554048538208,0.30810996890068054
1772790757357486600,2.862486572265625,-0.03370487689971924,-0.6137218475341797,0.5579361915588379
1772790757367551200,2.87255126953125,-0.1456119567155838,-0.17069754004478455,0.6830368638038635
1772790757377616400,2.882616455078125,-0.2389257252216339,0.1679515391588211,0.6584514379501343
1772790757387681500,2.892681640625,-0.3137562870979309,0.33771657943725586,0.5044628977775574
1772790757397746400,2.902746337890625,-0.39352402091026306,0.31431517004966736,0.30686187744140625
1772790757407811300,2.912811279296875,-0.4839596450328827,0.1965443193912506,0.10708033293485641
1772790757417877500,2.92287744140625,-0.5493466258049011,0.06089210882782936,-0.05494300648570061
1772790757427942400,2.9329423828125,-0.5395949482917786,-0.047344084829092026,-0.17471148073673248
1772790757438007300,2.94300732421875,-0.4214124083518982,-0.12426356226205826,-0.23509877920150757
1772790757448072400,2.953072509765625,-0.2012435793876648,-0.1628357172012329,-0.2519078552722931
1772790757458137600,2.9631376953125,0.07168581336736679,-0.17687442898750305,-0.2388411909341812
1772790757468202200,2.9732021484375,0.33354833722114563,-0.21683382987976074,-0.19459517300128937
1772790757478267400,2.983267333984375,0.5135973691940308,-0.29403385519981384,-0.14846676588058472
1772790757488332500,2.99333251953125,0.5814299583435059,-0.4244091808795929,-0.14460358023643494
1772790757498397400,3.0033974609375,0.5448852777481079,-0.611611545085907,-0.24982880055904388
1772790757508462300,3.01346240234375,0.4351835250854492,-0.7739090919494629,-0.4491126239299774
1772790757518527700,3.02352783203125,0.2784242630004883,-0.8753886222839355,-0.6600738167762756
1772790757528592600,3.033592529296875,0.11315008997917175,-0.7297411561012268,-0.8859570026397705
1772790757538657800,3.04365771484375,-0.004169662948697805,-0.24463018774986267,-1.0694708824157715
1772790757548722700,3.05372265625,-0.1510954648256302,0.21042068302631378,-1.0293277502059937
1772790757558787600,3.06378759765625,-0.29307129979133606,0.6063407063484192,-0.9356179237365723
1772790757568852700,3.073852783203125,-0.3973100781440735,1.0023196935653687,-0.995102047920227
1772790757578917600,3.083917724609375,-0.37930411100387573,0.8143249154090881,-0.9541301727294922
1772790757588982500,3.093982421875,-0.17909671366214752,-0.04942426085472107,-0.5324233770370483
1772790757599047700,3.104047607421875,-0.05502922832965851,-1.2706758975982666,0.2954927086830139
1772790757609112800,3.11411279296875,-0.07441597431898117,-2.2524797916412354,1.2585642337799072
1772790757619178800,3.1241787109375,-0.10528377443552017,-2.5899059772491455,1.9099658727645874
1772790757629243600,3.13424365234375,-0.1261642873287201,-2.288271427154541,2.13761043548584
1772790757639308800,3.144308837890625,-0.19531281292438507,-1.5275181531906128,2.032325029373169
1772790757649373700,3.154373779296875,-0.34694814682006836,-0.5643068552017212,1.6848645210266113
1772790757659438600,3.1644384765625,-0.5249336361885071,0.3043140172958374,1.1876157522201538
1772790757669503700,3.174503662109375,-0.6389057636260986,0.7242127656936646,0.6129075288772583
1772790757679568600,3.184568603515625,-0.6429283618927002,0.7140823602676392,0.02037806622684002
1772790757689633500,3.194633544921875,-0.5605788826942444,0.36778461933135986,-0.4927099943161011
1772790757699698700,3.20469873046875,-0.38288500905036926,-0.13192470371723175,-0.8418688774108887
1772790757709763800,3.214763916015625,-0.05849440023303032,-0.4813610017299652,-1.0073055028915405
1772790757719828500,3.224828369140625,0.40995216369628906,-0.5375675559043884,-0.9641178250312805
1772790757729893600,3.2348935546875,0.8555757403373718,-0.3913954198360443,-0.7596240639686584
1772790757739958800,3.244958740234375,1.1378380060195923,-0.18550534546375275,-0.5023190379142761
1772790757750023700,3.255023681640625,1.2243878841400146,-0.02535402774810791,-0.27895066142082214
1772790757760088600,3.265088623046875,1.1399829387664795,0.11303204298019409,-0.14316245913505554
1772790757770153700,3.27515380859375,0.8762946128845215,0.15504048764705658,-0.0034477070439606905
1772790757780218600,3.285218505859375,0.4818497896194458,0.08406056463718414,0.22438545525074005
1772790757790283800,3.29528369140625,0.09989018738269806,0.024564214050769806,0.4807165861129761
1772790757800348700,3.3053486328125,-0.16195793449878693,0.054853655397892,0.7201525568962097
1772790757810413600,3.31541357421875,-0.31376343965530396,0.11406158655881882,0.9384444355964661
1772790757820479700,3.325479736328125,-0.4075256586074829,0.15707546472549438,1.1103019714355469
1772790757830544600,3.335544677734375,-0.4653785824775696,0.17338918149471283,1.1674515008926392
1772790757840609500,3.345609619140625,-0.5042127370834351,0.225322425365448,1.0991265773773193
1772790757850674700,3.3556748046875,-0.5284155607223511,0.3525131046772003,0.8980112671852112
1772790757860739600,3.365739501953125,-0.5358766913414001,0.5269927978515625,0.6008834838867188
1772790757870804500,3.375804443359375,-0.5398250818252563,0.6819717288017273,0.25624778866767883
1772790757880869600,3.38586962890625,-0.5282169580459595,0.7259034514427185,-0.0938800796866417
1772790757890934800,3.395934814453125,-0.46858879923820496,0.6591811180114746,-0.416424036026001
1772790757900999400,3.40599951171875,-0.34816262125968933,0.5453464984893799,-0.6810968518257141
1772790757911064600,3.416064697265625,-0.20679138600826263,0.4271572530269623,-0.8692603707313538
1772790757921129700,3.426129638671875,-0.04355793818831444,0.3449469208717346,-0.9744068384170532
1772790757931194600,3.436194580078125,0.1274407058954239,0.29928091168403625,-0.9788942337036133
1772790757941259500,3.446259521484375,0.2793569266796112,0.28904110193252563,-0.8939066529273987
1772790757951324700,3.45632470703125,0.4494810104370117,0.2858027219772339,-0.7180677652359009
1772790757961389600,3.4663896484375,0.6538642048835754,0.24153922498226166,-0.45456889271736145
1772790757971454700,3.476454833984375,0.9595956206321716,0.19769321382045746,-0.0886143371462822
1772790757981519600,3.48651953125,1.246126651763916,0.16880403459072113,0.3722381591796875
1772790757991584800,3.496584716796875,1.3521182537078857,0.13514433801174164,0.9738390445709229
1772790758001649700,3.506649658203125,1.1534998416900635,0.20080643892288208,1.7376718521118164
1772790758011715600,3.516715576171875,0.7420255541801453,0.7749909162521362,2.415678024291992
1772790758021780700,3.52678076171875,0.2636202871799469,2.0547752380371094,2.6260221004486084
1772790758031845600,3.536845703125,-0.1902310997247696,3.738126277923584,2.319366693496704
1772790758041910500,3.54691064453125,-0.43400999903678894,4.889576435089111,2.1712379455566406
1772790758051975700,3.5569755859375,-0.24157343804836273,4.910116195678711,2.563953399658203
1772790758062040600,3.56704052734375,0.2911636531352997,3.924147844314575,3.060065746307373
1772790758072105700,3.577105712890625,0.907974898815155,2.7265944480895996,3.2756102085113525
1772790758082170600,3.587170654296875,1.412274718284607,1.681040644645691,3.081134557723999
1772790758092235500,3.597235595703125,1.578872799873352,0.8059024214744568,2.495274305343628
1772790758102300700,3.60730078125,1.3593157529830933,0.2681152820587158,1.7650291919708252
1772790758112365800,3.61736572265625,0.9101473093032837,0.30964940786361694,0.9612435698509216
1772790758122430500,3.627430419921875,0.4448457360267639,1.0508891344070435,0.09985676407814026
1772790758132495600,3.63749560546875,0.22744762897491455,2.0572924613952637,-0.6892082691192627
1772790758142560800,3.647560791015625,0.21745000779628754,2.663803815841675,-1.3248440027236938
1772790758152625700,3.657625732421875,0.33928802609443665,2.573145866394043,-1.684819221496582
1772790758162690600,3.667690673828125,0.6130086183547974,2.1285593509674072,-1.8152052164077759
1772790758172755700,3.677755615234375,0.9129929542541504,1.6231423616409302,-1.8363763093948364
1772790758182820600,3.687820556640625,1.0816971063613892,1.096795678138733,-1.7154663801193237
1772790758192885800,3.6978857421875,1.069664478302002,0.5324953198432922,-1.5083544254302979
1772790758202951700,3.70795166015625,0.9287914037704468,0.1099841296672821,-1.381734848022461
1772790758213016800,3.718016845703125,0.80803382396698,-0.013106378726661205,-1.3440815210342407
1772790758223081500,3.72808154296875,0.7857688665390015,0.16573671996593475,-1.2727699279785156
1772790758233146600,3.738146728515625,0.7991421818733215,0.49708670377731323,-1.1198325157165527
1772790758243211800,3.748211669921875,0.7390595078468323,0.6543933153152466,-0.7508593201637268
1772790758253276700,3.758276611328125,0.6715614199638367,0.6846471428871155,-0.2020082175731659
1772790758263341600,3.768341552734375,0.7647019624710083,0.71690434217453,0.35698825120925903
1772790758273406700,3.77840673828125,1.028791904449463,0.8213540315628052,0.8214249014854431
1772790758283471600,3.7884716796875,1.3425177335739136,0.9643257260322571,1.1153323650360107
1772790758293536800,3.798536865234375,1.6036630868911743,1.106571912765503,1.2415435314178467
1772790758303601700,3.8086015625,1.7614703178405762,1.244196891784668,1.1903698444366455
1772790758313666600,3.81866650390625,1.7826597690582275,1.2672768831253052,1.0500297546386719
1772790758323731700,3.828731689453125,1.664716362953186,1.111289620399475,0.9229762554168701
1772790758333796900,3.838796875,1.478171467781067,0.8785628080368042,0.7801088094711304
1772790758343861500,3.848861572265625,1.259335994720459,0.7425907850265503,0.6087077856063843
1772790758353926700,3.8589267578125,1.2220230102539062,0.8728537559509277,0.5186354517936707
1772790758363991800,3.86899169921875,1.3416295051574707,1.2194082736968994,0.4794038236141205
1772790758374056700,3.879056640625,1.439473271369934,1.2319341897964478,0.14476297795772552
1772790758384122600,3.88912255859375,1.4812469482421875,1.0704458951950073,-0.20558424293994904
1772790758394187800,3.899187744140625,1.497193694114685,0.8381831645965576,-0.45583802461624146
1772790758404252700,3.909252685546875,1.4481139183044434,0.5686257481575012,-0.6703065037727356
1772790758414317600,3.919317626953125,1.2763997316360474,0.25838375091552734,-0.8810504078865051
1772790758424382700,3.9293828125,1.0033984184265137,-0.014378358609974384,-1.0097473859786987
1772790758434448000,3.93944775390625,0.6756741404533386,-0.22822299599647522,-1.0469565391540527
1772790758444512500,3.949512451171875,0.3346114158630371,-0.6320216655731201,-0.9771605730056763
1772790758454577700,3.95957763671875,0.08740776777267456,-1.0608521699905396,-0.8962143063545227
1772790758464642800,3.969642822265625,-0.002151567954570055,-1.095186471939087,-0.9636800289154053
1772790758474707700,3.979707763671875,-0.004981176927685738,-0.4206980764865875,-0.9798267483711243
1772790758484772600,3.989772705078125,-0.13001033663749695,1.0267012119293213,-0.8024815917015076
1772790758494837800,3.999837646484375,-0.5267930626869202,2.540381669998169,-0.3847549259662628
1772790758504902700,4.009902587890625,-1.0151152610778809,2.883235454559326,0.2414105087518692
1772790758514967600,4.019967529296875,-1.1470810174942017,1.7616804838180542,0.8345665335655212
1772790758525032000,4.030031982421875,-0.4490295946598053,0.018554896116256714,1.269919753074646
1772790758535097000,4.04009716796875,0.7959531545639038,-1.211409568786621,1.5537358522415161
1772790758545162200,4.050162353515625,1.5482255220413208,-1.2723442316055298,1.8177350759506226
1772790758555227100,4.06022705078125,1.4966254234313965,-0.5428751707077026,2.1612021923065186
1772790758565292000,4.0702919921875,1.060829758644104,0.43816113471984863,2.19073224067688
1772790758575357200,4.080357177734375,0.4236522614955902,1.1317720413208008,1.8372679948806763
1772790758585422300,4.09042236328125,-0.3332836329936981,1.0857362747192383,1.2299425601959229
1772790758595487200,4.1004873046875,-0.9104540348052979,0.48606449365615845,0.49537861347198486
1772790758605552000,4.11055224609375,-1.2450718879699707,-0.12218624353408813,-0.2702192962169647
1772790758615617300,4.1206171875,-1.41672945022583,-0.5548039674758911,-0.9143407344818115
1772790758625682200,4.13068212890625,-1.4462847709655762,-0.8889991641044617,-1.3522108793258667
1772790758635748000,4.140748046875,-1.3997207880020142,-1.0378186702728271,-1.5342259407043457
1772790758645813200,4.150813232421875,-1.3220657110214233,-0.8807677626609802,-1.4481215476989746
1772790758655878100,4.160878173828125,-1.1790904998779297,-0.5330595970153809,-1.1901615858078003
1772790758665943000,4.170943115234375,-0.9764617681503296,-0.0867438092827797,-0.8737595081329346
1772790758676008200,4.18100830078125,-0.7983537912368774,0.2961825132369995,-0.5660770535469055
1772790758686073000,4.191072998046875,-0.6885421276092529,0.4679037630558014,-0.3100517690181732
1772790758696138200,4.20113818359375,-0.6372270584106445,0.4037040174007416,-0.13404452800750732
1772790758706203100,4.211203125,-0.6412429809570312,0.09202227741479874,0.010767573490738869
1772790758716268000,4.22126806640625,-0.6548176407814026,-0.39148950576782227,0.18111906945705414
1772790758726333200,4.231333251953125,-0.6507430076599121,-0.920384407043457,0.329146146774292
1772790758736398300,4.2413984375,-0.6367172002792358,-1.335675597190857,0.4434892237186432
1772790758746463000,4.251462890625,-0.6129106879234314,-1.5481938123703003,0.5259659886360168
1772790758756528000,4.261528076171875,-0.5575398206710815,-1.502593755722046,0.5790427923202515
1772790758766593300,4.27159326171875,-0.466819167137146,-1.196496844291687,0.5859746932983398
1772790758776658200,4.281658203125,-0.3278655409812927,-0.7059258222579956,0.5603300333023071
1772790758786723000,4.29172314453125,-0.17236177623271942,-0.21884463727474213,0.46889445185661316
1772790758796788200,4.301788330078125,-0.06617915630340576,0.15660887956619263,0.31916701793670654
1772790758806853000,4.31185302734375,-0.021564200520515442,0.37080055475234985,0.1522783786058426
1772790758816919000,4.3219189453125,0.0005432313773781061,0.47987112402915955,0.010707133449614048
1772790758826984200,4.331984130859375,0.09230008721351624,0.54506516456604,-0.14974413812160492
1772790758837049300,4.34204931640625,0.26107311248779297,0.5531678199768066,-0.3596307933330536
1772790758847114000,4.352114013671875,0.453005850315094,0.4625307321548462,-0.6474935412406921
1772790758857179100,4.36217919921875,0.551038384437561,0.21687810122966766,-0.9926226735115051
1772790758867244300,4.372244384765625,0.4775090217590332,-0.20748288929462433,-1.3340742588043213
1772790758877309200,4.38230908203125,0.3016623556613922,-0.7068061828613281,-1.6207746267318726
1772790758887374000,4.3923740234375,0.11108199506998062,-1.0389595031738281,-1.7831107378005981
1772790758897439200,4.402439208984375,-0.01944218948483467,-1.1215797662734985,-1.7818630933761597
1772790758907504000,4.412504150390625,-0.06123930215835571,-1.0473182201385498,-1.632273554801941
1772790758917569300,4.4225693359375,-0.05620487034320831,-0.9220337867736816,-1.3377406597137451
1772790758927634200,4.43263427734375,-0.0426301546394825,-0.7870713472366333,-0.9388828277587891
1772790758937699000,4.442698974609375,-0.09099502861499786,-0.5851680040359497,-0.4929429292678833
1772790758947764200,4.45276416015625,-0.2923184931278229,-0.14654582738876343,-0.011810972355306149
1772790758957829000,4.4628291015625,-0.7106212377548218,0.7253382205963135,0.42713814973831177
1772790758967894000,4.47289404296875,-1.2764947414398193,1.8210536241531372,0.6678957343101501
1772790758977959200,4.482959228515625,-1.656801700592041,2.4710264205932617,0.6140125393867493
1772790758988024300,4.4930244140625,-1.6900948286056519,2.308082342147827,0.32468947768211365
1772790758998090200,4.50309033203125,-1.4883898496627808,1.625478744506836,-0.29584169387817383
1772790759008155100,4.513155029296875,-1.1214343309402466,0.31481680274009705,-1.1337881088256836
1772790759018220300,4.52322021484375,-0.645090639591217,-1.5002390146255493,-1.5634944438934326
1772790759028285200,4.53328515625,-0.032525863498449326,-2.816169261932373,-1.4804651737213135
1772790759038350000,4.54335009765625,0.35076212882995605,-3.233623743057251,-0.9784930944442749
1772790759048415200,4.553415283203125,0.5194122791290283,-2.9877896308898926,0.07930049300193787
1772790759058480400,4.56348046875,0.5279932022094727,-2.1088175773620605,1.419585108757019
1772790759068545000,4.573544921875,0.4833352863788605,-1.12688148021698,2.6315464973449707
1772790759078610200,4.583610107421875,0.4907844364643097,-0.5037169456481934,3.676253080368042
1772790759088675300,4.59367529296875,0.5016075968742371,-0.2621271014213562,4.44435453414917
1772790759098740200,4.603740234375,0.5081126093864441,-0.43148043751716614,4.824337005615234
1772790759108805000,4.61380517578125,0.6284703612327576,-0.8231407999992371,4.8603835105896
1772790759118870300,4.623870361328125,0.9287204742431641,-1.038932204246521,4.608544826507568
1772790759128936000,4.63393603515625,1.335511565208435,-0.9990959167480469,4.075361728668213
1772790759139001000,4.6440009765625,1.7105381488800049,-0.8609673380851746,3.267869234085083
1772790759149066200,4.654066162109375,1.8825738430023193,-0.9061185121536255,2.4977662563323975
1772790759159131100,4.664131103515625,1.815550684928894,-1.1825841665267944,1.6879148483276367
1772790759169196000,4.674196044921875,1.5436091423034668,-1.5680105686187744,0.8247855305671692
1772790759179261200,4.68426123046875,1.2355844974517822,-2.0390756130218506,0.19431330263614655
1772790759189326000,4.694326171875,0.9253842234611511,-2.363086700439453,-0.06106506288051605
1772790759199391200,4.70439111328125,0.6888534426689148,-2.458726644515991,-0.021202335134148598
1772790759209456000,4.7144560546875,0.6565966010093689,-2.348337173461914,0.14017623662948608
1772790759219521000,4.72452099609375,0.7805641293525696,-1.9551862478256226,0.31429609656333923
1772790759229586200,4.734586181640625,0.8859057426452637,-1.264524221420288,0.4298945963382721
1772790759239651300,4.7446513671875,0.8181924819946289,-0.26053187251091003,0.3400275409221649
1772790759249716000,4.754716064453125,0.5474187135696411,0.8698019981384277,-0.1455225646495819
1772790759259781000,4.764781005859375,0.09144130349159241,1.7248886823654175,-0.9432601928710938
1772790759269846300,4.77484619140625,-0.4168216586112976,2.0481679439544678,-1.8014963865280151
1772790759279911200,4.7849111328125,-0.7764610648155212,1.9752082824707031,-2.5360631942749023
1772790759289976000,4.79497607421875,-0.9106158018112183,1.7445169687271118,-3.105043649673462
1772790759300041200,4.805041259765625,-0.8489750623703003,1.474388837814331,-3.495314359664917
1772790759310106400,4.8151064453125,-0.6241381764411926,1.165971040725708,-3.7174487113952637
1772790759320172000,4.825172119140625,-0.37457093596458435,0.9413946270942688,-3.760739326477051
1772790759330237200,4.8352373046875,-0.22761966288089752,0.8677462339401245,-3.614123821258545
1772790759340302300,4.84530224609375,-0.22708941996097565,0.859718918800354,-3.2614331245422363
1772790759350367000,4.855366943359375,-0.36604222655296326,0.9246369004249573,-2.6885061264038086
1772790759360432000,4.86543212890625,-0.6234532594680786,1.0945894718170166,-1.9821836948394775
1772790759370497300,4.875497314453125,-0.8938919901847839,1.2985881567001343,-1.2125611305236816
1772790759380562200,4.885562255859375,-1.035933494567871,1.4802855253219604,-0.4611254036426544
1772790759390627000,4.895626953125,-1.0186128616333008,1.5559818744659424,0.30405643582344055
1772790759400692200,4.905692138671875,-0.8960501551628113,1.5303831100463867,1.0896344184875488
1772790759410757000,4.915757080078125,-0.7761435508728027,1.614840030670166,1.7985458374023438
1772790759420822000,4.925822021484375,-0.8168786764144897,1.8973660469055176,2.2151565551757812
1772790759430887200,4.93588720703125,-1.0812830924987793,2.3110861778259277,2.0952510833740234
1772790759440952000,4.9459521484375,-1.4509820938110352,2.7157952785491943,1.3888509273529053
1772790759451017200,4.956017333984375,-1.787585973739624,2.8566980361938477,0.358485609292984
1772790759461082000,4.96608203125,-1.9136672019958496,2.6370062828063965,-0.711951494216919
1772790759471147000,4.97614697265625,-1.6300140619277954,2.0208232402801514,-1.6585705280303955
1772790759481212200,4.986212158203125,-0.9115507006645203,1.12293541431427,-2.328796625137329
1772790759491277300,4.99627734375,0.08437933027744293,0.03805839642882347,-2.8585197925567627
1772790759501343200,5.00634326171875,0.9089933633804321,-0.9418157339096069,-3.2210614681243896
1772790759511408000,5.016408203125,1.2866266965866089,-1.645742416381836,-3.293912410736084
1772790759521473300,5.026473388671875,1.3462066650390625,-1.9712046384811401,-3.1137900352478027
1772790759531538000,5.036537841796875,1.272693157196045,-1.905411958694458,-2.7130351066589355
1772790759541603000,5.04660302734375,1.2524486780166626,-1.721912145614624,-2.1666853427886963
1772790759551668200,5.056668212890625,1.3714476823806763,-1.6704497337341309,-1.5334265232086182
1772790759561733000,5.066733154296875,1.572517991065979,-1.800826072692871,-0.8532895445823669
1772790759571798000,5.076798095703125,1.75037682056427,-2.025988817214966,-0.22877489030361176
1772790759581863200,5.08686328125,1.839287519454956,-2.179802179336548,0.2905960977077484
1772790759591928000,5.096927978515625,1.8302587270736694,-2.160478353500366,0.6999155282974243
1772790759601993000,5.106992919921875,1.766044020652771,-1.8852778673171997,1.0387921333312988
1772790759612058000,5.11705810546875,1.63264000415802,-1.465238094329834,1.3369297981262207
1772790759622123000,5.127123046875,1.4021689891815186,-1.12790846824646,1.5727990865707397
1772790759632188200,5.137188232421875,1.080167293548584,-1.029164433479309,1.6674919128417969
1772790759642253000,5.147253173828125,0.6944962739944458,-1.2268415689468384,1.5971144437789917
1772790759652318000,5.15731787109375,0.2686789929866791,-1.5750746726989746,1.466191053390503
1772790759662383000,5.167383056640625,-0.24145695567131042,-1.87593674659729,1.3815497159957886
1772790759672448300,5.1774482421875,-0.7599425315856934,-1.9985755681991577,1.3923029899597168
1772790759682514200,5.18751416015625,-1.238512396812439,-1.8373456001281738,1.5250780582427979
1772790759692579000,5.1975791015625,-1.6239500045776367,-1.4865317344665527,1.7544018030166626
1772790759702644200,5.207644287109375,-1.8936775922775269,-0.9854030013084412,1.995863914489746
1772790759712709000,5.217709228515625,-2.1203179359436035,-0.3193550407886505,2.174891471862793
1772790759722774000,5.22777392578125,-2.3777670860290527,0.4249100387096405,2.215219497680664
1772790759732839200,5.237839111328125,-2.6075117588043213,1.14116632938385,2.0968129634857178
1772790759742904000,5.247904052734375,-2.733837127685547,1.6852728128433228,1.790664792060852
1772790759752969000,5.257968994140625,-2.7930245399475098,1.9489386081695557,1.2828305959701538
1772790759763034000,5.2680341796875,-2.749729871749878,1.9101448059082031,0.5695268511772156
1772790759773099300,5.278099365234375,-2.5996251106262207,1.6496096849441528,-0.2226700782775879
1772790759783164000,5.288163818359375,-2.3839597702026367,1.2077356576919556,-0.991061806678772
1772790759793229000,5.29822900390625,-2.201526403427124,0.6285662651062012,-1.6346652507781982
1772790759803294200,5.308294189453125,-2.065741777420044,0.10891669243574142,-2.1047441959381104
1772790759813359000,5.318359130859375,-1.9252122640609741,-0.1222420260310173,-2.386655569076538
1772790759823424000,5.328424072265625,-1.7107542753219604,-0.03814525902271271,-2.4456090927124023
1772790759833489200,5.3384892578125,-1.4081419706344604,0.2506105601787567,-2.2588891983032227
1772790759843554000,5.348553955078125,-1.1031625270843506,0.4822230339050293,-1.8549094200134277
1772790759853619200,5.358619140625,-0.8781527876853943,0.5195202231407166,-1.3290250301361084
1772790759863685000,5.36868505859375,-0.6824656128883362,0.3264599144458771,-0.7494153380393982
1772790759873750300,5.378750244140625,-0.41438382863998413,-0.07293163239955902,-0.144003227353096
1772790759883815200,5.388815185546875,-0.06485407054424286,-0.3848559558391571,0.41257956624031067
1772790759893880000,5.398880126953125,0.296362042427063,-0.341889351606369,0.8623024821281433
1772790759903945200,5.4089453125,0.5831152200698853,0.05322759971022606,1.2022351026535034
1772790759914010000,5.419010009765625,0.6939605474472046,0.5550293326377869,1.4206514358520508
1772790759924075000,5.429074951171875,0.6847037076950073,0.8185147643089294,1.5252703428268433
1772790759934140200,5.43914013671875,0.6859292387962341,0.5466304421424866,1.62399423122406
1772790759944205000,5.449205078125,0.7019601464271545,0.07247350364923477,1.5540140867233276
1772790759954270200,5.459270263671875,0.7436507344245911,-0.5198048949241638,1.1778925657272339
1772790759964335000,5.469335205078125,0.7590661644935608,-1.124258041381836,0.621925413608551
1772790759974400000,5.47939990234375,0.8360398411750793,-1.5193426609039307,0.09438537061214447
1772790759984465200,5.489465087890625,0.9998716115951538,-1.5356340408325195,-0.23566576838493347
1772790759994530300,5.4995302734375,1.1108447313308716,-1.442124605178833,-0.28797343373298645
1772790760004595000,5.509594970703125,0.8597710132598877,-1.2094812393188477,-0.45753902196884155
1772790760014660000,5.51966015625,0.5060147047042847,-0.7426111698150635,-0.8188589811325073
1772790760024725200,5.529725341796875,0.13465575873851776,-0.23404356837272644,-1.0644727945327759
1772790760034791200,5.539791259765625,-0.17149357497692108,-0.0791030004620552,-1.1443592309951782
1772790760044856000,5.54985595703125,-0.3909476399421692,-0.17356106638908386,-1.2262344360351562
1772790760054921200,5.559921142578125,-0.4344218075275421,-0.34085437655448914,-1.3016993999481201
1772790760064986000,5.569986083984375,-0.294966459274292,-0.5261373519897461,-1.2854597568511963
1772790760075051000,5.580051025390625,-0.06302045285701752,-0.6733556985855103,-1.161702275276184
1772790760085116200,5.5901162109375,0.15321224927902222,-0.8031834959983826,-0.9838560819625854
1772790760095181300,5.600181396484375,0.3049439787864685,-0.9863346815109253,-0.7360401749610901
1772790760105246000,5.610245849609375,0.397964209318161,-1.1437636613845825,-0.4287095069885254
1772790760115311000,5.62031103515625,0.43058010935783386,-1.2092210054397583,-0.14871056377887726
1772790760125376300,5.630376220703125,0.3937816321849823,-1.2383160591125488,0.06563528627157211
1772790760135441200,5.640441162109375,0.3161371350288391,-1.3307156562805176,0.24538461863994598
1772790760145506000,5.650506103515625,0.19418859481811523,-1.4495218992233276,0.4526296854019165
1772790760155571200,5.6605712890625,0.05064474791288376,-1.4875848293304443,0.7083195447921753
1772790760165636000,5.670635986328125,-0.06603047251701355,-1.33734929561615,1.0051599740982056
1772790760175701200,5.680701171875,-0.15140847861766815,-0.9681335091590881,1.2983533143997192
1772790760185766100,5.69076611328125,-0.23303969204425812,-0.4313284158706665,1.489148497581482
1772790760195831000,5.7008310546875,-0.34176501631736755,0.18253527581691742,1.4974685907363892
1772790760205897200,5.710897216796875,-0.49465522170066833,0.7944793701171875,1.2762686014175415
1772790760215962000,5.720962158203125,-0.6759955883026123,1.3165336847305298,0.8425326943397522
1772790760226027000,5.731027099609375,-0.846907913684845,1.6877572536468506,0.22872786223888397
1772790760236092200,5.741092041015625,-0.9889581203460693,1.8366167545318604,-0.46476951241493225
1772790760246157000,5.751156982421875,-1.1349196434020996,1.8075675964355469,-1.1547104120254517
1772790760256222000,5.761221923828125,-1.244181752204895,1.6419585943222046,-1.7908039093017578
1772790760266287000,5.771287109375,-1.3157025575637817,1.3079702854156494,-2.3484787940979004
1772790760276352300,5.781352294921875,-1.391170859336853,0.9300476312637329,-2.838911771774292
1772790760286417000,5.7914169921875,-1.5004115104675293,0.5505607724189758,-3.26416015625
1772790760296482000,5.80148193359375,-1.6096253395080566,0.22479090094566345,-3.583588123321533
1772790760306547200,5.811547119140625,-1.688491940498352,-0.0345570407807827,-3.717473030090332
1772790760316612000,5.821612060546875,-1.7202826738357544,-0.16036929190158844,-3.6602783203125
1772790760326677000,5.831677001953125,-1.6941757202148438,-0.17222408950328827,-3.4077420234680176
1772790760336742100,5.8417421875,-1.6320291757583618,-0.1579904556274414,-2.9613773822784424
1772790760346807000,5.85180712890625,-1.5283339023590088,-0.12881261110305786,-2.3637282848358154
1772790760356872200,5.8618720703125,-1.3166848421096802,-0.13109561800956726,-1.6168104410171509
1772790760366937000,5.87193701171875,-0.9845260977745056,-0.12213727831840515,-0.7826204299926758
1772790760377002000,5.882001953125,-0.6297751665115356,0.09927273541688919,0.0692206546664238
1772790760387068200,5.892068115234375,-0.45234474539756775,0.7815256118774414,0.8335806131362915
1772790760397133000,5.902133056640625,-0.5092649459838867,1.8931246995925903,1.3757319450378418
1772790760407198200,5.9121982421875,-0.586057186126709,2.907054901123047,1.5550791025161743
1772790760417263000,5.92226318359375,-0.46599239110946655,3.50883150100708,1.3110800981521606
1772790760427328000,5.932327880859375,-0.09823540598154068,3.4004592895507812,0.7246227264404297
1772790760437393200,5.94239306640625,0.3071739077568054,2.2693164348602295,0.2307511419057846
1772790760447458000,5.9524580078125,0.4705148935317993,0.4537622630596161,0.2600959837436676
1772790760457523200,5.962523193359375,0.5227834582328796,-1.1112738847732544,0.6546384692192078
1772790760467588000,5.972588134765625,0.7006897926330566,-1.8987032175064087,1.1672035455703735
1772790760477653000,5.982653076171875,0.8224931359291077,-2.117910385131836,1.677152395248413
1772790760487718100,5.99271826171875,0.6214969158172607,-2.080059289932251,2.0929646492004395
1772790760497783300,6.002783203125,0.15853126347064972,-1.853781819343567,2.3226842880249023
1772790760507848000,6.012847900390625,-0.26418909430503845,-1.5421000719070435,2.333346366882324
1772790760517917200,6.022917236328125,-0.42065873742103577,-1.3832738399505615,2.191833257675171
1772790760527982300,6.032982421875,-0.2752714455127716,-1.5397775173187256,2.0093252658843994
1772790760538047200,6.043047119140625,-0.016051385551691055,-1.9071966409683228,1.8180568218231201
1772790760548112100,6.053112060546875,0.3036839962005615,-2.2845680713653564,1.5275304317474365
1772790760558178300,6.06317822265625,0.7167795300483704,-2.4323158264160156,1.1133625507354736
1772790760568243200,6.0732431640625,1.2204838991165161,-2.141685962677002,0.6827276945114136
1772790760578308400,6.083308349609375,1.6846539974212646,-1.5044779777526855,0.39606747031211853
1772790760588373200,6.093373291015625,1.9381499290466309,-0.9873645901679993,0.32070136070251465
1772790760598438100,6.103438232421875,1.9391285181045532,-0.7125853300094604,0.326937735080719
1772790760608503300,6.11350341796875,1.723068118095398,-0.6329386830329895,0.26070040464401245
1772790760618568200,6.123568115234375,1.3267593383789062,-0.6657773852348328,0.1920250505208969
1772790760628633300,6.13363330078125,0.8155133128166199,-0.6344282627105713,0.3109234571456909
1772790760638698200,6.1436982421875,0.3280089199542999,-0.4803673028945923,0.7213081121444702
1772790760648763100,6.15376318359375,-0.02559364028275013,-0.3539435863494873,1.332971453666687
1772790760658828300,6.163828369140625,-0.23980531096458435,-0.2438846230506897,1.9267791509628296
1772790760668893400,6.1738935546875,-0.3430957496166229,-0.1158323884010315,2.3262298107147217
1772790760678958000,6.1839580078125,-0.36377182602882385,-0.0015156613662838936,2.4715328216552734
1772790760689023200,6.194023193359375,-0.3765003979206085,0.1350054293870926,2.371108293533325
1772790760699088400,6.20408837890625,-0.3740350008010864,0.3881204128265381,2.058767795562744
1772790760709153300,6.2141533203125,-0.43098002672195435,0.7302769422531128,1.519991159439087
1772790760719218200,6.22421826171875,-0.6177591681480408,0.8816344141960144,0.6858084201812744
1772790760729284400,6.234284423828125,-0.8774152398109436,0.6946600079536438,-0.3186001181602478
1772790760739349200,6.244349365234375,-1.065078854560852,0.18843799829483032,-1.3533514738082886
1772790760749414100,6.2544140625,-1.1585872173309326,-0.4388118088245392,-2.145742654800415
1772790760759479300,6.264479248046875,-1.0398762226104736,-0.9426349401473999,-2.650773286819458
1772790760769544200,6.274544189453125,-0.7433774471282959,-1.2585010528564453,-2.9073405265808105
1772790760779609000,6.284609130859375,-0.3886333703994751,-1.3667895793914795,-2.9498941898345947
1772790760789674200,6.29467431640625,-0.019808994606137276,-1.288472056388855,-2.814857006072998
1772790760799739400,6.304739501953125,0.3273913264274597,-1.0972657203674316,-2.53521728515625
1772790760809804300,6.31480419921875,0.5765848755836487,-0.8354015946388245,-2.197143793106079
1772790760819869200,6.324869140625,0.6696823835372925,-0.5936185121536255,-1.865305781364441
1772790760829934300,6.334934326171875,0.6261351704597473,-0.45187631249427795,-1.5975570678710938
1772790760839999200,6.344999267578125,0.4939752519130707,-0.40458816289901733,-1.3539172410964966
1772790760850064400,6.355064453125,0.3133889436721802,-0.32452210783958435,-1.0963616371154785
1772790760860129300,6.36512939453125,0.15811707079410553,-0.07001471519470215,-0.804924726486206
1772790760870194200,6.375194091796875,0.04884997755289078,0.4028463065624237,-0.47224295139312744
1772790760880259300,6.38525927734375,-0.061218537390232086,1.1000269651412964,-0.06148277595639229
1772790760890324500,6.395324462890625,-0.19746559858322144,1.9434453248977661,0.34151795506477356
1772790760900390100,6.40539013671875,-0.3829088807106018,2.6506145000457764,0.6534723043441772
1772790760910455300,6.415455322265625,-0.6474382877349854,2.6777498722076416,0.9557597637176514
1772790760920520200,6.425520263671875,-0.8524402976036072,2.035662889480591,1.145022988319397
1772790760930585000,6.435585205078125,-0.9320421814918518,0.7878580093383789,1.4534540176391602
1772790760940650200,6.445650146484375,-0.7751888632774353,-0.481702983379364,2.077115535736084
1772790760950715400,6.45571533203125,-0.24142666161060333,-1.0213555097579956,2.724252223968506
1772790760960780000,6.465780029296875,0.5265918970108032,-0.9258142709732056,3.215573310852051
1772790760970845200,6.47584521484375,1.3089823722839355,-0.4748806357383728,3.3332505226135254
1772790760980910300,6.485910400390625,1.742523193359375,0.009029380977153778,2.864655017852783
1772790760990975200,6.495975341796875,1.7671091556549072,0.41327592730522156,1.8426049947738647
1772790761001040100,6.5060400390625,1.6958650350570679,0.5461920499801636,0.6356598734855652
1772790761011105300,6.516105224609375,1.7321983575820923,0.3272525668144226,-0.39921173453330994
1772790761021170200,6.526170166015625,1.936092734336853,0.0379997193813324,-1.0967761278152466
1772790761031235300,6.5362353515625,2.2702033519744873,-0.16039219498634338,-1.435423731803894
1772790761041300200,6.54630029296875,2.6910476684570312,-0.33094561100006104,-1.4697211980819702
1772790761051365000,6.556365234375,3.144381523132324,-0.42110052704811096,-1.3461565971374512
1772790761061430300,6.56643017578125,3.5311529636383057,-0.3795625865459442,-1.177793025970459
1772790761071496200,6.57649609375,3.760488986968994,-0.20761850476264954,-0.9833939671516418
1772790761081561300,6.586561279296875,3.7901082038879395,0.05599050596356392,-0.7333590984344482
1772790761091626200,6.596626220703125,3.5796902179718018,0.28361356258392334,-0.36588096618652344
1772790761101691100,6.606691162109375,3.2001988887786865,0.34119799733161926,0.08683166652917862
1772790761111756300,6.61675634765625,2.7553577423095703,0.2953015863895416,0.5386201739311218
1772790761121821200,6.6268212890625,2.3285813331604004,0.3410000801086426,0.9420318007469177
1772790761131886300,6.63688623046875,1.9691884517669678,0.40934425592422485,1.3035359382629395
1772790761141951200,6.646951171875,1.6180179119110107,0.4560219645500183,1.6033751964569092
1772790761152016100,6.65701611328125,1.2669248580932617,0.530015766620636,1.8000012636184692
1772790761162081300,6.667081298828125,0.9086520671844482,0.6135591864585876,1.858092188835144
1772790761172146400,6.677146484375,0.5146323442459106,0.6633219718933105,1.760432481765747
1772790761182211000,6.687211181640625,0.04631805047392845,0.6774795651435852,1.4941561222076416
1772790761192276200,6.697276123046875,-0.4856712818145752,0.6670413017272949,1.088249683380127
1772790761202341400,6.70734130859375,-1.1008670330047607,0.5925315022468567,0.6312959790229797
1772790761212406300,6.71740625,-1.781071424484253,0.46434128284454346,0.13219161331653595
1772790761222471200,6.72747119140625,-2.456986904144287,0.22974874079227448,-0.3753674626350403
1772790761232536300,6.737536376953125,-3.0184342861175537,-0.09535291790962219,-0.8228539228439331
1772790761242602200,6.747602294921875,-3.3821656703948975,-0.39006173610687256,-1.157657265663147
1772790761252667100,6.757667236328125,-3.4793150424957275,-0.5141165852546692,-1.3067940473556519
1772790761262732300,6.767732177734375,-3.274871587753296,-0.4496466815471649,-1.1921952962875366
1772790761272797400,6.77779736328125,-2.8040246963500977,-0.24382349848747253,-0.8048608303070068
1772790761282862000,6.787862060546875,-2.1430282592773438,-0.006488152779638767,-0.2532416880130768
1772790761292927200,6.79792724609375,-1.3710530996322632,0.1280241161584854,0.3237398862838745
1772790761302992400,6.807992431640625,-0.6387168765068054,-0.04829418659210205,0.8303322196006775
1772790761313057300,6.818057373046875,-0.16237697005271912,-0.5264328122138977,1.1922060251235962
1772790761323122200,6.8281220703125,-0.09372920542955399,-0.9683937430381775,1.3918304443359375
1772790761333187300,6.838187255859375,-0.4144395589828491,-1.1269030570983887,1.4336426258087158
1772790761343252200,6.848252197265625,-1.0093716382980347,-1.0100491046905518,1.2902027368545532
1772790761353317400,6.8583173828125,-1.6770706176757812,-0.6080893874168396,0.9651165008544922
1772790761363382300,6.86838232421875,-2.1277310848236084,0.1135723665356636,0.4183235168457031
1772790761373447200,6.878447265625,-2.1945745944976807,1.1751803159713745,-0.19598226249217987
1772790761383512300,6.88851220703125,-1.9880127906799316,2.348586082458496,-0.5768879055976868
1772790761393577200,6.8985771484375,-1.55888831615448,2.9870986938476562,-0.4785408675670624
1772790761403643100,6.90864306640625,-0.8846157789230347,2.6968932151794434,0.1827065348625183
1772790761413708300,6.918708251953125,-0.21921755373477936,1.7796988487243652,1.2048320770263672
1772790761423773200,6.928773193359375,0.14048819243907928,0.7914444208145142,2.0183522701263428
1772790761433838000,6.938838134765625,0.16209469735622406,-0.08792314678430557,2.4558324813842773
1772790761443903200,6.9489033203125,-0.04250802472233772,-0.6308654546737671,2.6840195655822754
1772790761453968400,6.958968505859375,-0.27175211906433105,-0.5300384163856506,2.7035067081451416
1772790761464033000,6.969032958984375,-0.3654155731201172,0.1618262678384781,2.631439208984375
1772790761474098200,6.97909814453125,-0.2861785292625427,1.0933643579483032,2.5682268142700195
1772790761484163300,6.989163330078125,-0.013668461702764034,1.8810582160949707,2.516859769821167
1772790761494228200,6.999228271484375,0.4292019009590149,2.2464470863342285,2.472322940826416
1772790761504293000,7.009293212890625,0.9492400288581848,2.2444546222686768,2.4012341499328613
1772790761514358300,7.019358154296875,1.4384185075759888,2.0478708744049072,2.236809730529785
1772790761524422700,7.029422607421875,1.792678952217102,1.7635856866836548,1.9636826515197754
1772790761534487800,7.03948779296875,1.9810457229614258,1.4935989379882812,1.501866340637207
1772790761544552400,7.049552490234375,2.0058724880218506,1.1936378479003906,0.8399271965026855
1772790761554617600,7.05961767578125,1.887406349182129,0.7692825198173523,0.10864847898483276
1772790761564682800,7.069682861328125,1.6865185499191284,0.19831231236457825,-0.5213316679000854
1772790761574748400,7.07974853515625,1.4451814889907837,-0.37594935297966003,-0.9699853658676147
1772790761584813600,7.0898134765625,1.1646559238433838,-0.766595721244812,-1.220506191253662
1772790761594878700,7.099878662109375,0.9006239175796509,-0.8857365250587463,-1.341059684753418
1772790761604943600,7.109943603515625,0.6077219247817993,-0.7643458843231201,-1.4104212522506714
1772790761615008500,7.120008544921875,0.2856117784976959,-0.43158793449401855,-1.4629837274551392
1772790761625073700,7.13007373046875,-0.056225311011075974,0.003987492993474007,-1.5938971042633057
1772790761635138600,7.140138671875,-0.3909125030040741,0.39911988377571106,-1.8343645334243774
1772790761645203700,7.15020361328125,-0.698966920375824,0.5563690662384033,-2.1267058849334717
1772790761655268600,7.1602685546875,-0.9550226926803589,0.4547894597053528,-2.4417612552642822
1772790761665333500,7.17033349609375,-1.123569130897522,0.1473620980978012,-2.758636474609375
1772790761675398700,7.180398681640625,-1.1882058382034302,-0.28212401270866394,-2.9937989711761475
1772790761685463600,7.190463623046875,-1.1180599927902222,-0.7364704608917236,-3.0687906742095947
1772790761695528400,7.200528564453125,-0.7692649960517883,-1.0879243612289429,-2.9102070331573486
1772790761705593600,7.210593505859375,-0.16007234156131744,-1.3353320360183716,-2.5432515144348145
1772790761715658800,7.22065869140625,0.43080344796180725,-1.422337532043457,-2.05791974067688
1772790761725723400,7.230723388671875,0.8249338865280151,-1.4229787588119507,-1.5592916011810303
1772790761735788500,7.24078857421875,0.9847174286842346,-1.447541356086731,-1.0844255685806274
1772790761745854700,7.250854736328125,0.9951910376548767,-1.4623335599899292,-0.6215843558311462
1772790761755919600,7.260919677734375,0.9567435383796692,-1.3588978052139282,-0.17300204932689667
1772790761765984500,7.270984619140625,0.9265729188919067,-1.1396957635879517,0.2213638424873352
1772790761776049700,7.281049560546875,0.8961620330810547,-0.8932697772979736,0.5568060278892517
1772790761786114800,7.29111474609375,0.8279343247413635,-0.6596538424491882,0.8227548599243164
1772790761796179500,7.301179443359375,0.7391357421875,-0.403585284948349,1.037671446800232
1772790761806244600,7.31124462890625,0.5945703387260437,-0.023434465751051903,1.0943375825881958
1772790761816309800,7.321309814453125,0.36486199498176575,0.5022644400596619,0.9007564187049866
1772790761826374700,7.331374755859375,0.04053506255149841,1.081207513809204,0.43806198239326477
1772790761836439600,7.341439453125,-0.4386720061302185,1.539240837097168,-0.19820739328861237
1772790761846504700,7.351504638671875,-1.0693297386169434,1.8038331270217896,-0.9115801453590393
1772790761856569600,7.361569580078125,-1.8688186407089233,1.882264256477356,-1.5848325490951538
1772790761866634500,7.371634521484375,-2.7535343170166016,1.6959359645843506,-2.0624444484710693
1772790761876699600,7.38169970703125,-3.2998409271240234,1.430222988128662,-2.2805984020233154
1772790761886764500,7.3917646484375,-3.208862066268921,1.3635344505310059,-2.1936357021331787
1772790761896829700,7.40182958984375,-2.6467270851135254,1.2409327030181885,-1.7517753839492798
1772790761906894600,7.41189453125,-1.986659288406372,1.0360547304153442,-1.1500744819641113
1772790761916960800,7.421960693359375,-1.5441876649856567,0.8145985007286072,-0.5001502633094788
1772790761927025700,7.432025634765625,-1.3173257112503052,0.6213030815124512,0.10912744700908661
1772790761937090600,7.442090576171875,-1.16130793094635,0.466165155172348,0.6949962973594666
1772790761947155700,7.45215576171875,-0.9137399792671204,0.27842602133750916,1.3670480251312256
1772790761957220600,7.462220703125,-0.5611467957496643,0.03169266879558563,2.0751943588256836
1772790761967285800,7.47228564453125,-0.18114113807678223,-0.12455415725708008,2.743875026702881
1772790761977350700,7.4823505859375,0.17239801585674286,-0.20286893844604492,3.419278383255005
1772790761987415600,7.49241552734375,0.49217069149017334,-0.26356789469718933,4.048128604888916
1772790761997480700,7.502480712890625,0.8080610036849976,-0.2906695604324341,4.48209810256958
1772790762007545600,7.512545654296875,1.150545358657837,-0.2987493872642517,4.71662712097168
1772790762017610500,7.522610595703125,1.5236271619796753,-0.33541151881217957,4.774379253387451
1772790762027675600,7.532675537109375,1.8469719886779785,-0.3330020606517792,4.621100425720215
1772790762037740800,7.54274072265625,2.089038133621216,-0.2541988492012024,4.261929512023926
1772790762047805400,7.552805419921875,2.194617986679077,-0.14825445413589478,3.7547261714935303
1772790762057870600,7.56287060546875,2.122992515563965,-0.06347084790468216,3.117063283920288
1772790762067935700,7.572935791015625,1.9534178972244263,-0.08890391886234283,2.4077398777008057
1772790762078000600,7.583000732421875,1.7453114986419678,-0.21919003129005432,1.7215708494186401
1772790762088066600,7.593066650390625,1.5506947040557861,-0.38213640451431274,1.152987003326416
1772790762098131700,7.603131591796875,1.3880162239074707,-0.4227762520313263,0.6289459466934204
1772790762108196600,7.613196533203125,1.1903491020202637,-0.33615824580192566,0.10379979759454727
1772790762118261500,7.623261474609375,0.9273310303688049,-0.19239948689937592,-0.366538405418396
1772790762128326700,7.63332666015625,0.6244783401489258,0.004353235475718975,-0.8129328489303589
1772790762138391800,7.643391845703125,0.28292176127433777,0.17675510048866272,-1.2974730730056763
1772790762148456400,7.65345654296875,-0.0735246017575264,0.29788604378700256,-1.7871662378311157
1772790762158521600,7.663521484375,-0.4257816970348358,0.3989807069301605,-2.25555157661438
1772790762168586800,7.673586669921875,-0.7649562954902649,0.5128031373023987,-2.6759910583496094
1772790762178651600,7.683651611328125,-1.0770071744918823,0.6210859417915344,-3.038768768310547
1772790762188716500,7.693716552734375,-1.3406696319580078,0.7063153386116028,-3.3164913654327393
1772790762198781700,7.70378173828125,-1.501731514930725,0.7524527907371521,-3.4994053840637207
1772790762208846600,7.7138466796875,-1.569836139678955,0.7586501240730286,-3.5715577602386475
1772790762218911700,7.723911865234375,-1.5547250509262085,0.7343961596488953,-3.512446165084839
1772790762228976600,7.7339765625,-1.479103684425354,0.7166674137115479,-3.3432750701904297
1772790762239042600,7.74404248046875,-1.366719365119934,0.7364994287490845,-3.084528923034668
1772790762249107700,7.754107666015625,-1.2382287979125977,0.7589032649993896,-2.7041115760803223
1772790762259172600,7.764172607421875,-1.1098426580429077,0.6965030431747437,-2.1778416633605957
1772790762269237500,7.774237548828125,-1.0069347620010376,0.6433725953102112,-1.5894544124603271
1772790762279302700,7.784302734375,-0.9373502135276794,0.7412917017936707,-1.099831223487854
1772790762289367600,7.794367431640625,-0.9552652835845947,1.0659644603729248,-0.785402774810791
1772790762299432400,7.804432373046875,-1.121842622756958,1.4922467470169067,-0.6100977659225464
1772790762309497600,7.81449755859375,-1.3674180507659912,1.8605537414550781,-0.5545031428337097
1772790762319562800,7.824562744140625,-1.5220861434936523,1.961863398551941,-0.5125367641448975
1772790762329627400,7.83462744140625,-1.4695043563842773,1.7972910404205322,-0.6242711544036865
1772790762339692500,7.844692626953125,-1.0669646263122559,1.285799264907837,-0.9805248975753784
1772790762349757700,7.8547578125,-0.44386324286460876,0.38694995641708374,-1.3411442041397095
1772790762359822600,7.864822509765625,0.2050796002149582,-0.5740948915481567,-1.5197025537490845
1772790762369887500,7.874887451171875,0.6877286434173584,-1.4133491516113281,-1.3914339542388916
1772790762379952600,7.88495263671875,0.9140164256095886,-1.9323170185089111,-0.9219874143600464
1772790762390017500,7.895017578125,0.9040937423706055,-2.0607008934020996,-0.1243773102760315
1772790762400082700,7.905082763671875,0.7074025273323059,-1.7095625400543213,0.8431988954544067
1772790762410148600,7.915148681640625,0.5058761239051819,-1.1003990173339844,1.8446285724639893
1772790762420213800,7.9252138671875,0.5147143602371216,-0.5621323585510254,2.8372180461883545
1772790762430278700,7.935278564453125,0.7670813202857971,-0.24938753247261047,3.780794382095337
1772790762440343600,7.945343505859375,1.100329041481018,-0.15326392650604248,4.568342685699463
1772790762450408700,7.95540869140625,1.408237338066101,-0.20465192198753357,5.045721054077148
1772790762460473600,7.9654736328125,1.633948564529419,-0.3619520664215088,5.156341075897217
1772790762470538500,7.97553857421875,1.7741494178771973,-0.5854588150978088,4.963286876678467
1772790762480603600,7.985603759765625,1.8787837028503418,-0.7812137007713318,4.5819268226623535
1772790762490668500,7.99566845703125,1.954041600227356,-0.8740431070327759,4.035888195037842
1772790762500733700,8.005733642578125,1.9463468790054321,-0.8454194664955139,3.3491880893707275
1772790762510798600,8.015798583984376,1.8339017629623413,-0.7686911821365356,2.6145431995391846
1772790762520863500,8.025863525390625,1.658103346824646,-0.7213830947875977,1.891159176826477
1772790762530929700,8.0359296875,1.4675037860870361,-0.7800822854042053,1.1976094245910645
1772790762540994300,8.045994384765624,1.251924991607666,-0.8821932077407837,0.5526701211929321
1772790762551059500,8.0560595703125,1.0227336883544922,-0.9267886877059937,-0.01209165807813406
1772790762561124600,8.06612451171875,0.7706508636474609,-0.8669818043708801,-0.4576379656791687
1772790762571189500,8.076189453125,0.47689345479011536,-0.6797798275947571,-0.8102862238883972
1772790762581254400,8.08625439453125,0.14200761914253235,-0.39866533875465393,-1.1123344898223877
1772790762591319600,8.096319580078125,-0.24456384778022766,-0.06028951704502106,-1.404004454612732
1772790762601384400,8.106384521484374,-0.658508837223053,0.28151920437812805,-1.767126202583313
1772790762611450400,8.116450439453125,-1.023891806602478,0.5299661159515381,-2.2258434295654297
1772790762621515500,8.126515625,-1.3084303140640259,0.6677359938621521,-2.717890739440918
1772790762631580700,8.13658056640625,-1.5184038877487183,0.7325230240821838,-3.155574083328247
1772790762641645300,8.146645263671875,-1.6565817594528198,0.7906150817871094,-3.4786741733551025
1772790762651710500,8.15671044921875,-1.7282031774520874,0.9299280643463135,-3.646939277648926
1772790762661775600,8.166775634765624,-1.7246217727661133,1.1105239391326904,-3.683749198913574
1772790762671840500,8.176840576171875,-1.6913124322891235,1.2585235834121704,-3.648829698562622
1772790762681905400,8.186905517578126,-1.7180298566818237,1.3155629634857178,-3.5998001098632812
1772790762691970600,8.196970458984374,-1.8104286193847656,1.1957868337631226,-3.5713348388671875
1772790762702035500,8.207035400390625,-1.8768219947814941,0.9195291996002197,-3.542839527130127
1772790762712100600,8.2171005859375,-1.8769336938858032,0.5010465979576111,-3.3913698196411133
1772790762722165500,8.22716552734375,-1.765271544456482,-0.10024191439151764,-3.0328545570373535
1772790762732230400,8.23723046875,-1.4918960332870483,-0.7142670750617981,-2.3869504928588867
1772790762742295600,8.247295654296876,-1.063790202140808,-0.9879074096679688,-1.486194133758545
1772790762752360700,8.257360595703124,-0.6511093378067017,-0.6476404070854187,-0.42842230200767517
1772790762762425300,8.26742529296875,-0.42933332920074463,0.15817777812480927,0.5658119320869446
1772790762772490500,8.277490478515626,-0.4051593244075775,0.9693230390548706,1.2545379400253296
1772790762782556400,8.287556396484375,-0.46957215666770935,1.4313868284225464,1.5851317644119263
1772790762792621300,8.297621337890625,-0.5307214856147766,1.5188173055648804,1.5977625846862793
1772790762802686500,8.3076865234375,-0.46247661113739014,1.2971833944320679,1.3589398860931396
1772790762812751600,8.317751708984375,-0.09097236394882202,0.7916209101676941,1.1380815505981445
1772790762822816500,8.32781640625,0.6306199431419373,0.20170490443706512,1.1331571340560913
1772790762832881400,8.33788134765625,1.5014278888702393,-0.15958768129348755,1.2769956588745117
1772790762842946600,8.347946533203125,2.1254892349243164,-0.12661586701869965,1.3966730833053589
1772790762853011700,8.35801171875,2.325626850128174,0.05435427650809288,1.4098550081253052
1772790762863076400,8.368076416015626,2.1090126037597656,0.21099714934825897,1.3144760131835938
1772790762873141500,8.3781416015625,1.6527506113052368,0.277850478887558,1.1385648250579834
1772790762883206700,8.38820654296875,1.2501150369644165,0.14314165711402893,0.9464291930198669
1772790762893271600,8.398271484375,1.0879099369049072,-0.11594493687152863,0.8351254463195801
1772790762903336400,8.40833642578125,1.1105188131332397,-0.33116379380226135,0.8379915356636047
1772790762913401600,8.418401611328125,1.1665657758712769,-0.38754159212112427,0.9097467660903931
1772790762923466500,8.428466552734376,1.1821495294570923,-0.32064858078956604,1.0104360580444336
1772790762933531600,8.43853173828125,1.1252632141113281,-0.19055762887001038,1.1106603145599365
1772790762943596500,8.448596435546875,1.0295192003250122,-0.10710667073726654,1.1934294700622559
1772790762953662500,8.458662353515624,0.9251763820648193,-0.17306692898273468,1.235002040863037
1772790762963727400,8.468727294921875,0.8348233103752136,-0.3644779324531555,1.2253578901290894
1772790762973792500,8.47879248046875,0.7420799136161804,-0.5415052771568298,1.1608878374099731
1772790762983857400,8.488857421875,0.6277583837509155,-0.6229745149612427,1.0621683597564697
1772790762993922600,8.498922607421875,0.5221225023269653,-0.6352787017822266,0.9960557222366333
1772790763003987500,8.508987548828125,0.4766048491001129,-0.6020389795303345,1.0104178190231323
1772790763014052400,8.51905224609375,0.5161893963813782,-0.503350555896759,1.0984681844711304
1772790763024117500,8.529117431640625,0.5614487528800964,-0.3528137803077698,1.2034587860107422
1772790763034182700,8.5391826171875,0.5309957265853882,-0.15204402804374695,1.2200673818588257
1772790763044247300,8.549247314453124,0.3810320496559143,0.07882913947105408,1.0929418802261353
1772790763054312400,8.5593125,0.0923924669623375,0.3185996413230896,0.7752460837364197
1772790763064377600,8.569377685546876,-0.33289995789527893,0.5759922862052917,0.26609763503074646
1772790763074442500,8.5794423828125,-0.8664110898971558,0.8885372281074524,-0.39351725578308105
1772790763084507400,8.58950732421875,-1.3675439357757568,1.1793841123580933,-1.1425566673278809
1772790763094572500,8.599572509765625,-1.7680935859680176,1.3913646936416626,-1.909191370010376
1772790763104638500,8.609638427734374,-2.040992021560669,1.497510313987732,-2.6286940574645996
1772790763114703400,8.619703369140625,-2.1487932205200195,1.4764750003814697,-3.274355411529541
1772790763124768500,8.6297685546875,-2.104034423828125,1.2993683815002441,-3.817023754119873
1772790763134833700,8.639833740234375,-1.9595237970352173,1.0088727474212646,-4.2570881843566895
1772790763144898300,8.649898193359375,-1.7391796112060547,0.7064329385757446,-4.580730438232422
1772790763154963500,8.65996337890625,-1.4558371305465698,0.5241556167602539,-4.767930507659912
1772790763165028600,8.670028564453125,-1.1647696495056152,0.44760093092918396,-4.773636817932129
1772790763175093500,8.680093505859375,-0.8878625631332397,0.3122624158859253,-4.565964221954346
1772790763185158400,8.690158447265626,-0.6394767165184021,0.15669038891792297,-4.13571834564209
1772790763195223600,8.7002236328125,-0.3586457371711731,0.076511450111866,-3.5149765014648438
1772790763205289700,8.710289794921875,-0.07580766081809998,0.06628783792257309,-2.702836275100708
1772790763215354400,8.720354248046876,0.1296912282705307,0.21572081744670868,-1.7819569110870361
1772790763225419500,8.73041943359375,0.1677299588918686,0.6782644987106323,-0.9113113284111023
1772790763235484700,8.740484619140625,0.03562191501259804,1.2958793640136719,-0.14222389459609985
1772790763245549600,8.750549560546874,-0.1962408721446991,1.7333825826644897,0.40746188163757324
1772790763255614500,8.760614501953125,-0.39935851097106934,1.7025105953216553,0.6106564998626709
1772790763265679600,8.7706796875,-0.4131653904914856,1.2697701454162598,0.4861923158168793
1772790763275744500,8.78074462890625,-0.14050491154193878,0.571994423866272,0.19040945172309875
1772790763285809400,8.790809326171875,0.39013659954071045,-0.2685686945915222,-0.11587990075349808
1772790763295874600,8.80087451171875,0.9608644843101501,-1.0327030420303345,-0.2940056324005127
1772790763305939500,8.810939453125,1.3164560794830322,-1.5604312419891357,-0.42701587080955505
1772790763316004600,8.821004638671875,1.423736572265625,-1.8556721210479736,-0.6385284066200256
1772790763326069500,8.831069580078125,1.366421103477478,-2.048124313354492,-0.8729875087738037
1772790763336134400,8.841134521484374,1.1942309141159058,-2.177595853805542,-1.1018850803375244
1772790763346199600,8.851199462890625,0.9660528302192688,-2.172361135482788,-1.351322889328003
1772790763356264700,8.8612646484375,0.8103542923927307,-2.1355786323547363,-1.5163288116455078
1772790763366330400,8.871330322265624,0.7986931204795837,-2.2398788928985596,-1.4396748542785645
1772790763376395500,8.8813955078125,0.8596686124801636,-2.4644055366516113,-1.105661153793335
1772790763386460400,8.89146044921875,0.9001870155334473,-2.7330241203308105,-0.625437319278717
1772790763396525300,8.901525390625,0.9088261127471924,-2.952685832977295,-0.11316933482885361
1772790763406590500,8.911590576171875,0.8900159597396851,-3.027372121810913,0.30205637216567993
1772790763416655600,8.921655517578126,0.862135112285614,-2.809849500656128,0.5976602435112
1772790763426720300,8.93172021484375,0.8503106832504272,-2.3250155448913574,0.8464271426200867
1772790763436785400,8.941785400390625,0.794318437576294,-1.788177251815796,1.1142724752426147
1772790763446850600,8.9518505859375,0.6624903678894043,-1.318204641342163,1.3679125308990479
1772790763456915500,8.96191552734375,0.49177759885787964,-1.0371952056884766,1.552538514137268
1772790763466980400,8.97198046875,0.31668195128440857,-0.9435184597969055,1.6413387060165405
1772790763477045500,8.98204541015625,0.1462772786617279,-0.9556829929351807,1.6492210626602173
1772790763487110400,8.9921103515625,0.005420546978712082,-1.0213449001312256,1.6138331890106201
1772790763497175600,9.002175537109375,-0.09799186140298843,-1.0459372997283936,1.5754477977752686
1772790763507240400,9.012240478515626,-0.18801842629909515,-0.9618844389915466,1.610480546951294
1772790763517305300,9.022305419921874,-0.28379663825035095,-0.7543274760246277,1.7239716053009033
1772790763527367400,9.032367431640624,-0.3697037994861603,-0.500273585319519,1.8572574853897095
1772790763537432300,9.042432373046875,-0.4120485782623291,-0.2854479253292084,1.8835886716842651
1772790763547497200,9.052497314453126,-0.42649462819099426,-0.1284644454717636,1.7210965156555176
1772790763557562400,9.062562255859374,-0.41870787739753723,-0.04668629169464111,1.3923839330673218
1772790763567627300,9.072627197265625,-0.4154055714607239,-0.052119672298431396,0.948832631111145
1772790763577692200,9.082692138671876,-0.4596482515335083,-0.069877989590168,0.4582446217536926
1772790763587757300,9.09275732421875,-0.5471403002738953,-0.10685677826404572,-0.016461167484521866
1772790763597822200,9.102822265625,-0.6230247616767883,-0.14386895298957825,-0.45810696482658386
1772790763607887400,9.112887451171876,-0.6409164071083069,-0.12822261452674866,-0.8514923453330994
1772790763617952300,9.1229521484375,-0.5625255703926086,-0.05183100700378418,-1.1543418169021606
1772790763628017200,9.13301708984375,-0.35693249106407166,0.02301687002182007,-1.3484244346618652
1772790763638082300,9.143082275390626,-0.06952027231454849,0.058127809315919876,-1.4052906036376953
1772790763648147500,9.1531474609375,0.19163809716701508,0.02475840225815773,-1.311103105545044
1772790763658212000,9.163212158203125,0.3265424966812134,-0.0559229850769043,-1.0993366241455078
1772790763668277200,9.17327734375,0.39033693075180054,-0.20104262232780457,-0.8435437083244324
1772790763678342400,9.18334228515625,0.42838364839553833,-0.5052422285079956,-0.5577796101570129
1772790763688408000,9.193407958984375,0.416935533285141,-0.8671040534973145,-0.23372803628444672
1772790763698473200,9.20347314453125,0.3273847997188568,-0.9891359806060791,0.08251681923866272
1772790763708538400,9.213538330078125,0.18816512823104858,-0.7739967703819275,0.37943583726882935
1772790763718603000,9.22360302734375,0.08026383072137833,-0.3576401472091675,0.6140442490577698
1772790763728668200,9.233668212890626,0.03203931078314781,0.06576065719127655,0.703985333442688
1772790763738733300,9.2437333984375,0.08852562308311462,0.2608916461467743,0.6104522943496704
1772790763748798200,9.253798095703125,0.19400544464588165,-0.04116300493478775,0.4696733355522156
1772790763758863000,9.263863037109376,0.288129597902298,-0.7532869577407837,0.38307684659957886
1772790763768928300,9.27392822265625,0.2516357898712158,-1.4784190654754639,0.38964155316352844
1772790763778993200,9.2839931640625,-0.039323557168245316,-2.1433300971984863,0.5994024276733398
1772790763789058300,9.294058349609376,-0.46024709939956665,-2.477738857269287,0.9256966710090637
1772790763799123200,9.304123291015625,-0.8022045493125916,-2.1314220428466797,1.1103103160858154
1772790763809188000,9.31418798828125,-1.0795294046401978,-1.0033782720565796,0.9664180874824524
1772790763819253200,9.324253173828126,-1.3147410154342651,0.4182097017765045,0.5732867121696472
1772790763829319200,9.334319091796875,-1.4806969165802002,1.3759998083114624,0.2677856981754303
1772790763839384300,9.34438427734375,-1.4851073026657104,1.5879460573196411,0.024820562452077866
1772790763849449200,9.35444921875,-1.2897881269454956,1.0921064615249634,-0.21394328773021698
1772790763859514000,9.36451416015625,-1.0270382165908813,0.2547549903392792,-0.45262014865875244
1772790763869579300,9.374579345703125,-0.8120227456092834,-0.5168378949165344,-0.6363460421562195
1772790763879644200,9.38464404296875,-0.5673223733901978,-0.9728295803070068,-0.6716876029968262
1772790763889709300,9.394709228515625,-0.2701839506626129,-1.0757935047149658,-0.5971020460128784
1772790763899774200,9.404774169921875,0.030027754604816437,-0.8216105103492737,-0.526544451713562
1772790763909839000,9.414839111328124,0.293727308511734,-0.36473485827445984,-0.5098360776901245
1772790763919904300,9.424904296875,0.4796481728553772,0.08743813633918762,-0.5579966902732849
1772790763929969400,9.434969482421875,0.5225415825843811,0.28878191113471985,-0.6164706349372864
1772790763940034000,9.445033935546874,0.4083736538887024,0.10080898553133011,-0.61107337474823
1772790763950099200,9.45509912109375,0.21953316032886505,-0.3034604787826538,-0.5269188284873962
1772790763960164400,9.465164306640625,0.05656016618013382,-0.6991345286369324,-0.36894696950912476
1772790763970229200,9.475229248046874,-0.054967157542705536,-0.8539323806762695,-0.12780040502548218
1772790763980295200,9.485295166015625,-0.11326602101325989,-0.7592169642448425,0.169728085398674
1772790763990360300,9.4953603515625,-0.14274507761001587,-0.4850594401359558,0.4630308151245117
1772790764000425200,9.50542529296875,-0.15124109387397766,-0.08017269521951675,0.6735720634460449
1772790764010490000,9.515489990234375,-0.15047118067741394,0.38237258791923523,0.7606416940689087
1772790764020555300,9.52555517578125,-0.1636439710855484,0.7589070796966553,0.7124358415603638
1772790764030620400,9.535620361328125,-0.21928273141384125,0.9413552284240723,0.5580872893333435
1772790764040685000,9.54568505859375,-0.28473377227783203,0.9063187837600708,0.31679195165634155
1772790764050750200,9.555750244140626,-0.3050864636898041,0.704130232334137,0.01456153392791748
1772790764060815400,9.5658154296875,-0.2835555374622345,0.4052557051181793,-0.2785593569278717
1772790764070880300,9.57588037109375,-0.2156294882297516,0.12895779311656952,-0.49262794852256775
1772790764080945200,9.585945068359376,-0.0993952751159668,-0.05457576364278793,-0.584459125995636
1772790764091010300,9.59601025390625,0.04350648075342178,-0.12597563862800598,-0.5528863072395325
1772790764101075200,9.6060751953125,0.19071117043495178,-0.10950519144535065,-0.40264782309532166
1772790764111140400,9.616140380859376,0.3284437358379364,-0.09137652069330215,-0.181118905544281
1772790764121205200,9.626205322265625,0.42972296476364136,-0.12704774737358093,0.06748933345079422
1772790764131270100,9.636270263671875,0.4928595721721649,-0.16045576333999634,0.29896092414855957
1772790764141336300,9.64633642578125,0.5407388806343079,-0.14505000412464142,0.4953475296497345
1772790764151401200,9.656401123046875,0.5689862370491028,-0.15271644294261932,0.7040109634399414
1772790764161466400,9.66646630859375,0.6133460402488708,-0.18300020694732666,0.9918445348739624
1772790764171531300,9.67653125,0.7998107075691223,-0.20262424647808075,1.38344144821167
1772790764181596200,9.68659619140625,1.1362935304641724,-0.4091995358467102,1.980129599571228
1772790764191661300,9.696661376953125,1.5375196933746338,-0.7358610033988953,2.7434561252593994
1772790764201726200,9.706726318359374,1.7767318487167358,-0.5820214152336121,3.263503313064575
1772790764211791400,9.716791259765625,1.5639938116073608,0.052078839391469955,2.960575819015503
1772790764221856300,9.726856201171875,0.9275344610214233,-0.004922277294099331,1.8801740407943726
1772790764231921200,9.736921142578124,0.20922082662582397,-0.8565540909767151,0.6258022785186768
1772790764241986300,9.746986328125,-0.48117706179618835,-1.5328738689422607,-0.6028190851211548
1772790764252051500,9.757051513671875,-1.2831147909164429,-1.9593710899353027,-1.6531237363815308
1772790764262116000,9.7671162109375,-1.8063781261444092,-1.6541950702667236,-2.397818088531494
1772790764272181200,9.77718115234375,-1.7546603679656982,-0.24384279549121857,-2.9316067695617676
1772790764282246400,9.787246337890625,-1.2106951475143433,1.1672132015228271,-3.218567371368408
1772790764292312000,9.79731201171875,-0.5305569171905518,1.6241761445999146,-3.2710864543914795
1772790764302377200,9.807377197265625,-0.01537447702139616,0.973914384841919,-3.166900396347046
1772790764312442400,9.8174423828125,0.17543195188045502,-0.25713449716567993,-2.987581491470337
1772790764322507300,9.82750732421875,0.12367009371519089,-1.4173583984375,-2.7637665271759033
1772790764332572200,9.837572265625,-0.04065306857228279,-2.127852201461792,-2.5159308910369873
1772790764342637300,9.84763720703125,-0.2357633113861084,-2.206448793411255,-2.2249338626861572
1772790764352702200,9.8577021484375,-0.3144245445728302,-1.7424484491348267,-1.881958246231079
1772790764362767000,9.86776708984375,-0.36853840947151184,-0.8841022253036499,-1.391221046447754
1772790764372832300,9.877832275390626,-0.456501305103302,-0.03849001228809357,-0.8301641345024109
1772790764382897200,9.887897216796874,-0.5448740124702454,0.4060938358306885,-0.3803839385509491
1772790764392962300,9.89796240234375,-0.6019953489303589,0.43813884258270264,-0.10492438822984695
1772790764403027200,9.908027099609376,-0.5819390416145325,0.18324825167655945,0.028200846165418625
1772790764413092000,9.918092041015624,-0.4920903742313385,-0.22000333666801453,0.11547582596540451
1772790764423157200,9.9281572265625,-0.4289190471172333,-0.6188929080963135,0.21205370128154755
1772790764433222400,9.938222412109376,-0.4151502549648285,-0.8472149968147278,0.3410969078540802
1772790764443288300,9.948288330078125,-0.4482320249080658,-0.8505340218544006,0.47909897565841675
1772790764453353200,9.958353271484375,-0.5272086262702942,-0.681411862373352,0.6152384281158447
1772790764463418400,9.96841845703125,-0.6230489015579224,-0.4155222773551941,0.678621232509613
1772790764473483300,9.978483154296875,-0.7361746430397034,-0.10986942052841187,0.6260405778884888
1772790764483548200,9.988548095703125,-0.8170350790023804,0.13153639435768127,0.48054084181785583
1772790764493613300,9.99861328125,-0.8539267778396606,0.2742767632007599,0.3238004744052887
1772790764503678200,10.00867822265625,-0.8453885316848755,0.31626400351524353,0.22395862638950348
1772790764513743000,10.0187431640625,-0.8069857358932495,0.3072982132434845,0.19946527481079102
1772790764523812400,10.028812255859375,-0.7416607737541199,0.2681935131549835,0.2583560049533844
1772790764533877200,10.038877197265625,-0.643704891204834,0.18422965705394745,0.4260590076446533
1772790764543942400,10.0489423828125,-0.5510395169258118,0.09627063572406769,0.672778308391571
1772790764554007300,10.05900732421875,-0.4925503432750702,0.03226795420050621,0.9645518660545349
1772790764564072400,10.069072509765626,-0.4833992123603821,0.05768221616744995,1.2880475521087646
1772790764574137300,10.079137451171874,-0.5313190817832947,0.18884983658790588,1.6167328357696533
1772790764584203500,10.08920361328125,-0.6164253354072571,0.2559559941291809,1.9411686658859253
1772790764594268400,10.099268310546876,-0.7262372970581055,0.23986119031906128,2.288991689682007
1772790764604333300,10.109333251953124,-0.7805348634719849,0.17642979323863983,2.7087793350219727
1772790764614398500,10.1193984375,-0.7293699979782104,0.08598112314939499,3.1002156734466553
1772790764624463400,10.12946337890625,-0.45393234491348267,0.11935973912477493,3.2005691528320312
1772790764634528500,10.139528564453125,-0.03514307364821434,0.24377678334712982,2.8564910888671875
1772790764644593400,10.149593505859375,0.24901150166988373,0.4313476085662842,2.065027952194214
1772790764654658300,10.159658203125,0.28700441122055054,0.49973201751708984,1.1438095569610596
1772790764664723500,10.169723388671875,0.22798098623752594,0.45659881830215454,0.38726845383644104
1772790764674788400,10.179788330078125,0.19965879619121552,0.195054829120636,0.06519561260938644
1772790764684853200,10.189853271484376,0.12051724642515182,-0.24316152930259705,0.13555434346199036
1772790764694918400,10.19991845703125,-0.1370495855808258,-0.6725624203681946,0.38177555799484253
1772790764704983600,10.209983642578125,-0.5275920629501343,-0.8543937802314758,0.6172147989273071
1772790764715048200,10.220048095703126,-0.8519595265388489,-0.7146233916282654,0.7357675433158875
1772790764725113300,10.23011328125,-1.0276966094970703,-0.2520071864128113,0.6537652015686035
1772790764735179500,10.240179443359375,-1.0663156509399414,0.375110000371933,0.3265162408351898
1772790764745244200,10.250244140625,-1.0811233520507812,0.8046358823776245,-0.1422281414270401
1772790764755309300,10.260309326171875,-1.102683186531067,0.8181424140930176,-0.5941029191017151
1772790764765374500,10.27037451171875,-1.0043224096298218,0.524732768535614,-0.994245171546936
1772790764775439400,10.280439453125,-0.7466114163398743,0.016576342284679413,-1.3678139448165894
1772790764785504300,10.290504150390625,-0.4180709421634674,-0.6092554926872253,-1.7052539587020874
1772790764795569400,10.3005693359375,-0.10713756829500198,-1.1519938707351685,-2.0073623657226562
1772790764805634300,10.31063427734375,0.16247381269931793,-1.558568000793457,-2.2741215229034424
1772790764815699500,10.320699462890625,0.34797152876853943,-1.758130669593811,-2.4346864223480225
1772790764825764400,10.330764404296875,0.42550235986709595,-1.7180750370025635,-2.4266903400421143
1772790764835829200,10.340829345703124,0.4380591809749603,-1.6726487874984741,-2.172551155090332
1772790764845894400,10.350894287109375,0.4068848490715027,-1.7250937223434448,-1.6968581676483154
1772790764855959300,10.360959228515625,0.39293015003204346,-1.9124202728271484,-1.11932373046875
1772790764866024200,10.371024169921874,0.4047749936580658,-2.2182555198669434,-0.5677606463432312
1772790764876090400,10.38109033203125,0.43442103266716003,-2.4745147228240967,-0.17010538280010223
1772790764886155300,10.3911552734375,0.44493305683135986,-2.606027126312256,0.1213964968919754
1772790764896220400,10.401220458984374,0.35919710993766785,-2.6197712421417236,0.39210471510887146
1772790764906285300,10.411285400390625,0.23390446603298187,-2.540266513824463,0.585329532623291
1772790764916350500,10.4213505859375,0.1298760622739792,-2.3524417877197266,0.6438538432121277
1772790764926415400,10.431415283203124,0.04470929503440857,-2.109901189804077,0.5918416976928711
1772790764936480300,10.441480224609375,-0.06498044729232788,-1.8217881917953491,0.49676284193992615
1772790764946545400,10.45154541015625,-0.15497371554374695,-1.4727232456207275,0.417574018239975
1772790764956610600,10.461610595703124,-0.1329064965248108,-1.268202304840088,0.3788447380065918
1772790764966675200,10.47167529296875,-0.08235351741313934,-1.0925393104553223,0.34885987639427185
1772790764976740400,10.481740234375,0.02646111324429512,-0.9216892719268799,0.31904152035713196
1772790764986805500,10.491805419921874,0.21041584014892578,-0.7023667693138123,0.3276631832122803
1772790764996870400,10.501870361328125,0.4682753384113312,-0.4135424494743347,0.3897843658924103
1772790765006935300,10.511935302734376,0.8009747862815857,-0.08511608839035034,0.4707702100276947
1772790765017000400,10.52200048828125,1.1802738904953003,0.2618336081504822,0.5597208738327026
1772790765027066400,10.53206640625,1.5616270303726196,0.529729962348938,0.6383635997772217
1772790765037131300,10.54213134765625,1.891785740852356,0.7180189490318298,0.6452963352203369
1772790765047196400,10.552196533203125,2.1206870079040527,0.9304652810096741,0.5817919969558716
1772790765057261600,10.562261474609375,2.2085864543914795,1.2360442876815796,0.5172699689865112
1772790765067326200,10.572326171875,2.092498540878296,1.5617225170135498,0.4988537132740021
1772790765077391400,10.582391357421875,1.7538621425628662,1.7084076404571533,0.5594435334205627
1772790765087456500,10.59245654296875,1.2541275024414062,1.7296184301376343,0.649818480014801
1772790765097521400,10.602521484375,0.7514406442642212,1.8707462549209595,0.6514896154403687
1772790765107586300,10.61258642578125,0.36487796902656555,2.2389473915100098,0.5582371354103088
1772790765117651500,10.6226513671875,0.11853450536727905,2.917100667953491,0.45725858211517334
1772790765127716400,10.63271630859375,-0.08880302309989929,3.621229648590088,0.4254882335662842
1772790765137781500,10.642781494140625,-0.40499642491340637,4.0009684562683105,0.4829089045524597
1772790765147846400,10.652846435546875,-0.7790635824203491,4.0472846031188965,0.5757154226303101
1772790765157911300,10.662911376953126,-1.1354840993881226,3.818197727203369,0.6104049682617188
1772790765167977200,10.672977294921875,-1.5150551795959473,3.2800445556640625,0.5871098041534424
1772790765178042400,10.68304248046875,-1.8560391664505005,2.8605000972747803,0.5682806968688965
1772790765188107300,10.693107177734374,-2.0504298210144043,2.7886765003204346,0.4585781395435333
1772790765198172400,10.70317236328125,-1.9886610507965088,2.8599917888641357,0.10353268682956696
1772790765208237300,10.7132373046875,-1.670904517173767,2.940598726272583,-0.5117390155792236
1772790765218302200,10.72330224609375,-1.1977508068084717,3.02396821975708,-1.3091562986373901
1772790765228367400,10.733367431640625,-0.7208718657493591,3.020134210586548,-2.0984723567962646
1772790765238432500,10.7434326171875,-0.3533113896846771,2.9304115772247314,-2.617173910140991
1772790765248497400,10.753497314453124,-0.09900739789009094,2.9090287685394287,-2.8146440982818604
1772790765258562300,10.763562255859375,0.012781718745827675,2.870758533477783,-2.8267245292663574
1772790765268627500,10.77362744140625,0.0997188538312912,2.3772478103637695,-2.8597583770751953
1772790765278692600,10.783692626953124,0.2471437156200409,1.3463613986968994,-2.9641358852386475
1772790765288757200,10.79375732421875,0.4169710874557495,0.044049009680747986,-3.0882723331451416
1772790765298822400,10.803822509765626,0.555314302444458,-1.0905125141143799,-3.2151737213134766
1772790765308888300,10.813888427734375,0.6618613600730896,-1.8515410423278809,-3.3085286617279053
1772790765318953200,10.823953125,0.764573335647583,-2.2210326194763184,-3.2335002422332764
1772790765329018400,10.834018310546876,0.9545024633407593,-2.433074712753296,-2.809821844100952
1772790765339083500,10.84408349609375,1.1824548244476318,-2.6085424423217773,-2.254159450531006
1772790765349148200,10.854148193359375,1.228452444076538,-2.692718744277954,-1.8166764974594116
1772790765359213300,10.86421337890625,1.1753958463668823,-2.4243807792663574,-1.4948302507400513
1772790765369278500,10.874278564453125,1.333651065826416,-1.669571042060852,-0.5909481048583984
1772790765379343400,10.88434326171875,1.3501136302947998,-0.6336190104484558,-0.110415019094944
1772790765389408300,10.894408203125,1.3275421857833862,0.4020999073982239,0.3416415750980377
1772790765399473400,10.904473388671875,1.2689342498779297,0.8881872892379761,0.8358606100082397
1772790765409538300,10.914538330078125,1.116613745689392,0.6203914284706116,1.0813589096069336
1772790765419603500,10.924603515625,0.9959103465080261,0.38861727714538574,1.1680206060409546
1772790765429668400,10.93466845703125,0.8754433989524841,0.2518467307090759,1.0822898149490356
1772790765439733200,10.944733154296875,0.7737244963645935,0.135000541806221,0.9134393334388733
1772790765449799400,10.95479931640625,0.721182107925415,0.0684577077627182,0.7527884840965271
1772790765459864300,10.9648642578125,0.6636104583740234,0.020062483847141266,0.5884628891944885
1772790765469929500,10.974929443359375,0.5960376858711243,-0.02749606966972351,0.41091692447662354
1772790765479994400,10.984994384765624,0.5577214360237122,-0.06401573121547699,0.22902676463127136
1772790765490059300,10.995059326171875,0.5979077219963074,-0.018639644607901573,0.07873445004224777
1772790765500124400,11.00512451171875,0.699614942073822,0.40751752257347107,0.049687616527080536
1772790765510189300,11.015189208984374,0.7116233706474304,1.1949552297592163,0.20641732215881348
1772790765520254500,11.02525439453125,0.6526053547859192,1.1769410371780396,0.32831233739852905
1772790765530319400,11.0353193359375,0.569866418838501,1.0458508729934692,0.4077779948711395
1772790765540384500,11.045384521484374,0.4806593060493469,0.981743574142456,0.4208003282546997
1772790765550449700,11.05544970703125,0.5188582539558411,0.7788611054420471,0.47956252098083496
1772790765560514600,11.0655146484375,0.682498574256897,0.6097168326377869,0.5974486470222473
1772790765570579500,11.075579345703124,0.8219232559204102,0.4281163215637207,0.5789498686790466
1772790765580644600,11.08564453125,0.8442570567131042,-0.15854452550411224,0.3483736217021942
1772790765590710500,11.09571044921875,0.7115643620491028,-1.1196837425231934,0.1861993372440338
1772790765600775400,11.105775390625,0.44645440578460693,-2.079070806503296,0.4777835011482239
1772790765610840600,11.115840576171875,0.06147163361310959,-2.248112440109253,1.1133191585540771
1772790765620905500,11.125905517578126,-0.4241888225078583,-1.8233240842819214,1.9689576625823975
1772790765630970400,11.135970458984374,-0.7113037109375,-1.3963147401809692,2.668426990509033
1772790765641035500,11.146035400390625,-0.5242294669151306,-1.2144168615341187,2.8387844562530518
1772790765651100400,11.156100341796876,0.06907369196414948,-1.4603090286254883,2.1636269092559814
1772790765661165600,11.16616552734375,0.7260614037513733,-1.740627408027649,0.810161828994751
1772790765671230500,11.17623046875,1.2178610563278198,-2.008547782897949,-0.5959792137145996
1772790765681295400,11.18629541015625,1.4091092348098755,-2.2606143951416016,-1.5750735998153687
1772790765691360500,11.196360595703124,1.3471256494522095,-2.495004653930664,-1.9689244031906128
1772790765701425700,11.20642578125,1.2331048250198364,-2.4918341636657715,-1.8927278518676758
1772790765711490300,11.216490234375,1.0250917673110962,-2.300083875656128,-1.5765748023986816
1772790765721555500,11.226555419921874,0.7699652314186096,-1.8033305406570435,-1.1840929985046387
1772790765731621400,11.236621337890625,0.5297614336013794,-1.3629196882247925,-0.878548264503479
1772790765741686500,11.2466865234375,0.37199732661247253,-0.958950400352478,-0.7363333702087402
1772790765751751400,11.25675146484375,0.23499861359596252,-0.5373057126998901,-0.7458570003509521
1772790765761816600,11.266816650390625,0.0883612409234047,-0.03783758729696274,-0.8307231068611145
1772790765771881500,11.276881591796876,0.053815845400094986,0.7992659211158752,-0.9775784015655518
1772790765781946400,11.2869462890625,0.12229477614164352,1.8224118947982788,-1.2192888259887695
1772790765792011500,11.297011474609375,0.23944489657878876,2.36505389213562,-1.4057471752166748
1772790765802076700,11.30707666015625,0.3878799080848694,2.9272053241729736,-1.4337413311004639
1772790765812141300,11.317141357421875,0.5169157981872559,3.4008474349975586,-1.3415015935897827
1772790765822206500,11.32720654296875,0.6121709942817688,3.679516315460205,-1.167540431022644
1772790765832271600,11.337271728515624,0.67188960313797,3.8599061965942383,-0.935234010219574
1772790765842336500,11.34733642578125,0.6650338172912598,3.9550223350524902,-0.6956259608268738
1772790765852401400,11.3574013671875,0.5770346522331238,3.948331832885742,-0.4760549068450928
1772790765862466600,11.367466552734374,0.4684080183506012,3.8165335655212402,-0.29971742630004883
1772790765872532500,11.377532470703125,0.3597925305366516,3.551600456237793,-0.16811487078666687
1772790765882597400,11.387597412109375,0.27161580324172974,3.0703041553497314,-0.1192365437746048
1772790765892662500,11.39766259765625,0.15250073373317719,2.4949073791503906,-0.07281538844108582
1772790765902727700,11.407727783203125,0.017083529382944107,1.8321082592010498,0.0023488765582442284
1772790765912792300,11.417792236328125,-0.11420445144176483,1.1317592859268188,0.15646441280841827
1772790765922857500,11.427857421875,-0.2159808725118637,0.47420674562454224,0.4025042653083801
1772790765932922600,11.437922607421875,-0.26253780722618103,-0.049434758722782135,0.6976909637451172
1772790765942987500,11.447987548828126,-0.20159587264060974,-0.1356133222579956,0.8390353322029114
1772790765953052400,11.458052490234374,-0.12795335054397583,-0.46105238795280457,0.9820478558540344
1772790765963117600,11.46811767578125,-0.06244278326630592,-0.8227325677871704,1.04976487159729
1772790765973182500,11.478182373046875,-0.018608486279845238,-1.181705117225647,0.9639338850975037
1772790765983247600,11.48824755859375,-0.054880738258361816,-1.456382155418396,0.8282346129417419
1772790765993312500,11.4983125,-0.2071460783481598,-1.5997803211212158,0.9331627488136292
1772790766003377400,11.50837744140625,-0.43017062544822693,-1.5727097988128662,1.4292683601379395
1772790766013443600,11.518443603515625,-0.6385564804077148,-1.2482904195785522,2.0330893993377686
1772790766023508500,11.528508544921875,-0.8292002081871033,-0.8055475950241089,2.2099297046661377
1772790766033573400,11.538573486328126,-0.9411863088607788,-0.4707774519920349,1.7345786094665527
1772790766043638500,11.548638427734375,-0.9401599168777466,-0.31551408767700195,0.9714036583900452
1772790766053703400,11.558703369140625,-0.8832209706306458,-0.2771237790584564,0.47008252143859863
1772790766063768300,11.568768310546876,-0.7827857136726379,-0.2733684480190277,0.4525218904018402
1772790766073833500,11.57883349609375,-0.6312116384506226,-0.3124929964542389,0.8103793859481812
1772790766083898600,11.588898681640625,-0.4835928976535797,-0.31673967838287354,1.3007512092590332
1772790766093963300,11.59896337890625,-0.32364270091056824,-0.32976922392845154,1.6267539262771606
1772790766104028400,11.6090283203125,-0.1911107450723648,-0.45150628685951233,1.608871340751648
1772790766114093600,11.619093505859375,-0.09591109305620193,-0.6354221701622009,1.3018754720687866
1772790766124158500,11.629158447265626,-0.01330782100558281,-0.8521183133125305,0.8267017602920532
1772790766134223400,11.639223388671875,0.013002770021557808,-1.1135462522506714,0.24621453881263733
1772790766144288500,11.64928857421875,-0.04931572824716568,-1.249417781829834,-0.3633423149585724
1772790766154354700,11.659354736328124,-0.1853463053703308,-1.1807680130004883,-0.9577393531799316
1772790766164419300,11.66941943359375,-0.30179062485694885,-1.0021936893463135,-1.4532759189605713
1772790766174484500,11.679484375,-0.30732738971710205,-0.7891416549682617,-1.744349718093872
1772790766184549600,11.689549560546874,-0.22211049497127533,-0.58209627866745,-1.7758080959320068
1772790766194614500,11.699614501953125,-0.10579805076122284,-0.3858298659324646,-1.5544267892837524
1772790766204679400,11.709679443359375,0.006342337001115084,-0.19903388619422913,-1.1538029909133911
1772790766214744600,11.71974462890625,0.11375138908624649,-0.1085737869143486,-0.6869133114814758
1772790766224809500,11.7298095703125,0.19636929035186768,-0.10415799915790558,-0.2381768375635147
1772790766234874400,11.739874267578125,0.22666499018669128,-0.12531930208206177,0.13338172435760498
1772790766244939500,11.749939453125,0.2272319793701172,-0.15285906195640564,0.3822634518146515
1772790766255004400,11.76000439453125,0.21310584247112274,-0.20419356226921082,0.46919533610343933
1772790766265069600,11.770069580078125,0.1711629182100296,-0.26566463708877563,0.38379335403442383
1772790766275134500,11.780134521484374,0.10021383315324783,-0.2590944468975067,0.16391940414905548
1772790766285200600,11.79020068359375,0.013199040666222572,-0.08281342685222626,-0.14489756524562836
1772790766295265500,11.800265625,-0.06108619645237923,0.26414600014686584,-0.4563608467578888
1772790766305330400,11.810330322265624,-0.09296689182519913,0.6712850332260132,-0.6782135963439941
1772790766315395600,11.8203955078125,-0.05133979767560959,1.0200029611587524,-0.7662031054496765
1772790766325460500,11.83046044921875,0.02368544042110443,1.203705906867981,-0.7056732177734375
1772790766335525600,11.840525634765624,0.07937119901180267,1.2080146074295044,-0.5256074070930481
1772790766345590500,11.850590576171875,0.1133856251835823,1.0432944297790527,-0.2533554136753082
1772790766355655400,11.860655517578126,0.1340179443359375,0.7804340720176697,0.05976229906082153
1772790766365720600,11.870720458984374,0.13214761018753052,0.4975922405719757,0.34360069036483765
1772790766375785500,11.880785400390625,0.11639159917831421,0.22503264248371124,0.5728500485420227
1772790766385850400,11.890850341796876,0.09527406841516495,-0.04581349343061447,0.7521808743476868
1772790766395915500,11.90091552734375,0.06900198757648468,-0.28162357211112976,0.8863959312438965
1772790766405980700,11.910980712890625,0.019624583423137665,-0.45850807428359985,0.986177921295166
1772790766416045300,11.92104541015625,-0.04393162578344345,-0.562454879283905,1.0770117044448853
1772790766426111500,11.931111572265625,-0.12034570425748825,-0.5442806482315063,1.1712076663970947
1772790766436176600,11.9411767578125,-0.17196188867092133,-0.388027548789978,1.24461829662323
1772790766446241300,11.9512412109375,-0.2031773328781128,-0.1686275452375412,1.2321839332580566
1772790766456306400,11.961306396484375,-0.20506267249584198,0.05260809510946274,1.1326375007629395
1772790766466371600,11.97137158203125,-0.18836358189582825,0.19116145372390747,1.0136754512786865
1772790766476436500,11.9814365234375,-0.16354702413082123,0.2409936487674713,0.9698013067245483
1772790766486501400,11.99150146484375,-0.1319052129983902,0.22243407368659973,1.067786693572998
1772790766496566500,12.00156640625,-0.15775087475776672,0.13281527161598206,1.1892344951629639
1772790766506631400,12.01163134765625,-0.2777225375175476,0.042168982326984406,1.1299378871917725
1772790766516696600,12.021696533203125,-0.5033402442932129,0.08378032594919205,0.7943322062492371
1772790766526757400,12.03175732421875,-0.7917717695236206,0.1496911644935608,0.29324543476104736
1772790766536822500,12.041822509765625,-1.0108730792999268,0.23839186131954193,0.01939190924167633
1772790766546887400,12.051887451171876,-0.9790486097335815,0.4131508767604828,0.1552749127149582
1772790766556952600,12.06195263671875,-0.6375160217285156,0.5930205583572388,0.5034999847412109
1772790766567017500,12.072017578125,-0.10555809736251831,0.7930452823638916,0.7618311047554016
1772790766577082400,12.082082275390626,0.39840012788772583,0.8908126354217529,0.7939938306808472
1772790766587147500,12.0921474609375,0.7157312035560608,0.7055325508117676,0.6288096904754639
1772790766597212700,12.102212646484375,0.8194547891616821,0.03541995584964752,0.33198535442352295
1772790766607277300,12.11227734375,0.7054547071456909,-1.017806887626648,-0.020673882216215134
1772790766617343500,12.122343505859375,0.408978670835495,-1.975250005722046,-0.40453824400901794
1772790766627408400,12.132408447265625,0.084744393825531,-2.412631034851074,-0.7741661071777344
1772790766637473500,12.1424736328125,-0.07879013568162918,-2.3240418434143066,-1.1256214380264282
1772790766647538400,12.152538330078125,-0.04316262900829315,-1.8271052837371826,-1.3710306882858276
1772790766657603600,12.162603515625,0.09167774021625519,-1.0440129041671753,-1.430942177772522
1772790766667668500,12.17266845703125,0.17105378210544586,-0.1393604427576065,-1.3852790594100952
1772790766677733400,12.1827333984375,0.13452039659023285,0.5800092220306396,-1.3423391580581665
1772790766687798500,12.192798583984375,-0.010589655488729477,0.8613842129707336,-1.3434292078018188
1772790766697863700,12.20286376953125,-0.2332952916622162,0.7363558411598206,-1.3408117294311523
1772790766707928300,12.21292822265625,-0.405195415019989,0.3399863839149475,-1.249094843864441
1772790766717993500,12.222993408203125,-0.41498738527297974,-0.12367399036884308,-0.9135386347770691
1772790766728058600,12.23305859375,-0.31877535581588745,-0.309519499540329,-0.3878607451915741
1772790766738123500,12.24312353515625,-0.1433536857366562,-0.3676179051399231,0.02149687148630619
1772790766748188400,12.2531884765625,-0.0026980466209352016,-0.24912454187870026,0.25526249408721924
1772790766758254600,12.263254638671874,0.11264254152774811,0.12158924341201782,0.31805434823036194
1772790766768319500,12.273319580078125,0.18033769726753235,0.6019155979156494,0.26878616213798523
1772790766778384400,12.28338427734375,0.17144879698753357,1.091805338859558,0.1790696531534195
1772790766788449500,12.293449462890624,0.09713248908519745,1.3139654397964478,0.1064567044377327
1772790766798514700,12.3035146484375,-0.017642557621002197,1.2967647314071655,0.05446407198905945
1772790766808579300,12.313579345703126,-0.11239862442016602,1.0336910486221313,0.05427871644496918
1772790766818644500,12.32364453125,-0.1577426940202713,0.726123034954071,0.08053615689277649
1772790766828709600,12.333709716796875,-0.14111684262752533,0.4360823631286621,0.059935543686151505
1772790766838774500,12.3437744140625,-0.07509741932153702,0.17880254983901978,-0.027642177417874336
1772790766848839400,12.35383935546875,0.044673457741737366,-0.03455634042620659,-0.125704824924469
1772790766858904600,12.363904541015625,0.1742730736732483,-0.24774228036403656,-0.18467579782009125
1772790766868969500,12.373969482421876,0.27110400795936584,-0.4505355954170227,-0.1924184113740921
1772790766879034600,12.38403466796875,0.28563517332077026,-0.6239445209503174,-0.11993555724620819
1772790766889100500,12.3941005859375,0.24142375588417053,-0.6921640038490295,0.0465138740837574
1772790766899165400,12.40416552734375,0.18801596760749817,-0.6743312478065491,0.29642218351364136
1772790766909230600,12.414230712890625,0.14496730268001556,-0.6739535927772522,0.5909121036529541
1772790766919295500,12.42429541015625,0.09720651060342789,-0.6830160021781921,0.9180873036384583
1772790766929360400,12.4343603515625,0.06653089076280594,-0.35801953077316284,1.3017672300338745
1772790766939425500,12.444425537109375,0.05362987890839577,-0.27385446429252625,1.49692702293396
1772790766949490400,12.454490478515625,-0.012947283685207367,-0.20211608707904816,1.3979003429412842
1772790766959555300,12.464555419921876,-0.12680919468402863,-0.11833255738019943,1.0051987171173096
1772790766969620500,12.474620361328125,-0.24363835155963898,-0.13730677962303162,0.47769221663475037
1772790766979685600,12.484685546875,-0.3322726786136627,-0.13639678061008453,0.07017725706100464
1772790766989750300,12.494750244140626,-0.39276984333992004,-0.092616006731987,-0.10078196972608566
1772790766999815400,12.5048154296875,-0.44977879524230957,0.09767556190490723,-0.00872341450303793
1772790767009880600,12.514880615234375,-0.459083616733551,0.4645880460739136,0.29804423451423645
1772790767019945500,12.524945556640626,-0.38047105073928833,0.8138076663017273,0.5714461803436279
1772790767030011400,12.535011474609375,-0.2874454855918884,1.02486252784729,0.6408457159996033
1772790767040076500,12.54507666015625,-0.17304421961307526,1.0693795680999756,0.5627100467681885
1772790767050141700,12.5551416015625,-0.02281317487359047,1.0174061059951782,0.4045017957687378
1772790767060206300,12.565206298828125,0.11190482974052429,0.8501666784286499,0.17974549531936646
1772790767070271500,12.575271484375,0.22868017852306366,0.5705744028091431,-0.1045655906200409
1772790767080336600,12.585336669921874,0.2964898943901062,0.19217926263809204,-0.4789152145385742
1772790767090401500,12.595401611328125,0.32706668972969055,-0.1811477243900299,-0.9325375556945801
1772790767100466400,12.605466552734375,0.4095248281955719,-0.381195068359375,-1.2886661291122437
1772790767110532600,12.61553271484375,0.5219200849533081,-0.37467271089553833,-1.4192888736724854
1772790767120597500,12.625597412109375,0.584972620010376,-0.24088609218597412,-1.3311009407043457
