time,seconds_elapsed,z,y,x
1772790823565629400,0.07962939453125,-7.964827370816469,0.5992547639161347,2.710965470354259
1772790823575694600,0.089694580078125,-8.004802238330244,0.7305018477216363,3.0012489776447415
1772790823585760500,0.099760498046875,-7.673406383928656,0.7373416306138039,3.009478753590584
1772790823595825400,0.109825439453125,-7.2943579669922585,0.7140263676084577,2.637669055736065
1772790823605890600,0.119890625,-7.356807701164484,0.7463659179382026,2.641937526835501
1772790823615955700,0.129955810546875,-7.239295420461892,0.3269764305241406,2.7213065393656493
1772790823626020400,0.140020263671875,-6.801900028496981,-0.3505006601050496,2.569864224271476
1772790823636085500,0.15008544921875,-5.890896359935403,-1.3590680463179945,2.385839197741449
1772790823646150700,0.160150634765625,-4.824585809805989,-1.4154805461525917,2.307560318535566
1772790823656215600,0.170215576171875,-2.760169646245241,-0.9120264357380569,1.9813497578173875
1772790823666280400,0.180280517578125,-1.0206325025379657,-0.5667115077078342,1.4374167758896945
1772790823676345600,0.190345703125,-0.6392986050128936,-0.1867516750149429,0.13803173897694795
1772790823686410500,0.200410400390625,0.5111521175712347,0.28411504778861996,-0.16443287570104
1772790823696475400,0.210475341796875,1.852615241354704,0.933596754772216,-0.49909536721576003
1772790823706540500,0.22054052734375,1.9691326658010482,1.4043418970227242,1.1943220860797912
1772790823716605400,0.23060546875,3.085191873961687,1.110683652602136,1.6605882562853396
1772790823726670600,0.240670654296875,3.5126907258123157,0.07515007966086268,1.2796275759868323
1772790823736735500,0.250735595703125,3.8870255582302806,-0.10772212357223034,0.46260932819843287
1772790823746800400,0.26080029296875,4.286331165775657,0.5729875192373991,0.3999335301853716
1772790823756865500,0.270865478515625,5.096547478464245,1.32963766143322,1.297559392388165
1772790823766930700,0.2809306640625,5.856898813265562,1.1425873687978834,1.4066200710877774
1772790823776995300,0.290995361328125,5.426814621096849,0.3183651079148054,0.22135653992816803
1772790823787060500,0.301060546875,5.184589334532618,0.38467349027656017,-0.633164778432995
1772790823797125600,0.311125732421875,5.726385596692562,0.7024403400372713,-0.8256627420149744
1772790823807190500,0.3211904296875,6.612167145714164,0.7358132520027458,-0.47530360927246507
1772790823817255400,0.33125537109375,6.652615475958585,0.32446737031266093,-0.5296387183111161
1772790823827320600,0.341320556640625,6.211445826151967,0.19019122100956737,-0.10916176445391028
1772790823837385500,0.351385498046875,5.032845698404312,0.15766148186996579,0.73730911658369
1772790823847451400,0.361451416015625,4.3377831205934285,-0.05959112987071275,1.9683508677735924
1772790823857516500,0.3715166015625,4.916579618370533,-0.1769474893592298,2.867506569892168
1772790823867581700,0.381581787109375,5.500915045574307,0.3542228954985738,2.4903660324037076
1772790823877646300,0.391646240234375,4.4265065291851755,0.5373880172636359,2.076636616577953
1772790823887711500,0.40171142578125,4.040933094394207,0.30064320793710647,-0.027161782365664838
1772790823897776600,0.411776611328125,3.701413554769754,-0.5924781093880533,-2.021299637020379
1772790823907841500,0.421841552734375,5.349285391214489,-0.7125842059761285,-0.48821913188174365
1772790823917906400,0.431906494140625,7.061690197846293,-0.3874490924697369,0.3960449252489954
1772790823927971600,0.4419716796875,6.7225581962347025,0.2353651184711605,0.9137916187796741
1772790823938036500,0.452036376953125,4.720542082485556,0.12993337085843085,0.5209850909300148
1772790823948101600,0.4621015625,4.110906209808588,-0.11131817530281841,0.17998291153237223
1772790823958166500,0.47216650390625,4.193137918293476,-0.22110322275422511,0.5597916453167796
1772790823968231400,0.4822314453125,3.9719577578455207,-0.30883184815496206,1.41562346175462
1772790823978296600,0.492296630859375,3.286966492193937,-0.5293795559182762,1.9533616806954144
1772790823988361500,0.502361572265625,2.3869600184649227,-1.1477065384425222,1.951157302518934
1772790823998426400,0.51242626953125,1.7408932344913481,-2.0322382335335014,1.6932411103479563
1772790824008491500,0.522491455078125,0.2014993084222078,-3.5312045798853036,1.8294678822621702
1772790824018556700,0.532556640625,-4.62627799090147,-6.130063427972793,3.6423730445191262
1772790824028621300,0.542621337890625,-6.921127880945801,-2.931511716812849,1.702225504053384
1772790824038686500,0.5526865234375,-8.317530801662802,0.2675355227790773,-1.4003130798980592
1772790824048751600,0.562751708984375,-10.85258177896738,-0.6477421698398887,-3.5210207472622392
1772790824058816500,0.57281640625,-11.89631107945442,0.2715573256410658,-4.33770654822588
1772790824068881400,0.58288134765625,-12.652773590123653,-0.09753419929593801,-6.33221681638956
1772790824078946600,0.592946533203125,-12.621864072597026,-0.11311638383120298,-5.744791606476903
1772790824089011500,0.603011474609375,-13.005324460756778,-0.6173299343109131,-4.365050774486362
1772790824099076600,0.61307666015625,-12.975757005488871,-0.6862243145778775,-3.6887352749824522
1772790824109141500,0.6231416015625,-11.222715068042278,-0.6716767337873578,-3.776319742672145
1772790824119206400,0.633206298828125,-11.240117453742027,-1.7835402438238261,0.30582137775998564
1772790824129271600,0.643271484375,-11.589231335663795,-2.23973210619539,3.947654214455187
1772790824139336700,0.653336669921875,-8.992860504999756,0.8936062512978911,1.915029319691658
1772790824149401300,0.6634013671875,-6.884230521181226,-0.9724255209907888,0.7130295385908335
1772790824159466500,0.673466552734375,-5.395937252274155,-1.6220084963917731,1.8656806207634506
1772790824169531600,0.68353173828125,-5.65408257702589,-1.500848506836593,3.4075349455967543
1772790824179596500,0.693596435546875,-7.147564062225818,-2.032334387384355,2.270255254752934
1772790824189661400,0.703661376953125,-5.951399051693081,-2.8795570731699467,0.3941318581692874
1772790824199726600,0.7137265625,-4.378346017128229,-2.2606655886307356,-0.3395107717961073
1772790824209791500,0.72379150390625,-3.1032594455718994,-1.219187574201822,-1.83385121191293
1772790824219856400,0.7338564453125,-1.5271780030965805,-0.47579000454992054,-2.3913493394650516
1772790824229921500,0.743921630859375,-0.5387503185927868,-0.1346256203278899,-2.4163969792209565
1772790824239986400,0.753986328125,0.6814385416060685,-0.18084668875485657,-2.250694814236462
1772790824250051600,0.764051513671875,1.6658341941148043,-0.3696285544231534,-0.03631583354957402
1772790824260117500,0.774117431640625,2.2196973261654374,1.0139180995911359,0.7838442193958908
1772790824270182700,0.7841826171875,3.0798049202263353,1.6181699411422013,-0.01951769735328853
1772790824280247600,0.79424755859375,4.687755080649256,1.0016846409618854,-0.42556021193824706
1772790824290312400,0.8043125,5.886796523401141,0.8912494590386748,-0.0008080284472554922
1772790824300377600,0.814377685546875,6.370752591010928,1.625540762171149,0.748934526317194
1772790824310442500,0.8244423828125,7.15188777064383,1.7838477023378014,1.1428243924241512
1772790824320507600,0.834507568359375,8.247451303264498,1.60106551547572,1.4424100541323424
1772790824330572500,0.844572509765625,7.790885346883535,1.3207426995769143,1.750768439556658
1772790824340637400,0.854637451171875,7.180293196395039,1.1718721346668899,1.6652382740482687
1772790824350702600,0.86470263671875,7.934441000381112,0.682168901707232,1.3755676379591226
1772790824360767500,0.874767578125,8.457052085077763,0.439812243848294,1.5240543181180952
1772790824370832400,0.884832275390625,8.285248826739192,-0.01301423374339938,1.3139755435295402
1772790824380897500,0.8948974609375,8.127074280780553,-0.18846775821782646,1.336989193239808
1772790824390962700,0.904962646484375,8.258678799721599,-0.18417466413378714,1.337883365600556
1772790824401027300,0.91502734375,7.873281306019425,-0.2353313623320311,1.1245438356503843
1772790824411092500,0.925092529296875,7.906717127153277,-0.1982061120957136,1.3890133949875831
1772790824421157600,0.93515771484375,7.658798012861609,-0.14974727467931806,1.5099273008272052
1772790824431222500,0.945222412109375,7.62272599800527,-0.1538548561286181,1.6666120466195047
1772790824441287400,0.955287353515625,8.048745424953102,-0.39014476129449904,1.9884891081780194
1772790824451352600,0.9653525390625,8.602959270137548,-1.0370279031522571,1.9638707997500895
1772790824461417500,0.97541748046875,9.62115665448308,-1.5819832138650118,2.2783077744357287
1772790824471482600,0.985482666015625,9.812714999127387,-1.5804384686410426,5.237490903636813
1772790824481547500,0.995547607421875,8.298127013012767,-3.277863732805848,6.91193568970859
1772790824491612400,1.0056123046875,7.766418429625034,-4.141353078259527,6.203181855675577
1772790824501677600,1.015677490234375,7.976978411859274,-3.686100250303745,5.046695944580436
1772790824511742500,1.025742431640625,6.630006169265508,-2.7768565771520137,4.488384308688342
1772790824521807400,1.035807373046875,5.376837415006756,-1.9243696872279046,4.28729387332797
1772790824531873500,1.04587353515625,4.1493315097928045,-1.408380797149986,4.070943617254495
1772790824541938400,1.0559384765625,1.313354050630331,-1.3499587110586464,3.264501270146668
1772790824552003600,1.066003662109375,-2.8284634302705522,-1.344059570017457,1.9108857901461422
1772790824562068500,1.076068359375,-6.8921274119108915,-0.9627705345474183,-0.28810126788057383
1772790824572133600,1.086133544921875,-11.409663873064517,0.776721893235296,-3.3149814573228356
1772790824582197800,1.09619775390625,-13.777343436998128,2.3667295697323976,-6.018929450130463
1772790824592262700,1.1062626953125,-14.459032738494873,3.2416794897466894,-7.184272621420026
1772790824602327600,1.11632763671875,-14.829713140058516,3.7134926996201276,-6.693211105719208
1772790824612392700,1.126392822265625,-13.63349376899004,3.2942432051986454,-5.642210352924466
1772790824622457900,1.136457763671875,-12.738542825084924,2.1317618530809876,-3.9980753649204965
1772790824632522500,1.1465224609375,-11.710956850147246,1.0005655738040804,-2.7948995988428593
1772790824642587600,1.156587646484375,-10.048977577894926,-0.025902503019571303,-2.092131853482127
1772790824652652800,1.16665283203125,-9.138629742893576,-1.2425921229258179,-1.5987926021076737
1772790824662717700,1.1767177734375,-8.600431797486543,-2.6147873618423936,-1.161341972824186
1772790824672782600,1.186782470703125,-7.897893769228458,-3.4502976902633904,-0.8186581970151513
1772790824682847700,1.19684765625,-8.028885124707221,-3.6814109234437344,-0.5686409414004534
1772790824692912600,1.20691259765625,-7.628796842351555,-3.3953184381023047,-0.5072008957274258
1772790824702977500,1.2169775390625,-7.094609886151551,-3.3380835159689184,1.0754963116258383
1772790824713042700,1.227042724609375,-5.682165931215882,-3.1155493105635044,0.1529232013016939
1772790824723107600,1.237107666015625,-3.9717964298039674,-2.971280832621455,-0.023820289918035267
1772790824733172700,1.2471728515625,-2.863827004596591,-2.7325664767876265,-0.24894188146814702
1772790824743238700,1.25723876953125,-1.3079443005412816,-2.1340550785847006,-1.0574525592826307
1772790824753303600,1.267303466796875,0.10785188743174075,-1.612076738833636,-1.4086406171299517
1772790824763368700,1.27736865234375,0.968109703618288,-1.1389645751908422,-2.1603258303947745
1772790824773433600,1.28743359375,0.6087643505394459,-0.249846429092437,-2.583965814860165
1772790824783498500,1.29749853515625,0.4658844043463468,0.807456200325489,-2.75926685218662
1772790824793563600,1.307563720703125,0.18321721727848053,1.6906620536401866,-2.898554911367595
1772790824803628800,1.31762890625,0.618775456944108,2.6357079847961664,-2.5705150893956423
1772790824813693400,1.327693359375,1.3665543104201554,2.977847936052084,-0.920530644711107
1772790824823758600,1.337758544921875,2.763778484392166,2.1284686567544937,-0.10800912382006644
1772790824833823700,1.34782373046875,4.209454846844077,0.8439363575913011,1.2008888241842388
1772790824843888600,1.357888671875,5.403138561955094,-0.5484364308267832,1.5577651568010449
1772790824853953500,1.36795361328125,6.2640411057859655,-1.4834730091437696,1.6420466374225913
1772790824864018700,1.378018798828125,6.79815148961842,-1.0589005661338566,1.1263128911495208
1772790824874083600,1.38808349609375,7.167819499269127,-2.175220178796351,0.9188517517134547
1772790824884148500,1.3981484375,7.431030290716886,-2.1740430978409946,1.0477433584339917
1772790824894213600,1.408213623046875,7.5643381064444775,-2.48347919549942,1.4649137084938584
1772790824904278500,1.418278564453125,7.701936312842369,-2.6080460708886384,1.822786212541163
1772790824914343700,1.42834375,7.784791121661662,-2.551258600261807,1.9491800110965967
1772790824924408600,1.43840869140625,7.458298236870765,-2.6207930319979784,1.8814526287823914
1772790824934474800,1.448474853515625,7.098789802184701,-2.795863767699897,1.7618790316358208
1772790824944539600,1.45853955078125,6.723646575993299,-2.747510363419354,1.518677155124396
1772790824954604500,1.4686044921875,6.314674145436286,-2.7364550086587665,1.2834225843556224
1772790824964669700,1.478669677734375,6.005149346581101,-2.4950571128293872,1.3500129254639148
1772790824974734600,1.488734619140625,5.850237017288804,-2.4554440643653273,1.3777309534728526
1772790824984799700,1.4987998046875,5.867508470085263,-2.7181130040213466,1.6320356771484017
1772790824994864600,1.50886474609375,5.782780268609524,-2.9101413042649624,2.120880978104472
1772790825004929500,1.518929443359375,5.412180531066656,-3.5115044386371967,2.6549916541978713
1772790825014994700,1.52899462890625,5.227822911581397,-3.526252218174934,2.917830397462845
1772790825025059600,1.5390595703125,5.003242587301135,-2.8220050479114054,2.6908777910932895
1772790825035124500,1.54912451171875,4.995992762303352,-1.864224722866714,2.1942381829991935
1772790825045189600,1.559189697265625,4.958224464923143,-1.0802451135881244,1.9000078377790748
1772790825055254800,1.5692548828125,4.802702479299903,-0.6670891868013888,1.7598064631454646
1772790825065319400,1.5793193359375,4.083900713983178,-0.4104988729393109,1.5447211124412714
1772790825075384600,1.589384521484375,3.871529882934689,-0.24152112035024909,1.036095590738207
1772790825085449700,1.59944970703125,3.1381647547364233,0.3260793720865622,0.5315415927903726
1772790825095515600,1.609515625,1.4370961656332015,1.1635291076049208,0.04382595345135778
1772790825105580500,1.61958056640625,-0.5749374842613935,1.9503237743042408,-0.3785379101309925
1772790825115645700,1.629645751953125,-2.4595243194162846,2.7309865141198038,-0.7400982358455658
1772790825125710800,1.6397109375,-4.927981886872649,3.7222377316117283,-1.687512503568083
1772790825135775500,1.649775390625,-7.544609908145666,4.261232672615349,-3.0363030476301907
1772790825145840600,1.659840576171875,-9.440952063024044,4.8705485195577145,-4.911647422665357
1772790825155905800,1.66990576171875,-10.599612395548819,4.943190561920404,-5.8860325532913205
1772790825165970700,1.679970703125,-10.927982764649391,4.3778968120560044,-5.697655176770687
1772790825176035600,1.69003564453125,-11.860454168653488,3.439903429760039,-4.605097547967731
1772790825186100700,1.700100830078125,-13.846059830349683,1.8625129505127667,-3.4635651681154966
1772790825196165600,1.71016552734375,-16.499012964457272,-0.1315066845897585,-2.6642218393579125
1772790825206230500,1.72023046875,-18.598312809872628,-0.7982614518050104,-2.980115004201233
1772790825216295700,1.730295654296875,-20.001488001203537,-0.37082916238456964,-4.33290382411927
1772790825226360600,1.740360595703125,-20.613433319866655,-0.17520692930221557,-4.8314437128767365
1772790825236425700,1.75042578125,-19.875846190059185,-0.28771365680247546,-4.990454417398571
1772790825246491600,1.76049169921875,-18.15494009706378,-0.6079277535848319,-4.575025942569971
1772790825256556500,1.770556640625,-15.877475641584395,-1.104562831634283,-3.551411209350824
1772790825266621700,1.78062158203125,-12.591903818619251,-1.8741465435527265,-2.508664490160346
1772790825276686600,1.7906865234375,-8.756791402977704,-2.8532530036121604,-1.463553233795613
1772790825286751700,1.800751708984375,-5.175332261365652,-3.657808221799135,-0.5175185838632286
1772790825296816600,1.810816650390625,-2.093347659012675,-3.9730648423045873,0.3445267002619803
1772790825306881800,1.8208818359375,0.27885259721577166,-3.5948002692222594,1.003002153301239
1772790825316946700,1.83094677734375,2.1514181551873683,-2.9053496860742567,1.5194279734916984
1772790825327011600,1.841011474609375,3.903437179327011,-1.7306851442098616,1.9315914551749824
1772790825337076700,1.85107666015625,5.628913648977876,-0.6585622545398772,2.3486644823402165
1772790825347141600,1.8611416015625,7.1753206686794755,0.1188715863570571,2.932806432798505
1772790825357206500,1.87120654296875,8.277899048498272,0.7942373839206993,3.6655008221283554
1772790825367271700,1.881271728515625,9.444529921510815,1.327612293085456,4.343501790501177
1772790825377337600,1.891337646484375,10.329829824495315,1.2566821692071855,4.989855282461643
1772790825387402500,1.901402587890625,10.317892718464135,0.8051334564663469,5.475704031950235
1772790825397467600,1.911467529296875,10.123556725800038,0.5294945606000722,5.79541237116754
1772790825407532800,1.92153271484375,9.888384864878654,0.6455083463732153,6.0229562214285135
1772790825417597400,1.931597412109375,9.702010060352086,0.10396116360351443,5.956470948129892
1772790825427662600,1.94166259765625,9.219086842921376,0.5982562543980777,5.74632597643733
1772790825437727700,1.951727783203125,8.881338404622673,0.5336725404044613,4.791230068171024
1772790825447792600,1.961792724609375,8.642912510341406,0.04812675591781735,4.491260448646545
1772790825457857500,1.971857421875,8.309390165305137,-0.33438911793343723,4.2556905283182855
1772790825467922700,1.981922607421875,8.304068093499541,-0.6373796196490525,3.7929698486998675
1772790825477987600,1.991987548828125,8.27016290128827,-0.8961436608210206,3.302978300318122
1772790825488052500,2.002052490234375,8.4026354352355,-0.6975918770927936,3.4174691873729226
1772790825498117600,2.01211767578125,7.68374891424477,-0.5194171474935486,2.968480095987022
1772790825508183800,2.022183837890625,6.780238231787085,-0.49742067546918983,2.5975296453103423
1772790825518248400,2.03224853515625,6.687362379691004,-1.020780532706529,2.5530130427137014
1772790825528313600,2.042313720703125,6.109235159477591,-1.2315152869857846,2.4586174337044358
1772790825538378800,2.052378662109375,5.878765192636847,-0.6894267638809979,2.3538426156304775
1772790825548443600,2.062443603515625,5.280436311393976,-0.8435863751098513,1.960386172504723
1772790825558508500,2.072508544921875,5.229553096374869,-1.1916931988809256,2.204675990383327
1772790825568573700,2.08257373046875,4.915263275074959,-1.1606326555110513,2.1040128454118965
1772790825578638600,2.092638671875,4.310295394209027,-1.5320657751381397,1.6479054464533924
1772790825588703500,2.102703369140625,3.6441122894018885,-1.96633645921126,1.4733167951799928
1772790825598768400,2.112768310546875,3.0088287652492522,-2.0506189627461135,1.1335337092485278
1772790825608833300,2.122833251953125,2.428265842321515,-1.7692435690544546,0.8079917685069143
1772790825618898400,2.1328984375,2.2023995698839425,-1.2386590212605892,0.5216493635250256
1772790825628964400,2.14296435546875,1.2966893315553665,-0.6916497006274759,-0.29006654007155447
1772790825639029200,2.153029296875,0.5406488456904888,-0.4592003965377807,-1.0224525575719774
1772790825649094400,2.163094482421875,-0.9630033203899859,-0.753902231727168,-1.2849772664517163
1772790825659159300,2.1731591796875,-3.0296079339057207,-1.5373803942896425,-0.7328316058434545
1772790825669224200,2.18322412109375,-5.215180287629366,-1.9795694502718746,-0.07656294213347137
1772790825679289300,2.193289306640625,-7.708140428179502,-1.9384134101495145,-0.0503103470345959
1772790825689354500,2.2033544921875,-11.23168397191763,-1.6785776480928063,-0.1605293654564768
1772790825699419100,2.213419189453125,-13.999106365770102,-0.5818627534799278,-0.7568008027128875
1772790825709484300,2.223484375,-14.97974471157193,1.6217878393784164,-1.908863198277354
1772790825719549400,2.233549560546875,-15.605358490103482,3.535225505964458,-2.835756509888172
1772790825729614600,2.243614501953125,-16.817718848633763,3.9070784584388134,-2.6400176646888256
1772790825739679200,2.25367919921875,-18.05273644465208,2.9311893529906867,-1.590724154203385
1772790825749745400,2.263745361328125,-18.58163523131609,2.0418746614068746,-0.651356634010002
1772790825759810600,2.273810546875,-18.69716948994398,1.5707476802319287,-0.28183955887099726
1772790825769875200,2.283875244140625,-17.846774311602115,1.5393055171333252,-0.6808603763919323
1772790825779940400,2.2939404296875,-17.367336598199604,1.9913770847044885,-1.736775570039451
1772790825790005500,2.304005615234375,-15.861578984272478,1.6301495711408553,-2.505928050933778
1772790825800070400,2.3140703125,-13.432369139099121,0.6825017869234085,-2.6202669622972605
1772790825810135300,2.32413525390625,-10.62814524707198,-0.7929711633771658,-2.0935709463745353
1772790825820200400,2.334200439453125,-7.404135854050517,-2.0979408320218322,-1.4777387032754719
1772790825830265300,2.344265380859375,-3.9902907023936507,-3.265713276284933,-0.7005207701515406
1772790825840330200,2.354330322265625,-1.0634031382501126,-3.5904254151389,-0.11090579510964453
1772790825850395400,2.3643955078125,1.2158341721206902,-3.728136142000556,0.18250826529152692
1772790825860461600,2.374461669921875,3.2382816640019416,-3.77574252730608,0.4552583809137344
1772790825870526200,2.384526123046875,4.759297637337446,-3.6454277559146284,0.6704169429846107
1772790825880591400,2.39459130859375,6.042025663557649,-3.086612846675515,0.7431365806281566
1772790825890656500,2.404656494140625,7.557028075692057,-2.2896540749669074,0.8830356113143265
1772790825900721400,2.414721435546875,8.817612659165263,-1.5120241269759833,0.9034612172927707
1772790825910786300,2.424786376953125,9.841854584372044,-1.0021487513422966,1.1965759294211864
1772790825920851500,2.4348515625,10.55574753485918,-0.7546300345450639,1.3640638087786734
1772790825930916400,2.444916259765625,10.704884787881374,-0.44530923382937904,1.200615048744157
1772790825940981500,2.4549814453125,10.74601759325862,-0.037990781024470927,0.5490107601160183
1772790825951046400,2.46504638671875,10.964204417109489,0.22054390837103127,0.07821444480069913
1772790825961112300,2.4751123046875,10.93089368366003,0.29181955775134266,-0.1734130133564584
1772790825971177200,2.48517724609375,10.869593704044819,0.4104714369431138,-0.4110795954367146
1772790825981242400,2.495242431640625,10.61544592449665,0.43984702290073036,-0.7536858124975114
1772790825991307500,2.5053076171875,10.359495479440689,0.3414531745681539,-0.6091058209208772
1772790826001372400,2.515372314453125,9.8993773835361,0.44047633378021417,-0.6607355799909681
1772790826011437300,2.525437255859375,9.348288976895809,0.20208846995439378,-0.7110180526379496
1772790826021502500,2.53550244140625,9.237063229116798,-0.1252545014603529,-0.23925927636548874
1772790826031567400,2.5455673828125,8.83688083873689,-0.20794618300665169,-0.037817132357461376
1772790826041632500,2.555632568359375,8.312190609678625,-0.35814174944274124,0.32394780341796575
1772790826051697400,2.565697509765625,7.612422630655765,-0.6224167360559105,0.5585461022350937
1772790826061763300,2.575763427734375,6.692250151732564,-0.67411112132743,0.5752756301745772
1772790826071828500,2.585828369140625,5.637848650583624,-0.666743369038403,0.5075056508276611
1772790826081893400,2.595893310546875,4.899116442394257,-0.8935768790729344,0.5737471054330467
1772790826091958300,2.605958251953125,4.519090120336413,-1.1771173418439924,0.885543210221082
1772790826102023400,2.6160234375,4.01190749091804,-0.937500191951543,1.08170605298616
1772790826112088300,2.62608837890625,3.9366631571024655,-1.531798356373608,1.2239843069590628
1772790826122153200,2.6361533203125,3.682441727796197,-1.865401657691598,1.7085346872001885
1772790826132218400,2.64621826171875,2.8883687406569716,-1.546044908390939,1.7844062130033969
1772790826142283500,2.656283447265625,2.763383347594738,-2.0057550080165267,1.56276311121881
1772790826152348200,2.66634814453125,2.2832833708912132,-1.7917793721199036,1.884134269081801
1772790826162414300,2.676414306640625,1.606725002542138,-1.8235986979678271,1.6453696443654595
1772790826172479500,2.6864794921875,1.434277601081133,-1.6619772264257073,1.1810641067083925
1772790826182544400,2.69654443359375,0.5252046083211899,-1.4240190957866607,0.5090229235228151
1772790826192609300,2.706609375,-1.246079672780633,-1.4335419802829623,0.2617394037209451
1772790826202674400,2.71667431640625,-3.824931797888875,-1.4427325640849769,0.33026604665406045
1772790826212739600,2.726739501953125,-7.316942139244079,-1.4743771178878844,0.4107362253591418
1772790826222804200,2.73680419921875,-11.253823323011398,-1.6339463330753146,0.4207672055080533
1772790826232869400,2.746869384765625,-13.858146573984623,-0.8143998089183121,0.409125429161638
1772790826242934500,2.7569345703125,-16.631429384303093,1.3108116726711392,-1.4559776839748024
1772790826253000400,2.76700048828125,-19.011523024129865,3.550939500185847,-4.045830803307891
1772790826263065300,2.7770654296875,-20.46960118751526,5.143568172836304,-5.357264699530601
1772790826273130500,2.787130615234375,-20.9168562947154,5.472356475088,-5.370998041328788
1772790826283195400,2.7971953125,-20.999297262036798,5.106401348480582,-4.25693263733387
1772790826293260300,2.80726025390625,-20.821289303839205,3.7621363190189,-2.7527555705964564
1772790826303325400,2.817325439453125,-19.398888018512725,3.191325559298694,-1.8758739518672227
1772790826313390600,2.827390625,-17.11309295706153,3.2133205334857102,-1.8338449283026157
1772790826323455200,2.837455322265625,-15.450957032942771,3.0322447121500966,-1.8383710274249314
1772790826333520400,2.847520263671875,-13.831995064640044,2.8123104601100084,-1.9269854226842522
1772790826343586600,2.857586669921875,-11.402924335676431,2.853237221521139,-2.4960858713552354
1772790826353651200,2.867651123046875,-8.412546003875136,2.611385444444418,-2.529464993865788
1772790826363716400,2.87771630859375,-5.334629673874378,2.068760037983954,-1.587861458248645
1772790826373781500,2.887781494140625,-2.0581810685634614,0.5251087467312813,-0.18186613146308808
1772790826383846400,2.897846435546875,1.45117963604331,-0.09869856690019368,1.0697654398236423
1772790826393911300,2.907911376953125,4.507590236678719,-0.12181786894202232,1.8569095775477586
1772790826403976400,2.9179765625,7.349178521460295,-0.3991279128909111,2.5931664816647766
1772790826414041300,2.928041259765625,9.576625438839196,-0.08761340152323245,2.781167426088452
1772790826424106200,2.938106201171875,11.454204441058636,0.5657207431048155,2.4340260132834315
1772790826434172400,2.94817236328125,12.568854951465129,1.1763909272655844,2.200783659119904
1772790826444237600,2.958237548828125,13.185912498575448,1.9435104410275816,2.475448449257016
1772790826454302200,2.96830224609375,14.026222336232662,2.7988734709098932,2.87322787014842
1772790826464367400,2.978367431640625,13.750469458597898,3.4259593678206204,2.745254693447053
1772790826474432500,2.9884326171875,13.859225601392984,3.892300868284702,2.717565599271655
1772790826484497400,2.998497314453125,13.36625503720045,4.166528436048329,2.7550790451079608
1772790826494562300,3.008562255859375,12.623996408450603,4.154610034717619,2.4582079761207103
1772790826504627500,3.01862744140625,11.801541376435756,3.9460587619572878,2.0466206868901846
1772790826514692400,3.0286923828125,11.083795257651806,3.5274674391835927,1.7677970235079525
1772790826524758300,3.03875830078125,10.419776052880287,3.0563465954884883,1.6081724248714744
1772790826534823400,3.048823486328125,10.104856701505184,2.3644622093223036,1.690294097110629
1772790826544888600,3.058888671875,9.717139240422844,1.4876681227460502,1.9039384552262721
1772790826554953200,3.068953125,9.145714732718467,0.9021929509226232,1.8304750134781003
1772790826565018400,3.079018310546875,8.656936359518767,0.3627382103875279,1.7393724546648561
1772790826575083500,3.08908349609375,7.840739218854904,-0.10587803007550536,1.757352494122088
1772790826585152500,3.099152587890625,6.992084746700525,-0.5527776383688673,1.8508216359362004
1772790826595217400,3.109217529296875,5.995426409468054,-1.1054027165245264,2.0966385172516104
1772790826605283600,3.11928369140625,5.196096232452988,-1.388584355920553,2.003284818510711
1772790826615348200,3.12934814453125,4.71574198872745,-1.4988305911429225,1.8820016409672795
1772790826625413400,3.139413330078125,4.033714833578467,-1.6285728233434258,1.959334325364232
1772790826635478500,3.149478515625,3.2687457758486267,-1.661133176817,1.988318427786231
1772790826645543400,3.15954345703125,2.49782160910666,-1.7266142415091394,2.0016193695165216
1772790826655608300,3.1696083984375,1.6128040301948785,-1.639410882091522,1.846730567230284
1772790826665673500,3.179673583984375,0.8955676144987345,-1.6071952504023908,1.7015581261858344
1772790826675738400,3.18973828125,0.42447921176850795,-1.6462664470747113,1.4828959399081765
1772790826685804300,3.19980419921875,-0.19848200642764569,-1.7361873948879538,1.3281369014814495
1772790826695869400,3.209869384765625,-1.500194134581089,-1.994928931967169,1.1561632550120353
1772790826705934600,3.2199345703125,-3.4800942781120536,-2.2196543638065456,0.9725716514632106
1772790826715999500,3.22999951171875,-6.183104113286733,-2.205545174433291,0.5961634833699092
1772790826726064400,3.240064453125,-10.179037205481528,-1.5406109006434678,0.13030549210645256
1772790826736129500,3.250129638671875,-13.890849404668808,-0.8207932362824678,-0.45141960646845397
1772790826746194400,3.2601943359375,-16.442644011503457,-0.09873420446915551,-1.3909782653197644
1772790826756259300,3.27025927734375,-18.878630803465843,1.7524102154143153,-2.588307935717702
1772790826766325500,3.280325439453125,-20.443442663908005,3.1595947885170577,-3.892716463348269
1772790826776390400,3.290390380859375,-21.40381680483818,3.479793249338865,-4.637064173331856
1772790826786455300,3.300455322265625,-21.55914998989105,3.5355829411000013,-4.873191143020987
1772790826796520400,3.3105205078125,-21.021810707139966,3.198850986367464,-4.843407999175787
1772790826806585300,3.32058544921875,-20.195596030330655,2.84994314841181,-4.7835839373320335
1772790826816650500,3.330650390625,-18.908670552420617,2.8064401067718863,-5.059228093895316
1772790826826715400,3.34071533203125,-16.769356676524875,2.7341113681420683,-5.2336237068146465
1772790826836780300,3.3507802734375,-13.737339927911757,2.317801872695237,-4.821999884966016
1772790826846846500,3.360846435546875,-10.445072991222142,1.6438731221973895,-3.8671822091192003
1772790826856911400,3.370911376953125,-7.4575447881549595,1.117060859483853,-2.617876852290332
1772790826866976500,3.3809765625,-4.57155738967657,0.7051970183342695,-1.3244425770081578
1772790826877041400,3.39104150390625,-1.6983084767401218,0.48784259018693116,-0.11728449982870369
1772790826887106300,3.401106201171875,0.7731821748018264,0.488085130238533,0.6704632663443684
1772790826897171500,3.41117138671875,3.038701340943575,0.6392036202058196,0.7893510731838643
1772790826907236400,3.421236328125,5.249662402945757,1.0301198773294686,0.40555615584012117
1772790826917301500,3.431301513671875,7.294011345511675,1.334236679661274,-0.2492188535123132
1772790826927367400,3.441367431640625,9.252956963819265,1.5077395815245807,-0.647329132059589
1772790826937432600,3.4514326171875,11.062605170106886,1.4793044912874698,-0.8780967666726559
1772790826947497500,3.46149755859375,12.767933754742145,1.2189867909327148,-0.9316915056727826
1772790826957562400,3.471562255859375,14.281535652428865,0.7487802125383168,-0.9013391836374998
1772790826967627500,3.48162744140625,15.356170963311195,-0.12453238859772682,-0.7436559283271431
1772790826977692400,3.4916923828125,15.895074426639079,0.6091876174528151,-0.36428372279647736
1772790826987757600,3.501757568359375,16.16144806603193,0.1587276497967541,0.17435904376860706
1772790826997822500,3.511822509765625,16.222402008688448,-0.4912324152883142,0.9054976184912026
1772790827007888400,3.521888427734375,15.820117677593231,-0.3096479137782007,1.521809461800754
1772790827017953300,3.531953369140625,15.174723678314685,-0.16090250961780547,1.5615636723011732
1772790827028018400,3.542018310546875,14.411613984715938,-0.284255406107381,1.1768577410597354
1772790827038083300,3.552083251953125,12.959977252554893,-0.6915501857757568,1.568184844006598
1772790827048148500,3.5621484375,11.796383555281162,-1.3513432972848414,1.8222499137073753
1772790827058213400,3.57221337890625,10.66048684322834,-1.799510843154788,1.8691078187331556
1772790827068278300,3.5822783203125,9.263884600546955,-2.3223113129436967,2.2562980410709974
1772790827078344400,3.592344482421875,8.447296999260782,-2.997313099500537,2.7243291020572182
1772790827088409300,3.602409423828125,7.620755574715137,-3.247112912972271,3.090346480245888
1772790827098474500,3.612474609375,6.326634632343054,-3.047245589666068,3.507311078600585
1772790827108539400,3.622539306640625,5.512803051766753,-2.6961522243648766,3.3047415105983613
1772790827118604500,3.6326044921875,4.174314559879899,-2.2871594816721976,2.8214894996047017
1772790827128669400,3.64266943359375,2.7931553855240345,-1.8470980853684245,2.534995739986002
1772790827138734300,3.652734375,1.534707814079523,-1.4163678503811359,2.158561304940283
1772790827148800300,3.66280029296875,0.35058687708377834,-1.526480522351712,1.7747475732982159
1772790827158865400,3.672865478515625,-0.9522294129192829,-2.112488997334242,1.472870804978162
1772790827168930600,3.6829306640625,-2.506206575614214,-2.8221447486430407,1.1417658232819288
1772790827178995500,3.692995361328125,-4.457293881636858,-3.515858542193472,0.7957930889301001
1772790827189060400,3.703060302734375,-6.284418707904219,-3.7131291270047426,0.5482000647876412
1772790827199125500,3.71312548828125,-8.266233160623907,-3.568026828587055,0.5287975913118571
1772790827209190400,3.7231904296875,-10.858744977772234,-3.175420426419377,0.4461912773609161
1772790827219255600,3.733255615234375,-12.848672594320773,-2.616482475322485,0.13091967848204075
1772790827229321500,3.743321533203125,-13.850810824269056,-2.0050323928304015,0.016567323115095494
1772790827239386400,3.753386474609375,-14.804819521820544,-1.2121428433220833,0.1280608549848199
1772790827249451500,3.763451416015625,-15.776056417548656,-0.3077428108092397,0.2946898524906486
1772790827259516400,3.773516357421875,-17.06767677527666,0.29609767346195875,0.791404060190916
1772790827269581300,3.783581298828125,-17.829429209047554,0.9270333046033978,0.960273383969441
1772790827279646500,3.793646484375,-17.60985356118679,1.4405831309661268,0.5589003225002438
1772790827289711400,3.80371142578125,-17.19419420021176,1.7668106428191064,-0.0656800943955779
1772790827299777500,3.813777587890625,-16.90838403894305,2.067419144769013,-0.8057762844145298
1772790827309842400,3.823842529296875,-17.001920400774477,2.52275555935502,-1.7555816850572823
1772790827319907300,3.8339072265625,-16.183891368508338,3.9642034904569385,-3.1149951838120815
1772790827329972500,3.843972412109375,-14.269914188218117,5.450438657790422,-3.9422397881910203
1772790827340037400,3.854037353515625,-11.616764654755592,6.05849106066823,-3.5811844163239
1772790827350102500,3.8641025390625,-8.57542828913331,5.759997943437099,-2.5295921273767945
1772790827360167400,3.87416748046875,-5.308523172715306,4.664304062435031,-0.9314316856928169
1772790827370233600,3.884233642578125,-1.9253209966033695,3.2704397202849385,0.05395492778175976
1772790827380298500,3.894298583984375,1.1814555171787737,2.7239111689060924,0.5102351853894069
1772790827390363400,3.90436328125,3.3978473720580338,2.002226980020851,0.45768421982116997
1772790827400428500,3.914428466796875,4.991534029328823,0.9813795195579528,0.13349047881811857
1772790827410493400,3.924493408203125,6.8323898593068115,0.6705278560131788,0.1289339845575392
1772790827420558300,3.934558349609375,8.133043418318033,0.8041518980830907,0.25320319217443465
1772790827430624500,3.94462451171875,9.084477881467341,0.7034305931836367,0.3356492740623653
1772790827440689400,3.954689453125,9.67186685102284,0.3048436553016305,0.6010758783960715
1772790827450754300,3.96475439453125,9.989240609812736,0.00446793919429183,0.953151350069791
1772790827460819500,3.9748193359375,10.23192825319171,-0.5782140947792679,1.4513056005105376
1772790827470884400,3.98488427734375,10.438985780262946,-0.9964823230784385,1.9361624163523314
1772790827480949500,3.994949462890625,10.333425803160667,-1.1536919695276766,2.114512027594447
1772790827491014400,4.005014404296875,9.983947179579735,-1.1319235706381499,2.01547473025918
1772790827501079300,4.015079345703125,9.49569896773398,-1.101285636594519,1.5542515957221388
1772790827511144400,4.02514453125,9.050226652297377,-1.2874356193892658,1.2687186439596116
1772790827521210400,4.03521044921875,8.779431104809046,-1.4863956185922025,1.1343459754794836
1772790827531275500,4.045275634765625,8.283732576957345,-1.5150700705431401,0.9964503935702145
1772790827541340400,4.05534033203125,7.74229228862822,-1.4444694708801804,0.7806715807091444
1772790827551405300,4.0654052734375,7.23226888282597,-1.1360798866000026,0.2902380972461775
1772790827561470500,4.075470458984375,6.551812337994575,-0.527962674857676,0.045047348472476004
1772790827571535400,4.085535400390625,5.924990937238931,-0.14195048332326113,0.21331001159474253
1772790827581600500,4.0956005859375,5.53082444614768,-0.039366526357084514,0.6344752765096724
1772790827591663000,4.1056630859375,5.55128446585238,0.14879019315019248,0.723122551125288
1772790827601728300,4.115728271484375,5.9343678373932836,0.5119428295575082,0.4672665063545108
1772790827611793200,4.125793212890625,6.360270944485068,0.42742315626591443,0.5162362889677286
1772790827621858000,4.135858154296875,6.5819836043745275,-0.1427029821909964,0.7547582640346139
1772790827631923200,4.145923095703125,6.485090333330631,-1.176909252051264,1.4584279997363685
1772790827641988000,4.155988037109375,6.454443850654363,-2.3678499520644545,2.0171606375195084
1772790827652054000,4.166053955078125,6.052608432370424,-3.1109052841499447,2.106332228270173
1772790827662119200,4.176119140625,6.060425828123092,-3.578446808053553,1.900127518635988
1772790827672184300,4.186184326171875,6.434564845708012,-3.980170290395617,1.6909359021455048
1772790827682249000,4.1962490234375,6.256076995038986,-4.3495235350087285,1.7380745238088071
1772790827692314000,4.206314208984375,5.5644034751445055,-4.578134429979324,2.1173890443354844
1772790827702379300,4.216379150390625,4.58176021926105,-4.493651143175363,2.1991806078374383
1772790827712444200,4.226444091796875,3.4660324350118636,-4.161179183974862,2.1629943189516663
1772790827722510000,4.236510009765625,2.184242566424608,-3.5154496691316366,1.7183096467614174
1772790827732575200,4.2465751953125,0.1808084025710821,-2.663609260417521,1.5697840958967804
1772790827742640000,4.25664013671875,-2.221981053188443,-2.2145479805782435,1.4769342550247906
1772790827752705000,4.266705078125,-5.173485756716132,-1.5211265941031276,1.0472761793136596
1772790827762770200,4.276770263671875,-8.078074979811907,-0.14454612583965062,0.4466865865971893
1772790827772835000,4.2868349609375,-10.232525634562968,0.9579916297078132,-0.759863624349609
1772790827782901000,4.29690087890625,-11.649597249299287,1.2094125415753572,-1.5915572440266608
1772790827792966100,4.306966064453125,-12.765839997333288,2.0272715510368347,-1.3664029192507265
1772790827803031300,4.31703125,-13.503478565067052,2.6829838229730725,-1.7681182182863353
1772790827813096000,4.327095947265625,-14.672392580580711,2.837341733253002,-2.3472720050685107
1772790827823161000,4.3371611328125,-16.02597459670305,2.9309365472733973,-2.455302317807078
1772790827833226200,4.347226318359375,-16.229489921122788,2.1339631625175475,-2.277959545519948
1772790827843291100,4.357291015625,-17.325593551969526,1.8025148472763597,-1.74849421101436
1772790827853357000,4.367357177734375,-18.34690409989953,1.581813848647475,-1.5245293882839381
1772790827863422200,4.377422119140625,-18.594957654225826,1.7864491170078516,-2.099739990398288
1772790827873487400,4.3874873046875,-18.091450498449802,1.6910376089543102,-2.872819581608474
1772790827883552000,4.397552001953125,-17.14110441505909,1.86174196614027,-3.199631030829251
1772790827893617200,4.4076171875,-15.991142937296628,2.285436165010929,-3.5104736342847347
1772790827903682300,4.417682373046875,-14.195072005462645,2.194771266962588,-3.644422670525312
1772790827913748000,4.427748046875,-12.02082125622034,1.5842251475729048,-3.249983499972522
1772790827923813000,4.437813232421875,-9.740780228251218,0.8393233839031309,-2.353626196400821
1772790827933878300,4.447878173828125,-7.202252514746784,0.05163301047310233,-1.5937914328195153
1772790827943943000,4.45794287109375,-4.780118307048082,-0.3637704760447144,-1.120427121046558
1772790827954008000,4.468008056640625,-2.681110138055682,-0.4630667165771126,-0.8996582448132335
1772790827964073200,4.4780732421875,-0.6431394983500242,-0.4013924968220293,-0.7646023433092981
1772790827974139100,4.48813916015625,1.1052981601715086,-0.09238178496882318,-0.41997853934839363
1772790827984204000,4.4982041015625,2.5277929690003393,0.2534035370521247,-0.10882204763814807
1772790827994269200,4.508269287109375,3.8637843833744525,0.1688342524651438,-0.07876308252625167
1772790828004334300,4.518334228515625,5.117318463814258,-0.03767521226927638,0.1871176587831229
1772790828014399000,4.52839892578125,6.359667133373022,-0.23565489519797264,0.5616195548636839
1772790828024464100,4.538464111328125,7.074053420335054,-0.3048676206991076,0.9851990778461098
1772790828034530000,4.548530029296875,7.646680874088406,-0.36248248206079003,1.6120961741864681
1772790828044595200,4.55859521484375,8.197460068649054,-0.4888048228152096,1.9105784777626393
1772790828054660000,4.56866015625,8.459158701968192,-0.5828974302899093,1.8560740035064518
1772790828064725200,4.578725341796875,8.632582254984975,-0.628863135716319,1.577876801459491
1772790828074790100,4.5887900390625,8.715609497761726,-0.7597941393099725,1.5692153560981152
1772790828084855000,4.59885498046875,8.937865763008594,-0.44794338172525167,1.6617888642467558
1772790828094921200,4.608921142578125,8.644394857853651,-0.32743199227191505,0.5394993103291839
1772790828104986000,4.618986083984375,8.4286893294245,-1.2251434138663113,0.49887569658309217
1772790828115051000,4.629051025390625,9.04471870253086,-0.39185273425616324,0.31280648740697653
1772790828125116200,4.6391162109375,8.953192511478067,0.29949922553375363,-0.2799275329709053
1772790828135181300,4.649181396484375,8.478458445721865,0.12612937546558678,-0.41871202654391526
1772790828145247200,4.659247314453125,8.451100483196972,0.1654764664698392,-0.22940920574143528
1772790828155312000,4.66931201171875,8.393097207039593,0.4133603633176535,-0.17017346517965196
1772790828165377000,4.679376953125,8.123662426510453,0.5767495751846581,0.06434478153805248
1772790828175442200,4.689442138671875,7.730650950673222,0.6952056395433843,0.5720134135082364
1772790828185507000,4.699507080078125,7.492329101288318,0.5384190408118069,1.2126288732733577
1772790828195572200,4.709572265625,7.2545099407285445,0.7702110500365495,0.968772332245484
1772790828205638100,4.71963818359375,6.952215677648782,0.7213322336424142,0.1267666321895085
1772790828215703000,4.729703125,6.64811231932044,0.20029519332945345,-0.20834974057255312
1772790828225768200,4.739768310546875,6.729720342949032,-0.006756926914304495,0.14413327072244136
1772790828235833000,4.7498330078125,6.4719520348161454,0.2007728207785636,0.6628302872478962
1772790828245898200,4.759898193359375,6.1570250846564765,0.354082610245049,1.091941688861698
1772790828255963100,4.769963134765625,5.903719601151347,-0.18706549020446836,1.3218722881287335
1772790828266029000,4.780029052734375,5.183351317170262,-0.022155571576207875,1.2463244413219392
1772790828276094200,4.79009423828125,4.30833198518157,-0.05020137023478746,1.2250748786747454
1772790828286159000,4.8001591796875,2.5848206781238314,-0.40880701086223126,1.28893360286206
1772790828296224000,4.81022412109375,0.6118418582886457,-0.6460980558946728,1.2156222829356789
1772790828306289200,4.8202890625,-1.2786240980327128,-1.0834107380121947,1.0710045531645416
1772790828316354000,4.83035400390625,-3.3100095141291614,-1.648603950111568,1.088496151517704
1772790828326420000,4.840419921875,-5.785190836882591,-1.9491145446449516,0.9083109223462641
1772790828336485000,4.850485107421875,-7.956685565415024,-1.306679833563417,0.2633555336806923
1772790828346550300,4.86055029296875,-8.920311401617527,-1.122764404887706,0.04856113788024522
1772790828356615200,4.870615234375,-9.228936036762594,-1.3860168435201048,0.1928161626856774
1772790828366680000,4.88068017578125,-10.157632013881205,-1.441097217968106,0.1663931794559583
1772790828376746200,4.890746337890625,-11.85041442067623,-1.2147706345424056,-0.03865340965166688
1772790828386811100,4.90081103515625,-12.560014642405509,-0.9560203296348452,-0.8982345686856656
1772790828396876000,4.9108759765625,-12.45452714601755,-1.0197712095335125,-2.040421393858641
1772790828406941200,4.920941162109375,-12.770519679582119,-1.4072995777845383,-2.078853269714117
1772790828417006000,4.931006103515625,-13.458090440332889,-1.5952379783660173,-1.805088643287122
1772790828427071000,4.941071044921875,-13.976984550333022,-1.9962734784439204,-1.874778850106895
1772790828437137200,4.95113720703125,-13.718718229550122,-2.078043706896901,-2.1895678531005975
1772790828447202300,4.961202392578125,-12.621765872919559,-1.7113655267119408,-3.0769618057549
1772790828457267000,4.971266845703125,-10.988891114598513,-2.0388219958379863,-3.6552211279153823
1772790828467332000,4.98133203125,-8.994237054049968,-2.8552333637744187,-3.496888468785584
1772790828477397200,4.991397216796875,-6.89211162981987,-3.4501462990939613,-2.930053042437136
1772790828487462100,5.001462158203125,-4.555176748239994,-3.56253466091156,-2.202576095494628
1772790828497528000,5.011528076171875,-1.909711924061179,-3.3505718261420725,-1.3057703175030648
1772790828507593200,5.02159326171875,0.33966450105309487,-3.15456410087347,-0.3710881421143189
1772790828517658000,5.031658203125,1.4727251128971577,-2.8326471456959843,0.9571250760063529
1772790828527723000,5.041722900390625,1.676916144621372,-2.168487655670941,1.2336705653235316
1772790828537788200,5.0517880859375,2.2739491408348083,-1.935186264796555,0.5277583113919944
1772790828547853300,5.061853271484375,3.0955583696752784,-1.0450067730769514,0.6934891910143196
1772790828557919000,5.0719189453125,3.304890855941176,-0.07222557051628828,0.7286459907218813
1772790828567984000,5.081984130859375,3.6150352479994297,0.045725101603567596,1.006925391159579
1772790828578049300,5.09204931640625,4.143563447785377,0.500069582542777,1.5044139442332087
1772790828588114700,5.10211474609375,4.777322538849711,1.1131634867191313,1.66182773495242
1772790828598179800,5.112179931640625,5.481619977995753,1.3896332804515956,1.2307396264381707
1772790828608244700,5.12224462890625,6.174825529763102,1.4924883825093507,1.560325654938817
1772790828618310700,5.132310546875,6.395462084853649,1.5399807860463857,1.2658882428392768
1772790828628375800,5.142375732421875,6.8433934838801616,1.640339979635179,0.6649905340217054
1772790828638441000,5.15244091796875,7.4495935368895525,1.7162188119620083,0.31585016595181076
1772790828648505600,5.162505615234375,7.5631766614496705,1.532639483372867,-0.03785904440358281
1772790828658570800,5.17257080078125,7.679156325757503,1.417544492945075,-0.19724300268460063
1772790828668636700,5.18263671875,7.976791364854574,1.3396660112336276,-0.22963333335351196
1772790828678701600,5.19270166015625,7.911203917178511,1.282627780716121,0.009661002908914815
1772790828688766700,5.2027666015625,7.597462961933016,1.4081237536489963,0.2831659486365504
1772790828698832000,5.212831787109375,7.326908237463235,1.5306971171334385,0.38083120869994164
1772790828708896500,5.222896484375,6.934083224108814,1.735039247766137,0.1632924004290253
1772790828718961700,5.232961669921875,6.527316779163479,2.2186825961649417,-0.011000820694910362
1772790828729027800,5.24302783203125,6.271220203635096,2.586960612761974,-0.09780456806938163
1772790828739092700,5.2530927734375,6.10500380551815,2.6753841616243124,0.0406788510646671
1772790828749157600,5.26315771484375,5.998264263242483,2.7068168262422083,0.1464298663601745
1772790828759222800,5.273222900390625,5.650601164650917,2.7859762876749037,-0.01241227666172199
1772790828769288000,5.283287841796875,5.248538367351889,2.8751144145473835,-0.19227593659544362
1772790828779353900,5.293353759765625,4.9103188044101,2.9446883015111087,-0.46435365111511195
1772790828789418800,5.303418701171875,4.173385754597187,2.8811718148902057,-0.2972620045335963
1772790828799484000,5.31348388671875,3.489038047546148,2.711655206184089,0.024048911042138934
1772790828809548800,5.323548828125,2.9675755483627317,2.5567010835766792,0.44467648888379335
1772790828819613700,5.33361376953125,1.8763947608709335,2.631602010782063,0.3473987485669553
1772790828829678800,5.343678955078125,0.7468091316610574,2.302002976669371,-0.30882439550086854
1772790828839744800,5.353744873046875,-0.1599777959883213,1.123921612098813,-0.629278292388469
1772790828849809700,5.3638095703125,-1.4310983865231275,-0.687829119426012,-0.1506709379960317
1772790828859874800,5.373874755859375,-3.302369228509068,-1.6680828498244284,0.7219669513493776
1772790828869939700,5.383939697265625,-5.248219218400121,-1.7584312292695043,0.8645452111821621
1772790828880004600,5.394004638671875,-7.153781037044524,-1.439428407973051,-0.13712604057518765
1772790828890070800,5.40407080078125,-8.491667471385002,-1.608116164639592,-0.8986484832488
1772790828900135700,5.4141357421875,-9.15757234377265,-2.043606015244126,-1.3336308227226137
1772790828910200800,5.424200927734375,-9.709514152371883,-2.1275304991215465,-1.6084775452978908
1772790828920265700,5.434265625,-10.241648852217196,-2.3173826243698596,-1.8233409238144753
1772790828930331000,5.444330810546875,-11.061977393597363,-3.009530191516876,-1.9107649402454494
1772790828940396800,5.454396728515625,-10.991032802802323,-3.9616590666711327,-1.894149467139691
1772790828950462000,5.4644619140625,-10.338396577310561,-4.997333655518293,-1.741810933858156
1772790828960526600,5.474526611328125,-9.667087215530872,-5.533520261102915,-1.602770273566991
1772790828970591700,5.484591796875,-8.673475406387448,-5.539150960466265,-1.4840413105510175
1772790828980657000,5.494656982421875,-7.829616936337947,-5.765410616135597,-0.9469564409524202
1772790828990721800,5.5047216796875,-6.869719765269756,-6.070792323836684,-0.5171368910692632
1772790829000787700,5.51478759765625,-5.894477141031622,-6.307619550749659,-0.5741448725789785
1772790829010852900,5.524852783203125,-5.083534852156043,-6.324367271932959,-0.8642624487180263
1772790829020917800,5.534917724609375,-4.081649720185995,-5.501550420868396,-1.3553737218447028
1772790829030982700,5.544982666015625,-2.8158032706618306,-3.9625592303812502,-1.7503925919815897
1772790829041047800,5.5550478515625,-1.393690739148855,-2.021407627439499,-1.9224413495138286
1772790829051113700,5.56511376953125,0.027712767311930654,0.015514379996061324,-1.902615536059439
1772790829061178600,5.5751787109375,1.338569155907631,1.60399820792675,-1.693979507625103
1772790829071243800,5.585243896484375,2.5079642329365015,2.631814484488964,-1.329990128132701
1772790829081309000,5.595308837890625,3.602880115303397,3.1939637988477942,-0.6889560776293278
1772790829091373600,5.60537353515625,4.630409391617775,3.729952251511812,-0.13886479226760565
1772790829101439700,5.615439697265625,5.362453500345349,4.276982322672009,0.2659196120150387
1772790829111505000,5.6255048828125,5.643398685926199,4.59946012660265,0.7988423204328864
1772790829121569800,5.63556982421875,5.949147473374008,4.560567209106684,1.4451367026172577
1772790829131634700,5.645634765625,6.282097571480274,4.552473334500194,1.9379389245055614
1772790829141699800,5.655699951171875,6.380436949679255,4.578798446846008,2.480565938401222
1772790829151765800,5.665765869140625,6.620773061496019,4.436053525209426,2.7475030568957326
1772790829161830700,5.67583056640625,6.808277162313461,4.504999051141739,2.7392776648640633
1772790829171895800,5.685895751953125,6.766762079620361,4.602438265630602,2.518611883679032
1772790829181960700,5.695960693359375,6.932610813468695,4.556829776144028,2.27696761187315
1772790829192025600,5.706025634765625,7.133172548779845,4.327386229741573,2.2741046236574647
1772790829202090800,5.7160908203125,7.080501281300187,4.178095831984281,2.285640309280902
1772790829212156700,5.72615673828125,7.209559622889757,4.00362715382874,2.149068669451773
1772790829222221800,5.736221923828125,7.124077388176322,3.8061817969724534,1.974796682912111
1772790829232286700,5.74628662109375,7.048814349660277,3.407329193891585,1.7969956454634666
1772790829242351900,5.756351806640625,7.047413835212588,2.8848998955026266,1.6229215195834636
1772790829252416800,5.766416748046875,6.914204219162464,2.5733658026516437,1.5100651018626987
1772790829262482700,5.776482666015625,6.637272360876202,2.410217852194607,1.3257600893475114
1772790829272547800,5.7865478515625,6.270070449078083,2.3058695889696477,1.0891925362840293
1772790829282612700,5.79661279296875,5.8297688142776485,2.189894893097877,0.8804033631145953
1772790829292677600,5.806677734375,5.380152823165059,2.0187933532878755,0.8202464891199022
1772790829302742800,5.81674267578125,5.035934896591305,1.674521942961216,0.9049407152608037
1772790829312808700,5.82680859375,4.62456125011146,1.2685162532553076,0.9886636121515184
1772790829322873900,5.836873779296875,4.353528386735916,0.9900292744815349,0.9217211696699261
1772790829332938800,5.846938720703125,4.121228866380453,0.9586156068250536,0.6743045980729162
1772790829343003600,5.857003662109375,3.8088790732324123,1.00019323336035,0.41027218804396687
1772790829353068800,5.86706884765625,3.50889659422636,0.813804692569375,0.19866775652440263
1772790829363135000,5.877135009765625,2.872129553517699,0.20748861196488141,0.3094011359428987
1772790829373199600,5.88719970703125,1.8101199154525993,-0.6089075584024191,0.34598519197460265
1772790829383264800,5.8972646484375,0.7595178065866232,-1.3142574292108415,0.5826919343130663
1772790829393330000,5.907329833984375,-0.8508680565506219,-1.8923846494242549,0.5888137781942263
1772790829403394800,5.917394775390625,-3.146904526031017,-2.5110870411321518,0.295079545927979
1772790829413460700,5.927460693359375,-5.802376949483156,-2.8391069893598555,-0.2927959467691369
1772790829423526000,5.93752587890625,-8.73175048522353,-3.176897513234615,-0.9306251916155218
1772790829433590500,5.947590576171875,-10.854672029244899,-3.5705960945531725,-1.2253656052496285
1772790829443655700,5.95765576171875,-12.492920881819725,-2.8490882851481434,-1.4070942644707858
1772790829453720800,5.967720947265625,-13.886156862938403,-2.2355083510205147,-1.9956950940340756
1772790829463786800,5.977786865234375,-14.822553915953636,-2.8053616638854146,-2.4563614714711903
1772790829473851600,5.9878515625,-15.704782156407832,-3.9015687551066276,-2.2731128361411392
1772790829483916800,5.997916748046875,-16.052402000379562,-4.927805945783853,-1.7621956963695584
1772790829493982000,6.00798193359375,-16.4130169350028,-5.680448605903983,-1.2757511729449034
1772790829504046600,6.018046630859375,-16.384288853168485,-6.186431211882829,-1.2979124436095357
1772790829514112800,6.02811279296875,-15.868841084229945,-6.448139197552203,-1.8895669616550206
1772790829524177700,6.038177734375,-15.215058026790619,-6.596312573978304,-2.390705926994979
1772790829534242800,6.048242919921875,-14.128195687019824,-5.9673699432849885,-2.9563489286884663
1772790829544307700,6.0583076171875,-12.362794618737697,-5.019124631565809,-3.5748590126946564
1772790829554372900,6.068372802734375,-9.9748356523633,-4.178311228300631,-3.696839086461067
1772790829564438800,6.078438720703125,-7.151284544053674,-3.544427341812849,-3.2176337205097076
1772790829574503700,6.088503662109375,-4.383794345661998,-3.0862916518971324,-2.2951705003008245
1772790829584568800,6.09856884765625,-1.765375349318981,-2.7874273632660507,-1.2588842092961072
1772790829594633500,6.108633544921875,0.5422744010657071,-2.409931144207716,-0.6050697338052093
1772790829604698600,6.11869873046875,2.5981355022490025,-1.8293661754533648,-0.12082462012097239
1772790829614764800,6.128764892578125,4.226733313903212,-1.149945987932384,0.27971323263309894
1772790829624829700,6.13882958984375,5.593391669219732,-0.4175102495387196,0.40561245260462164
1772790829634894600,6.14889453125,6.847326147153973,0.13924334325641394,0.7156724543150514
1772790829644959700,6.158959716796875,7.576071798858046,0.646952042375505,1.258758683220297
1772790829655024600,6.169024658203125,7.891112730786204,1.0825567515313625,1.892260000131279
1772790829665090600,6.179090576171875,8.433375441414118,1.3770359569460153,2.2739953180640935
1772790829675155700,6.18915576171875,9.145414288467169,1.467672651813179,1.9503253817394375
1772790829685220600,6.199220703125,9.644301967749,1.8899211819201707,3.017639263692498
1772790829695285500,6.209285400390625,9.31417394132614,1.7751251744389533,3.984960447281599
1772790829705350700,6.2193505859375,10.002329223966598,1.2859959419749676,3.0509970511540767
1772790829715416600,6.22941650390625,10.206232670921088,0.9060412238486111,2.878560463348031
1772790829725481700,6.239481689453125,10.193610505235194,1.9119823532111941,2.3702267641983923
1772790829735546600,6.249546630859375,9.964835651874541,2.4057933137506247,2.0120317501984535
1772790829745611800,6.25961181640625,10.012571216517687,2.07591955434978,1.9972320943430064
1772790829755676700,6.2696767578125,10.02088194874525,1.8755244077771902,2.0459668991565705
1772790829765742800,6.279742919921875,9.812308171892166,1.8843921893656252,1.7204283924810588
1772790829775807700,6.289807861328125,9.87134722083807,1.933492612621188,1.556927536933124
1772790829785872600,6.29987255859375,9.801448924225568,1.93463622969836,1.4615101836606859
1772790829795937800,6.309937744140625,9.403318790200352,1.9545546898722648,1.239300095643103
1772790829806003500,6.32000341796875,8.856433095946908,1.9689859508067369,1.2467772996559738
1772790829816068600,6.330068603515625,8.570349378433823,1.7520707543268799,1.2501773173578083
1772790829826133800,6.3401337890625,8.065146524655818,1.6083701394006609,1.1373426730774343
1772790829836198700,6.35019873046875,7.200487843161821,1.547350730292499,1.218575141391903
1772790829846263600,6.360263671875,6.448975063854456,1.3785476766832172,1.1016155261360108
1772790829856329700,6.370329833984375,6.105004974561929,1.2357371424645185,0.7876939536266029
1772790829866395000,6.380394775390625,5.063120425158739,1.3633786029934882,0.21337394367642698
1772790829876459500,6.39045947265625,3.990909711074829,1.3954577488213777,-0.31968656577691434
1772790829886524700,6.400524658203125,2.9886610064893957,1.413897514744848,-0.7836231970563531
1772790829896589800,6.41058984375,1.6540525709062814,1.2737427557319403,-1.2903548678368328
1772790829906655700,6.42065576171875,0.4195733195483684,0.9330367828018963,-1.64655783123672
1772790829916720600,6.430720703125,-1.0298071581184864,0.6192953891649842,-1.7624628228731452
1772790829926785800,6.440785888671875,-2.6278666236460206,0.4114437891066074,-1.835385581873357
1772790829936850700,6.4508505859375,-4.363496823042631,0.16244652418941258,-1.691862369340658
1772790829946915600,6.46091552734375,-6.408560051357746,-0.48274157725349065,-1.3790715544268488
1772790829956981800,6.470981689453125,-8.640380946037173,-1.277136635953933,-1.2654796620383857
1772790829967046700,6.481046630859375,-10.512689314377308,-1.7469763537973164,-1.2193749134674667
1772790829977111600,6.491111572265625,-12.092782915103435,-1.9555396092563866,-1.1419326312161981
1772790829987176700,6.5011767578125,-13.18969669328928,-1.598088107100129,-1.031092814014852
1772790829997242600,6.51124267578125,-14.04041920388937,-0.8575361361376941,-1.0807735944416372
1772790830007307800,6.521307861328125,-14.549128604483604,-0.7742828295201063,-0.7603759577859193
1772790830017372700,6.53137255859375,-14.713098684978485,-1.187465132857114,-0.1751120175603777
1772790830027437600,6.5414375,-15.063811818790436,-1.822495851292461,0.37890276138801127
1772790830037502700,6.551502685546875,-15.197357534927129,-2.403025456472486,0.7760448707565665
1772790830047568600,6.561568603515625,-15.20641645517349,-2.5287016082778573,0.7452553263477981
1772790830057633500,6.571633544921875,-14.81931566468477,-2.230960332327336,0.31238289170004424
1772790830067698700,6.58169873046875,-13.898796564280985,-1.9050161674603818,0.018703019969537854
1772790830077763600,6.591763671875,-12.70320730780959,-1.6789955812439321,-0.303601710682828
1772790830087828700,6.601828857421875,-11.180239031362532,-1.3381164437040687,-0.7755836829856038
1772790830097894700,6.611894775390625,-9.17043883960843,-1.0401555336534976,-1.100511729612574
1772790830107959800,6.621959716796875,-7.199308277988433,-0.9771598560363054,-1.246831075669825
1772790830118024700,6.632024658203125,-5.223873881694674,-0.9909938817299901,-1.2120119104187934
1772790830128089600,6.642089599609375,-3.1467975585252046,-0.9317704161278902,-1.1285228222839534
1772790830138155800,6.65215576171875,-1.1446756463140249,-0.8827025799676775,-0.868955648035556
1772790830148220700,6.662220703125,0.6139817929267883,-0.7848353493250906,-0.5468714830650017
1772790830158285600,6.67228564453125,2.0912650075197217,-0.6025199031919241,-0.3518919683329761
1772790830168350700,6.682350830078125,3.295157397434115,-0.2535243869528174,-0.2858016126360744
1772790830178415900,6.692415771484375,4.418880856612325,-0.08147767524719238,-0.1288724636286497
1772790830188481500,6.7024814453125,5.385684153807163,-0.048104982477426526,0.029969460197538135
1772790830198546700,6.712546630859375,6.007661621662974,0.01957256934568286,0.3097074619457125
1772790830208611800,6.72261181640625,6.543828938025236,0.09135288031250238,0.5650638866312802
1772790830218676500,6.732676513671875,7.084835511112213,0.15557006254866718,0.7781756722401827
1772790830228741600,6.74274169921875,7.549983417877555,0.1668111491397023,1.0450330765619873
1772790830238807600,6.7528076171875,7.899282593238353,0.08167714334204793,1.307100835454464
1772790830248872700,6.762872802734375,8.20035695913434,-0.0033911037430167197,1.4829954547598958
1772790830258937600,6.7729375,8.502645376995206,-0.06465893465429544,1.6578271210089326
1772790830269002800,6.783002685546875,8.72889977196753,-0.16616656762585044,1.8421410474829374
1772790830279068700,6.793068603515625,8.823786379364133,-0.2314361084591597,1.904302904624492
1772790830289133800,6.8031337890625,9.012803222832083,-0.26825879555232823,1.8624179657056927
1772790830299198700,6.81319873046875,9.146634770172835,-0.31400910466238857,1.7238038602635264
1772790830309263600,6.823263671875,9.204750859054922,-0.3623356209360063,1.6788671325586735
1772790830319328800,6.833328857421875,9.261334916064143,-0.3339592020835727,1.6865489192329346
1772790830329394700,6.843394775390625,9.298505247551203,-0.3236816267624497,1.5984025798767805
1772790830339459600,6.85345947265625,9.282258461627364,-0.27494989068880676,1.5598136137634515
1772790830349524700,6.863524658203125,9.143027685591578,-0.2888660417079925,1.4940072626397012
1772790830359589600,6.873589599609375,9.12428265311122,-0.23782390980012713,1.3907315970823169
1772790830369655600,6.883655517578125,8.95821881520748,-0.11910101119875907,1.1613078513588755
1772790830379720700,6.893720703125,8.728569517099857,-0.11777370811775326,1.0085418864455074
1772790830389785900,6.903785888671875,8.45343798623383,-0.2752140945829451,0.9831371768802404
1772790830399850500,6.9138505859375,8.009334621062875,-0.5473154639728367,0.9558216652575879
1772790830409915600,6.92391552734375,7.442212194466591,-1.0152965483374894,1.177405218874663
1772790830419981800,6.93398193359375,6.725581927970051,-1.518077874056995,1.3122922666177153
1772790830430046500,6.94404638671875,5.4468765813946725,-2.0814932628288862,1.2549585602849722
1772790830440111600,6.954111572265625,3.7605443736523387,-2.2538554702244697,0.9870940247472375
1772790830450176800,6.9641767578125,1.5945938352435827,-2.2451422946758566,0.8503814420774578
1772790830460242700,6.97424267578125,-1.0435013369500636,-2.5891572460234165,1.3238900576919317
1772790830470307600,6.9843076171875,-4.327995886072516,-2.919977638624608,1.654662081106752
1772790830480372700,6.994372802734375,-8.372026946482062,-3.6318186250180005,1.4263693121746182
1772790830490437600,7.004437744140625,-12.151008309578895,-4.298958007636666,0.8862145336113869
1772790830500502500,7.01450244140625,-14.896654924952983,-3.928718920099735,-0.35039573842585087
1772790830510568700,7.024568603515625,-16.6237721475482,-2.5340672269642353,-2.1160874602176247
1772790830520633600,7.034633544921875,-18.252688523632287,-0.5885980530843138,-3.8372880061149597
1772790830530698800,7.04469873046875,-19.492678062844274,0.9506976733073592,-4.873143504486978
1772790830540763600,7.054763671875,-20.455516548061368,1.260898763988912,-4.924186001721024
1772790830550829600,7.06482958984375,-20.851333728969095,0.8526634155347943,-4.277622958663105
1772790830560894700,7.074894775390625,-20.333800385928154,0.46466392264068124,-3.524760226051509
1772790830570959600,7.084959716796875,-19.114609304594993,0.4894964583411813,-3.1154692310646173
1772790830581024800,7.095024658203125,-17.511309015804528,0.7704717467993497,-3.0156466285705563
1772790830591090200,7.105090087890625,-15.69307418295741,0.8869707588061689,-2.9028458865597844
1772790830601155300,7.1151552734375,-13.711219982749222,0.7964493608817458,-2.783803619810939
1772790830611220500,7.125220458984375,-11.562171479302645,0.5096913973689079,-2.755729033449292
1772790830621285000,7.13528515625,-9.249882963201403,0.20922581102102994,-2.6847365118592976
1772790830631350300,7.145350341796875,-7.012181778311729,-0.04328793758451938,-2.3959426586046813
1772790830641416200,7.155416259765625,-4.892182259216904,-0.31184535075724124,-1.921700468018651
1772790830651481000,7.165481201171875,-2.895408722296357,-0.43581542929708955,-1.28080231885463
1772790830661546200,7.175546142578125,-1.0070856232225895,-0.44405368081033225,-0.8772260482527315
1772790830671611400,7.185611328125,0.8721195188939571,-0.34742724400907754,-0.20175949372835456
1772790830681677300,7.19567724609375,2.54172329467535,-0.088563541854918,0.5411863135680556
1772790830691742200,7.2057421875,3.9829543681561943,0.2447980596616864,1.1591430745404212
1772790830701807400,7.215807373046875,5.173559406474232,0.534344777110219,1.6733008767336606
1772790830711872300,7.225872314453125,5.919400569885969,0.8937398145496844,1.877920947524905
1772790830721938400,7.2359384765625,6.477124469017982,1.3597954838097095,1.7218746457666159
1772790830732003300,7.24600341796875,6.9843030067831275,1.7637483326390384,1.5548818564496933
1772790830742068200,7.256068115234375,7.578125808778405,2.175406056757271,1.676140484073758
1772790830752133400,7.26613330078125,7.988929546415806,2.5963983031928537,1.8739361156724392
1772790830762198300,7.2761982421875,8.256208025693892,2.8857299165859818,2.102007058547437
1772790830772264200,7.28626416015625,8.519472008633613,3.0284213544696565,2.383215425109118
1772790830782329300,7.296329345703125,8.695886560159922,3.0786931595921514,2.6431588853240013
1772790830792394200,7.306394287109375,8.830104476469755,3.0610429366111753,2.7279417395964263
1772790830802459100,7.316459228515625,9.108730863714218,2.8304446672156454,2.7600825524836776
1772790830812525300,7.326525390625,9.335189256826043,2.972739506997168,2.8197423636764287
1772790830822590500,7.336590576171875,9.218996242028474,3.2230691895619032,2.7921733887493607
1772790830832655000,7.346655029296875,9.262753550690412,2.9561434692442417,2.793431864377856
1772790830842720300,7.35672021484375,9.4067563634336,2.6992206720247864,2.5081226383686066
1772790830852786200,7.3667861328125,9.421744089207053,2.704367387263477,2.1243030615076424
1772790830862851000,7.37685107421875,9.289597718474269,2.7046888743028044,1.7761714686214922
1772790830872916200,7.386916259765625,9.075049543386697,2.6219775656074282,1.6248633013010023
1772790830882981400,7.3969814453125,8.980341799688338,2.405549568122625,1.680266039571166
1772790830893046000,7.4070458984375,8.944225361168384,2.1326912428855893,1.6444878930948674
1772790830903112200,7.4171123046875,8.672571151024103,1.8219743116363882,1.542321650084108
1772790830913177300,7.42717724609375,8.164369699952006,1.5127020262375472,1.423186005963385
1772790830923242200,7.4372421875,7.631776734945178,1.190776303231716,1.4007811358012259
1772790830933307100,7.44730712890625,6.764236360535025,0.8617664671838283,1.1845108130961657
1772790830943373300,7.457373291015625,5.7282461298674345,0.5702732918426394,0.7134357082389294
1772790830953438200,7.467438232421875,4.844672320023179,0.32850977757126093,0.25900906544160096
1772790830963503400,7.47750341796875,3.7735154989063737,0.29383740037977696,-0.33919476464949544
1772790830973568300,7.487568359375,2.4303087463259696,0.053289983899891376,-0.8149700830869376
1772790830983634200,7.49763427734375,0.8734469681054353,-0.650775107795,-1.1888361289493738
1772790830993699300,7.50769921875,-1.060328553110361,-1.8127905959665773,-1.2362082671076058
1772790831003764200,7.51776416015625,-3.1287182964771985,-2.6851231730893255,-0.8074855725504457
1772790831013829000,7.5278291015625,-5.367817073205113,-2.922759086036682,-0.7217719402339309
1772790831023894300,7.537894287109375,-7.992149092984199,-3.2367841189205646,-1.1227199812240898
1772790831033960400,7.54796044921875,-9.856322670185566,-3.623450901906192,-1.2159664932634682
1772790831044025000,7.558025146484375,-10.566845267456769,-4.196779781927168,-0.8394672493532299
1772790831054090200,7.56809033203125,-11.765290497881173,-4.717132858563959,-0.2570888562350534
1772790831064155400,7.5781552734375,-12.903358124232291,-4.715526007889211,-0.07880695820059627
1772790831074221300,7.58822119140625,-13.44176825108528,-4.640197210660577,-0.4932729081399739
1772790831084286200,7.5982861328125,-13.863562753814458,-4.876834760220349,-0.5442813569739461
1772790831094351400,7.608351318359375,-14.235025245666503,-5.117101606193184,-0.18853256708234548
1772790831104416300,7.618416259765625,-14.264295763814449,-5.086940861207246,-0.018045688571967183
1772790831114482200,7.628482177734375,-13.606926080060004,-4.722038458523154,-0.29043709041699767
1772790831124547300,7.63854736328125,-12.68455755239725,-4.2198792102247475,-0.46665538871884343
1772790831134612200,7.6486123046875,-11.630402719485758,-4.035624466592073,-0.1577433149345219
1772790831144677000,7.658677001953125,-10.684924534392357,-4.190215893366933,0.42281657578591253
1772790831154743300,7.668743408203125,-9.550849192547798,-4.151183275139331,1.0213646162047982
1772790831164808200,7.67880810546875,-8.387183599081634,-4.032578523024917,1.5955840153247116
1772790831174873300,7.688873291015625,-6.981451709005237,-3.7662533989489075,2.0198414010360835
1772790831184938200,7.698938232421875,-5.138322088876366,-3.0263918944686647,1.8787015765085815
1772790831195004200,7.709004150390625,-3.251242852383852,-2.0110919851303097,1.4433878131233155
1772790831205069300,7.7190693359375,-1.4809855762422084,-1.0619476787447928,1.0547603975892066
1772790831215134200,7.72913427734375,-0.047396541947126385,-0.21578326984047888,0.6741755648657679
1772790831225199000,7.73919921875,0.962826210257411,0.6494149253576994,0.21598500295765696
1772790831235265300,7.749265380859375,1.8065519938379524,1.4643804783999919,-0.3560214693531394
1772790831245330400,7.759330322265625,2.4236229849517343,2.0732155560880896,-0.7771167377717793
1772790831255395000,7.76939501953125,2.7189503316283226,2.7700673554033037,-1.0286409638833254
1772790831265460200,7.779460205078125,2.810744818228483,3.40745866549015,-0.8561677703939378
1772790831275525400,7.789525390625,3.5083740316569805,3.8364164839774366,-0.7765248362932353
1772790831285591300,7.79959130859375,3.6558401365965603,3.8119671023756263,-0.5305553216993808
1772790831295656200,7.80965625,4.0026954259365795,3.7715918373674153,-0.5469827248871326
1772790831305721300,7.819721435546875,4.634617949223518,3.857024387720227,-0.8043853415127843
1772790831315786200,7.8297861328125,5.079959916278719,3.8520775789678097,-1.0521885012745857
1772790831325852200,7.83985205078125,5.401675503665208,3.807713536584377,-1.2417530417531728
1772790831335917300,7.849917236328125,5.688941708961129,3.802051273038983,-1.354486856007576
1772790831345982200,7.859982177734375,5.944623858469725,3.748373458865285,-1.3603259374246
1772790831356047000,7.870047119140625,6.091435298892855,3.666094988629222,-1.3529174147337675
1772790831366113300,7.88011328125,6.152780286693573,3.7676170885175466,-1.3210980888858437
1772790831376178200,7.89017822265625,6.1152948979079715,4.0110681174844505,-1.4437711133524775
1772790831386243300,7.900243408203125,6.088673432964086,4.27638377225697,-1.3779656390115618
1772790831396308200,7.91030810546875,6.119067402184009,4.55451273137331,-1.1009741594925522
1772790831406374100,7.9203740234375,6.124305302837491,4.739492866671085,-0.7790848960395902
1772790831416439300,7.930439208984375,6.168392281845212,4.762058918744326,-0.44192923600226636
1772790831426504200,7.940504150390625,6.1961751917839045,4.640595854589343,-0.15393321859445422
1772790831436569000,7.950569091796875,6.168042737755179,4.570152199053764,0.0164883761273697
1772790831446635300,7.96063525390625,6.099735509726405,4.592765012878179,0.10978358614668249
1772790831456700400,7.970700439453125,5.964975157102942,4.5318379582285875,0.09993439230546354
1772790831466765000,7.98076513671875,5.802455275416374,4.3122243164449925,0.07281224783044309
1772790831476830200,7.990830322265625,5.607576846438646,3.974073727086186,0.23097945073284207
1772790831486896400,8.000896484375,5.321740381684899,3.34746216968894,0.5135231575515121
1772790831496961300,8.010961181640624,5.010210088226199,2.8278648798555133,0.7060365378983319
1772790831507026200,8.021026123046875,4.469760564500093,2.5412878258675335,0.5372343610718846
1772790831517091300,8.03109130859375,3.811026606655121,2.2575977254927158,0.3866664541920647
1772790831527156500,8.041156494140624,3.0604221743643283,1.669063093033433,0.3522445080976933
1772790831537222100,8.05122216796875,2.051178496325016,1.0118705194115638,0.444747069901973
1772790831547287300,8.061287353515626,1.0907611007750033,0.2074339591681957,0.5332349892374127
1772790831557352200,8.071352294921875,-0.3459621398925781,-0.5165402403503656,0.3259394886918366
1772790831567417000,8.0814169921875,-2.29684837038517,-1.0579378585815429,0.22212622739272192
1772790831577483300,8.091483154296874,-4.225914983257651,-1.422594762071967,-0.14256749184359796
1772790831587548200,8.101548095703125,-5.813381743100285,-1.5929261942923068,-0.4354661774680018
1772790831597612300,8.1116123046875,-6.677291067531704,-1.6018559352010489,-0.7295096948791295
1772790831607677400,8.121677490234376,-7.3462144109576935,-1.6222066493123768,-1.0565293800231068
1772790831617743600,8.13174365234375,-7.839974664223194,-2.015258457159996,-0.8241048450484871
1772790831627808300,8.141808349609375,-8.19459474234581,-2.9943291152536866,-0.2611437211164273
1772790831637873400,8.151873291015624,-8.957539600771666,-3.7216520406782623,0.09758917175303213
1772790831647938600,8.1619384765625,-9.347177800783514,-4.252855597153306,0.3045485813451931
1772790831658004200,8.172004150390626,-9.644401920992136,-4.963351890939474,0.594353620936349
1772790831668069400,8.1820693359375,-9.91603158121705,-5.655361510920525,0.9382309904441237
1772790831678134500,8.192134521484375,-9.81513491975069,-5.943246724897623,1.130718578762561
1772790831688199200,8.20219921875,-9.507815521985291,-6.068962185800075,1.2083189011197537
1772790831698265300,8.212265380859375,-8.938253885543347,-6.181845637658238,1.3489775910668074
1772790831708330500,8.22233056640625,-8.399237609490752,-6.257844004711508,1.261548898460716
1772790831718395400,8.2323955078125,-7.562827117359638,-6.4102633481442926,1.191406710089743
1772790831728460300,8.242460205078125,-6.653477061223984,-6.413573495605587,1.2596388270556926
1772790831738526500,8.2525263671875,-5.73312162694931,-6.114063310286403,1.1811396561626344
1772790831748591400,8.26259130859375,-4.574553064361214,-5.522163000786304,0.9652420392274856
1772790831758656300,8.27265625,-3.3545033203721046,-4.589532606828213,0.5761155150648206
1772790831768721400,8.282721435546875,-2.2482377764731645,-3.2193723808705803,0.12727617088053375
1772790831778787300,8.292787353515624,-0.956902665427327,-1.808587299057841,-0.35265440407283605
1772790831788852500,8.3028525390625,0.11463000326454639,-0.39475101298093795,-0.9486321190796791
1772790831798917400,8.31291748046875,1.1685860987335444,0.8403501696676016,-1.3565882122009991
1772790831808982300,8.322982177734374,2.2069927428930995,2.006527453693747,-1.4925880434915422
1772790831819048400,8.33304833984375,3.0395430524647233,2.973996521320939,-1.460926976945251
1772790831829113600,8.343113525390624,3.988449458441138,3.6944612514138218,-1.3449857449516653
1772790831839178200,8.35317822265625,4.833372927373647,4.156643878632783,-1.0929111914809793
1772790831849243400,8.363243408203125,5.617841050821543,4.425708656805753,-0.7912073685750365
1772790831859309300,8.373309326171874,6.218743581944704,4.695154543250799,-0.4408458612123504
1772790831869374200,8.383374267578125,6.6583852915316815,4.732304416471719,-0.0064107324086944565
1772790831879439400,8.393439453125,6.894933116981386,4.7584757995605464,0.3598223594734445
1772790831889504500,8.40350439453125,7.079640280556679,4.895575993308425,0.5874455951135605
1772790831899570400,8.4135703125,7.069335744163394,4.781170446449518,-0.0035387708686874246
1772790831909635300,8.42363525390625,6.049399407196044,4.413476951742172,-1.6658042373679578
1772790831919700500,8.433700439453125,5.943947566643357,4.14995461012721,-0.5311142707563936
1772790831929765400,8.443765380859375,6.723315152081847,3.858372295197844,-0.28197292119339107
1772790831939831600,8.45383154296875,6.107443599885702,3.7623429475069043,-0.476036928515695
1772790831949896400,8.463896484375,5.86760783880651,3.578039688557386,-0.46811209033317863
1772790831959961300,8.47396142578125,5.838360117012262,3.628181145298481,-0.4333205437414348
1772790831970026500,8.484026611328124,5.922547051218151,3.5330905397623775,-0.1427113298942335
1772790831980092200,8.494092041015625,5.985941372764111,3.4778678342342375,-0.058732759475708
1772790831990157300,8.5041572265625,6.00099164237976,3.4227176094204186,0.06589264116771519
1772790832000222500,8.514222412109374,6.051209086966514,3.26019831225574,0.004123628401802852
1772790832010287400,8.524287353515625,6.039245092928409,3.1184272040873764,-0.04362350794812664
1772790832020353300,8.534353271484376,5.909206508129834,2.8113965601354836,-0.0035120335588115265
1772790832030418400,8.54441845703125,5.69354598788619,2.518980132469535,-0.08457767795599065
1772790832040483600,8.554483642578125,5.452124418920278,2.297414772096276,-0.22439243702534584
1772790832050548200,8.56454833984375,5.238844071811437,2.0934914513975382,-0.3494347844392061
1772790832060614400,8.574614501953125,5.00190929287076,1.935821932351589,-0.5932201964596286
1772790832070679600,8.584679443359375,4.629539623045921,1.3993302063405513,-0.4658796551059931
1772790832080744200,8.594744140625,3.9706934369981286,0.32899405395686626,-0.019701246359804643
1772790832090810400,8.604810302734375,2.904750551137328,-0.9616980830103158,0.2946426706143655
1772790832100875300,8.614875244140626,1.735175441366434,-1.9943489401221275,0.3089240930156782
1772790832110940400,8.6249404296875,0.3262906402170658,-2.4598212565362454,-0.21008407181818037
1772790832121006600,8.635006591796875,-1.588283921444416,-3.147475603917241,-0.9667769206445663
1772790832131071200,8.6450712890625,-4.13238680473268,-4.2009243343859906,-1.8263550109386444
1772790832141136400,8.655136474609375,-6.768791539621353,-5.0023926924735305,-2.474112816739082
1772790832151201500,8.665201416015625,-9.130802994790672,-5.362710689976811,-3.049290247236192
1772790832161267200,8.67526708984375,-10.964092188906669,-5.395414105182886,-3.323019217827916
1772790832171332400,8.685332275390625,-12.285000600439309,-5.53446075682342,-2.8452254722401498
1772790832181397500,8.6953974609375,-13.103713523316383,-5.343150833982229,-1.9118714401826262
1772790832191462400,8.70546240234375,-13.36862585798502,-5.111426483166217,-0.6830040373571217
1772790832201528300,8.7155283203125,-13.228817574322223,-5.25853369166553,0.5913352960284799
1772790832211593500,8.725593505859376,-12.617916211754084,-5.393557663661241,1.6488137934699654
1772790832221658400,8.735658447265624,-11.387910306417941,-5.216321274358034,2.2573595328226683
1772790832231723300,8.74572314453125,-10.2958761169672,-5.5913300605148075,2.6403552260801195
1772790832241789400,8.75578955078125,-9.409114909258484,-6.05047025129795,2.934427896520495
1772790832251854300,8.765854248046875,-8.15164348936975,-6.420037723183632,2.811901587048173
1772790832261919200,8.775919189453125,-6.8202885026246305,-6.5808566461712115,2.1608982234552503
1772790832271984400,8.785984375,-5.52401593517661,-5.76186139922142,1.3013676986299454
1772790832282050300,8.79605029296875,-4.190354425054788,-3.9228848071187734,1.076063590119779
1772790832292115500,8.806115478515625,-3.4378093800902363,-2.526154554143548,1.079886290213093
1772790832302180400,8.816180419921874,-1.444331377583742,-1.132109010207653,0.32357232116907836
1772790832312246300,8.826246337890625,-0.18283727805018424,-0.10937222886681557,0.6462768465276807
1772790832322311400,8.8363115234375,1.1457353845000267,0.4652408457458019,0.9848382817097008
1772790832332376600,8.84637646484375,2.3879519521117207,1.241629707634449,1.3567659068554638
1772790832342441200,8.856441162109375,3.21482304700315,1.83177177529037,1.5163890441872179
1772790832352507400,8.86650732421875,4.0596506543457505,2.359816283212602,1.5798545312732457
1772790832362572500,8.876572509765625,4.868015201687813,2.655811446148157,1.6227593147590755
1772790832372637200,8.88663720703125,5.59809473234415,2.758037602652609,1.5674094757199286
1772790832382702300,8.896702392578124,6.081520638599992,3.0062586225003,1.5455208845168351
1772790832392768300,8.906768310546875,6.338335591530799,3.3711125098675487,1.4219351291194557
1772790832402833400,8.91683349609375,6.482580980858207,3.610712708625197,1.451078075364977
1772790832412898300,8.926898193359374,6.681018563622236,3.6531054509356617,1.4320511572033165
1772790832422963500,8.93696337890625,6.882182356479763,3.545277821162343,1.2202234931208193
1772790832433029400,8.947029296875,7.01053868727982,3.4284991154313085,0.8571750477403401
1772790832443094500,8.957094482421875,7.131533549401164,3.1219743751749394,0.6333567938737571
1772790832453159400,8.967159423828125,7.352941673386097,2.7298981343612074,0.5005234637901187
1772790832463224300,8.977224365234376,7.5441580727249375,2.4283728098273274,0.20331859627123922
1772790832473290500,8.98729052734375,7.699068648451566,1.954766871318221,-0.21392916640639303
1772790832483355400,8.99735546875,8.204483683675527,1.496057473167777,-0.4163609333731234
1772790832493420300,9.007420166015624,8.356395662108064,1.30896341445595,-0.5228309379924089
1772790832503486500,9.017486572265625,8.039815099522471,1.159054300278425,-0.5157437562104314
1772790832513551400,9.02755126953125,7.5360361410677426,1.0939052440196275,-0.23968115503937004
1772790832523616300,9.0376162109375,7.061946802955865,1.3118930381670593,0.17116287807580083
1772790832533681400,9.047681396484375,6.526988862383365,1.6645479536965488,0.41377449707649644
1772790832543747300,9.057747314453126,5.936718199911713,1.8347104590907692,0.39508722266536206
1772790832553812200,9.067812255859375,5.4485307783424854,2.0571324362933634,0.4129139712570235
1772790832563877400,9.07787744140625,4.955069215762615,2.133801834475994,0.38297844986170526
1772790832573942500,9.087942626953126,4.232084611803293,1.8046639881342648,0.40730435121431946
1772790832584008400,9.098008544921875,3.400425698113441,1.3196946518287063,0.567644039317593
1772790832594074400,9.108074462890626,2.659009949928522,1.0909870184853672,0.8432193684283643
1772790832604139300,9.11813916015625,2.052200240588188,1.1003253401950002,1.172565304562822
1772790832614204400,9.128204345703125,1.5779226864278315,1.0709992924675344,1.0285460521414875
1772790832624270300,9.138270263671876,0.7411462835937738,0.2915627334460616,0.7152038869552314
1772790832634335200,9.148335205078125,0.05176116689741611,-1.654299531404674,0.32528920808956024
1772790832644400400,9.158400390625,-1.3778952041238546,-3.4149709408164024,-0.6466396154254674
1772790832654466300,9.16846630859375,-3.1389836699038742,-3.9824221609756347,-1.9472233240708707
1772790832664531500,9.178531494140625,-5.066504806900024,-3.6947102577388287,-3.077013828203082
1772790832674596400,9.188596435546875,-6.732019852063059,-3.245515122386813,-3.9043510793015357
1772790832684661500,9.19866162109375,-9.597457798987627,-3.0367046141684053,-4.150448531123995
1772790832694727400,9.2087275390625,-11.985952187412977,-3.3583898064166307,-3.8606069223821162
1772790832704792300,9.218792236328126,-12.74632514952421,-4.155324612727761,-3.715200088059902
1772790832714857200,9.228857177734374,-12.879928148806094,-5.06063679164946,-3.501878824418783
1772790832724922400,9.23892236328125,-13.732739740639925,-5.94196603743732,-2.9616508344888683
1772790832734988500,9.248988525390626,-13.82445005608797,-5.6891381083160635,-1.655218984337151
1772790832745053200,9.25905322265625,-13.795160833239555,-5.116674320691824,-0.963844812715426
1772790832755118300,9.269118408203125,-13.852266283774375,-5.641136001691222,-0.9627089405532926
1772790832765184500,9.2791845703125,-13.257620474958419,-6.179470140698552,-0.9340321505147963
1772790832775249400,9.28924951171875,-12.054510759854317,-6.3104778627902265,-0.8257278431404381
1772790832785314300,9.299314208984375,-10.69344218736887,-6.087021574103832,-0.9866194660380482
1772790832795379500,9.30937939453125,-9.007527912777661,-5.907039100962877,-1.38127900134325
1772790832805445400,9.3194453125,-7.090624615907669,-5.885719834080338,-1.6853103173486887
1772790832815510300,9.32951025390625,-5.213544210860133,-5.605981101679801,-1.5000043110974133
1772790832825575400,9.339575439453125,-3.3028163877546786,-4.989990307018161,-0.7057526794556528
1772790832835640300,9.349640380859375,-1.4831237573146818,-4.040470737579465,-0.13403397457767277
1772790832845706500,9.35970654296875,0.41278526684343814,-2.851978161370754,0.23063355990462003
1772790832855771400,9.369771484375,2.105351400539279,-1.4762731607675552,0.3920988910369575
1772790832865836300,9.379836181640625,3.6997178567677733,0.011399930414557457,0.5904746606111526
1772790832875902500,9.38990234375,4.811753800761699,1.2724755122750997,1.2284751886375247
1772790832885967600,9.399967529296875,5.190039416632056,2.2924539348185062,1.5338526585549115
1772790832896032300,9.4100322265625,5.730578956729174,3.219404529574513,1.3848171123415232
1772790832906097400,9.420097412109374,6.1547010256230825,3.625537937313318,1.0612856346394866
1772790832916163300,9.430163330078125,6.617799014121293,3.663509648311138,0.6306387670867145
1772790832926228200,9.440228271484376,7.362612003529072,3.7682670768588777,0.443961399416998
1772790832936293400,9.45029345703125,7.842159022524952,3.811440448153019,0.42523872489891945
1772790832946358500,9.460358642578125,8.10673467258513,3.8946214201867577,0.7302142629519105
1772790832956424400,9.470424560546874,8.148869348481297,3.9999943502843376,1.1000213157471268
1772790832966489300,9.4804892578125,8.01301769348979,3.9150884541541338,1.367747027336061
1772790832976554500,9.490554443359375,7.826927551123499,3.6763410728335377,1.49842975525707
1772790832986620400,9.500620361328124,7.581656320992112,3.5562224090248344,1.403295602840185
1772790832996685300,9.510685302734375,7.248347910967468,3.556719252631068,1.2218093740727751
1772790833006750500,9.52075048828125,6.8976528973340985,3.4962244519189,1.0256709350965916
1772790833016815400,9.5308154296875,6.73727821098268,3.3259985258996485,0.9033665978118777
1772790833026881500,9.540881591796875,6.745380268895626,3.1429134105682373,0.7423563169706613
1772790833036946200,9.5509462890625,6.697472854816914,3.013684096325934,0.5460999507032335
1772790833047011300,9.56101123046875,6.777016931653022,2.9637232568487524,0.42370092087239025
1772790833057077500,9.571077392578125,6.848063229256868,2.9457132606446743,0.49377318581230933
1772790833067142400,9.581142333984374,6.816840992519259,3.135115888559818,0.619168109523505
1772790833077207300,9.591207275390625,6.587974369221925,3.4174951985970137,0.6574011018060147
1772790833087272400,9.6012724609375,6.251109728020429,3.6397415269717572,0.6454159919146448
1772790833097338400,9.61133837890625,5.906625259464978,3.7608933332204817,0.6451974537931382
1772790833107403300,9.6214033203125,5.652373435020446,3.7076015957549213,0.5899745290692895
1772790833117468400,9.631468505859376,5.408455957585573,3.4852509302228687,0.43876003138162195
1772790833127534300,9.641534423828125,5.253693265897035,3.2288480652242897,0.2393620791528374
1772790833137599500,9.651599609375,5.176406028077006,3.0563001259982583,0.1773337121978402
1772790833147664400,9.661664306640626,4.868364161255956,2.7684508601173756,0.26016945099048316
1772790833157729300,9.671729248046875,4.363689130744338,2.3435206897109744,0.38869843494370576
1772790833167795500,9.68179541015625,3.826274444669485,1.813179010762274,0.32927221331112083
1772790833177860400,9.6918603515625,3.192878926220536,1.0563996892288328,0.3162466544561088
1772790833187925200,9.70192529296875,2.8197254125416276,-0.05013648830503225,0.2819188894512132
1772790833197990400,9.711990478515625,2.024329652366042,-1.6025228746771811,0.4890559114994481
1772790833208056600,9.722056640625,0.5155851315826178,-2.8449831879168745,0.5147604077288881
1772790833218121200,9.732121337890625,-2.031377817311883,-3.427812009949982,-0.011190123588778078
1772790833228186400,9.742186279296876,-5.291977696105837,-3.330809141051769,-0.949497795998305
1772790833238252300,9.752252197265625,-8.77854555414617,-3.1648522706538436,-1.7867894548781216
1772790833248317400,9.7623173828125,-12.324515449225903,-3.224039788159728,-2.5461063320651647
1772790833258382300,9.77238232421875,-14.734230320334433,-3.3197397577658294,-2.786537720949948
1772790833268447500,9.782447509765625,-16.828371175551414,-3.1493320454388853,-2.032406137446314
1772790833278513400,9.792513427734375,-17.776455159229037,-3.262542537294328,-0.7237735623799264
1772790833288578300,9.802578369140624,-17.928613221377134,-3.6740479934602974,0.4544638695351779
1772790833298643500,9.8126435546875,-17.85510024139881,-4.143792580366134,1.1888100446600467
1772790833308709400,9.82270947265625,-17.17219279628396,-4.853118369068205,1.6472548735901713
1772790833318774500,9.8327744140625,-16.066436370950935,-5.356104423579573,1.8172142576277255
1772790833328839400,9.84283935546875,-14.80128433343172,-5.617727069053053,1.690157903510332
1772790833338904300,9.852904296875,-13.285242641377447,-5.537683810523152,1.2044757427603006
1772790833348970500,9.862970458984375,-11.674781959438324,-5.554087248313427,0.6160783268146216
1772790833359035400,9.873035400390625,-9.81073346992135,-5.631335323166847,0.1148528887676075
1772790833369100300,9.883100341796874,-7.720462149614095,-5.444796852511168,-0.1823414208246395
1772790833379165400,9.89316552734375,-5.7503363811224695,-4.806134207314253,-0.25997772781066597
1772790833389231400,9.9032314453125,-4.020744292846322,-3.604933540701866,-0.02330561839416623
1772790833399296300,9.913296142578124,-2.4295628963947293,-2.198070016247034,0.2567135749155655
1772790833409361400,9.923361328125,-0.7194926701903342,-0.8249988712787628,0.39737675837464626
1772790833419427300,9.93342724609375,0.9615811786323786,0.09860358209311962,0.49871838712953026
1772790833429492500,9.943492431640625,2.5056501107752323,0.7779635638594626,0.6078595837194473
1772790833439557400,9.953557373046875,3.826488964203,1.280007661345601,0.5835659406686201
1772790833449622300,9.963622314453126,4.976921566608548,1.7683020504206417,0.4991539655352011
1772790833459688400,9.9736884765625,5.842656352901458,2.160955798861384,0.36630960260089485
1772790833469753300,9.98375341796875,6.5749605738699435,2.7494337326973675,0.4298001875955611
1772790833479818200,9.993818359375,7.162702594646811,3.449132153615355,0.6579881079137325
1772790833489884400,10.003884521484375,7.669416437509655,3.9687259363174436,1.005385541306436
1772790833499949600,10.013949462890626,8.132792073905467,4.238808367100358,1.480460383324325
1772790833510014200,10.02401416015625,8.099640330410002,4.252331573279202,1.8203220143847167
1772790833520080400,10.034080322265625,8.239511157914995,4.363262722025811,1.9831351799294352
1772790833530145300,10.044145263671876,8.292849949392675,4.399087484122813,2.0959065497152505
1772790833540210400,10.05421044921875,8.241269399759172,4.228860681320727,1.856842503660917
1772790833550275300,10.064275390625,8.276953876602649,4.015029422330856,1.4518104812927544
1772790833560341200,10.07434130859375,8.479564361137152,3.7484579222783445,1.0112611553415656
1772790833570406400,10.084406494140625,8.6901465552032,3.5148090331405397,0.6305969737716018
1772790833580471300,10.09447119140625,8.944642125275731,3.3639182144492863,0.31514863008633254
1772790833590537000,10.104536865234374,9.146039726889134,3.2981872666493057,0.04133062950428575
1772790833600602000,10.11460205078125,9.157395818161964,3.315846257458627,-0.01887048549093306
1772790833610667300,10.124667236328126,8.933949466347693,3.2151395656064152,0.003765380415506661
1772790833620732200,10.134732177734374,8.496864455506206,2.9664716787740586,-0.014628372675459831
1772790833630798000,10.144798095703125,7.759818592968583,3.082921883203089,-0.013251348701212555
1772790833640863200,10.15486328125,7.107914773404598,3.3483038812100885,-0.15341383436284958
1772790833650928400,10.164928466796875,6.395297834202647,3.398138171698153,-0.16159308569785208
1772790833660994000,10.174994140625,5.825896356758475,3.011376403905451,-0.011234145393595098
1772790833671059200,10.18505908203125,5.267088169521093,2.654716052126884,0.10439823984652757
1772790833681124000,10.1951240234375,4.8556549018085,2.317887359021604,0.03403159506991506
1772790833691189200,10.205189208984375,4.309914870458841,1.7494979812294245,-0.03042787148952484
1772790833701255200,10.215255126953124,3.544026359796524,1.5095856477826832,-0.12079882809258996
1772790833711320000,10.225320068359375,2.7093922296881674,0.6216296773314476,-0.11886037084329873
1772790833721385200,10.23538525390625,1.6636147644996642,-0.20943448533564804,0.09053703388497233
1772790833731451400,10.245451416015625,0.6817950999587774,-0.20264117193371056,-0.27848727103471754
1772790833741516000,10.25551611328125,-0.6781687261551618,-0.0024389175847172734,-1.1270491695348173
1772790833751581200,10.265581298828126,-2.246148110717535,-0.1209036767065525,-1.9869896634005009
1772790833761646300,10.275646240234375,-3.7746857117295263,-0.6878586377814412,-2.666078573140502
1772790833771712000,10.2857119140625,-5.368244358706474,-1.5106237586587667,-3.1865371559783813
1772790833781777200,10.295777099609374,-6.927309199929237,-2.3752032374367116,-3.031873248489201
1772790833791842300,10.30584228515625,-8.236269399514795,-3.1842455379098653,-2.79066415323019
1772790833801908200,10.315908203125,-9.67499696574211,-3.9293998881012198,-2.671347161193192
1772790833811973000,10.32597314453125,-11.320578060901164,-4.977678522455692,-2.6636981077447532
1772790833822038300,10.336038330078125,-12.751771724492311,-5.692786693951487,-2.3311681347467004
1772790833832103200,10.346103271484376,-14.2482366094172,-5.922601996275782,-1.7376424160018562
1772790833842169300,10.35616943359375,-15.537394960945845,-5.774551369446516,-0.8500525023840367
1772790833852234200,10.366234130859375,-16.134861672401428,-5.453201108241081,0.2213130661126226
1772790833862299100,10.376299072265626,-16.04274452971816,-4.933765146449208,1.5063067722424863
1772790833872365300,10.386365234375,-15.569617314636707,-4.487579129785299,2.6105074925661085
1772790833882430000,10.396429931640625,-14.365684592711924,-3.712725806900859,3.1843510441109535
1772790833892495000,10.4064951171875,-12.465198177635669,-3.2770366343319415,3.1800410719573495
1772790833902561300,10.416561279296875,-10.265480978703499,-3.2011998875811694,2.3717905063837765
1772790833912626200,10.426626220703126,-8.171796050560474,-2.6702099738568066,1.5107465082556009
1772790833922691000,10.436691162109375,-6.325127150389552,-2.1169480225697157,0.7735631369434297
1772790833932756200,10.446756103515625,-4.641251103627681,-1.4130138637781142,0.13643471557646988
1772790833942822100,10.456822265625,-2.6283815874308347,-0.4175111263215542,-0.10316665222495794
1772790833952887000,10.466886962890625,-0.5663888516247272,0.5713061420217156,-0.08024468111982569
1772790833962952200,10.4769521484375,1.3363041335850954,0.9959826299279928,0.08478884562179445
1772790833973018000,10.48701806640625,2.865993827241659,1.2649842797368764,0.15044610713105647
1772790833983083300,10.497083251953125,4.433813637328147,1.8819617473483083,0.35246998741663993
1772790833993148200,10.507148193359376,5.7810208577215665,2.1522136894792316,0.9522161150462924
1772790834003214000,10.517214111328125,6.949126479461789,1.8012103405490516,1.9189618368349968
1772790834013279200,10.527279296875,7.9148571789890525,1.4803499086871743,2.686735576722026
1772790834023344400,10.537344482421876,8.445253510734439,1.3537179174616931,2.8321465026974675
1772790834033409000,10.547408935546875,8.80577492185533,1.2214786077484487,2.4315938177004455
1772790834043475200,10.55747509765625,8.831476349344848,1.1727245137125253,2.0071859176024796
1772790834053540400,10.567540283203124,8.491525432565808,1.193706511464715,1.6074464486844837
1772790834063605000,10.57760498046875,8.192157870587707,1.1432549658611417,1.303232469588518
1772790834073671200,10.587671142578126,8.034933172699809,1.1868605910927057,1.1163698084797709
1772790834083736000,10.597736083984374,7.679429882001877,1.2530775688439606,1.0558071301631629
1772790834093801200,10.60780126953125,7.196713000798225,1.2738318953201173,0.9907593423217534
1772790834103866000,10.6178662109375,6.7177955118775365,1.3028832177594303,0.864347642783448
1772790834113932000,10.62793212890625,6.255683027285337,1.3711641423031686,0.7640098573088645
1772790834123997200,10.6379970703125,5.8104164635539055,1.6205030602648853,0.7533480319105088
1772790834134062000,10.64806201171875,5.489170247244835,1.9222624858155846,0.802350840010494
1772790834144128000,10.6581279296875,5.333002949455381,2.1110624716624615,0.7735704434670507
1772790834154193200,10.668193115234375,5.036842074564099,2.1310735785558816,0.4215751608900726
1772790834164258300,10.67825830078125,4.792405541691184,1.9357073660612105,0.0191448454529047
1772790834174324200,10.68832421875,4.548968541249632,1.7899325752094386,-0.14980236586742102
1772790834184389000,10.69838916015625,4.027128440925479,1.9035306050777434,-0.263527675377205
1772790834194454300,10.708454345703124,3.299376476433873,1.8275936128228902,-0.570730972482264
1772790834204520200,10.718520263671875,2.310550148001313,1.7577125596061347,-1.0369797531615943
1772790834214585000,10.728585205078126,1.209898352330923,1.5286752559170127,-1.3253598379835485
1772790834224650200,10.738650146484375,0.10591244380176067,0.9269865428522228,-1.4457374449893832
1772790834234715100,10.748715087890625,-0.970133318400383,0.1530655323818326,-1.268052289005369
1772790834244781300,10.75878125,-1.99975284499228,-1.022979942446947,-0.8609517898000776
1772790834254846200,10.76884619140625,-3.1123510990440844,-1.9282436060518025,-0.5822199694197625
1772790834264911000,10.7789111328125,-4.168645282071829,-2.1735157129660245,-0.7827516749188304
1772790834274977300,10.788977294921875,-5.179269600814581,-2.3837167987599965,-0.9582190817881375
1772790834285042200,10.799042236328125,-6.12158376891911,-2.1548826164275408,-0.9687684597879648
1772790834295107000,10.809107177734376,-6.734971103084087,-0.9187330937698482,-1.0405544698432088
1772790834305172200,10.819172119140624,-7.04658907482624,0.11916297051906585,-0.860346444318071
1772790834315238100,10.829238037109375,-6.985247594156861,-0.18869331060200928,-0.2722846170023083
1772790834325303000,10.839302978515626,-6.393839452087879,-0.8704863647341727,0.12290763694010674
1772790834335368200,10.8493681640625,-5.948785069802403,-1.2295806656613946,0.11387085546031593
1772790834345434000,10.85943408203125,-5.819121163535118,-1.3427657308146357,0.01421710672713816
1772790834355499300,10.869499267578124,-5.598475840616226,-1.2751733730569481,-0.13332571671046317
1772790834365564200,10.879564208984375,-5.170736165747046,-1.2366112949505448,-0.32043329249098895
1772790834375630000,10.889630126953126,-4.655864735391736,-1.267614920501411,-0.29867176173366605
1772790834385695200,10.8996953125,-4.014998442670703,-1.2232920869112014,-0.38107846145927904
1772790834395760000,10.909760009765625,-3.2633360257595774,-1.2286688115134834,-0.5246518698092549
1772790834405826000,10.919825927734376,-2.4505811345040796,-1.4017135943457484,-0.6364872008539736
1772790834415891200,10.92989111328125,-1.6310124715805052,-1.4898755696624517,-0.6674342008467763
1772790834425956400,10.939956298828125,-0.7819774756759404,-1.4442045363336802,-0.526319218499586
1772790834436021000,10.95002099609375,0.062410571205615994,-1.341795424477756,-0.42098026373684405
1772790834446087200,10.960087158203125,0.8651642929285764,-1.2068950788617134,-0.13766308832764626
1772790834456152300,10.97015234375,1.8326503116905688,-0.8764499493137001,0.13406170283481478
1772790834466217200,10.98021728515625,2.049610224094987,-0.7514031814530492,-0.03064450991488993
1772790834476283100,10.990283203125,2.0705080506950617,-0.7541352367654443,-0.0026614742942154407
1772790834486348000,11.00034814453125,2.0437346100598575,-0.559390078778565,0.21409794710204003
1772790834496413200,11.0104130859375,1.9067863920032977,-0.42533816668540236,0.6028137350393459
1772790834506478000,11.02047802734375,1.5530238074928522,-0.114183136279881,0.610521861731261
1772790834516544000,11.0305439453125,1.2617092035889625,0.27204525528848167,0.5275923802405595
1772790834526609200,11.040609130859375,1.1484142483204602,0.6261877790272236,0.5008276709010824
1772790834536674300,11.05067431640625,1.1492214730501173,0.9312474151670932,0.6104066378537565
1772790834546740000,11.060739990234374,1.3321043438076972,1.0262322222411633,0.5611361917935311
1772790834556805000,11.07080517578125,1.642227108556032,0.9263380158156156,0.2011689074240625
1772790834566870300,11.080870361328126,1.5415069727003574,1.3808102147877215,-0.2948603867519647
