time,seconds_elapsed,z,y,x
1772868561437044700,0.078044677734375,1.4462959556549786,-0.853607710647583,0.49803033180013295
1772868561447110700,0.088110595703125,1.0965466984391212,-0.7685995231866836,0.5111895269721746
1772868561457177600,0.098177490234375,0.7916250094652175,-0.5149697761632501,0.4133983937731012
1772868561467244500,0.10824462890625,0.4584089538991451,-0.3155649558022618,0.2112136603699997
1772868561477310700,0.118310791015625,-0.07859130615592003,-0.1662574607796967,0.054352973488904534
1772868561487377700,0.128377685546875,-0.7766291003853082,-0.12725947547405958,-0.06658928166236729
1772868561497444600,0.138444580078125,-1.378728147816658,-0.18811667975783347,-0.1042175495173782
1772868561507510800,0.1485107421875,-1.8474556666344404,-0.2747745341219008,0.05960336829777807
1772868561517577700,0.15857763671875,-2.400021744611859,-0.5486950817629694,0.27129206230100245
1772868561527643400,0.168643310546875,-3.1311352944910524,-0.8063619753479957,0.365920457152836
1772868561537710300,0.17871044921875,-3.6388808184891936,-0.9004341976217926,0.3229823924519121
1772868561547777500,0.188777587890625,-3.7835108232200145,-0.7723742194198071,0.2975697187758982
1772868561557843500,0.198843505859375,-3.9650621531128882,-0.5192966994516551,0.27701219351347534
1772868561567910400,0.208910400390625,-4.095585891079902,-0.15238500277176498,0.13119564587920904
1772868561577977600,0.2189775390625,-3.7856606947302818,0.34558307744711636,0.11184241837263106
1772868561588043500,0.22904345703125,-3.492272207161784,0.7404932265125215,0.3406303138779476
1772868561598110500,0.2391103515625,-3.360362567794323,0.8651983413286507,0.6705638041093945
1772868561608176400,0.24917626953125,-3.2229829725831745,0.8073162073329091,0.93918902182132
1772868561618243300,0.259243408203125,-3.04290580689609,0.723113929427415,1.3105306637726724
1772868561628310500,0.269310546875,-2.9795553244918582,0.3717322487041354,1.6656079841434954
1772868561638376400,0.27937646484375,-2.7175515707463025,0.11650792596563696,1.7535154001772402
1772868561648443400,0.289443359375,-2.611765383672714,0.11552695210427046,1.6699992048397658
1772868561658509600,0.299509521484375,-2.585642515900731,0.23087328694462775,1.4975219927623866
1772868561668576500,0.309576416015625,-2.4040175362497567,0.5649117648094892,1.241363165652752
1772868561678643500,0.3196435546875,-2.2020430115312335,0.8481085287094116,0.7799488924577832
1772868561688709400,0.32970947265625,-1.8206570915579794,1.007379345472157,0.30735746475346387
1772868561698776600,0.339776611328125,-1.215004735559225,1.1002569511339069,0.050314018562715494
1772868561708843500,0.349843505859375,-0.5952981352448463,1.0546706734791398,-0.05829120798697695
1772868561718909400,0.359909423828125,-0.02267535766661167,0.8024453864261507,-0.25350900672059506
1772868561728976400,0.369976318359375,0.6391647495001554,0.5127383638493717,-0.3576327404746786
1772868561739042600,0.38004248046875,1.241122342634201,0.22771628421843051,-0.3089120007190853
1772868561749109500,0.390109619140625,1.7367641718626021,-0.13422303087636828,-0.16206568991197273
1772868561759176400,0.400176513671875,2.0575871943235398,-0.5237238682441413,-0.04608612150226254
1772868561769242600,0.41024267578125,2.287991694712639,-0.7032735029257834,0.06161834768226836
1772868561779309600,0.4203095703125,2.3317729687720536,-0.8375608312100171,0.0934662100715097
1772868561789375500,0.43037548828125,2.3929560440093276,-0.961295420493558,0.02998021905357018
1772868561799442400,0.4404423828125,2.5422961261272428,-0.98180205581896,0.04317959097237326
1772868561809509600,0.450509521484375,2.6766666026502848,-0.7543528981041163,0.03934711840371601
1772868561819575600,0.460575439453125,2.6783155389010904,-0.762982779283449,0.11534678236492908
1772868561829642500,0.470642578125,2.5166139878600835,-0.8565059893723577,0.2002520300411619
1772868561839709400,0.48070947265625,2.3104601316303013,-0.9001065731026232,0.2929502970806323
1772868561849775600,0.490775634765625,2.0888567773342133,-0.9050611267700791,0.2852046513899229
1772868561859842600,0.500842529296875,1.907231797683239,-0.8884238071586936,0.21022223817985503
1772868561869908500,0.510908447265625,1.6155717413425446,-0.7945843707274645,0.1288711119217798
1772868561879975700,0.5209755859375,1.844625411644578,-0.8818355878747999,0.16489083033530041
1772868561890042600,0.531042724609375,1.689954489892721,-0.7703164831724018,0.19423216696344314
1772868561900108500,0.541108642578125,1.3822241732388734,-0.6135452281404287,0.22876893507651982
1772868561910175500,0.551175537109375,1.4726099620848894,-0.7175538110822439,0.3254171453181654
1772868561920241700,0.56124169921875,1.2353402521014212,-0.71572878761217,0.46016661122143265
1772868561930308600,0.57130859375,0.7823913171738386,-0.6908570889450609,0.216879522378277
1772868561940375600,0.58137548828125,0.4637544065803289,-0.6990653837114572,-0.028856585318502038
1772868561950441500,0.59144140625,0.5412099867045879,-0.6153217362936586,0.1879842672835104
1772868561960508700,0.6015087890625,0.18473638966977596,-0.44915429188497363,0.36698410432897505
1772868561970575600,0.61157568359375,0.008103811478614806,-0.47712950952537353,0.4272760028801858
1772868561980641500,0.6216416015625,-0.38761984592676163,-0.4852203153919428,0.3901933131439611
1772868561990708500,0.63170849609375,-0.904917626646161,-0.3816771580047905,0.24255999841131268
1772868562000774700,0.641774658203125,-1.0151958644419907,-0.19297456811778246,0.10715294538214802
1772868562010841600,0.651841552734375,-0.9990601376771926,-0.12608992023803292,-0.025503703827178103
1772868562020908500,0.661908447265625,-1.1449211455076933,-0.24002068919204175,-0.12482521579815074
1772868562030975200,0.671975341796875,-1.411981013599038,-0.5680567848369479,-0.006023567142701358
1772868562041042400,0.68204248046875,-1.7430881141871213,-0.9341529273502528,0.18052006888268515
1772868562051108400,0.6921083984375,-2.1553905659496784,-1.2030798314224929,0.26344925811244174
1772868562061175300,0.70217529296875,-2.6667963660210368,-1.2489498213894665,0.23060301863588392
1772868562071242200,0.7122421875,-3.282102685549855,-1.078771972295642,0.1353871792849153
1772868562081308400,0.722308349609375,-3.9753935775130986,-0.7505928149182349,0.0017264949990436435
1772868562091375400,0.732375244140625,-4.621348717805743,-0.4165830516912043,-0.21850765330307184
1772868562101442300,0.7424423828125,-5.0644262470602985,-0.12296725817285477,-0.521177508229576
1772868562111508500,0.752508544921875,-5.156306658378243,0.3600871113568544,-0.9147524266358464
1772868562121575400,0.762575439453125,-5.288063153010606,1.0237078183300792,-1.2213481132365762
1772868562131641300,0.772641357421875,-4.977620654788613,1.5630042264983057,-1.6215765347152948
1772868562141708300,0.782708251953125,-4.009267790064215,1.8551247399576007,-2.2358912128582595
1772868562151775500,0.792775390625,-3.1432845819681883,2.447334992189705,-2.4438690696448084
1772868562161841400,0.80284130859375,-2.2406898453116417,2.538127900531888,-2.5692691809877752
1772868562171908400,0.812908447265625,-1.6383862152189015,2.1431839953273535,-2.4928072880759835
1772868562181974500,0.822974609375,-1.374748138269782,1.751042872583866,-2.338122337798774
1772868562192041500,0.83304150390625,-0.7971960875958204,1.3993778448745609,-2.1147696556173265
1772868562202108400,0.8431083984375,-0.17800620463192462,0.8865047487296164,-1.8772751969672739
1772868562212174000,0.853174072265625,0.37155309274494647,0.47153300469256937,-1.642186484284699
1772868562222241300,0.8632412109375,0.8775187475889921,0.285094121953845,-1.4886517269559203
1772868562232308500,0.87330859375,1.2944330770611763,0.18542203384637831,-1.4348459024883806
1772868562242374100,0.8833740234375,1.579979034435749,0.16721951074488461,-1.3668756513290106
1772868562252441300,0.89344140625,1.8811995308041571,0.11803769281618297,-1.311841600240767
1772868562262507300,0.90350732421875,2.2311258981525897,0.18846965791396797,-1.2396531468644738
1772868562272574200,0.91357421875,2.4964848075449466,0.3461233218036592,-1.1140130162205546
1772868562282641400,0.923641357421875,2.631910930600762,0.36858620576336976,-0.9104754799690097
1772868562292707300,0.933707275390625,2.601524560165405,0.2972233164910227,-0.7039727372363209
1772868562302774300,0.943774169921875,2.600707983085513,0.2168027490813285,-0.5345335776805877
1772868562312840200,0.953840087890625,2.6235779865413904,0.1733317100148648,-0.4379169316209852
1772868562322907100,0.9639072265625,2.527396078637242,0.1957069887563586,-0.41331199413128195
1772868562332974000,0.97397412109375,2.419170097196102,0.14576346574015914,-0.5128277956984937
1772868562343040300,0.984040283203125,2.290465975871682,-0.002536532740294933,-0.5156841349776834
1772868562353107200,0.994107177734375,2.0885463962107895,-0.1827567601598799,-0.33879210213273764
1772868562363174100,1.004174072265625,1.977536921530962,-0.3205490278251469,-0.2353616844050586
1772868562373240300,1.014240234375,2.035704448339343,-0.3546868597485125,-0.25709318535029885
1772868562383307300,1.024307373046875,2.1023171474099156,-0.35422552584707734,-0.17690511152222752
1772868562393373200,1.034373291015625,1.9646189877688884,-0.4098294857777655,-0.014738500252738594
1772868562403440000,1.044440185546875,1.763824028223753,-0.5158871832691133,0.07849164517372846
1772868562413507300,1.05450732421875,1.600046255430579,-0.65485704334639,0.20826785270906983
1772868562423573200,1.0645732421875,1.4879267736822366,-0.768758732336387,0.2975805324308574
1772868562433640200,1.07464013671875,1.4921604657292364,-0.8645151083048432,0.40724209963306784
1772868562443707100,1.08470703125,1.4892477931529282,-0.9518076803758739,0.6083943481832742
1772868562453773300,1.094773193359375,1.3997078074812888,-1.0651980588428676,0.820739241072908
1772868562463840300,1.10484033203125,1.3395523217260836,-1.138193079361692,1.0549402842007576
1772868562473906200,1.11490625,1.2452835539668798,-1.2467428128644824,1.2176249279949813
1772868562483973400,1.124973388671875,0.9818956523865461,-1.3827625178992748,1.3284873223543165
1772868562494040300,1.135040283203125,0.6590045914798974,-1.4485267834469675,1.3052633908942342
1772868562504106200,1.145106201171875,0.5933855796217918,-1.3892027800798414,1.3174258301138877
1772868562514173200,1.155173095703125,0.36223406025767324,-1.3288643389731645,1.381012751622498
1772868562524239400,1.1652392578125,-0.030924715095758438,-1.2394788132108747,1.332166303128004
1772868562534306300,1.175306396484375,-0.29077099854648114,-0.9895124840658157,1.1032778333250433
1772868562544373200,1.185373291015625,-0.37107086218595503,-0.7059979594536125,0.8834640658594667
1772868562554439400,1.195439453125,-0.47356093032360075,-0.5289508821774274,0.7188648936808109
1772868562564506400,1.20550634765625,-0.6037514908134937,-0.6247184371270239,0.7233463499438018
1772868562574573300,1.2155732421875,-1.0045061281234025,-1.0517364466581494,0.7850469462491572
1772868562584639200,1.22563916015625,-1.3855477647036314,-1.2425484299145637,0.783416276307404
1772868562594706200,1.2357060546875,-1.4196324051350355,-1.3698121431723236,0.7346681736208498
1772868562604772400,1.2457724609375,-1.551586468166113,-1.7687860345453024,0.8101625366747379
1772868562614839300,1.25583935546875,-2.077185628762841,-1.7330312689445913,0.8412056174531578
1772868562624906200,1.26590625,-2.4209411985218523,-1.3155799099862575,0.8324920035131275
1772868562634972400,1.275972412109375,-2.4989339542627333,-0.8800316071927546,0.8456320555932819
1772868562645039400,1.286039306640625,-2.700201792016625,-0.4053978600058704,1.0095175265446306
1772868562655106300,1.296106201171875,-2.9256062921613455,-0.025839301590248942,1.061996559387818
1772868562665172200,1.306172119140625,-2.957907556307316,0.31712256050780413,0.9993828668255358
1772868562675239400,1.316239501953125,-2.937508911401033,0.6229032774638384,0.9909544265024364
1772868562685305300,1.326305419921875,-2.9426497814208266,0.752262282500416,0.9356333751663565
1772868562695372300,1.336372314453125,-2.9360709875524043,0.8050476048137992,0.9771847712818532
1772868562705439200,1.346439208984375,-2.8222248281419278,0.9123884009182452,0.9744472360767423
1772868562715505400,1.35650537109375,-2.803081151732802,0.9293876126445829,0.7200825258422643
1772868562725572400,1.366572265625,-2.7286019570708273,0.8444047057554125,0.36122736743316053
1772868562735639300,1.376639404296875,-2.4425334371268748,0.7908954530816524,0.06236527075916529
1772868562745705500,1.38670556640625,-2.0333108312010766,0.7631313939739018,-0.09419833287149668
1772868562755772400,1.3967724609375,-1.618252358728647,0.6363463310785591,-0.29775011684410274
1772868562765838300,1.40683837890625,-1.230887364345789,0.4887961280521005,-0.39855785791799425
1772868562775905300,1.4169052734375,-0.6968786873221396,0.41817127073071897,-0.31210053109470753
1772868562785972500,1.426972412109375,-0.26588264100551606,0.3074421473622322,-0.1757715409150347
1772868562796038400,1.437038330078125,0.13849077132344245,0.19555947004444896,-0.07813388124462217
1772868562806105300,1.447105224609375,0.6487175907433033,0.16005707176961004,-0.0496696745108813
1772868562816172300,1.45717236328125,1.0233417614966631,0.08414492169506847,-0.015475582355633377
1772868562826238500,1.467238525390625,1.2921820832639932,-0.06923880979046225,0.03619914836734533
1772868562836305400,1.477305419921875,1.662196129873395,-0.12188450443744658,0.1410800571642816
1772868562846371300,1.487371337890625,1.9899954210877417,-0.16412731688320636,0.21611936992704867
1772868562856438300,1.497438232421875,2.1305033774524924,-0.2124849589474499,0.2464411506935954
1772868562866505500,1.50750537109375,2.248545819509029,-0.15973858040496705,0.3192388220094144
1772868562876571100,1.517571044921875,2.45432967338264,-0.1218961218100041,0.33631825936511156
1772868562886638300,1.527638427734375,2.5689006399363277,-0.07499035905450582,0.26676132353618737
1772868562896705300,1.537705322265625,2.5467636269301175,-0.016515008405968545,0.1571235025357455
1772868562906771200,1.547771240234375,2.54060451977849,-0.05904562481716275,0.05614135474301874
1772868562916838400,1.55783837890625,2.5232635088771582,-0.06666479458399116,0.011578501851856708
1772868562926904300,1.567904296875,2.386691138395667,-0.0920746917810291,-0.0012223814018070696
1772868562936971300,1.57797119140625,2.273154775586724,-0.14590996153876185,-0.09182890032641589
1772868562947038500,1.58803857421875,2.2961370072454215,-0.12484262359067796,-0.167288265132159
1772868562957104000,1.598104248046875,2.2909850313097238,-0.142045395065099,-0.10475545578636228
1772868562967171000,1.608171142578125,2.2849334761857985,-0.16564882736206055,0.025617986989766358
1772868562977238300,1.61823828125,2.246246894916892,-0.2053964619912207,0.1255118280891329
1772868562987304200,1.62830419921875,1.9978373667597769,-0.3089683340162039,0.268354730207473
1772868562997371100,1.63837109375,1.693714719209075,-0.39465938917472954,0.4452274738300591
1772868563007437300,1.648437255859375,1.4449661683559416,-0.38687837990969415,0.45625119134336706
1772868563017504300,1.658504150390625,1.0780524258494377,-0.4092924562916159,0.528544201072678
1772868563027574500,1.668574462890625,0.6310019013106822,-0.45797231604754923,0.6246165111225098
1772868563037640400,1.678640380859375,0.484319640225172,-0.2755160001389682,0.6500214398834854
1772868563047707600,1.688707763671875,0.7371142515987157,-0.20687837111204863,0.667291650570929
1772868563057774600,1.698774658203125,0.4182061228483915,-0.20074732101112602,0.7032332439806311
1772868563067840500,1.708840576171875,-0.3354132733494043,-0.27904987335354087,0.6919660000350326
1772868563077907500,1.718907470703125,-0.8594219498842954,-0.41351241207420825,0.7120297869637608
1772868563087973600,1.7289736328125,-1.4204209251642226,-0.5988163724988699,0.8881764082688838
1772868563098040600,1.73904052734375,-1.7541659730404615,-0.7973655989438295,0.9504409220673143
1772868563108107500,1.749107421875,-1.9546505514621733,-0.7537422919251024,0.879454318761453
1772868563118173700,1.759173583984375,-2.0728040526777503,-0.8064601750254631,0.8165067911349236
1772868563128240600,1.76924072265625,-2.2107325139433143,-1.1695341932386158,0.9106701988235115
1772868563138307600,1.7793076171875,-2.2325848647892474,-1.349183635032922,0.9862833659514785
1772868563148373500,1.78937353515625,-2.52408067047894,-1.4637731601566075,0.7053405184581876
1772868563158440700,1.799440673828125,-3.0042946289509533,-1.3529656377896666,0.4763602056533098
1772868563168507600,1.809507568359375,-3.3290333635509013,-1.094540034791827,0.31154505263641474
1772868563178573600,1.819573486328125,-3.7002807513475418,-0.8654207519076764,0.17392346536293624
1772868563188640500,1.829640625,-3.924205826589465,-0.512762767638266,0.0369597574763
1772868563198706700,1.839706787109375,-3.589360708516836,0.12615933221243322,-0.3386301895692944
1772868563208773600,1.849773681640625,-3.125994424471259,0.7205085692346096,-0.688562109875679
1772868563218840600,1.859840576171875,-2.788094010481238,1.1516470927618443,-1.1235011947296558
1772868563228906800,1.86990673828125,-2.0788819112867114,1.4762933267727494,-1.500396233024448
1772868563238973700,1.8799736328125,-1.2322586526989936,1.8384132591314613,-1.4094633316896854
1772868563249040600,1.89004052734375,-0.7612444842487573,1.8471034921959042,-1.1776882735997438
1772868563259106600,1.9001064453125,-0.749243665331602,1.3646177893996239,-1.0315750445738434
1772868563269173500,1.910173583984375,-0.9924667307615279,0.8343179768312722,-0.9396985787786543
1772868563279239700,1.92023974609375,-1.178788343796134,0.4428318839304149,-0.8209427277557552
1772868563289306600,1.930306640625,-1.136506368383765,0.32261129411719736,-0.6309368732504547
1772868563299373600,1.94037353515625,-0.9119956022083758,0.3629102790188044,-0.6427348630718887
1772868563309439700,1.950439697265625,-0.5828934117019177,0.4894397597178817,-0.7141740324508399
1772868563319506700,1.960506591796875,-0.36055531339049335,0.6153180099666118,-0.698837274044007
1772868563329573600,1.97057373046875,-0.1358838036954403,0.6369751305013894,-0.5504923404432833
1772868563339639600,1.9806396484375,0.29325404753386974,0.7799379326723516,-0.5626746534071863
1772868563349706800,1.990706787109375,0.6727519618034362,0.7957789142742753,-0.5776375370003283
1772868563359773700,2.000773681640625,0.8080003902047872,0.7121363160781562,-0.5306864007331431
1772868563369839400,2.01083935546875,0.9024953679352998,0.6057254212349653,-0.36131278069429096
1772868563379906600,2.020906494140625,1.274972005265951,0.49563306140005586,-0.10856346976719795
1772868563389972500,2.030972412109375,1.5718541801691055,0.43522754640653727,0.011130246627703308
1772868563400039400,2.041039306640625,1.7717472224384545,0.3902385039925575,-0.05644157979860902
1772868563410106600,2.051106689453125,1.9391303262472153,0.30104075588732954,-0.11321904048807918
1772868563420172500,2.061172607421875,2.0425205580949783,0.18286168183907867,-0.1295811233546585
1772868563430239500,2.071239501953125,2.141459071230888,0.16353300425186754,-0.1596126159377396
1772868563440306400,2.081306396484375,2.275519751152396,0.20549670749530194,-0.24602153704203664
1772868563450372400,2.091372314453125,2.3479835143387318,0.23690847545564173,-0.37686829641833897
1772868563460439600,2.101439453125,2.3901456627637145,0.26488296244367954,-0.4995099758986383
1772868563470506500,2.111506591796875,2.504846977698803,0.2554072780899703,-0.46845432789959013
1772868563480572400,2.121572509765625,2.5560961034208534,0.23217063327878712,-0.39723851894773543
1772868563490639400,2.131639404296875,2.6660733124434945,0.21870207989662885,-0.27796280876919627
1772868563500705500,2.14170556640625,2.75742999214828,0.12923340589553117,-0.1939490391731262
1772868563510772500,2.1517724609375,2.6709447178721426,-0.016463351283967493,-0.07002937564626335
1772868563520839400,2.16183935546875,2.524352473157644,-0.20010434693247078,0.12830445448234676
1772868563530905600,2.171905517578125,2.3442665396422147,-0.28246012018844485,0.34716954292096197
1772868563540972500,2.18197265625,2.02405375803411,-0.40832361125946043,0.5449021922860294
1772868563551039500,2.19203955078125,1.5564140344530344,-0.5310980502739548,0.6019801702920347
1772868563561105400,2.20210546875,1.1412246290773154,-0.5988920680835843,0.6146290778543799
1772868563571172400,2.21217236328125,0.7658791583120822,-0.5318835015632212,0.6881215995665639
1772868563581239600,2.222239501953125,0.5369242722094059,-0.41505920312479133,0.7119174856957048
1772868563591305500,2.232305419921875,0.40949908477962016,-0.28505729707479477,0.7190021101944148
1772868563601372400,2.242372314453125,0.24571780485510825,-0.17245719220265746,0.7114040562808513
1772868563611438600,2.2524384765625,-0.06088906072676181,-0.09722864047810435,0.7577966088172048
1772868563621505500,2.262505615234375,-0.5329962851107121,-0.1870649787478149,0.8726706499706953
1772868563631572500,2.272572509765625,-1.0191144991904497,-0.32607305194362995,0.9886899156365543
1772868563641638400,2.282638427734375,-1.682394283771515,-0.36758755011484023,0.9825313930068165
1772868563651705600,2.29270556640625,-1.8413690401971339,-0.48143853183090685,0.8409116029426456
1772868563661772500,2.3027724609375,-1.9318933607310056,-0.6417534508191048,0.734523723648861
1772868563671838500,2.31283837890625,-2.1612392919778824,-0.9400941539674996,0.5940316955056041
1772868563681905400,2.322905517578125,-2.3551783942788838,-1.326630588571727,0.3972851345684379
1772868563691972600,2.33297265625,-2.557237090149522,-1.561423240917176,0.3654507572818547
1772868563702038500,2.34303857421875,-2.606772397691011,-1.6810357087694108,0.1637374407827854
1772868563712105500,2.35310546875,-2.2168816842228174,-1.9638935961037873,-0.060027986918017265
1772868563722172400,2.36317236328125,-1.6189245589017867,-1.7918731878831982,0.18723843561857936
1772868563732238600,2.373238525390625,-1.2483318356215953,-1.2866111512638627,0.6759240159682929
1772868563742305500,2.383305419921875,-1.2849059547811745,-0.8999379385374486,0.930835254169628
1772868563752371500,2.393371337890625,-1.4871733249664305,-0.49834465844631193,1.198210544885695
1772868563762438700,2.403438720703125,-1.5723358262062073,-0.15242811126112937,1.4685872824400663
1772868563772505600,2.413505615234375,-1.7295014873832464,0.02467003861516714,1.5465888060092925
1772868563782571500,2.423571533203125,-2.0924819820940495,-0.005550035342574119,1.6352973092928529
1772868563792638500,2.433638427734375,-2.5220851127475497,0.06876666223406791,1.6082136336646973
1772868563802705400,2.443705322265625,-2.6956933746814724,0.38912762014120816,1.288397450158745
1772868563812771600,2.453771484375,-2.827566189169884,0.7211245091758668,0.9880703224334865
1772868563822838500,2.463838623046875,-2.942376809698343,0.9715021225355565,0.6190935099173337
1772868563832905500,2.473905517578125,-2.8266023125737902,1.2112716865107416,0.15794585176929832
1772868563842971600,2.4839716796875,-2.763880775722861,1.3731170299366116,-0.2894118390224874
1772868563853038600,2.49403857421875,-2.571734986579418,1.5932592256389557,-0.5547262516859919
1772868563863105500,2.50410546875,-2.1207962224304673,1.65951960414052,-0.7370853177651763
1772868563873171500,2.51417138671875,-1.872277388679981,1.3334640878535806,-0.7143330954700708
1772868563883238700,2.52423876953125,-1.5800240426212548,1.0224182169109581,-0.5385735737863928
1772868563893304600,2.5343046875,-0.8608043441534042,0.9895186946108937,-0.5101137144342065
1772868563903371500,2.54437158203125,0.0184171157002449,1.0035388905264437,-0.4348693075533956
1772868563913438500,2.5544384765625,0.7095797634631394,0.8705208515256643,-0.25232038145791735
1772868563923504600,2.564504638671875,1.3287988725215196,0.7566079104892909,-0.03262276945160702
1772868563933571600,2.574571533203125,1.9419167420953511,0.718461865837872,0.14631483427891506
1772868563943638500,2.584638427734375,2.355377131721377,0.6426183970853686,0.24357962378263473
1772868563953704700,2.59470458984375,2.6606629778325557,0.5737617184802889,0.33597178401499983
1772868563963771600,2.604771728515625,2.861206592965126,0.48492871203422544,0.4009590007755905
1772868563973838600,2.614838623046875,3.0799498816549775,0.42034108905047174,0.4348876469276845
1772868563983904500,2.624904541015625,3.2522225110709666,0.43736558134853837,0.4616075672773644
1772868563993971700,2.6349716796875,3.418576271831989,0.490052630919218,0.4718143789172172
1772868564004038700,2.64503857421875,3.6431127569705244,0.5055813317015767,0.4109297386372462
1772868564014104600,2.6551044921875,3.7927030144572256,0.46569224277511234,0.3981791607987135
1772868564024168200,2.665168212890625,3.8276124152749773,0.41043285849839445,0.4684038032887503
1772868564034234400,2.675234375,3.7944559956043955,0.3176988990910351,0.5263529381060973
1772868564044301300,2.68530126953125,3.5340713674932718,0.08320625260546803,0.6011363033464178
1772868564054368300,2.6953681640625,3.1339328162550926,-0.22651026942953467,0.7304370388571173
1772868564064434200,2.70543408203125,2.8237586135804653,-0.4220603140585124,0.928076895372197
1772868564074501400,2.71550146484375,2.525372463855147,-0.5168124814204871,1.1164815252259372
1772868564084568300,2.725568359375,2.236124729353189,-0.5895262738451361,1.2172066295176744
1772868564094634200,2.73563427734375,1.8698966310232876,-0.6611627924270927,1.2927676280669866
1772868564104701200,2.745701171875,1.4211182597786187,-0.6621155631072819,1.2785453337080777
1772868564114768400,2.755768310546875,1.0280910018503666,-0.6615368864364921,1.1789384928565472
1772868564124834300,2.765834228515625,0.6984972284346819,-0.6589579758591949,1.0107898115027696
1772868564134901200,2.7759013671875,0.37190263683497904,-0.5685083279967308,0.8378602525480091
1772868564144968200,2.78596826171875,0.14821838461160658,-0.4805255086392164,0.7490982655115425
1772868564155034400,2.796034423828125,-0.08207856374979018,-0.48982057572901244,0.7102486026354133
1772868564165101300,2.806101318359375,-0.39542672028541564,-0.5345299244187772,0.6715069301784038
1772868564175167200,2.816167236328125,-0.6815075151890516,-0.4960140235416591,0.5576552178099751
1772868564185234400,2.826234375,-0.8841279365956782,-0.39268122096955776,0.466130524594523
1772868564195301400,2.83630126953125,-0.9193465494930744,-0.2083506356216967,0.3094858916169032
1772868564205367300,2.8463671875,-1.0918073949575424,-0.05609115892574191,0.19087372338101266
1772868564215434200,2.856434326171875,-1.2600643589913845,-0.09434723982289434,0.13378471252433954
1772868564225501200,2.866501220703125,-1.0852747783184051,-0.19583485291972755,0.13516988327242432
1772868564235567400,2.8765673828125,-0.8971288724660873,-0.3670318159282207,0.21629881814718246
1772868564245634300,2.88663427734375,-0.9008861791729926,-0.893139364438504,0.44900056262798604
1772868564255701200,2.896701171875,-1.1940075402379036,-1.4552334414787589,0.4708133121158927
1772868564265767400,2.906767333984375,-2.170691595456004,-1.728951013893634,0.0563544129718095
1772868564275834400,2.91683447265625,-3.6518443449586626,-1.8799235195189714,0.05774352924264967
1772868564285901300,2.9269013671875,-4.852901803708076,-2.246295117972791,0.7376825530059635
1772868564295967200,2.93696728515625,-5.560956549561023,-2.369029809498787,1.095857620196417
1772868564306034400,2.947034423828125,-6.100446872866153,-2.0311365559019148,0.7168466126609593
1772868564316101400,2.957101318359375,-6.023355449879169,-1.254480275248736,-0.054722208660095924
1772868564326167300,2.967167236328125,-5.6056298040241,-0.4152513646960258,-1.0414224848493934
1772868564336234200,2.977234130859375,-4.520605785596371,-0.07903203566074371,-2.1833426949754355
1772868564346301400,2.987301513671875,-3.2917683395177124,0.47781668807193634,-2.8263021605834364
1772868564356367400,2.997367431640625,-2.47760475050807,1.3288212304838,-2.762813146491349
1772868564366434300,3.007434326171875,-2.148781376942992,1.4472804366476832,-2.3289805615745482
1772868564376500500,3.01750048828125,-2.2950796071469783,0.6853760271854699,-1.9119227319784462
1772868564386567400,3.0275673828125,-2.002581930938363,0.1796209463521838,-1.578044851502776
1772868564396634400,3.03763427734375,-1.4154939901560544,-0.047725920031964776,-1.2935650620549917
1772868564406700300,3.0477001953125,-1.1669763254493475,-0.3079451284483075,-1.139703410859406
1772868564416767200,3.057767333984375,-0.7327016958534717,-0.27541473172158,-1.085662535526976
1772868564426834400,3.06783447265625,-0.21995909422039983,0.017625380800664423,-1.2155835583604873
1772868564436900400,3.077900390625,0.5511567957013845,0.3254826848350465,-1.4031276989273727
1772868564446967300,3.08796728515625,1.2561492313742637,0.29866423601433634,-1.5664505675598979
1772868564457034200,3.0980341796875,1.4348416647046804,0.38507776022851464,-1.6125281358629464
1772868564467100400,3.108100341796875,1.327319447618723,0.5045378139980137,-1.5744913968048988
1772868564477167400,3.11816748046875,1.5157757345944642,0.4752545824989676,-1.5265093100547789
1772868564487234300,3.128234375,1.8142057234615085,0.5722516061782836,-1.4555714412614702
1772868564497300500,3.138300537109375,2.13688694100976,0.6991343572944402,-1.3931021256059408
1772868564507367400,3.148367431640625,2.378880172383785,0.7679466122359037,-1.3404580383941531
1772868564517434400,3.158434326171875,2.5878736359536645,0.7641334836885333,-1.2076117026984692
1772868564527500300,3.168500244140625,2.74165199277997,0.6172597916841507,-1.0051345622200518
1772868564537567500,3.1785673828125,2.785425083532929,0.42475481383949515,-0.7752888647574931
1772868564547634400,3.188634521484375,2.790083722993731,0.25717209580540656,-0.5489134006887674
1772868564557700400,3.198700439453125,2.7932068234503267,0.12772212454974652,-0.3829091840177774
1772868564567767300,3.208767333984375,2.659261878862977,0.023057342721521854,-0.16927410518713296
1772868564577833200,3.218833251953125,2.5092811607539653,-0.02078705970197916,-0.06415580743774771
1772868564587900400,3.228900390625,2.4873335328400135,0.010697919625043868,-0.09008607524707912
1772868564597967400,3.23896728515625,2.4912141736656426,0.017807459369301795,-0.024485695024207232
1772868564608033300,3.249033203125,2.357427049988508,-0.0659460518553853,0.18034275782071052
1772868564618100500,3.2591005859375,2.0714333488464356,-0.18465251077860592,0.22216887922436
1772868564628167400,3.26916748046875,1.8858032252073287,-0.2905915503263473,0.2705721870612353
1772868564638233000,3.279233154296875,1.6482219650566576,-0.3933320860937238,0.3725325322363525
1772868564648300300,3.28930029296875,1.2638824559748172,-0.5934811489507555,0.5845534904012456
1772868564658367500,3.299367431640625,0.9385866720139979,-0.8111006943076848,0.8440331690292805
1772868564668433200,3.30943310546875,0.7724614593118428,-0.8830204137451946,1.0133481176834553
1772868564678500000,3.3195,0.5968202302455902,-0.9242039263963698,1.1860185873106122
1772868564688567300,3.3295673828125,0.289808875516057,-1.009752650474757,1.4146286054983734
1772868564698633200,3.33963330078125,-0.02050561241209507,-1.0846990242570638,1.5254114318154752
1772868564708700200,3.3497001953125,-0.2774403923302889,-1.0979643101520835,1.4825105938524006
1772868564718767400,3.359767333984375,-0.6436427716970443,-1.094980764296651,1.380565007854998
1772868564728833300,3.369833251953125,-0.8651642929285764,-1.108411177625507,1.3974324098952113
1772868564738900200,3.379900146484375,-1.027030679142475,-1.1057290989346802,1.4051511675789952
1772868564748967400,3.389967529296875,-1.0659598369956016,-1.120404251627624,1.3990110573887824
1772868564759033000,3.400033203125,-1.0146890839636324,-1.212824761171639,1.5196708423368632
1772868564769100300,3.410100341796875,-0.9878501768767833,-1.3684846939608455,1.7669331001549957
1772868564779166200,3.420166259765625,-0.9539812250226736,-1.5252959887422621,2.0302359538003802
1772868564789233200,3.430233154296875,-0.9061872081905603,-1.7209119382143019,2.2122537321612237
1772868564799300000,3.440300048828125,-1.0441694454699755,-1.784627016147226,2.298523025599122
1772868564809366300,3.4503662109375,-1.2977940779268742,-1.553647200088203,2.1672221657797692
1772868564819433200,3.46043310546875,-1.4827484942615032,-1.2578715251222252,2.086248786792904
1772868564829500200,3.470500244140625,-1.957135354015231,-1.0176295213297009,2.157002677321434
1772868564839566300,3.48056640625,-2.58098095383048,-0.8629856337152421,2.4268653278738257
1772868564849633300,3.49063330078125,-2.9936726971715686,-0.5308633647352456,2.4930364206567406
1772868564859700200,3.5007001953125,-2.8757202714860437,0.05880436340719461,2.279573118196428
1772868564869766100,3.51076611328125,-2.687290287995338,0.69631389304623,2.1731246678218246
1772868564879833300,3.520833251953125,-2.6617653861165045,1.3026638759203255,1.926062462620437
1772868564889900300,3.530900390625,-2.5463404330819843,1.753486904735118,1.4701903337225317
1772868564899966200,3.54096630859375,-2.4816654240757225,1.9874980513140559,1.0442876650221644
1772868564910033200,3.551033203125,-2.5506448522776366,1.9286258833676575,0.6664531539201736
1772868564920100000,3.56110009765625,-2.5879630678027867,1.8263586642004548,0.3905011735167354
1772868564930166300,3.571166259765625,-2.385879822012782,1.6234155867107212,0.3070347356051206
1772868564940233200,3.581233154296875,-2.1364421198517083,1.3524234937369823,0.3378495240529999
1772868564950300200,3.591300048828125,-1.9922750564575193,1.0915753397673367,0.2797057982453145
1772868564960366300,3.601366455078125,-1.6434627878308294,0.9316470820091665,0.09571670154519378
1772868564970433300,3.611433349609375,-1.1863047107756137,0.8918078235737978,-0.07727115433490835
1772868564980500200,3.621500244140625,-0.7958879276067018,0.916799495358765,-0.175220939561259
1772868564990566100,3.631566162109375,-0.4447714736908674,0.9877690744645893,-0.16413376489030196
1772868565000633300,3.64163330078125,0.02990413987636566,1.0153029780782759,-0.1230933870368637
1772868565010699300,3.65169921875,0.6125976450920104,1.0796313656039536,-0.1379939094508998
1772868565020766200,3.66176611328125,1.0708294888585805,1.0968820678733289,-0.144442628932558
1772868565030833400,3.67183349609375,1.5374796168804168,0.9935508727364242,-0.18501385490428654
1772868565040899600,3.681899658203125,1.9781804801315068,0.8527095927640795,-0.17229111492075025
1772868565050966500,3.691966552734375,2.3193442798316477,0.7305712596960365,-0.11322163430396467
1772868565061033500,3.702033447265625,2.763202730330825,0.6722652011997997,-0.084909987783432
1772868565071099400,3.712099365234375,3.2218490001171824,0.6494485353663564,-0.1385674898214638
1772868565081166600,3.72216650390625,3.447922193303704,0.5684118818849325,-0.2181845588285476
1772868565091233500,3.732233642578125,3.5355151365607975,0.36527737347632644,-0.23392967884056268
1772868565101299500,3.742299560546875,3.63791811093688,0.13640870435237884,-0.2477225688062608
1772868565111366400,3.752366455078125,3.624389351800084,-0.05577610162720084,-0.14275858483575285
1772868565121433600,3.76243359375,3.504017590013146,-0.18877602044939995,-0.02908230209946632
1772868565131499500,3.77249951171875,3.4104385580837726,-0.26415041038542986,-0.07139394199773669
1772868565141566500,3.78256640625,3.23190569922924,-0.28164865767508745,-0.1957122494533658
1772868565151633400,3.79263330078125,2.9029484701514243,-0.3492173422962427,-0.3527339721150696
1772868565161699600,3.802699462890625,2.5166081426411866,-0.40553368827998637,-0.3549212530262768
1772868565171766500,3.8127666015625,2.179175346162915,-0.451562741266191,-0.27795331028848885
1772868565181833500,3.82283349609375,1.9448446122407912,-0.43856238991767166,-0.25304580965563656
1772868565191899400,3.8328994140625,1.6472119112312793,-0.3636000879138708,-0.3340443230837583
1772868565201966600,3.842966552734375,1.2044856796324253,-0.3788175307899713,-0.4164641014866531
1772868565212033500,3.853033447265625,0.6311427710860967,-0.3644941141441464,-0.5125802506782114
1772868565222099200,3.86309912109375,0.12569734072387218,-0.3179728937268257,-0.5848761099517346
1772868565232166700,3.873166748046875,-0.3227320709526539,-0.36925621397942304,-0.5715282603397965
1772868565242233600,3.883233642578125,-0.7424164496600627,-0.4011541580215096,-0.5292148668758571
1772868565252299300,3.89329931640625,-0.8516974931120872,-0.2540044255547225,-0.5469865973446518
1772868565262366500,3.903366455078125,-0.7981605487138033,-0.008089198431372641,-0.6993386476948857
1772868565272433400,3.913433349609375,-0.8878671231240034,0.2465916650801897,-0.8860307745423167
1772868565282499300,3.923499267578125,-1.166080253392458,0.4201566723942756,-1.0473880421902984
1772868565292566300,3.933566162109375,-1.1121282984524965,0.4506372969843447,-1.1840515250213444
1772868565302632400,3.943632568359375,-0.8943383649647235,0.43745062928348777,-1.2052692312255502
1772868565312699400,3.953699462890625,-1.1811340301394462,0.4965732648596167,-1.2603351387567818
1772868565322766300,3.963766357421875,-1.14323012368083,0.3613771511673927,-1.1464863489978014
1772868565332832300,3.973832275390625,-1.034964394751191,-0.14557634567022323,-0.7710466240778565
1772868565342899200,3.983899169921875,-1.23027010923028,-0.6538958701640367,-0.46400092868730425
1772868565352966400,3.99396630859375,-1.4892922168165443,-0.7325237089380622,-0.24083017894402145
1772868565363032300,4.0040322265625,-1.7382260611087084,-0.748152655224502,-0.1436608674377203
1772868565373098500,4.014098388671875,-2.3225392764806747,-0.7755886514216661,-0.19588702149838208
1772868565383165400,4.02416552734375,-3.0532658728688955,-0.6938754138529301,-0.21727540809437632
1772868565393232400,4.034232421875,-3.624475276517868,-0.42666035519987344,-0.23447978700399397
1772868565403298300,4.04429833984375,-3.978136154219508,-0.01708966648876667,-0.3513607840657234
1772868565413365200,4.054365234375,-4.005357923144102,0.4642087262190878,-0.589423982514441
1772868565423432400,4.064432373046875,-3.436892265245318,1.107747453019768,-0.9718155723989009
1772868565433498400,4.074498291015625,-2.9128917720168825,1.4984674569189547,-1.6319634886950254
1772868565443565300,4.0845654296875,-2.7512597790807485,2.091688201367855,-1.805592208895087
1772868565453632300,4.09463232421875,-2.4987194347292183,2.346190785703063,-1.7006611773461102
1772868565463698400,4.104698486328125,-2.251384257805347,1.8428145628303287,-1.592973686695844
1772868565473765400,4.114765380859375,-2.0621353591471907,1.4022329420447348,-1.2053802903845905
1772868565483832300,4.124832275390625,-1.8663707949846982,1.0353586547657847,-0.7285296708658338
1772868565493898500,4.1348984375,-1.4499100544989107,0.5536963971816004,-0.6433733071058988
1772868565503965400,4.14496533203125,-0.9498673599630594,0.30605054687336086,-0.66371817599833
1772868565514032400,4.155032470703125,-0.7690197944253683,0.1935256991945207,-0.6049681731268763
1772868565524098300,4.165098388671875,-0.43461189872622485,0.05553031017258763,-0.5857797807931899
1772868565534165500,4.17516552734375,-0.019852116939425467,0.04217471564561128,-0.7312319155618549
1772868565544232400,4.185232421875,0.3822779003769159,0.17216507738828657,-0.8302817070525139
1772868565554298400,4.19529833984375,0.8305676113218069,0.23141221612691878,-0.8047684956114739
1772868565564365300,4.205365234375,1.2708125474989413,0.43403526788204905,-0.8943029283251613
1772868565574431500,4.215431396484375,1.8196622353017329,0.4424237415209412,-0.9144463563613593
1772868565584498400,4.22549853515625,2.0925825198590755,0.3730034376837313,-0.7578685780748724
1772868565594565400,4.2355654296875,2.0240823996067046,0.28773396893814207,-0.48642260385379193
1772868565604631300,4.24563134765625,2.134892552322149,0.2782901410274207,-0.22542583519369364
1772868565614698500,4.255698486328125,2.1998089688688514,0.3616216274477541,-0.17999328679591417
1772868565624765400,4.265765380859375,2.1294436392664906,0.4781326221533119,-0.29881153553053735
1772868565634831400,4.275831298828125,1.866695789155364,0.5659348242469132,-0.3834105576686561
1772868565644898300,4.285898193359375,1.3424509657770394,0.5843753208227456,-0.45920112719014283
1772868565654965500,4.295965576171875,0.8836439524710178,0.5122285146310925,-0.66704732042104
1772868565665031400,4.306031494140625,0.6025210722357034,0.40792949737533923,-0.9471269021485
1772868565675098400,4.316098388671875,0.532252188745141,0.16335019503086803,-1.196951411670074
1772868565685165300,4.326165283203125,0.6326058293759822,0.20022695039883254,-1.2295030703805385
1772868565695231500,4.3362314453125,0.8128419850170612,0.2250941190212965,-1.0356163558539002
1772868565705298400,4.34629833984375,1.2097446230739355,-0.1104296289652586,-0.7054922749537974
1772868565715365400,4.356365478515625,1.26190034224689,-0.7114578322947025,-0.2460981824748218
1772868565725431600,4.366431640625,1.066661847785115,-1.176407732269913,0.25278993519842624
1772868565735498500,4.37649853515625,1.1530167736798524,-1.4685120252467692,0.6523009291227907
1772868565745565400,4.3865654296875,1.1440110449254512,-1.8795098241515455,0.9738328305054456
1772868565755631400,4.39663134765625,0.8474526951491832,-2.2586123093627393,1.3117460309118032
1772868565765698600,4.406698486328125,0.7477075418055057,-2.5296131701648235,1.6950542972497642
1772868565775765500,4.416765625,0.6438958696752787,-2.754463251297176,1.9772703795492648
1772868565785831400,4.42683154296875,0.35218729801774024,-2.9811037229776383,2.268399105492234
1772868565795898400,4.4368984375,0.027440380111336708,-3.0747534820556637,2.533837802122533
1772868565805965300,4.44696533203125,-0.22133038257360457,-3.010698943035304,2.59345815808773
1772868565816031500,4.457031494140625,-0.4125853603571653,-2.8328549432277677,2.5413325417920944
1772868565826098400,4.467098388671875,-0.5420598815321922,-2.7079823628902435,2.409673662315309
1772868565836165400,4.477165283203125,-0.6258733062505721,-2.630201788595319,2.282178770650178
1772868565846231600,4.4872314453125,-0.7796393881171941,-2.6311323474436996,2.178582933227718
1772868565856298500,4.497298583984375,-0.9006599692016839,-2.7051585376411675,2.1129855486795304
1772868565866365400,4.507365478515625,-1.0424223095417022,-2.6755907901123166,2.128015798420459
1772868565876431400,4.517431396484375,-1.04863694627285,-2.5372061095118523,2.0260352872401475
1772868565886498600,4.52749853515625,-0.7767834141641855,-2.5269448277384043,1.837612610273063
1772868565896565500,4.5375654296875,-0.6348796195268631,-2.5428061214759943,1.8529516337022185
1772868565906631400,4.54763134765625,-0.5579717364132404,-2.4847666049614547,1.8111995273828505
1772868565916698400,4.557698486328125,-0.6106102706670761,-2.307880052009225,1.8689596424341202
1772868565926764500,4.5677646484375,-1.0770417875021696,-2.0441981359183785,2.0058020620286463
1772868565936831500,4.57783154296875,-1.7422393884032963,-1.6059750609576702,2.2191091510139405
1772868565946898400,4.5878984375,-2.6195833639472723,-1.3323010354235767,2.488905019940436
1772868565956964600,4.597964599609375,-3.3411253678828476,-0.9749573775559663,2.35712426764965
1772868565967031600,4.608031494140625,-3.3565637600332496,-0.2164434873148799,1.8308163742616772
1772868565977098500,4.618098388671875,-3.275363732683658,0.49345805544853205,1.333933458930999
1772868565987164400,4.628164306640625,-3.0948218720942733,0.9179723385304212,0.9719728087872266
1772868565997231400,4.6382314453125,-2.51324538820982,1.3493740430384873,0.47865196985229846
1772868566007298600,4.648298583984375,-1.8297019832789896,1.783490267202258,0.099954302582331
1772868566017364500,4.658364501953125,-1.8665952513903379,2.0751853948563337,0.01705908868741244
1772868566027431400,4.668431396484375,-2.426960604941845,1.7823615554332732,0.17362766075413674
1772868566037498400,4.678498291015625,-2.7068478059023615,1.3413286837488412,0.37643775951396674
1772868566047564500,4.688564453125,-2.5128221943616866,1.3536574194461106,0.5862384843461215
1772868566057631500,4.698631591796875,-1.8532307429045438,1.7432760379746555,0.5737566404463723
1772868566067698400,4.708698486328125,-1.323820499587059,1.9101622981771826,0.480700755608268
1772868566077764600,4.7187646484375,-1.012298973956704,1.835760844926536,0.5117795652871951
1772868566087831600,4.72883154296875,-0.6789987472385167,1.75830906419456,0.7900854518730193
1772868566097898500,4.7388984375,-0.19800445204377173,1.846630029465258,0.876443665703386
1772868566107964400,4.74896435546875,0.0734469290047884,2.0027631327241657,0.6203030318375676
1772868566118031600,4.759031494140625,0.44061376948952674,1.927163117338717,0.24034075145926326
1772868566128098600,4.7690986328125,0.787019561496377,1.8384703961461781,0.10033398608230054
1772868566138164500,4.77916455078125,0.9967857630044221,1.6602835742503403,0.14839841735363005
1772868566148231400,4.7892314453125,1.3257307171225547,1.5266031258180737,0.1453047621872276
1772868566158298400,4.79929833984375,1.7463965080827473,1.4927631077975034,0.09220591694526374
1772868566168364500,4.809364501953125,2.1694915720164776,1.33585726660043,-0.045177331527695055
1772868566178431500,4.819431396484375,2.4844407340079546,1.1133651467710732,-0.20043423647396266
1772868566188498400,4.82949853515625,2.664425545236468,1.1301312803938983,-0.1977975312948227
1772868566198564600,4.839564697265625,2.6681641472429036,1.0796516777396201,-0.13484160116612912
1772868566208631600,4.849631591796875,2.6473791333675383,0.9488006075143813,-0.1059983685195446
1772868566218698500,4.859698486328125,2.4514824672579762,0.8330027295142411,0.05485723321661353
1772868566228764400,4.869764404296875,2.1097201171427966,0.7396718271270394,0.0327181743837893
1772868566238831600,4.87983154296875,2.1038041710972784,0.8300175762236118,-0.17001856687888503
1772868566248898600,4.889898681640625,2.147449836078286,1.0411498053878545,-0.4420842804335057
1772868566258964200,4.899964111328125,1.8638778091251849,1.1147986867055297,-0.6356437357671558
1772868566269031400,4.910031494140625,1.577864234238863,1.0910594991996885,-0.7579808062776923
1772868566279098600,4.9200986328125,1.416119428578019,1.058730470263958,-0.8068496127344668
1772868566289164300,4.930164306640625,1.2941565982073544,1.0745450022503733,-0.7847524933472275
1772868566299231500,4.9402314453125,1.069228483402729,1.1002794552266597,-0.7722907789200544
1772868566309297400,4.95029736328125,0.7179635609269142,1.0790338381022215,-0.8135070247970521
1772868566319364400,4.9603642578125,0.4085357927054167,1.047047923515737,-0.9330874900758266
1772868566329431600,4.970431640625,0.23658698841631412,0.9987713838636875,-0.9930639660023153
1772868566339497200,4.980497314453125,0.05220072735846042,0.9444345212593674,-1.0030864705838263
1772868566349564400,4.990564453125,-0.130934656855464,0.8379311258271336,-0.988262849330902
1772868566359631400,5.00063134765625,-0.3258580940186977,0.7489484817773103,-0.9822951730981468
1772868566369697300,5.010697265625,-0.410648254814744,0.8517816642642021,-1.0202141309954225
1772868566379764200,5.02076416015625,-0.28860943659842014,0.9690259416803717,-1.14701124965474
1772868566389831400,5.03083154296875,-0.06821662713587284,0.8986807780832051,-1.2434784042410552
1772868566399897300,5.0408974609375,0.10588730936050414,0.6870517053127289,-1.1979882804371416
1772868566409964300,5.05096435546875,-0.01968728176653385,0.5000836110681295,-1.1227199812240898
1772868566420031200,5.06103125,-0.027250410497188567,0.20637772811353206,-0.8233810608185828
1772868566430097400,5.071097412109375,0.10593231754601001,-0.4251999272584915,-0.2555411336027086
1772868566440164400,5.081164306640625,-0.1703898844093084,-1.2339613649636507,0.26491642632186413
1772868566450231300,5.091231201171875,-0.6884393602788448,-1.8321657430440186,0.5958179213352501
1772868566460297500,5.10129736328125,-1.0750023906290531,-1.9964672474503515,0.667374506548792
1772868566470364400,5.111364501953125,-1.435851134008169,-2.0169427569851277,0.48228667309284207
1772868566480431400,5.121431396484375,-1.921937199383974,-1.8796528858840464,0.1359527772784233
1772868566490497300,5.131497314453125,-2.335110588762164,-1.4179159566059707,-0.23654475670978425
1772868566500564200,5.141564208984375,-2.4342881713509557,-0.8679872413948178,-0.7549054904855788
1772868566510631400,5.15163134765625,-2.410494623309374,-0.3615978081807494,-1.2504549652554093
1772868566520697300,5.161697265625,-2.299472289147973,0.08589256907999515,-1.5257373027689753
1772868566530764300,5.171764404296875,-2.2182056263029573,0.44498365513682364,-1.579739234330505
1772868566540831200,5.181831298828125,-2.050999632626772,0.49830783356726166,-1.4386397418133914
1772868566550897400,5.1918974609375,-2.0771347753584384,0.490188824519515,-1.0863288174159824
1772868566560964400,5.20196435546875,-2.4127608146756887,0.4675931079603731,-0.7929254245392978
1772868566571031300,5.21203125,-2.614593300575018,0.27991964192539454,-0.5372193096332252
1772868566581097500,5.222097412109375,-2.672301977699995,0.1515155264608562,-0.28983342543542384
1772868566591164400,5.232164306640625,-2.460193012458086,0.22239815793558954,-0.4137023816883564
1772868566601231400,5.2422314453125,-2.2108108398765323,0.3482202940829098,-0.7065364502444863
1772868566611297300,5.25229736328125,-1.8460352784425018,0.34849063545688985,-0.8954994446333497
1772868566621364500,5.262364501953125,-1.237237610155344,0.316028043269366,-1.0494980931468307
1772868566631431400,5.272431396484375,-0.8510866677373647,0.24435601498261092,-1.1089350553691386
1772868566641497300,5.282497314453125,-0.7381587922155857,0.07939151662290096,-1.0528358592674136
1772868566651564300,5.292564208984375,-0.4701245261341333,-0.08436082946807145,-1.012814303067699
1772868566661631200,5.30263134765625,0.03999591030180454,-0.13460516206175088,-0.9700589379899203
1772868566671697400,5.312697509765625,0.7362094117134809,-0.22313684747368095,-0.8679850494377315
1772868566681764400,5.322764404296875,1.2954209190547465,-0.23841946454048155,-0.6792024531170725
1772868566691830300,5.332830322265625,1.6737608954608438,-0.23798165764510631,-0.5517789461877197
1772868566701897500,5.3428974609375,1.92035957480371,-0.3880564837783575,-0.38084998646564777
1772868566711964400,5.35296435546875,2.0423697514474393,-0.41642070073634385,-0.22409195624142883
1772868566722030300,5.3630302734375,2.3270003475427625,-0.21312457202523946,-0.11150412632897495
1772868566732097300,5.37309716796875,2.672953135085106,-0.039407004497945305,-0.03575637303590774
1772868566742164500,5.38316455078125,2.8576901092767715,0.10028262122124433,-0.06226809399500489
1772868566752230400,5.39323046875,2.8661399577140805,0.1872743837147951,-0.17515490685403345
1772868566762297300,5.40329736328125,2.7700527423560617,0.10310264707803726,-0.1395651225566864
1772868566772364300,5.4133642578125,2.5996318782866,-0.010024842669069766,0.029721769046783447
1772868566782430500,5.423430419921875,2.4909680899500843,-0.1223928923510015,0.2503345048703253
1772868566792497400,5.433497314453125,2.4868466261059043,-0.23800825339108705,0.3971963603064418
1772868566802564400,5.443564453125,2.318085219681263,-0.4084934148684144,0.5197404976963996
1772868566812630500,5.453630615234375,2.1304946096241473,-0.5619817027069628,0.6132217683397233
1772868566822697500,5.463697509765625,1.9414882875502109,-0.6743655344799161,0.7466022109121084
1772868566832764400,5.473764404296875,1.666839571765065,-0.751315795430541,0.8632137433826923
1772868566842830300,5.483830322265625,1.3738549888223408,-0.824876267812401,0.8703639073982834
1772868566852897300,5.493897216796875,1.1986164953380822,-0.7999472860001027,0.9025834846101701
1772868566862964500,5.503964599609375,1.108369238179922,-0.7362598267264664,1.042879405659437
1772868566873030400,5.514030517578125,0.9767705644577741,-0.6835073107041418,1.0845201605588197
1772868566883097300,5.524097412109375,0.8946236116468906,-0.6005914193473756,1.0603228540219365
1772868566893164300,5.534164306640625,0.8293541438788176,-0.5461852908991277,1.0707418105751276
1772868566903230500,5.54423046875,0.6175865394204855,-0.527618537595123,1.1290442158095537
1772868566913297400,5.55429736328125,0.414669180893898,-0.4740063360035419,1.166528435551375
1772868566923364400,5.5643642578125,0.24275544791817663,-0.4713651738449931,1.1711506885245442
1772868566933430500,5.574430419921875,0.0578659135133028,-0.4986820737071335,1.1002088742084801
1772868566943497500,5.58449755859375,0.046512160328030586,-0.5063922096930444,1.1198645917929708
1772868566953564400,5.594564453125,-0.048268064084649086,-0.875332197330147,1.30211924764961
1772868566963630300,5.60463037109375,-0.29843349599838254,-1.3316622991286218,1.629361343372613
1772868566973697500,5.614697509765625,-0.5344616814881563,-1.723249879642576,1.9689422577954827
1772868566983764500,5.624764404296875,-1.0884393798291683,-2.0914409486085175,2.1106495069473983
1772868566993830400,5.634830322265625,-1.9672744707137344,-2.223811921877414,2.2454672888465224
1772868567003897300,5.6448974609375,-3.0155776549875735,-2.2570466674812137,2.5538988856375218
1772868567013964300,5.65496435546875,-3.8170086036741733,-2.0055071707352994,2.6518960262700912
1772868567024030500,5.665030517578125,-4.174132189050317,-1.3243065295383334,2.314707267680764
1772868567034096600,5.6750966796875,-4.266848466670513,-0.4069903168290853,1.8254932795427739
1772868567044163600,5.68516357421875,-4.329463036015629,0.3159793818220496,1.2662683281980454
1772868567054229800,5.695229736328125,-4.298149613863229,0.6887504720546305,0.8394501520879566
1772868567064296700,5.705296630859375,-4.329323919805884,1.1123524625971912,0.7749431931249797
1772868567074363600,5.71536376953125,-4.429153828823567,1.498868146674335,0.8698110958211124
1772868567084429800,5.725429931640625,-4.0849025845021005,1.275752049727738,0.8272367133334279
1772868567094496800,5.735496826171875,-3.8594939927041527,1.1851260223850608,0.8816378733456134
1772868567104562700,5.745562744140625,-3.4373025996118782,1.102025568241626,0.8241136128768325
1772868567114629600,5.755629638671875,-2.909554736548662,0.9882548121549188,0.6508961038261651
1772868567124696800,5.76569677734375,-2.5105969195276496,0.7993614489361643,0.5078384629786015
1772868567134762800,5.7757626953125,-2.1604911039590835,0.6265509132511914,0.2630285667486489
1772868567144829700,5.78582958984375,-1.9458716172009705,0.5511966893203556,-0.03677402564585209
1772868567154896600,5.795896728515625,-1.485357799977064,0.6004731997951864,-0.27785671804621814
1772868567164962800,5.805962890625,-0.8163736662745475,0.78807696159482,-0.45591143799498673
1772868567175029800,5.81602978515625,-0.403048301205039,0.9976368268758058,-0.601748772688955
1772868567185096700,5.8260966796875,-0.16569968076646327,1.0283651426166296,-0.786423787560314
1772868567195163000,5.836162841796875,0.21732991476058958,0.9255131092987954,-0.9120207366496323
1772868567205229800,5.846229736328125,0.6718102970391512,0.8407314240701496,-0.9848108091808855
1772868567215296800,5.856296875,1.1508850223481655,0.7713884232528507,-1.0695492397896944
1772868567225362700,5.86636279296875,1.644933444905281,0.6540760490365326,-1.1667078837715088
1772868567235430000,5.876429931640625,2.126990400895476,0.532959898623079,-1.2645569942355155
1772868567245496800,5.886496826171875,2.482009707468748,0.3472081944309175,-1.4446461426213384
1772868567255562800,5.896562744140625,2.702918065237999,0.22620456448122858,-1.5687971306860446
1772868567265629700,5.906629638671875,2.8084534924209117,0.09006327889338135,-1.63770846208781
1772868567275696600,5.916696533203125,2.8476187971174713,-0.047243835603445763,-1.7085858328655361
1772868567285762800,5.9267626953125,2.9704093104839324,-0.027987200339138506,-1.8824504076480864
1772868567295829800,5.936829833984375,3.1314854231029745,0.13088526475578546,-1.9834324093103408
1772868567305896700,5.946896728515625,3.2062574632316827,0.17025427533090112,-2.1309923300132154
1772868567315963000,5.956962890625,3.1379952433884144,0.11239888321161269,-2.2409917508676647
1772868567326029800,5.96702978515625,3.0734377232819794,0.06245996330529451,-2.2430662190541626
1772868567336096800,5.9770966796875,3.0538994945973155,0.025649697302281855,-2.247606200571358
1772868567346162700,5.98716259765625,2.9601065276563165,0.004949439100921153,-2.255983860555291
1772868567356230000,5.99722998046875,2.752351081448793,-0.01631926663815975,-2.1848571911916137
1772868567366296800,6.007296875,2.552656192100048,-0.03232552180439233,-2.1215090468749405
1772868567376362800,6.01736279296875,2.370629645910859,-0.0020057868644595147,-2.050924521563947
1772868567386429700,6.0274296875,2.0645009192347525,0.04487812938541174,-1.9201359951809047
1772868567396497000,6.037496826171875,1.7449416330993175,0.06896423063278198,-1.8195009072601793
1772868567406562800,6.047562744140625,1.4313333643227815,0.1408499016702175,-1.6662135488212109
1772868567416629800,6.057629638671875,0.9677829558819532,0.13313070559501647,-1.3810641895487903
1772868567426696700,6.06769677734375,0.5359533813506364,0.17210604067742824,-1.262292264173925
1772868567436763000,6.077762939453125,0.3603103987187147,0.434650769431889,-1.2805807850584388
1772868567446829800,6.087829833984375,0.38066871161460875,0.70650167119205,-1.282105802668631
1772868567456896800,6.097896728515625,0.38998423697054385,0.9159010852143168,-1.2834013954371213
1772868567466962700,6.107962646484375,0.1302186175405979,1.057490114814043,-1.2566925444707273
1772868567477030000,6.11802978515625,-0.22403204274773597,0.8988923750072717,-1.0370599057257175
1772868567487096800,6.128096923828125,-0.5238859269380569,0.6421072326928376,-0.7582467637374997
1772868567497162800,6.138162841796875,-0.5089385331749916,0.5326929182499647,-0.589944206996262
1772868567507229700,6.148229736328125,-0.3708189332515001,0.4916401923716068,-0.39081338127106424
1772868567517297000,6.158296875,-0.5553524938255548,0.1993389155179262,-0.006892682123184204
1772868567527362800,6.16836279296875,-0.8999585429340601,-0.42879882853329176,0.5076218976184725
1772868567537429800,6.1784296875,-1.3398790694624185,-0.9520496724382043,0.9161343094483018
1772868567547496000,6.188495849609375,-2.0340514204353095,-1.1267816777050494,1.0659522382110356
1772868567557563000,6.19856298828125,-2.599157831034064,-0.9933275853745639,0.9481029806390404
1772868567567629800,6.2086298828125,-2.967082211887836,-0.6243908126078546,0.527183214917779
1772868567577695700,6.21869580078125,-3.372753262811899,-0.17415099050849675,0.0925803762808442
1772868567587763000,6.228762939453125,-3.5993005032509564,0.2190790965154767,-0.21968641475886105
1772868567597830000,6.238829833984375,-3.5879596095472572,0.546988423975557,-0.4735746665880084
1772868567607895800,6.248895751953125,-3.572435877200961,0.7061810609355569,-0.46876025204360483
1772868567617962800,6.258962646484375,-3.6526620910823344,0.5908908401966094,-0.34355507875084873
1772868567628029700,6.26902978515625,-3.5861855856120584,0.6809096954263746,-0.15653642336279153
1772868567638096000,6.279095947265625,-3.416707555350661,0.7154140225745738,0.01985854668021202
1772868567648162800,6.289162841796875,-3.3421418514490124,0.5428218058153986,0.14943448240309953
1772868567658229800,6.299229736328125,-3.4476287633150813,0.2516501175135374,0.19363602770119903
1772868567668296000,6.3092958984375,-3.213463449087739,-0.06567322626337409,-0.0016059738919138907
1772868567678363000,6.31936279296875,-2.776514631846547,-0.2567120770782232,-0.2659979379482567
1772868567688429800,6.329429931640625,-2.4938977136611937,-0.39130321061462164,-0.40146059362217784
1772868567698495700,6.339495849609375,-2.2090742253422735,-0.6160227972351014,-0.5095252470217645
1772868567708563000,6.34956298828125,-1.8134826698839663,-0.7813188656367361,-0.620315964384377
1772868567718630000,6.3596298828125,-1.428150642633438,-0.8233566570296883,-0.7140238833904266
1772868567728695800,6.36969580078125,-1.055867482048273,-0.820168090121448,-0.7966983672067522
1772868567738762800,6.3797626953125,-0.6739286043673753,-0.8077448080085218,-0.9112300246633589
1772868567748830000,6.389829833984375,-0.1987427031904459,-0.688733667050302,-0.9318705155014991
1772868567758895900,6.399895751953125,0.2813841615200043,-0.5932809502035379,-0.9495159161768854
1772868567768962800,6.409962890625,0.7747364185065031,-0.5026845873467624,-1.0400302998386324
1772868567779029800,6.42002978515625,1.318663847476244,-0.3947178413636982,-1.1102321094423533
1772868567789096000,6.430095947265625,1.7833868068277834,-0.30675548027232286,-1.1095903044074773
1772868567799163000,6.440162841796875,2.2062188359111548,-0.25284466106034814,-1.176637887763977
1772868567809229800,6.450229736328125,2.6546593535035847,-0.1677718839306384,-1.2972248997367917
1772868567819296000,6.4602958984375,2.969049712568521,-0.21468524547070264,-1.193549859598279
1772868567829363000,6.470363037109375,3.029697950276732,-0.39221806043721735,-1.064907113072276
1772868567839430000,6.480429931640625,3.084544223707914,-0.5265132797669619,-0.9771906895659863
1772868567849495800,6.490495849609375,3.1889602914720774,-0.6227972598060966,-0.8934545678675174
1772868567859562800,6.500562744140625,3.116290192058682,-0.6850266292259096,-0.8324294596709311
1772868567869630000,6.5106298828125,2.9891461596578357,-0.7310106740266085,-0.7641428360387682
1772868567879696000,6.52069580078125,2.7711294316768647,-0.7969860981069504,-0.6561515401363373
1772868567889762800,6.5307626953125,2.415017069169879,-0.8387470453198999,-0.5343664044201374
1772868567899829800,6.540829833984375,2.1330998236864804,-0.8236619966518134,-0.4041952792830765
1772868567909896000,6.55089599609375,1.9796289253741501,-0.8092253288898617,-0.3315999986715615
1772868567919963000,6.560962890625,1.7889146303385495,-0.851169596780464,-0.2714692089661956
1772868567930029800,6.57102978515625,1.5599311026632785,-0.9605861762456596,-0.10730550559535622
1772868567940096000,6.581095947265625,1.2245751124590634,-1.1394346769206225,0.2161595558069646
1772868567950163000,6.591162841796875,1.011062710160017,-1.3093131046764552,0.43315629309043285
1772868567960230000,6.60122998046875,0.9791554137676953,-1.3080433770015836,0.5211436424925923
1772868567970295800,6.6112958984375,0.8353437396824359,-1.3685460687592625,0.5443326487697661
1772868567980363000,6.621363037109375,0.525803158736229,-1.4836480734497308,0.6739120916239917
1772868567990428700,6.6314287109375,0.2663151872038841,-1.5755635560810566,0.8466007544949651
1772868568000495900,6.641495849609375,-0.058846741244196886,-1.6737573883295058,1.0316790894702077
1772868568010562800,6.651562744140625,-0.3832482067137956,-1.6722553132034836,1.0944055947571991
1772868568020628700,6.661628662109375,-0.4955868841707706,-1.59254742410779,1.02367406219095
1772868568030697500,6.671697509765625,-0.611145692718029,-1.5618112173214553,1.0417723212003707
1772868568040764400,6.681764404296875,-0.8864911585956812,-1.7527137284055352,1.217787352015078
1772868568050830300,6.691830322265625,-1.2999930492758751,-2.010906253299862,1.478300867202878
1772868568060897300,6.701897216796875,-1.6160995646089313,-2.0627833016619084,1.6315895408160983
1772868568070964200,6.711964111328125,-1.804042641365528,-2.015715261016786,1.7352283405974507
1772868568081030400,6.722030517578125,-2.0788497625827786,-1.9018842991754412,1.7028906899638474
1772868568091097300,6.732097412109375,-2.337880053475499,-1.7630417918048797,1.4662334127902983
1772868568101164300,6.742164306640625,-2.564549458989501,-1.4978233137965202,1.2366079339496792
1772868568111230500,6.75223046875,-2.7703467568665743,-1.0916785078808664,1.1646969823405147
1772868568121297400,6.76229736328125,-2.948908841815591,-0.6805563519440591,1.0770786123812197
1772868568131364400,6.7723642578125,-2.9089871657937763,-0.17359781360514462,0.8702250834494829
1772868568141430300,6.78243017578125,-2.844378207761049,0.3915555048752576,0.5923049447782337
1772868568151497500,6.79249755859375,-2.706151055809855,0.7535232423469423,0.33841961555853484
1772868568161564400,6.802564453125,-2.8349779267311095,1.5075795686572788,0.34918183259144425
1772868568171630300,6.81263037109375,-2.9361633420109747,1.5674476157732307,0.3706124508939683
1772868568181697300,6.822697265625,-2.9636610052675008,1.200699585222453,0.5221288541376591
1772868568191764500,6.832764404296875,-3.087773122626543,1.0929760003454982,0.6720984663307666
1772868568201830400,6.842830322265625,-2.753203898885846,0.947750367809087,0.5464551938816905
1772868568211897300,6.8528974609375,-2.4379461093366146,0.7828532355971634,0.3820198339626193
1772868568221964300,6.86296435546875,-2.239732398456335,0.6532831450931728,0.19078516831472514
1772868568232030500,6.873030517578125,-1.9943448484688997,0.5456552756756544,0.07013152084648609
1772868568242097400,6.883097412109375,-1.6991741536587475,0.5216929469384253,0.02211260921731591
1772868568252164400,6.893164306640625,-1.4281336914986371,0.5269372773326934,0.09715835172086953
1772868568262230300,6.903230224609375,-1.0534633435159921,0.5248831212818622,0.1827323563709855
1772868568272297500,6.91329736328125,-0.614385113030672,0.5595385473385452,0.2125355200909078
1772868568282364400,6.923364501953125,-0.1313695411413908,0.5940116025656461,0.23234949697703122
1772868568292430300,6.933430419921875,0.336402284386754,0.4719011804178357,0.33156609640195966
1772868568302497300,6.943497314453125,0.826376589372754,0.3199544229328632,0.40598742339685556
1772868568312564500,6.953564453125,1.2192466109126805,0.19029884610250591,0.37788141898363825
1772868568322630400,6.96363037109375,1.6000947707474231,0.08193170262500643,0.3123370797969401
1772868568332697300,6.973697265625,2.0060276874780656,0.06428308707922696,0.22788477265313267
1772868568342763300,6.98376318359375,2.3551064980864522,0.042580519967526195,0.18209157424941658
1772868568352830500,6.99383056640625,2.470197104600072,-0.018658815501630305,0.159375007789582
1772868568362897400,7.0038974609375,2.5838193921267987,0.0028961598329246044,0.10390388045832515
1772868568372963000,7.013963134765625,2.6855221092790362,0.04846387891769409,0.04607040790989995
1772868568383030300,7.0240302734375,2.657107331177592,0.021559797640144825,0.023605185862630603
1772868568393097500,7.034097412109375,2.5732442220985887,0.10043167430311441,0.06429083199426532
1772868568403163100,7.0441630859375,2.591961197528243,0.17202420761287213,0.010705372279137372
1772868568413230000,7.05422998046875,2.7278613678365944,0.20868834314346313,-0.10166749970838428
1772868568423297300,7.06429736328125,2.7678058402121066,0.2549981127671897,-0.19713833673372863
1772868568433363200,7.07436328125,2.8156302521824834,0.21519699438512324,-0.21319544530436396
1772868568443430100,7.08443017578125,2.7182155876129865,0.18422098749354482,-0.22125950929448007
1772868568453497300,7.094497314453125,2.5142367373347283,0.10857961718440055,-0.2695116451576352
1772868568463563300,7.104563232421875,2.192786522886157,0.06679959994480013,-0.35011472952738404
1772868568473630200,7.114630126953125,1.9256869073063134,0.16999314017668365,-0.4852212652400136
1772868568483697200,7.124697265625,1.7343594488084315,0.32394714583083983,-0.6067603172406554
1772868568493763300,7.134763427734375,1.4249065461456776,0.45575595517233014,-0.7168688975580036
1772868568503830300,7.144830322265625,1.198818739911914,0.5625996884748339,-0.8518401164531707
1772868568513897200,7.154897216796875,0.8772399306476115,0.6803991155557334,-0.9186826787568628
1772868568523963100,7.164963134765625,0.6390361546844243,0.7519219446301459,-0.9883275851301848
1772868568534030000,7.175030029296875,0.5310913282722235,0.7573761183828115,-0.9748783209703862
1772868568544097300,7.18509716796875,0.3912497268617153,0.7137579259306192,-0.9357058558806777
1772868568554163200,7.1951630859375,0.1554898369193077,0.6175619895011186,-0.7863748338520526
1772868568564230100,7.205230224609375,-0.18171791863143444,0.4140373127311468,-0.504653695462644
1772868568574297000,7.215297119140625,-0.41575463804304597,0.22189327715337276,-0.34891324478313324
1772868568584363300,7.22536328125,-0.6035878246843814,-0.011171382355690002,-0.1280852587737143
1772868568594430200,7.23543017578125,-0.9566413841426372,-0.25561113009899855,0.11821867540627717
1772868568604496100,7.24549609375,-1.4342559737712144,-0.4646615845531225,0.38872386164590716
1772868568614563300,7.255563232421875,-1.9589304207384586,-0.5981307283222675,0.4687073528125882
1772868568624630300,7.26563037109375,-2.5418308467030526,-0.4603321770466864,0.3292974208176136
1772868568634696200,7.2756962890625,-3.0908962230831385,-0.15316840823441744,0.04661255196258426
1772868568644763100,7.28576318359375,-3.458629465278983,0.15758607854619622,-0.2745892406828701
1772868568654830300,7.295830322265625,-3.721490712636709,0.5406621435634792,-0.5977537117034196
1772868568664896300,7.305896240234375,-3.7257121297240254,0.9389379696696997,-0.9530724396146834
1772868568674963200,7.315963134765625,-3.4987937178850173,1.2139851832531392,-1.2953022611111402
1772868568685030100,7.326030029296875,-3.367536404946446,1.2779692873857915,-1.5290097485683858
1772868568695096300,7.336096435546875,-3.202989401346445,1.3459060746669769,-1.6905623926579951
1772868568705163300,7.346163330078125,-2.949493948227167,1.3391894797630608,-1.5850423091746866
1772868568715230200,7.356230224609375,-2.6534686824142932,1.1745312708735465,-1.5880854762628673
1772868568725296400,7.36629638671875,-2.472614102613926,1.0080287492915987,-1.5625133742414414
1772868568735363300,7.37636328125,-2.43148305080235,0.6837395120248199,-1.4401637365102766
1772868568745430300,7.38643017578125,-2.2143834376662968,0.41124665909931063,-1.4476388946965335
1772868568755496200,7.39649609375,-1.835738340833783,0.2859440167814493,-1.5837943549402058
1772868568765563100,7.406563232421875,-1.5702689568042754,0.09984013815075159,-1.6368891085289419
1772868568775630300,7.41663037109375,-1.2376321624308824,-0.08844415325894951,-1.6967235456362366
1772868568785696300,7.4266962890625,-0.9745599026709795,-0.15350231636390088,-1.6776492812015116
1772868568795763200,7.43676318359375,-0.6565197889268398,-0.1741533285960555,-1.6440937792107462
1772868568805829400,7.446829345703125,-0.2315373038113117,-0.23864655129462478,-1.5477593110933898
1772868568815896300,7.456896240234375,0.21791092951893806,-0.2759074836745858,-1.4113139279924332
1772868568825963300,7.46696337890625,0.6232113935649395,-0.24380393405780196,-1.106152877304703
1772868568836029200,7.477029296875,0.9939783043682575,-0.29559973387718197,-0.8399727146573365
1772868568846096400,7.487096435546875,1.3255056761950255,-0.29956308455020186,-0.7132970304206013
1772868568856163300,7.497163330078125,1.6151555617570876,-0.28068989564552904,-0.48896980411857366
1772868568866229200,7.507229248046875,1.79258776589334,-0.2957835660114884,-0.23105565777420997
1772868568876296200,7.517296142578125,1.8677853379577398,-0.30200740896239875,-0.052308279386162754
1772868568886363400,7.52736328125,1.9194103112548588,-0.3444225092351436,0.06199293031543493
1772868568896429300,7.53742919921875,1.8306833955317734,-0.38209772150442,0.15645795129910112
1772868568906496300,7.547496337890625,1.6889637252897023,-0.44538346810936924,0.30601883656084533
1772868568916563200,7.557563232421875,1.5018863254517316,-0.46551118711978196,0.5410143180020153
1772868568926629400,7.56762939453125,1.3163123159140349,-0.4040385543514043,0.7186648410640657
1772868568936696300,7.5776962890625,1.457423498868942,-0.3124232967756688,0.6193113173864782
1772868568946762200,7.58776220703125,1.4278051901966333,-0.32951449763439594,0.5088686828091741
1772868568956829200,7.5978291015625,1.1538637458980083,-0.537822974614799,0.5832014547377824
1772868568966896400,7.607896484375,1.0572153895258902,-0.710522231945023,0.7736348870053887
1772868568976962300,7.61796240234375,1.2504799535661935,-0.786350356997922,0.955410965564847
1772868568987029200,7.628029296875,1.280391692227125,-0.9297863296385854,1.0753197860151529
1772868568997096200,7.63809619140625,1.19244745131433,-1.0212892859462648,1.2332251596435904
1772868569007162400,7.648162353515625,1.2263181567341088,-1.117811897046864,1.3178800036221743
1772868569017229300,7.658229248046875,1.270109952187538,-1.1903266597680746,1.4321895427606999
1772868569027296300,7.668296142578125,1.2991677043676375,-1.2935694459691642,1.544391003704071
1772868569037361400,7.678361328125,1.2654630031645298,-1.4733034973070025,1.646621251861751
1772868569047428400,7.688428466796875,1.1496797382116317,-1.6470581819742918,1.7352207418128847
1772868569057495300,7.698495361328125,0.9537345567852258,-1.7517345081098377,1.7686396118119359
1772868569067561500,7.7085615234375,0.7146265254586934,-1.784962531711906,1.7458245534136891
1772868569077628400,7.71862841796875,0.475846995434165,-1.6718971474155784,1.637244790098816
1772868569087694300,7.7286943359375,0.3595814999222755,-1.4456687636673449,1.453328338509798
1772868569097761300,7.73876123046875,0.1476256794154644,-1.2872041487209498,1.2753893538951873
1772868569107828500,7.748828369140625,-0.1893921065211296,-1.2107366297859699,1.2140512342266738
1772868569117894400,7.758894287109375,-0.3899550108760595,-1.155782219805196,1.0897459323830903
1772868569127961300,7.76896142578125,-0.45527007135152814,-1.190645589524135,1.0248566961042582
1772868569138028300,7.7790283203125,-0.6777700822263956,-1.4398567163877187,1.1401588995419443
1772868569148094200,7.78909423828125,-0.8126911783695221,-1.753677458871156,1.36019076673761
1772868569158161400,7.799161376953125,-0.9873369666576385,-1.8723988231025634,1.4926660771638154
1772868569168228400,7.809228271484375,-1.4750380660146474,-1.8419320809073745,1.4330758240759371
1772868569178294300,7.819294189453125,-1.9269798697263,-1.7601016466997563,1.3747776566252112
1772868569188361500,7.829361572265625,-2.2848995739161966,-1.589934611260891,1.4708167950578033
1772868569198427100,7.83942724609375,-2.689422039327025,-1.3404007552489638,1.4449727442272007
1772868569208494000,7.849494140625,-3.0289795728743076,-0.8936940757118165,1.279918229496479
1772868569218561500,7.8595615234375,-3.2084330537050962,-0.2914987282991409,1.1497995651990174
1772868569228627200,7.869627197265625,-3.2532518541187048,0.2109652020342648,0.9931348392814398
1772868569238694100,7.879694091796875,-3.5015678587734698,0.4839668812647462,0.9393665703453123
1772868569248761000,7.889760986328125,-4.036459748372435,0.6725896108485758,1.048040441684425
1772868569258827300,7.8998271484375,-4.477848593887686,0.7875012075334787,1.0159994359098374
1772868569268894200,7.909894287109375,-4.5948418191522356,1.0107457531653343,0.7088632857568562
1772868569278960000,7.919960205078125,-4.411992266142368,1.2688174281589686,0.3202222800888121
1772868569289027300,7.93002734375,-3.729907243326306,1.453085031273216,-0.0020230302602052687
1772868569299094300,7.94009423828125,-3.2239363277852533,1.5943565193563698,-0.14822035737298428
1772868569309160200,7.95016015625,-2.8912650466203687,1.4877828351669014,-0.08819273578114807
1772868569319227100,7.96022705078125,-2.376402384093404,1.4022173060841858,0.0040320319950580595
1772868569329294000,7.970294189453125,-1.485240311077237,1.4968468699797988,0.036195348975062366
1772868569339360300,7.9803603515625,-0.5732341874748468,1.5349685108423232,0.12747121852859855
1772868569349427200,7.99042724609375,0.1828957302391529,1.439350082039833,0.355983913821727
1772868569359494100,8.000494140625,0.9000602497428655,1.286329119452089,0.3877034325569868
1772868569369560300,8.010560302734374,1.644383409807086,1.1377398557014762,0.3952706529408693
1772868569379627300,8.020627197265625,2.1936668128520247,1.0295230804800988,0.4603668099686503
1772868569389693200,8.030693115234374,2.605996737143397,0.8966618394762277,0.5239103307269514
1772868569399760100,8.040760009765625,3.0118437291562556,0.8107434053026139,0.5307786090612411
1772868569409827300,8.050827392578125,3.3562194766402245,0.8172665234610438,0.48397068065702914
1772868569419893200,8.060893310546875,3.512781326705217,0.8293991520643234,0.39193186390697954
1772868569429960200,8.070960205078125,3.6111505155205723,0.8042965672507881,0.3179202867567539
1772868569440027100,8.081027099609376,3.7180414489656686,0.8551979024484753,0.2756279360808432
1772868569450093300,8.09109326171875,3.7588334780812263,0.8888082033663988,0.29157252418771384
1772868569460160300,8.10116015625,3.6484634703487155,0.8561936354875564,0.4000276382096112
1772868569470226200,8.11122607421875,3.4557676461070774,0.8830135456129908,0.37580285914391276
1772868569480293400,8.12129345703125,3.3848563730597494,0.9455304998025298,0.35108386682048437
1772868569490360300,8.1313603515625,3.1895886525034904,0.9612637832462787,0.3968944547504186
1772868569500426200,8.14142626953125,2.833053680670261,0.9736989019274711,0.4224548663340509
1772868569510493200,8.1514931640625,2.539315649011731,1.0342723208338023,0.4750120059147477
1772868569520560400,8.161560302734374,2.3114427129268647,1.0746718435004352,0.47540378171131015
1772868569530626300,8.171626220703125,2.134076559764147,1.0974465698882936,0.39772929813936353
1772868569540693200,8.181693359375,1.8673872785508632,1.0945049634784458,0.379734791765362
1772868569550759400,8.191759521484375,1.5220692817807198,1.1048059927403926,0.3694796474717557
1772868569560826400,8.201826416015624,1.1539040779083967,1.1308499500572682,0.4040928418219089
1772868569570893300,8.211893310546875,0.7611328405678272,1.157795532388985,0.384187533390522
1772868569580959200,8.221959228515624,0.6215455061793327,1.2193033095359802,0.3610347674705088
1772868569591026400,8.2320263671875,0.7155956627517939,1.2883929201141,0.2708754808567464
1772868569601093400,8.24209326171875,0.7367056707978248,1.225599779331684,0.16186857817098496
1772868569611159300,8.2521591796875,0.4757505493223667,0.9823182617127895,0.21801278245821593
1772868569621226200,8.262226318359374,0.15364450131356716,0.7107663428992033,0.3000575900688767
1772868569631292400,8.27229248046875,-0.0012467851907014846,0.6292383987694978,0.29011487272530795
1772868569641359400,8.282359375,-0.07980302003324032,0.6301327172607183,0.2113959946669638
1772868569651426300,8.29242626953125,-0.0478664975464344,0.5472954440981149,0.06766849173381924
1772868569661492200,8.3024921875,-0.09383680608272552,0.43784722738564014,-0.08408420448377728
1772868569671559400,8.312559326171876,-0.3772890060484409,0.32143910853266716,-0.17035086757317183
1772868569681626400,8.32262646484375,-0.675514412254095,-0.023338790011405944,0.0014293021507561206
1772868569691692300,8.3326923828125,-0.8895996460050344,-0.5866919272020459,0.2950717644803226
1772868569701759200,8.34275927734375,-1.3414976105749605,-0.9117907272860407,0.47833384381383653
1772868569711825400,8.352825439453126,-1.870537267014384,-0.999436277513206,0.5142591436758637
1772868569721892400,8.362892333984375,-2.149883785226941,-0.9609028409793973,0.32995091629028317
1772868569731959300,8.372959228515626,-2.5478134282439946,-0.8103159736707806,0.20451514911204574
1772868569742025500,8.383025390625,-3.1540695953547955,-0.7086915824517608,0.2135569720931351
1772868569752092400,8.393092529296876,-3.7193612993925806,-0.4893342535167932,0.1719065725825727
1772868569762159400,8.403159423828125,-4.027645742797851,-0.23578648568838834,0.07771160071194172
1772868569772225300,8.413225341796876,-3.976847283452749,0.09657938278913497,-0.03731733874231577
1772868569782292500,8.42329248046875,-3.7941578894406556,0.38237478488013144,-0.32723902698308227
1772868569792358400,8.4333583984375,-3.399473511955142,0.7276615097291768,-0.5116675197474658
1772868569802425300,8.44342529296875,-3.117989397192001,0.9420321362927555,-0.3502766420908272
1772868569812492300,8.4534921875,-3.05090674252212,0.9121863024748861,0.059398676038533445
1772868569822558500,8.463558349609375,-3.1133769349604843,0.6235368261270224,0.400275037099421
1772868569832625400,8.47362548828125,-3.038234307953715,0.29264950576946136,0.48906259696856136
1772868569842691000,8.483691162109375,-2.747659124240279,0.06094590548053384,0.34229353438243265
1772868569852758500,8.493758544921874,-2.1854911051809784,-0.028456571416556834,0.02130216961726546
1772868569862825500,8.503825439453125,-1.6525626246094702,-0.02609320328608155,-0.33770664498358965
1772868569872891100,8.51389111328125,-1.2043097385436297,-0.08712854061573744,-0.446722169367224
1772868569882958300,8.523958251953125,-0.6376783103346825,-0.12256634922176599,-0.4768843756578862
1772868569893025300,8.534025390625,-0.02527297294437885,-0.120585696798563,-0.5725365605995059
1772868569903091200,8.54409130859375,0.35235739388763904,-0.15074614952355622,-0.526332735568285
1772868569913158100,8.554158203125,0.8646353006184101,-0.1769832913249731,-0.46018531592190265
1772868569923224300,8.564224365234375,1.505759367492795,-0.047313247577846045,-0.20603841315656898
1772868569933291300,8.574291259765625,1.920292354786396,-0.07524243411943315,0.04484627294242382
1772868569943358200,8.584358154296876,2.293148346823454,-0.18310118968337774,0.04104951100796461
1772868569953424100,8.594424072265625,2.7349107018262147,-0.22792802727296946,0.05149652461186051
1772868569963491300,8.6044912109375,2.972101501354575,-0.28607524194568396,0.19689853662848472
1772868569973557200,8.61455712890625,3.0162784967333076,-0.32414310679435726,0.3643701955035329
1772868569983624200,8.624624267578126,2.9898072539150715,-0.30791575622335077,0.28839024088978765
1772868569993691100,8.634691162109375,2.937809355652332,-0.3102526747383177,0.133867349306494
1772868570003758000,8.644758056640624,2.76610195890367,-0.30369331622272727,0.09990677364617585
1772868570013825300,8.6548251953125,2.629428466135263,-0.26793168248981236,-0.011933525834605097
1772868570023891200,8.66489111328125,2.4801415755093097,-0.3958347165644169,-0.11747611341066658
1772868570033958100,8.674958251953125,2.1759090378433465,-0.3729131290517747,-0.26162900214903057
1772868570044025000,8.685025146484374,2.040202928802371,-0.37822438720241186,-0.4070522761493921
1772868570054091300,8.69509130859375,2.064074218255281,-0.45517567106634377,-0.6399982046496123
1772868570064158200,8.705158203125,1.9716817657619714,-0.45750747501477596,-0.659287938465923
1772868570074225200,8.71522509765625,1.7693208720743656,-0.5283830922268331,-0.6340555167276412
1772868570084291300,8.725291259765624,1.7479735481411218,-0.549357929585874,-0.5900098195783794
1772868570094358300,8.735358154296875,1.810495763027668,-0.5990221242040396,-0.45099290548898274
1772868570104424200,8.745424072265624,1.7891630521416664,-0.7141654838182032,-0.3209981598321348
1772868570114491100,8.7554912109375,1.688369266527891,-0.9006545623742044,-0.12739311179108917
1772868570124558300,8.765558349609375,1.5343150153696536,-1.1156861370645463,0.05570062523819506
1772868570134624300,8.775624267578126,1.451905612230301,-1.2354574487403034,0.13438940041922032
1772868570144691200,8.785691162109375,1.5224778625816107,-1.3014616605237126,0.1914342798732221
1772868570154757400,8.79575732421875,1.5836778889536858,-1.321362292779982,0.33365905009321867
1772868570164824300,8.80582421875,1.4747072266250847,-1.381676768489182,0.5780293858621269
1772868570174891300,8.815891357421876,1.103630519220233,-1.4984068127728998,0.7830028732009232
1772868570184957200,8.825957275390625,0.7823743660390376,-1.4927875115863978,0.9803403857685625
1772868570195024100,8.836024169921876,0.40628889056146145,-1.3445876855447887,1.1287984243549405
1772868570205090300,8.84609033203125,0.0560316838234663,-1.1302229042001068,1.0667801404025405
1772868570215157200,8.8561572265625,-0.1870043346017599,-0.8421560500457882,0.9202430599413811
1772868570225224200,8.86622412109375,-0.5423135640323162,-0.6725979402855038,1.006880309908837
1772868570235290000,8.8762900390625,-0.8917986173540353,-0.7891827308796345,1.2349033219888805
1772868570245357300,8.886357421875,-1.140216328817606,-1.096806226158142,1.6217900313355027
1772868570255423000,8.896423095703126,-1.54700381655097,-1.550702086547017,1.9297012575142085
1772868570265490200,8.906490234375,-2.322452182719111,-1.6979542564749717,1.837353374814987
1772868570275557400,8.916557373046874,-3.2979303692787885,-1.3862863081112504,1.2983398752413688
1772868570285623000,8.926623046875,-4.089129262286424,-1.0626464746639133,0.916266776721552
1772868570295690000,8.93668994140625,-4.966378545284271,-0.6368740082144737,0.7131112255249172
1772868570305756200,8.946756103515625,-5.4996179915010925,-0.007672288193553685,0.34258258045688267
1772868570315823000,8.956822998046874,-5.541573803699016,0.5494584673509001,0.08049750510342418
1772868570325890000,8.96689013671875,-5.068090614786744,1.2280290523052215,-0.15699041420798748
1772868570335956200,8.976956298828124,-3.8629239671528337,2.097182853261381,-0.642590486165136
1772868570346023200,8.987023193359375,-2.6768033807724714,2.8193153704360125,-1.006081853007525
1772868570356089000,8.997089111328124,-2.350819030025601,2.8841023153841494,-0.6833158797852694
1772868570366156000,9.007156005859375,-3.0357097579121586,1.9771632659129796,-0.20517876411993055
1772868570376223000,9.017222900390625,-3.3208512261390686,1.162959491023421,0.2124902561770752
1772868570386289200,9.0272890625,-2.7407249410629273,0.572201483426243,0.38573940247502175
1772868570396356000,9.037356201171875,-2.2856156132310628,0.4497184285737574,0.15995379405822605
1772868570406422000,9.047422119140625,-1.8402847520917653,0.5050651988729834,-0.24269977220818398
1772868570416489200,9.0574892578125,-1.3570803796321154,0.3614817805856466,-0.6743128544446081
1772868570426556200,9.06755615234375,-1.038096263036132,0.4095369325719774,-0.963545026051253
1772868570436622000,9.0776220703125,-0.8251198673099279,0.6208529938705265,-1.093374498143792
1772868570446689000,9.08768896484375,-0.5048229145497083,0.7193772271171212,-1.0795197949882596
1772868570456755200,9.097755126953125,-0.06184475401639938,0.7993842452898621,-0.9519290417332201
1772868570466822100,9.107822265625,0.24118308403491973,0.8193395303428173,-0.7752792201463132
1772868570476889000,9.11788916015625,0.5315536850869655,0.7151444118529557,-0.6522292521260679
1772868570486955300,9.127955322265626,1.0140753359794616,0.6744461985006928,-0.5579947519626468
1772868570497022200,9.138022216796875,1.524498554754257,0.6165089733168483,-0.4295590357834473
1772868570507088100,9.148088134765626,1.8519348578751087,0.4832992111362517,-0.18231973871579393
1772868570517155000,9.158155029296875,2.099047331959009,0.38365006551295516,-0.03599825550038367
1772868570527222300,9.16822216796875,2.378773789399862,0.3297112623155117,0.060999571896530685
1772868570537288200,9.1782880859375,2.516668932917714,0.32332214580029245,0.10932214264739304
1772868570547355100,9.188355224609374,2.592632228657603,0.2617158767148852,0.11166742713190614
1772868570557421300,9.19842138671875,2.6534751121550797,0.20494871822372077,0.13167685352489353
1772868570567488300,9.20848828125,2.7018460520923138,0.20835297370925546,0.18306677595712242
1772868570577555200,9.21855517578125,2.6988082918316123,0.17281491959914563,0.2487742332836613
1772868570587621000,9.22862109375,2.5656951218932864,0.056473290111124515,0.30279528967076913
1772868570597688300,9.238688232421875,2.3560399795442817,-0.0210728909060359,0.3056001179584302
1772868570607754200,9.248754150390624,2.1088509330928322,-0.12878493147566913,0.36358960305247456
1772868570617821200,9.2588212890625,1.7878052077919244,-0.24316782811135051,0.4343116736706346
1772868570627888000,9.26888818359375,1.5430793365836142,-0.17171441101133822,0.5741923649825156
1772868570637954300,9.278954345703125,1.3914198716074226,-0.049742812812328334,0.6323379722200334
1772868570648021200,9.289021240234375,1.2285048531234264,0.1130928568251431,0.6134076463006436
1772868570658087200,9.299087158203125,1.0954711781620978,0.3072958707593381,0.6196231598146259
1772868570668154000,9.309154052734375,0.9098679425299168,0.42005876497775313,0.619898031233251
1772868570678221300,9.31922119140625,0.6707838766008615,0.40704803836569187,0.6213168119899928
1772868570688287200,9.329287353515625,0.47038054672181606,0.38282632803991434,0.6688837420679629
1772868570698354200,9.339354248046876,0.2078220817029476,0.36546252078488467,0.7153973637007176
1772868570708420400,9.34942041015625,-0.01445405728816986,0.3873157484136522,0.8020273071445524
1772868570718487300,9.3594873046875,-0.08158464275300502,0.48786023544147605,0.8526151924788952
1772868570728553000,9.369552978515625,-0.2168278104573488,0.6429375460371375,0.8098417802877723
1772868570738620200,9.3796201171875,-0.3601549158960581,0.7841914984636008,0.7792170710518955
1772868570748687400,9.389687255859375,-0.6343547188699246,0.8782787721760571,0.702763215316087
1772868570758753000,9.3997529296875,-0.9398644368648529,0.9181048788689077,0.6836690771371126
1772868570768820200,9.4098203125,-1.2817787626713513,0.9500570373162627,0.6024141047298908
1772868570778886100,9.41988623046875,-1.6068050820410251,0.9887245485585182,0.4972662886250764
1772868570788953000,9.429953125,-1.663609503802657,0.9235795108877122,0.3846662568181753
1772868570799020000,9.44002001953125,-1.6639350824952124,0.6182349203266203,0.43684491847530005
1772868570809086200,9.450086181640625,-1.9767922406435012,0.24439320518784224,0.4210064941566437
1772868570819153200,9.460153076171874,-2.3572627993375064,-0.06835450123660267,0.23357085546553133
1772868570829219000,9.470218994140625,-2.527409522640705,-0.15652363694645463,-0.07444456174001098
1772868570839286000,9.4802861328125,-2.7320558969169855,-0.030469372543692586,-0.2893357050463557
1772868570849353000,9.49035302734375,-3.1507214539706707,0.01936944798901677,-0.41390462626218794
1772868570859419100,9.500419189453124,-3.2870570930868386,0.2845879259973764,-0.5703375892505049
1772868570869486000,9.510486083984375,-3.2452678696274755,0.7125381018120795,-0.7300073422029614
1772868570879552000,9.520552001953124,-3.1545898198366165,1.0244544719789177,-0.8643020500760525
1772868570889619200,9.530619140625,-2.7086504714101554,1.182527530324459,-1.1167462405767292
1772868570899685000,9.54068505859375,-2.3591788620918988,1.4021584155037998,-1.2292390126168726
1772868570909752000,9.550751953125,-2.1279005014777184,1.2893582580149172,-1.1606333861634135
1772868570919819000,9.560819091796875,-1.9099118305474518,0.9023231531735509,-1.060876103990525
1772868570929885200,9.57088525390625,-1.7378297552675008,0.5067408770002424,-1.023831444709748
1772868570939952000,9.5809521484375,-1.613534098035097,0.16695727961212395,-0.952497708466649
1772868570950018000,9.59101806640625,-1.735733075249195,-0.2659857360538095,-0.8503990507993847
1772868570960085200,9.601085205078125,-1.7064666487544775,-0.5686055047608911,-0.7127718375027179
1772868570970152200,9.611152099609376,-1.416194247379899,-0.5077002235516905,-0.6233296131171285
1772868570980218000,9.621218017578125,-0.9143231683731079,-0.28174532298259436,-0.6306451237622648
1772868570990285000,9.63128515625,-0.4256850804269314,-0.173607312085852,-0.6689705435685813
1772868571000351200,9.641351318359375,-0.12627835548222063,-0.18375695017836988,-0.6332933732487261
1772868571010418200,9.651418212890626,0.3028349458277225,-0.1873035367440432,-0.5773162691567093
1772868571020484000,9.661484130859375,0.8834469685941934,-0.17574892722442745,-0.4407525569057092
1772868571030550800,9.67155078125,1.3865619101822375,-0.2143009223282337,-0.27537250001505015
1772868571040617700,9.68161767578125,1.8437907143861054,-0.30853673766590656,-0.10905929046012461
1772868571050683600,9.69168359375,2.2504162895560262,-0.37248759711608287,0.12429218663368373
1772868571060750800,9.701750732421875,2.5375194132447243,-0.4324583739541471,0.389572916223295
1772868571070816800,9.711816650390626,2.583754510197043,-0.4516922859299928,0.6423654452376067
1772868571080883700,9.7218837890625,2.5019962644428015,-0.3897724939160049,0.6295953224483877
1772868571090950000,9.731949951171876,2.5787299600332974,-0.22985373463854192,0.3867873406253755
1772868571101016800,9.742016845703125,2.6906395984232425,-0.11059051861539483,0.18703509506620467
1772868571111083800,9.752083740234376,2.6153175231963393,-0.04542882207073271,0.11335607433859259
1772868571121149700,9.762149658203125,2.382830371314287,0.031724487171322105,0.14891842263974248
1772868571131216600,9.772216552734376,2.372379704448581,-0.035283860153332354,0.138386982155405
1772868571141282800,9.78228271484375,2.232543948256969,-0.12646905574873088,0.1762494240924716
1772868571151349800,9.792349853515624,1.9495073433548211,-0.18759009860046208,0.25788086512926967
1772868571161416700,9.802416748046875,1.858320174998045,-0.23118439872041344,0.12661003512199967
1772868571171483000,9.81248291015625,1.9388859960973261,-0.20154621630385516,0.004740910916775465
1772868571181549800,9.8225498046875,1.996455557012558,-0.17632957665659485,0.018779007815197108
1772868571191615700,9.83261572265625,1.8989403546780346,-0.31227205173671246,0.08385127251073718
1772868571201682700,9.8426826171875,1.6981126619070768,-0.5031036164764314,0.20811390425637363
1772868571211748900,9.852748779296874,1.4149901322871445,-0.666205170508474,0.3331681978363544
1772868571221815800,9.86281591796875,1.2088012047439813,-0.7551028396885842,0.3322084859587252
1772868571231882800,9.8728828125,1.1524597243189811,-0.7808755057834088,0.308292918972671
1772868571241949000,9.882948974609375,0.9900526553571224,-0.8308540270477532,0.3596360065884888
1772868571252015900,9.893015869140624,0.6345289063930512,-1.003517482412234,0.44981743196882307
1772868571262081800,9.903081787109375,0.3188385706454515,-1.1536154702253638,0.48977322945594787
1772868571272148700,9.913148681640624,0.10839549278914928,-1.224363515534997,0.47977732062041756
1772868571282215000,9.92321484375,0.024880174234509465,-1.2439452911004423,0.38266821486875413
1772868571292281900,9.93328173828125,-0.04790741407871246,-1.2444219687014817,0.32618286899365484
1772868571302348800,9.943348876953126,-0.19634850153028963,-1.3020786233782768,0.300475304024294
1772868571312415000,9.9534150390625,-0.2316717438459396,-1.3563869905404746,0.32137985262610014
1772868571322482000,9.96348193359375,-0.30288755279779433,-1.395176739922911,0.33434410974793133
1772868571332547800,9.9735478515625,-0.44302609132826326,-1.5155721748463808,0.3237983119446784
1772868571342614800,9.98361474609375,-0.5728092400610446,-1.5845448810465632,0.3533428247284144
1772868571352680700,9.9936806640625,-0.6432341908961534,-1.508681684680283,0.400139866412431
1772868571362748000,10.003747802734376,-0.5534516286402941,-1.4050035758018493,0.28186120444722473
1772868571372814800,10.01381494140625,-0.4474924230873584,-1.2760355428442358,0.09519801143333315
1772868571382880800,10.023880859375,-0.3541881164461374,-1.2329130249544977,0.03232654471769929
1772868571392948000,10.033947998046875,-0.2986281417876482,-1.199705678814277,-0.07048289156742393
1772868571403013600,10.044013671875,-0.14483984808921813,-1.0809746699716896,0.038179362399131056
1772868571413080600,10.05408056640625,-0.18060498895347118,-1.12661969207637,0.21957915499210356
1772868571423146800,10.064146728515626,-0.2633095756471157,-1.082240890515223,0.23653379692435264
1772868571433213700,10.074213623046875,-0.3677992931693792,-0.9806383458018302,0.26974077773839233
1772868571443280600,10.08428076171875,-0.6751239516317844,-0.9936681424405425,0.3254695330925286
1772868571453346800,10.094346923828125,-0.9378384839951992,-1.1146312942493706,0.28005627391710874
1772868571463413800,10.104413818359374,-1.183730476373434,-1.1894924009010195,0.3425396180979907
1772868571473479700,10.114479736328125,-1.672946071946621,-1.1492892045240848,0.5417588527590036
1772868571483546600,10.124546630859374,-2.143690191283822,-1.0699028024677186,0.7482390183337032
1772868571493612800,10.13461279296875,-2.417064649349451,-0.8410785570073872,0.9591032442115247
1772868571503679700,10.1446796875,-2.638662742948532,-0.6185118375718593,1.1962751198437065
1772868571513746700,10.15474658203125,-3.007868395784497,-0.41460554107315833,1.3027993388682604
1772868571523812900,10.164812744140624,-3.2040883024990556,-0.02791369671151042,1.347713854741305
1772868571533879800,10.1748798828125,-3.1004765368551013,0.26710326884165403,1.3715125173494218
1772868571543945700,10.18494580078125,-3.0894425171434876,0.3135514240227639,1.3840604487553239
1772868571554012700,10.1950126953125,-3.28007965528965,0.2633702928584069,1.4379603812471031
1772868571564078800,10.205078857421874,-3.2894442804843185,0.3519830076172948,1.5232117298141121
1772868571574145800,10.215145751953125,-3.209378810122609,0.0802471105389297,1.5211789088122545
1772868571584212700,10.225212646484374,-3.428591469889879,-0.10107048366330564,1.4836536264076827
1772868571594279000,10.23527880859375,-3.285762377101183,-0.07939502375423908,1.424188314873725
1772868571604345900,10.245345947265625,-2.8975615164160726,0.005076718742400408,1.3386508428417145
1772868571614411800,10.255411865234375,-2.597273916983604,0.139609692350775,1.2840499224737285
1772868571624478700,10.265478759765625,-2.2091922987639903,0.26606501183509823,1.2592873832695186
1772868571634545000,10.275544921875,-1.8292513169020412,0.29072832844853397,1.247420565995574
1772868571644611800,10.28561181640625,-1.41533441568017,0.2462839143052697,1.2663003307715057
1772868571654677800,10.295677734375,-0.7985784818649292,0.30900808150470255,1.2679973439477383
1772868571664745000,10.305744873046875,-0.102390699416399,0.44113180201426144,1.2977172132983803
1772868571674812000,10.31581201171875,0.4965115978002548,0.46412309376224875,1.3445963072426617
1772868571684877800,10.3258779296875,1.060052658778429,0.47900355976894493,1.343661072219163
1772868571694944800,10.33594482421875,1.5945307068794965,0.5492705435633659,1.3536862071491778
1772868571705011000,10.346010986328125,1.9903192462146282,0.6412383409038186,1.368420104292035
1772868571715078000,10.356077880859376,2.36637608011961,0.6447513174608349,1.249281975953281
1772868571725143800,10.366143798828125,2.7261849590569733,0.703353436294198,1.1978845278017223
1772868571735211000,10.3762109375,2.9897979015648364,0.9157473559573293,1.2619734074831008
1772868571745278000,10.38627783203125,3.2576258314192295,1.029751920799911,1.311396340691298
1772868571755343600,10.396343505859376,3.3740316121846434,1.0286566729091107,1.2958408980324863
1772868571765410800,10.406410888671875,3.3314345794737337,0.9770485046163201,1.2471768203675746
1772868571775476700,10.416476806640626,3.2501451202750204,0.9202281546331942,1.2767784701660274
1772868571785543700,10.426543701171875,3.062216656565666,0.8680201207511127,1.3004964687533676
1772868571795609600,10.436609619140626,2.7884195891737935,0.8464556469358503,1.3399082955569028
1772868571805676800,10.4466767578125,2.4978929207772014,0.8760673797369003,1.2730809308223425
1772868571815742700,10.45674267578125,2.268988303557038,1.0297913760274648,1.1336090395070613
1772868571825809700,10.4668095703125,2.022510035723448,1.2087801619559526,0.9970011593207716
1772868571835876600,10.476876708984374,1.6493559375226496,1.3365502173006534,0.8542836371477693
1772868571845942800,10.48694287109375,1.2357073318481444,1.4004942816838621,0.6824992296401411
1772868571856009700,10.497009765625,0.951274304151535,1.4229130342409013,0.41130569581016896
1772868571866075600,10.50707568359375,0.7419803963303565,1.5429796756014227,0.08990195085182785
1772868571876142800,10.517142822265624,0.6043465340971946,1.674107809202373,-0.21922537311837076
1772868571886208800,10.527208740234375,0.5575058724671602,1.652505341464281,-0.40225400902219116
1772868571896275700,10.537275634765624,0.5200052861124277,1.618430053383112,-0.5545725954942405
1772868571906342000,10.547341796875,0.6099269645780324,1.653639313930273,-0.6956587901383638
1772868571916408800,10.557408935546874,0.6006020868718623,1.6102786033704877,-0.7004362336732447
1772868571926475800,10.567475830078125,0.3357674936145544,1.4493749247089027,-0.6565887625098228
1772868571936541700,10.577541748046874,0.1282148765027523,1.209603461037576,-0.6842638281598686
1772868571946609000,10.58760888671875,0.04886602997779846,0.9056871497139334,-0.6389005456060171
1772868571956674800,10.5976748046875,-0.2121744316935539,0.6782178259938955,-0.6148927702918648
1772868571966741800,10.60774169921875,-0.8002157276779412,0.4531657925486564,-0.5300228222578763
1772868571976808000,10.617807861328124,-1.4508546418726442,0.1034822940453887,-0.3952396732807159
1772868571986875000,10.627875,-2.0768699869424103,-0.00659136108905077,-0.3766832952402532
1772868571996940800,10.63794091796875,-2.7690830205410717,0.04455941882506013,-0.5439744829818606
1772868572007007700,10.6480078125,-3.331846082884073,0.12612696431279183,-0.8380066752813756
1772868572017075000,10.658074951171875,-3.7381437412738796,0.3472941191487014,-1.1338438711762429
1772868572027140900,10.668140869140625,-4.075640250638127,0.5819130223624408,-1.3258574122421443
1772868572037207800,10.678207763671875,-4.394171362769604,0.7240995794638991,-1.4264651737645269
1772868572047274000,10.68827392578125,-4.449824860930443,0.9419307217448949,-1.5892971901401876
1772868572057341000,10.6983408203125,-4.188628331914543,1.1454144819825887,-1.8321927771814166
1772868572067406800,10.70840673828125,-3.793080615597963,1.3013080773971974,-2.03269854452163
1772868572077473800,10.718473876953125,-3.320518048661947,1.3172604104191064,-2.049425222916901
1772868572087540000,10.7285400390625,-2.840987980800867,1.171549186322838,-1.9185551557302474
1772868572097607000,10.73860693359375,-2.470112348926067,0.8496041740946472,-1.7725515245586632
1772868572107673900,10.748673828125,-1.9839339290916918,0.4345980163313448,-1.641262209046632
1772868572117740000,10.758739990234375,-1.37204764713943,0.11060571618452668,-1.5220993846580386
1772868572127807000,10.768806884765626,-0.7964671887993812,-0.10252996175661683,-1.3989973211243747
1772868572137873000,10.778872802734375,-0.3482195634305477,-0.31024434530138967,-1.2236121126458048
1772868572147939800,10.78893994140625,0.09753566060066222,-0.7165345510371028,-0.9874701645832509
1772868572158006000,10.799006103515625,0.39220542015135285,-0.8531276720456779,-0.7366402774114161
1772868572168073000,10.809072998046876,0.6854886937797069,-0.9297665289595722,-0.48839324633963405
1772868572178138600,10.819138671875,0.9564373860031365,-0.9703986913383007,-0.316476517689228
1772868572188205800,10.829205810546876,1.1689841581404208,-0.9012335313059389,-0.20823416963517666
1772868572198273000,10.83927294921875,1.376456695753336,-0.874063054177165,-0.12433080161102116
1772868572208338700,10.849338623046876,1.471293618789315,-0.8299325282886624,0.008142901379987596
1772868572218405600,10.859405517578125,1.588501948109269,-0.7319803958415985,0.14514935242980717
1772868572228471800,10.869471923828126,1.8177566939413548,-0.7518737215742468,0.2559004684343934
1772868572238538800,10.879538818359375,1.9282605571866034,-0.6447213607139886,0.3074475541897118
1772868572248604700,10.889604736328126,1.9867384651184081,-0.5232458754688502,0.38939686553664504
1772868572258671900,10.899671875,2.039320885270834,-0.4946725458048284,0.4299094201236963
1772868572268737800,10.90973779296875,2.010705616161227,-0.4000394747778773,0.5160062065389007
1772868572278804700,10.9198046875,1.9375626385390758,-0.285430295105651,0.5194109004158526
1772868572288871000,10.929870849609374,1.9383289467364548,-0.2391745937567204,0.355266851593554
1772868572298937900,10.939937744140625,1.8889935456812381,-0.1835775750234723,0.27915158016234637
1772868572309003800,10.950003662109374,1.7985189095079899,-0.16389752671532332,0.27198702229522165
1772868572319070700,10.96007080078125,1.665565898567438,-0.26327552724704145,0.21783340730331838
1772868572329138000,10.970137939453124,1.6440484787642955,-0.21751002056784927,0.13830577014535664
1772868572339203800,10.980203857421875,1.6457359934598206,-0.2297583845052868,0.08021291600838303
1772868572349270800,10.990270751953124,1.5406453874349593,-0.25912929428778586,0.08376330196633934
1772868572359337000,11.0003369140625,1.7098101139634847,-0.14922471210993826,0.0432617071647197
1772868572369404000,11.01040380859375,1.966697547608614,-0.16813143795803187,0.05641366887837648
1772868572379469800,11.0204697265625,1.911567781060934,-0.2560594583883881,0.15108400317579507
1772868572389536800,11.030536865234374,1.7482962042242287,-0.3922458982922137,0.3071297204121947
1772868572399603000,11.04060302734375,1.6526140625357626,-0.7946634273130446,0.5516138918191195
1772868572409670000,11.050669921875,1.266020052525401,-1.0344250271774829,0.8143852689363061
1772868572419735800,11.06073583984375,0.9683008422762155,-1.25708855805099,0.992925580444932
1772868572429803000,11.070802978515625,0.6773042182803154,-1.2930170727834105,1.0638093809634446
1772868572439870000,11.080869873046876,0.3219920662403106,-1.146772399397567,1.0497701880864798
1772868572449936000,11.090935791015625,-0.007267945176362991,-0.9427874847047031,0.9389702645041048
1772868572460002800,11.1010029296875,-0.4618056106001138,-0.7644181458488106,0.755880472997576
1772868572470069000,11.111069091796875,-0.6461801812201738,-0.6845710674781352,0.7197457681685686
1772868572480136000,11.121135986328126,-0.5316489621549845,-0.5475168317638337,0.8044432822450995
1772868572490201900,11.131201904296875,-0.5237643463850021,-0.48525560590103267,0.8285819904625416
1772868572500269000,11.14126904296875,-0.7707084781646728,-0.8270213900823146,0.9029732145801186
1772868572510334700,11.151334716796875,-1.188883621352911,-1.0936773535478859,1.1801632854111492
1772868572520401700,11.161401611328126,-1.6209581105560062,-1.3347181795679033,1.4321869124121964
1772868572530467800,11.1714677734375,-1.8987848718553781,-1.507338014986366,1.5217324510417878
1772868572540534800,11.18153466796875,-2.312544536688924,-1.3131035830006004,1.5952278953634202
1772868572550601700,11.191601806640625,-2.951011951574683,-1.1752975790709257,1.8050960959412157
1772868572560667600,11.201667724609376,-3.4989854410648342,-0.8983419015176594,1.7816119061097502
1772868572570734800,11.21173486328125,-3.5532962924450633,-0.3810518657132983,1.537216289769113
1772868572580800800,11.22180078125,-3.514777468958497,0.10694295589327811,1.276725570935011
1772868572590867700,11.23186767578125,-3.656948390099406,0.4416466196686029,1.067746866542846
1772868572600934000,11.241933837890626,-3.8551889889866113,0.8068089884631335,1.0435616888351738
1772868572611000800,11.252000732421875,-3.8811639727205036,0.9180676155984401,1.2497811576470732
1772868572621066800,11.262066650390626,-3.982667367908358,0.9822291951898485,1.5110999978683888
1772868572631133700,11.2721337890625,-3.9877024394661187,0.983019907176122,1.6238346889056265
1772868572641199900,11.282199951171876,-3.744723119664192,0.9099628542717546,1.5028566317886114
1772868572651266800,11.292266845703125,-3.347700070098042,0.9674049163497984,1.3005993446059525
1772868572661332700,11.302332763671876,-2.724996041533351,0.9856322085663676,1.184683247053623
1772868572671400000,11.31239990234375,-2.123150676602125,1.0683707705948502,1.212794366033375
1772868572681465900,11.3224658203125,-1.619873237928748,0.9994532286480069,1.1313016393475235
1772868572691532800,11.33253271484375,-1.2828706495612858,0.8897779251813888,1.001119919751212
1772868572701599700,11.342599853515624,-1.1736807915240526,0.7306615683279931,0.8831910941369832
1772868572711666000,11.352666015625,-0.8683248027861118,0.6161982999324799,0.7901215460997074
1772868572721732900,11.36273291015625,-0.1134533607006073,0.6981899160511791,0.7575153807230294
1772868572731798800,11.372798828125,0.7083797400236129,0.769052966042608,0.7638047631908208
1772868572741866000,11.382865966796874,1.2218652689784764,0.6746842450402677,0.7864144352100789
1772868572751932000,11.392931884765625,1.575195307290554,0.5598785929478705,0.903881342400983
1772868572761998800,11.402998779296874,1.8441116169035434,0.47724721762090916,1.0189053864844142
1772868572772065000,11.41306494140625,2.084720700442791,0.4684669681854546,0.7064608277250081
1772868572782132000,11.423132080078124,2.535451374799013,0.5460283467717468,0.21427198849469423
1772868572792198000,11.433197998046875,2.993830518081784,0.6170994865559041,0.13456987155266106
1772868572802264800,11.443264892578124,3.25706469040513,0.5376534632667899,0.2275730032902211
1772868572812330800,11.453330810546875,3.4161697952121495,0.38115108830407257,0.24448994356058537
1772868572822398000,11.46339794921875,3.576392505872249,0.35728637472242114,0.3668088208273053
1772868572832465000,11.47346484375,3.5911049218356608,0.3380576503783464,0.3674243223771453
1772868572842530800,11.48353076171875,3.5526042185276743,0.26150691013932226,0.4262126114323735
1772868572852598000,11.493597900390625,3.410786348608136,0.299379106285423,0.31102037117518483
1772868572862663700,11.50366357421875,3.3705782568603753,0.3896833543278277,0.13769596768394113
1772868572872730600,11.513730712890625,3.2374709321409463,0.4013046724081039,0.14659589797630906
1772868572882796800,11.523796875,2.9012779065907,0.34192484720051286,0.21781097627580165
1772868572892863700,11.53386376953125,2.536217682996392,0.2407331483103335,0.2680193607732653
1772868572902929700,11.5439296875,2.2337468943059444,0.2692708221390843,0.21910043156445025
1772868572912996900,11.553996826171876,1.9383020587295292,0.36611309364810585,0.0981869641162455
1772868572923062800,11.564062744140625,1.5458628298223018,0.3829826876454055,0.05138926484510302
1772868572933129700,11.574129638671875,1.0924071144163607,0.4308927320726216,-0.09449994616657495
1772868572943196000,11.58419580078125,0.7380161688745022,0.5522698715098202,-0.26295900864377614
1772868572953262800,11.594262939453126,0.4262696023166179,0.7395794726684689,-0.37145774261169134
1772868572963328800,11.604328857421875,0.2155775181353092,0.7945126937307417,-0.41781873096600175
1772868572973395700,11.614395751953126,0.10600070660710334,0.7076726146675646,-0.37713330403007567
1772868572983463000,11.624462890625,-0.019826397976279258,0.6720845839358865,-0.4080762123696506
1772868572993528800,11.63452880859375,-0.1719505578547716,0.6405683326877654,-0.47825873275101183
1772868573003595800,11.644595703125,-0.4697282202929258,0.5036901111274957,-0.5399934505216777
1772868573013662000,11.654661865234376,-0.7123305234760046,0.3019384353794157,-0.5172184318728744
1772868573023729000,11.66472900390625,-0.9000421295642852,0.1788816722922027,-0.48329102782979605
1772868573033799000,11.674798828125,-1.0002636682480572,0.1537947234392166,-0.28294629627019163
1772868573043865900,11.684865966796876,-1.0181056144088505,-0.026337679566442965,-0.05952668633237481
1772868573053932000,11.69493212890625,-1.1380331395596266,-0.4170147211067378,0.16035700456425547
1772868573063999000,11.7049990234375,-1.4289718958884476,-0.623892946088314,0.3543794012345373
1772868573074065000,11.71506494140625,-1.839755759781599,-0.8069520501956343,0.37028336507007475
1772868573084131800,11.7251318359375,-2.261014255937934,-0.8895309646829962,0.2110442586198449
1772868573094198000,11.735197998046875,-2.8308284058362245,-0.8688220847837627,0.08591858030408621
1772868573104265000,11.745264892578126,-3.506092058199644,-0.809396666868776,0.052890901579707855
1772868573114331000,11.755330810546875,-3.954644803994894,-0.4195459931500256,-0.14911445666849613
1772868573124398000,11.765398193359376,-4.316049427691102,-0.1456098095484078,-0.32407325642853974
1772868573134464000,11.775464111328125,-4.4608787543863055,0.04971212541311979,-0.6265723944306373
1772868573144531000,11.785531005859376,-4.178465249818563,0.348171486505121,-0.923435280111432
1772868573154598000,11.795597900390625,-3.584660568001866,0.6977524014167488,-0.9422007708579301
1772868573164664000,11.8056640625,-3.1810569710016248,0.6988384430877864,-0.6449022702388465
1772868573174731000,11.81573095703125,-3.1821301531910895,0.46483270333632826,-0.09705693717300891
1772868573184797000,11.825796875,-3.138724726706743,0.25536270829588176,0.1801481850966811
1772868573194864000,11.835864013671875,-2.8029858746647833,0.24580212213769553,0.3586306289382279
1772868573204929800,11.8459296875,-2.461383099025488,0.2274861287243664,0.2234309350494295
1772868573214996700,11.855996826171875,-2.0559575472950935,0.17128800229281185,-0.05388312748745083
1772868573225063000,11.86606298828125,-1.68003456890285,0.09539455691874027,-0.2583579445891082
1772868573235129900,11.8761298828125,-1.2308061158031225,0.009225655115395784,-0.4973068398311734
1772868573245195800,11.88619580078125,-0.8179471992015838,0.01864697893336415,-0.6388021997980773
1772868573255263000,11.896262939453125,-0.5414665918141603,0.008077069602161646,-0.7591988768305629
1772868573265329000,11.906328857421874,-0.010526070189476013,-0.0118140641734004,-0.7556614964846521
1772868573275395800,11.916395751953125,0.7615782462477684,0.00891191299110651,-0.6351394395068287
1772868573285462000,11.9264619140625,1.2307429874390363,-0.060575756993889805,-0.5122458310920744
1772868573295529000,11.936529052734375,1.6370236946940422,-0.17605287860706448,-0.4262948098231107
1772868573305595000,11.946594970703124,2.0608909120440484,-0.26297727495282885,-0.4375358964141458
1772868573315661800,11.956661865234375,2.5093010344982147,-0.2602915430001914,-0.41742388642951844
1772868573325728000,11.96672802734375,2.791135862395167,-0.22332301769554613,-0.31032902791015804
1772868573335795000,11.976794921875,2.811660764029622,-0.24034429512321948,-0.15264409209936855
1772868573345860900,11.98686083984375,2.766957698950171,-0.2170033131547272,-0.04457790432982146
1772868573355928000,11.996927978515625,2.777300229266286,-0.05777224388048052,-0.05336436431035399
1772868573365994000,12.006993896484374,2.748748673042655,0.14941767739877104,-0.12168737443014979
1772868573376060000,12.017059814453125,2.5800842972517013,0.27882746277451514,-0.16135865588746964
1772868573386127000,12.027127197265624,2.3262767094433308,0.36957507067024703,-0.20805501367598772
1772868573396193000,12.037193115234375,2.0545938577264544,0.4216403350807726,-0.2724874460980296
1772868573406260000,12.047260009765624,1.9214368486464022,0.4078169769115746,-0.3736826521195471
1772868573416326000,12.057325927734375,1.9159587094962596,0.39288171197772026,-0.41992293670363723
1772868573426393000,12.06739306640625,1.920150315967202,0.36149011002257464,-0.4258035922400653
1772868573436458800,12.077458740234375,1.890791535013914,0.2699197875671088,-0.3874558144714683
1772868573446525700,12.087525634765624,1.7944699263781307,0.16893179455548524,-0.2584645467687398
1772868573456592000,12.097591796875,1.6719021158516405,0.15981602955535054,-0.17355631255097687
1772868573466658800,12.107658935546874,1.479675078165531,0.0951112099327147,-0.17004574714675544
1772868573476724700,12.117724853515625,1.2813789496988057,0.04570493559837341,-0.1355592479161918
1772868573486792000,12.1277919921875,1.1075865633696318,0.058349166985601185,-0.024394582674652335
1772868573496857900,12.13785791015625,0.905268339779973,-0.007757336128503084,0.010849456924945116
1772868573506924800,12.1479248046875,0.7373714412301778,-0.04293021018803119,-0.04230228754803538
1772868573516991000,12.157990966796875,0.6658358988046645,0.03318520737364888,-0.030212767434120175
1772868573527058000,12.168057861328125,0.6480471441358328,0.03521992807164788,-0.010456365954130888
1772868573537123800,12.178123779296875,0.6115706401318312,0.019337007024139166,0.015660437403246758
1772868573547190800,12.188190673828124,0.5280149895668029,-0.07074044652506709,0.06943710884153842
1772868573557257000,12.198257080078125,0.5047323136568069,-0.16439064399451017,0.10548764251843094
1772868573567324000,12.208323974609375,0.5900666643321514,-0.24574630029723046,0.161683869253844
1772868573577390000,12.21839013671875,0.6076911683499813,-0.39752003930285573,0.19447868907041846
1772868573587457000,12.22845703125,0.5113607918858528,-0.5902177632406354,0.25406653100550175
1772868573597523000,12.23852294921875,0.4369733671605587,-0.7017690897122025,0.2883379992458969
1772868573607590000,12.24858984375,0.5052577988356352,-0.7445647137351333,0.41421719934269785
1772868573617656000,12.258656005859375,0.5860854857414961,-0.8817742130763828,0.6745907215379178
1772868573627723000,12.268722900390625,0.38297406594753264,-1.1723917746268213,0.9676911859452724
1772868573637789000,12.278788818359375,-0.05319383004903793,-1.6834611823506653,1.447138982350379
1772868573647855900,12.28885595703125,-0.4321972387999296,-2.0016833746634424,1.7898951658084987
1772868573657923000,12.298923095703126,-0.6832780319929123,-2.2258545336209234,1.8726342392936348
1772868573667989000,12.308989013671875,-1.0039058241426944,-2.335880696351826,1.8248884455174206
1772868573678056000,12.319055908203126,-1.3922031309396028,-2.338543778081238,1.7738459482833742
1772868573688122000,12.3291220703125,-2.144432534083724,-2.1810437703832983,1.7433510029070078
1772868573698189000,12.33918896484375,-2.954270661109686,-1.6896541917718946,1.6270913526140152
1772868573708254700,12.349254638671875,-3.8087072237968442,-1.243507484205067,1.6679164072163402
1772868573718322000,12.359322021484376,-4.9262405961632725,-0.8834316248945892,1.7350293108940122
1772868573728387800,12.369387939453125,-5.532516637018323,-0.49204672734588384,1.5003379269659518
1772868573738454800,12.379454833984376,-5.305112487488985,0.12991305872276424,1.0864072894796728
1772868573748521000,12.38952099609375,-4.6637341535925865,0.5529356419421733,0.5305539699925109
1772868573758588000,12.399587890625,-4.235598757404088,0.5691733677767217,0.0971570913455449
1772868573768653800,12.40965380859375,-3.867876621124148,0.8152173358462751,-0.21612987305475398
1772868573778720800,12.419720703125,-3.3402748885333535,0.9498384261295199,-0.3556984114112332
1772868573788787000,12.429786865234375,-3.150763539546728,0.6701075847744942,-0.448461268119514
1772868573798854000,12.43985400390625,-2.992807020252943,0.3277567672468722,-0.4611540148235857
1772868573808919800,12.449919921875,-2.56760943108201,0.19305618198662994,-0.5264614034492522
1772868573818987000,12.459987060546876,-2.2594816395431754,0.2384419686332345,-0.6537821075912564
1772868573829053000,12.470052978515625,-1.844177667877078,0.41303851095214483,-0.703993926154822
1772868573839120000,12.480119873046876,-0.9495008647382259,0.7037177395619452,-0.7764629500381648
1772868573849186000,12.49018603515625,0.11559972507953643,0.8449494801566004,-0.8516660750605165
1772868573859253000,12.5002529296875,0.9289549203157424,0.8927217235483229,-0.7768797141455114
1772868573869319000,12.51031884765625,1.5774100607305763,0.7723185437098145,-0.61246094003506
1772868573879385900,12.5203857421875,1.970802060317993,0.5771423008292913,-0.4627160765085369
1772868573889452000,12.5304521484375,2.265047456976771,0.39255788685083387,-0.3893363675210625
1772868573899519000,12.54051904296875,2.854411525997519,0.2788648721754551,-0.2847142375244759
1772868573909585000,12.5505849609375,3.299619053018093,0.17746873675435781,-0.17482017674064262
1772868573919652000,12.560652099609374,3.5684716497451063,0.11634338305369019,-0.06477219490357675
1772868573929718000,12.570718017578125,3.778276429697871,0.12607903351783753,0.09335998235121369
1772868573939785000,12.580784912109374,3.802704768511653,0.11142390069961547,0.2157617521284148
1772868573949851100,12.59085107421875,3.759847039037943,0.1711445021688938,0.22597592509081585
1772868573959918000,12.60091796875,3.6630876235067844,0.29383740037977696,0.3086197763068601
1772868573969983700,12.610983642578125,3.253230811330676,0.27062808196693655,0.35412199240736664
1772868573980050700,12.62105078125,2.8104227466672658,0.1421136379957199,0.3172595212930813
1772868573990116900,12.631116943359375,2.603020351681113,0.13243658585101364,0.2595109505491331
1772868574000185000,12.64118505859375,2.4983622918546198,0.15665741939395667,0.26448766124946993
1772868574010250800,12.651250732421875,2.290494032922387,0.052364101226627824,0.25375351953357456
1772868574020318000,12.66131787109375,1.9383464823931456,0.01716974598765373,0.3615296748479828
1772868574030383900,12.6713837890625,1.660506277090311,-0.045185003377497195,0.5554091193836183
