time,seconds_elapsed,z,y,x
1772790124677895400,0.0688955078125,-0.9134063720703125,-0.3857574462890625,0.1719512939453125
1772790124687961300,0.07896142578125,-0.9180450439453125,-0.387359619140625,0.1684722900390625
1772790124698027300,0.08902734375,-0.9159088134765625,-0.3905792236328125,0.1674652099609375
1772790124708093400,0.099093505859375,-0.9052886962890625,-0.3911895751953125,0.16217041015625
1772790124718159400,0.109159423828125,-0.900238037109375,-0.3913726806640625,0.1502685546875
1772790124728225500,0.1192255859375,-0.9008636474609375,-0.3954315185546875,0.1414947509765625
1772790124738291200,0.129291259765625,-0.902191162109375,-0.3995361328125,0.137115478515625
1772790124748357400,0.139357421875,-0.896820068359375,-0.4019927978515625,0.1267242431640625
1772790124758423300,0.14942333984375,-0.8896484375,-0.408050537109375,0.1173858642578125
1772790124768489500,0.159489501953125,-0.88958740234375,-0.4143218994140625,0.1117706298828125
1772790124778555400,0.169555419921875,-0.8984832763671875,-0.4222259521484375,0.1087646484375
1772790124788621300,0.179621337890625,-0.9065093994140625,-0.4263916015625,0.1025390625
1772790124798687500,0.1896875,-0.9040069580078125,-0.4309234619140625,0.0950775146484375
1772790124808753400,0.19975341796875,-0.900360107421875,-0.435638427734375,0.0836334228515625
1772790124818819300,0.2098193359375,-0.897918701171875,-0.4412384033203125,0.0745086669921875
1772790124828885200,0.21988525390625,-0.9061126708984375,-0.4371185302734375,0.0730133056640625
1772790124838951400,0.229951416015625,-0.912933349609375,-0.4365997314453125,0.0699005126953125
1772790124849017300,0.240017333984375,-0.9031829833984375,-0.445098876953125,0.0649566650390625
1772790124859083500,0.25008349609375,-0.8978271484375,-0.4468231201171875,0.0633392333984375
1772790124869149400,0.2601494140625,-0.89971923828125,-0.4479827880859375,0.0652618408203125
1772790124879215400,0.27021533203125,-0.9033050537109375,-0.450439453125,0.07366943359375
1772790124889282000,0.280281982421875,-0.9058380126953125,-0.45562744140625,0.082000732421875
1772790124899348000,0.290347900390625,-0.9040374755859375,-0.4615478515625,0.0831298828125
1772790124909414100,0.3004140625,-0.898956298828125,-0.466156005859375,0.082855224609375
1772790124919480000,0.31047998046875,-0.9026336669921875,-0.469696044921875,0.0906219482421875
1772790124929546200,0.320546142578125,-0.9171905517578125,-0.4664154052734375,0.094024658203125
1772790124939612200,0.330612060546875,-0.9278717041015625,-0.462554931640625,0.09527587890625
1772790124949678000,0.340677978515625,-0.928955078125,-0.4586639404296875,0.09356689453125
1772790124959744000,0.350743896484375,-0.9229736328125,-0.444183349609375,0.088653564453125
1772790124969810000,0.360809814453125,-0.9197845458984375,-0.4287261962890625,0.075408935546875
1772790124979876000,0.3708759765625,-0.9267730712890625,-0.4205169677734375,0.066864013671875
1772790124989942000,0.38094189453125,-0.9351348876953125,-0.422332763671875,0.0682373046875
1772790125000008200,0.39100830078125,-0.9349212646484375,-0.424072265625,0.0665130615234375
1772790125010074000,0.40107421875,-0.9361572265625,-0.4191436767578125,0.0634307861328125
1772790125020140300,0.411140380859375,-0.9427947998046875,-0.41375732421875,0.0553741455078125
1772790125030206200,0.421206298828125,-0.9507293701171875,-0.4057159423828125,0.0494232177734375
1772790125040272000,0.43127197265625,-0.95166015625,-0.3945159912109375,0.0434417724609375
1772790125050338000,0.441338134765625,-0.95611572265625,-0.3876495361328125,0.0308990478515625
1772790125060404000,0.451404052734375,-0.95587158203125,-0.3783111572265625,0.027740478515625
1772790125070470100,0.46147021484375,-0.955963134765625,-0.364837646484375,0.02630615234375
1772790125080536000,0.4715361328125,-0.9503173828125,-0.3529815673828125,0.0175018310546875
1772790125090601200,0.481601318359375,-0.9442596435546875,-0.3414154052734375,0.0034027099609375
1772790125100668200,0.491668212890625,-0.94287109375,-0.335906982421875,-0.011199951171875
1772790125110734000,0.501734130859375,-0.9410858154296875,-0.3372955322265625,-0.0279388427734375
1772790125120799000,0.511799072265625,-0.9270172119140625,-0.3405609130859375,-0.0419769287109375
1772790125130865200,0.521865234375,-0.920562744140625,-0.3505859375,-0.0526885986328125
1772790125140931000,0.53193115234375,-0.9192657470703125,-0.3560638427734375,-0.050048828125
1772790125150997200,0.541997314453125,-0.915008544921875,-0.3600616455078125,-0.050689697265625
1772790125161063200,0.552063232421875,-0.912872314453125,-0.3603057861328125,-0.0589599609375
1772790125171129000,0.562129150390625,-0.91387939453125,-0.358306884765625,-0.06048583984375
1772790125181195000,0.572195068359375,-0.91571044921875,-0.361328125,-0.0591583251953125
1772790125191261000,0.582260986328125,-0.91131591796875,-0.36895751953125,-0.050201416015625
1772790125201327000,0.5923271484375,-0.8986663818359375,-0.370269775390625,-0.0403900146484375
1772790125211393000,0.60239306640625,-0.8849945068359375,-0.3700714111328125,-0.0341949462890625
1772790125221459200,0.612459228515625,-0.8788299560546875,-0.3679046630859375,-0.03875732421875
1772790125231525000,0.622525146484375,-0.874908447265625,-0.362701416015625,-0.0394744873046875
1772790125241591000,0.632591064453125,-0.8790283203125,-0.3613128662109375,-0.0311126708984375
1772790125251657000,0.642656982421875,-0.8910064697265625,-0.3604583740234375,-0.020477294921875
1772790125261723100,0.65272314453125,-0.88775634765625,-0.3527374267578125,-0.0144195556640625
1772790125271789000,0.6627890625,-0.8766937255859375,-0.348175048828125,-0.00738525390625
1772790125281855200,0.672855224609375,-0.8644256591796875,-0.3429107666015625,-0.00408935546875
1772790125291921200,0.682921142578125,-0.84942626953125,-0.3333740234375,0.000946044921875
1772790125301987000,0.692987060546875,-0.8441925048828125,-0.3319854736328125,0.014984130859375
1772790125312053200,0.70305322265625,-0.854278564453125,-0.337921142578125,0.0283203125
1772790125322119000,0.713118896484375,-0.8731689453125,-0.3442535400390625,0.0360870361328125
1772790125332185000,0.72318505859375,-0.879669189453125,-0.34405517578125,0.0408782958984375
1772790125342251000,0.7332509765625,-0.8647918701171875,-0.342864990234375,0.05010986328125
1772790125352317200,0.743317138671875,-0.8638763427734375,-0.34814453125,0.0635833740234375
1772790125362383000,0.753383056640625,-0.87335205078125,-0.35540771484375,0.0765533447265625
1772790125372449300,0.76344921875,-0.868255615234375,-0.3596038818359375,0.0884246826171875
1772790125382515200,0.77351513671875,-0.8715667724609375,-0.367828369140625,0.0985565185546875
1772790125392580900,0.783580810546875,-0.8895721435546875,-0.3739013671875,0.10491943359375
1772790125402647000,0.79364697265625,-0.9072265625,-0.376861572265625,0.1102294921875
1772790125412713000,0.803712890625,-0.9197845458984375,-0.3752593994140625,0.10595703125
1772790125422779100,0.813779052734375,-0.917144775390625,-0.3671875,0.10662841796875
1772790125432845000,0.823844970703125,-0.92095947265625,-0.3616790771484375,0.10546875
1772790125442911200,0.8339111328125,-0.9303741455078125,-0.3484039306640625,0.084869384765625
1772790125452977200,0.84397705078125,-0.9312744140625,-0.3381805419921875,0.0778656005859375
1772790125463043000,0.85404296875,-0.952667236328125,-0.337554931640625,0.0778350830078125
1772790125473109000,0.86410888671875,-0.969940185546875,-0.3382415771484375,0.08160400390625
1772790125483175000,0.8741748046875,-0.9722137451171875,-0.3349761962890625,0.0800628662109375
1772790125493241000,0.884240966796875,-0.962249755859375,-0.3265838623046875,0.070953369140625
1772790125503307000,0.89430712890625,-0.9497528076171875,-0.3212890625,0.062774658203125
1772790125513373200,0.904373291015625,-0.9488525390625,-0.3196563720703125,0.0630950927734375
1772790125523439000,0.914439208984375,-0.961090087890625,-0.3280029296875,0.0665435791015625
1772790125533505300,0.92450537109375,-0.9730072021484375,-0.3353424072265625,0.066162109375
1772790125543571000,0.934571044921875,-0.9695281982421875,-0.3397979736328125,0.0627899169921875
1772790125553637000,0.94463720703125,-0.957000732421875,-0.34295654296875,0.0566864013671875
1772790125563703000,0.954703125,-0.951995849609375,-0.3452911376953125,0.0521087646484375
1772790125573769200,0.964769287109375,-0.954345703125,-0.3507080078125,0.0480194091796875
1772790125583835100,0.974835205078125,-0.9556427001953125,-0.3520050048828125,0.047943115234375
1772790125593901000,0.984901123046875,-0.95074462890625,-0.35455322265625,0.0426788330078125
1772790125603967200,0.99496728515625,-0.9486236572265625,-0.3562774658203125,0.037109375
1772790125614033000,1.005032958984375,-0.9529876708984375,-0.358367919921875,0.03265380859375
1772790125624099000,1.01509912109375,-0.9528045654296875,-0.3597259521484375,0.0264434814453125
1772790125634165000,1.0251650390625,-0.94390869140625,-0.357513427734375,0.021453857421875
1772790125644231200,1.035231201171875,-0.9365692138671875,-0.35888671875,0.0213775634765625
1772790125654297000,1.045297119140625,-0.9410552978515625,-0.362213134765625,0.02435302734375
1772790125664363300,1.05536328125,-0.9513702392578125,-0.3631134033203125,0.0247344970703125
1772790125674429200,1.06542919921875,-0.9552764892578125,-0.3644561767578125,0.022186279296875
1772790125684494800,1.075494873046875,-0.9627838134765625,-0.36785888671875,0.0253143310546875
1772790125694561000,1.08556103515625,-0.97418212890625,-0.3678436279296875,0.029022216796875
1772790125704627000,1.095626953125,-0.982086181640625,-0.365966796875,0.0306396484375
1772790125714692000,1.105692138671875,-0.9806365966796875,-0.3637237548828125,0.029052734375
1772790125724758300,1.11575830078125,-0.985595703125,-0.3652801513671875,0.0264739990234375
1772790125734824200,1.12582421875,-1.003326416015625,-0.3683013916015625,0.0333251953125
1772790125744889900,1.135889892578125,-1.0325927734375,-0.37738037109375,0.0383148193359375
1772790125754956000,1.1459560546875,-1.06072998046875,-0.3805999755859375,0.0423431396484375
1772790125765022000,1.15602197265625,-1.0762786865234375,-0.3835296630859375,0.0489044189453125
1772790125775088000,1.166088134765625,-1.0836944580078125,-0.38873291015625,0.05133056640625
1772790125785154000,1.176154052734375,-1.0931396484375,-0.394561767578125,0.0522003173828125
1772790125795220200,1.18622021484375,-1.10919189453125,-0.39703369140625,0.0606231689453125
1772790125805286100,1.1962861328125,-1.1519012451171875,-0.3936004638671875,0.0713348388671875
1772790125815352300,1.206352294921875,-1.2003173828125,-0.3726654052734375,0.0718994140625
1772790125825418000,1.21641796875,-1.2391204833984375,-0.3451080322265625,0.0706024169921875
1772790125835484000,1.22648388671875,-1.2657623291015625,-0.3158416748046875,0.05755615234375
1772790125845550000,1.236550048828125,-1.2562408447265625,-0.275146484375,0.0424957275390625
1772790125855616000,1.246615966796875,-1.227691650390625,-0.2291107177734375,0.0309295654296875
1772790125865682200,1.25668212890625,-1.1925201416015625,-0.1973114013671875,0.027130126953125
1772790125875748000,1.266748046875,-1.147369384765625,-0.184173583984375,0.0115203857421875
1772790125885814300,1.276814208984375,-1.094146728515625,-0.160675048828125,-0.00531005859375
1772790125895883500,1.286883544921875,-1.042694091796875,-0.14349365234375,-0.0146942138671875
1772790125905949700,1.29694970703125,-1.00787353515625,-0.1531524658203125,-0.00567626953125
1772790125916015600,1.307015625,-1.0115966796875,-0.1708831787109375,0.016632080078125
1772790125926081500,1.31708154296875,-1.0080718994140625,-0.189971923828125,0.039337158203125
1772790125936147700,1.327147705078125,-0.9827117919921875,-0.210418701171875,0.0617523193359375
1772790125946213400,1.33721337890625,-0.9510650634765625,-0.22015380859375,0.076507568359375
1772790125956279600,1.347279541015625,-0.9179534912109375,-0.22259521484375,0.0849761962890625
1772790125966345500,1.357345458984375,-0.8846435546875,-0.225311279296875,0.0958709716796875
1772790125976411600,1.36741162109375,-0.8791961669921875,-0.227752685546875,0.1074066162109375
1772790125986477600,1.3774775390625,-0.87969970703125,-0.2286834716796875,0.1158905029296875
1772790125996543700,1.387543701171875,-0.86981201171875,-0.228118896484375,0.1236114501953125
1772790126006609700,1.397609619140625,-0.859375,-0.22320556640625,0.130340576171875
1772790126016675600,1.407675537109375,-0.86016845703125,-0.2188262939453125,0.1344451904296875
1772790126026741500,1.417741455078125,-0.8651275634765625,-0.2191009521484375,0.1357879638671875
1772790126036807400,1.427807373046875,-0.8759613037109375,-0.220489501953125,0.1364593505859375
1772790126046873600,1.43787353515625,-0.88531494140625,-0.21954345703125,0.1423492431640625
1772790126056939500,1.447939453125,-0.89898681640625,-0.2245635986328125,0.14984130859375
1772790126067005700,1.458005615234375,-0.92010498046875,-0.2282867431640625,0.149566650390625
1772790126077071600,1.468071533203125,-0.936553955078125,-0.2242279052734375,0.142822265625
1772790126087137800,1.4781376953125,-0.94940185546875,-0.21478271484375,0.1315155029296875
1772790126097203500,1.488203369140625,-0.9651641845703125,-0.202667236328125,0.1250762939453125
1772790126107269600,1.49826953125,-0.990142822265625,-0.1959686279296875,0.121490478515625
1772790126117335600,1.50833544921875,-1.0087738037109375,-0.1892852783203125,0.1167755126953125
1772790126127401500,1.5184013671875,-1.0100860595703125,-0.1790008544921875,0.107177734375
1772790126137467600,1.528467529296875,-0.98907470703125,-0.169464111328125,0.0958251953125
1772790126147533600,1.538533447265625,-0.96063232421875,-0.1617279052734375,0.0840911865234375
1772790126157599700,1.548599853515625,-0.941558837890625,-0.1580047607421875,0.074493408203125
1772790126167665400,1.55866552734375,-0.9346923828125,-0.16668701171875,0.07611083984375
1772790126177731600,1.568731689453125,-0.93408203125,-0.1840972900390625,0.0841064453125
1772790126187797500,1.578797607421875,-0.930633544921875,-0.2061309814453125,0.0933074951171875
1772790126197863700,1.58886376953125,-0.9201812744140625,-0.225341796875,0.0944366455078125
1772790126207928600,1.598928466796875,-0.893829345703125,-0.2424468994140625,0.101226806640625
1772790126217994800,1.608994873046875,-0.8778533935546875,-0.2584686279296875,0.1102294921875
1772790126228060400,1.619060302734375,-0.870880126953125,-0.269805908203125,0.1136322021484375
1772790126238126600,1.629126708984375,-0.8691558837890625,-0.2841949462890625,0.118194580078125
1772790126248192500,1.639192626953125,-0.875885009765625,-0.2946014404296875,0.121551513671875
1772790126258258700,1.6492587890625,-0.88226318359375,-0.29876708984375,0.11737060546875
1772790126268324600,1.65932470703125,-0.874298095703125,-0.299468994140625,0.1173095703125
1772790126278390500,1.669390625,-0.8798370361328125,-0.305084228515625,0.1168060302734375
1772790126288456700,1.679456787109375,-0.8853759765625,-0.2975616455078125,0.1136627197265625
1772790126298522400,1.6895224609375,-0.879608154296875,-0.2959747314453125,0.1043701171875
1772790126308588500,1.699588623046875,-0.8832855224609375,-0.2993011474609375,0.0928802490234375
1772790126318654500,1.709654541015625,-0.8974761962890625,-0.3046417236328125,0.0842742919921875
1772790126328720600,1.719720703125,-0.9071807861328125,-0.31207275390625,0.0776824951171875
1772790126338786600,1.72978662109375,-0.9178009033203125,-0.3179473876953125,0.0762481689453125
1772790126348852700,1.739852783203125,-0.934417724609375,-0.321319580078125,0.0723114013671875
1772790126358918700,1.749918701171875,-0.9454498291015625,-0.32476806640625,0.069183349609375
1772790126368984600,1.759984619140625,-0.9535064697265625,-0.3266448974609375,0.0689239501953125
1772790126379050500,1.770050537109375,-0.9587554931640625,-0.3260498046875,0.0739288330078125
1772790126389116400,1.780116455078125,-0.9602508544921875,-0.3240966796875,0.081024169921875
1772790126399182600,1.7901826171875,-0.9588470458984375,-0.3232421875,0.0853118896484375
1772790126409248500,1.80024853515625,-0.9565887451171875,-0.3244171142578125,0.089385986328125
1772790126419314700,1.810314697265625,-0.9485626220703125,-0.325439453125,0.0953826904296875
1772790126429380600,1.820380615234375,-0.940765380859375,-0.326629638671875,0.10211181640625
1772790126439446800,1.83044677734375,-0.9411773681640625,-0.3310089111328125,0.1099700927734375
1772790126449512400,1.840512451171875,-0.947998046875,-0.335174560546875,0.11932373046875
1772790126459578600,1.85057861328125,-0.958099365234375,-0.340545654296875,0.1287384033203125
1772790126469644500,1.86064453125,-0.958984375,-0.342742919921875,0.1378173828125
1772790126479710500,1.87071044921875,-0.957733154296875,-0.345458984375,0.1507110595703125
1772790126489776600,1.880776611328125,-0.9623260498046875,-0.353546142578125,0.1623992919921875
1772790126499842600,1.890842529296875,-0.969970703125,-0.357421875,0.16729736328125
1772790126509908700,1.90090869140625,-0.97906494140625,-0.35986328125,0.17608642578125
1772790126519974400,1.910974365234375,-0.999969482421875,-0.364837646484375,0.1858978271484375
1772790126530040600,1.92104052734375,-1.0290985107421875,-0.3726959228515625,0.1984100341796875
1772790126540106500,1.9311064453125,-1.0536346435546875,-0.3814697265625,0.2066802978515625
1772790126550172700,1.941172607421875,-1.0677337646484375,-0.380767822265625,0.2018280029296875
1772790126560238600,1.951238525390625,-1.06298828125,-0.377593994140625,0.2063446044921875
1772790126570304500,1.961304443359375,-1.0798797607421875,-0.377166748046875,0.205963134765625
1772790126580370700,1.97137060546875,-1.1175537109375,-0.370513916015625,0.2072906494140625
1772790126590436600,1.9814365234375,-1.15374755859375,-0.3531646728515625,0.2056121826171875
1772790126600502500,1.99150244140625,-1.1924896240234375,-0.326629638671875,0.1913604736328125
1772790126610568400,2.001568359375,-1.2134857177734375,-0.2935943603515625,0.1754913330078125
1772790126620634600,2.011634521484375,-1.224884033203125,-0.261627197265625,0.1546783447265625
1772790126630700500,2.021700439453125,-1.2326507568359375,-0.2264251708984375,0.1421966552734375
1772790126640765700,2.031765625,-1.2211151123046875,-0.1995391845703125,0.1272735595703125
1772790126650831600,2.04183154296875,-1.1979522705078125,-0.170684814453125,0.1131439208984375
1772790126660897500,2.0518974609375,-1.1696319580078125,-0.146209716796875,0.086090087890625
1772790126670963500,2.06196337890625,-1.1396026611328125,-0.1284027099609375,0.061492919921875
1772790126681029600,2.072029541015625,-1.1135406494140625,-0.1129913330078125,0.050537109375
1772790126691095600,2.082095458984375,-1.10321044921875,-0.11444091796875,0.047210693359375
1772790126701161700,2.09216162109375,-1.099822998046875,-0.1212158203125,0.046234130859375
1772790126711227600,2.1022275390625,-1.0813140869140625,-0.125885009765625,0.03643798828125
1772790126721293600,2.11229345703125,-1.0416259765625,-0.130950927734375,0.023773193359375
1772790126731359500,2.122359375,-1.0052642822265625,-0.13739013671875,0.0146026611328125
1772790126741425400,2.13242529296875,-0.98101806640625,-0.1392059326171875,-0.001220703125
1772790126751491600,2.14249169921875,-0.946624755859375,-0.134124755859375,-0.0122528076171875
1772790126761557500,2.1525576171875,-0.9123382568359375,-0.13916015625,-0.02044677734375
1772790126771623700,2.162623779296875,-0.89306640625,-0.148406982421875,-0.0205078125
1772790126781689600,2.172689697265625,-0.880889892578125,-0.1555938720703125,-0.019927978515625
1772790126791755800,2.182755859375,-0.864776611328125,-0.161376953125,-0.023895263671875
1772790126801821400,2.192821533203125,-0.854644775390625,-0.170257568359375,-0.0314483642578125
1772790126811887600,2.2028876953125,-0.85369873046875,-0.18621826171875,-0.0395050048828125
1772790126821953500,2.21295361328125,-0.852783203125,-0.19549560546875,-0.0366668701171875
1772790126832019500,2.22301953125,-0.850799560546875,-0.2025299072265625,-0.029083251953125
1772790126842085600,2.233085693359375,-0.849273681640625,-0.21026611328125,-0.021484375
1772790126852151600,2.243151611328125,-0.85382080078125,-0.2154998779296875,-0.0125274658203125
1772790126862217700,2.2532177734375,-0.85833740234375,-0.2177734375,-0.009185791015625
1772790126872283600,2.26328369140625,-0.8564605712890625,-0.216705322265625,-0.006103515625
1772790126882349600,2.273349609375,-0.851470947265625,-0.214935302734375,-0.0047454833984375
1772790126892411600,2.28341162109375,-0.8522186279296875,-0.21319580078125,-0.005950927734375
1772790126902477800,2.293477783203125,-0.8486328125,-0.209686279296875,-0.0002899169921875
1772790126912543500,2.30354345703125,-0.8387298583984375,-0.2117767333984375,0.00799560546875
1772790126922609700,2.313609619140625,-0.8361663818359375,-0.219879150390625,0.0178680419921875
1772790126932675600,2.323675537109375,-0.8419952392578125,-0.2306060791015625,0.0272369384765625
1772790126942741800,2.33374169921875,-0.8442535400390625,-0.23919677734375,0.0346832275390625
1772790126952807700,2.3438076171875,-0.84942626953125,-0.2550201416015625,0.04241943359375
1772790126962873600,2.35387353515625,-0.8600921630859375,-0.2707366943359375,0.048187255859375
1772790126972939800,2.363939697265625,-0.86480712890625,-0.27874755859375,0.0518798828125
1772790126983005400,2.37400537109375,-0.8624267578125,-0.2865753173828125,0.058563232421875
1772790126993070600,2.384070556640625,-0.868988037109375,-0.2958831787109375,0.0694427490234375
1772790127003136500,2.394136474609375,-0.8895263671875,-0.3032073974609375,0.073944091796875
1772790127013202700,2.40420263671875,-0.9029541015625,-0.305908203125,0.0722808837890625
1772790127023268600,2.4142685546875,-0.907135009765625,-0.3046722412109375,0.0715789794921875
1772790127033334800,2.424334716796875,-0.918426513671875,-0.302947998046875,0.0690765380859375
1772790127043400400,2.434400390625,-0.92523193359375,-0.300445556640625,0.071075439453125
1772790127053466600,2.444466552734375,-0.93701171875,-0.2958984375,0.0703887939453125
1772790127063532500,2.454532470703125,-0.9539794921875,-0.2895050048828125,0.0620269775390625
1772790127073598700,2.4645986328125,-0.969940185546875,-0.2864227294921875,0.055572509765625
1772790127083664600,2.47466455078125,-0.983001708984375,-0.2798614501953125,0.0489501953125
1772790127093730800,2.484730712890625,-0.9857025146484375,-0.271759033203125,0.0419921875
1772790127103796700,2.494796630859375,-0.98809814453125,-0.2691650390625,0.0375823974609375
1772790127113862400,2.5048623046875,-0.987213134765625,-0.2671661376953125,0.0362548828125
1772790127123928600,2.514928466796875,-0.98162841796875,-0.268890380859375,0.0367889404296875
1772790127133994500,2.524994384765625,-0.98004150390625,-0.274322509765625,0.0371246337890625
1772790127144060700,2.535060791015625,-0.9871826171875,-0.2808990478515625,0.0465850830078125
1772790127154126600,2.545126708984375,-0.99822998046875,-0.2926483154296875,0.0573577880859375
1772790127164192800,2.55519287109375,-1.002471923828125,-0.3032989501953125,0.0645599365234375
1772790127174258700,2.5652587890625,-0.9925537109375,-0.30682373046875,0.067047119140625
1772790127184324900,2.575324951171875,-0.9835205078125,-0.3054962158203125,0.0683441162109375
1772790127194390500,2.585390625,-0.97882080078125,-0.3054046630859375,0.0721282958984375
1772790127204456400,2.59545654296875,-0.9866180419921875,-0.30780029296875,0.0742645263671875
1772790127214522600,2.605522705078125,-0.998016357421875,-0.3092193603515625,0.0731353759765625
1772790127224588500,2.615588623046875,-1.0022735595703125,-0.3063812255859375,0.0872650146484375
1772790127234654700,2.62565478515625,-1.0193634033203125,-0.3033447265625,0.093505859375
1772790127244720600,2.635720703125,-1.0363616943359375,-0.299285888671875,0.08612060546875
1772790127254786800,2.645786865234375,-1.0345611572265625,-0.28704833984375,0.08160400390625
1772790127264852500,2.6558525390625,-1.0351104736328125,-0.278564453125,0.07806396484375
1772790127274918700,2.665918701171875,-1.05157470703125,-0.2750701904296875,0.0812835693359375
1772790127284984600,2.675984619140625,-1.0731658935546875,-0.2727813720703125,0.0856781005859375
1772790127295050500,2.686050537109375,-1.086273193359375,-0.270782470703125,0.0807342529296875
1772790127305115600,2.69611572265625,-1.090576171875,-0.2667083740234375,0.0724334716796875
1772790127315181800,2.706181884765625,-1.0963134765625,-0.264190673828125,0.0679473876953125
1772790127325247500,2.71624755859375,-1.1117706298828125,-0.26239013671875,0.066741943359375
1772790127335313700,2.726313720703125,-1.134307861328125,-0.266815185546875,0.071533203125
1772790127345379600,2.736379638671875,-1.151763916015625,-0.2781219482421875,0.0782623291015625
1772790127355445500,2.746445556640625,-1.1591796875,-0.28533935546875,0.078765869140625
1772790127365511700,2.75651171875,-1.15716552734375,-0.28619384765625,0.083953857421875
1772790127375577600,2.76657763671875,-1.172119140625,-0.28533935546875,0.0817718505859375
1772790127385643800,2.776643798828125,-1.1813507080078125,-0.2776947021484375,0.0838165283203125
1772790127395709400,2.78670947265625,-1.183685302734375,-0.260345458984375,0.075927734375
1772790127405775600,2.796775634765625,-1.17877197265625,-0.245574951171875,0.0636749267578125
1772790127415841500,2.806841552734375,-1.1731719970703125,-0.2290802001953125,0.0574951171875
1772790127425907700,2.81690771484375,-1.16888427734375,-0.207305908203125,0.04852294921875
1772790127435973600,2.8269736328125,-1.169891357421875,-0.189208984375,0.0402069091796875
1772790127446039600,2.83703955078125,-1.1723785400390625,-0.1746673583984375,0.0268707275390625
1772790127456105700,2.847105712890625,-1.1572265625,-0.1577301025390625,0.01214599609375
1772790127466171600,2.857171630859375,-1.1197357177734375,-0.139404296875,-0.0043182373046875
1772790127476237600,2.867237548828125,-1.072296142578125,-0.1256866455078125,-0.017181396484375
1772790127486303500,2.877303466796875,-1.0286407470703125,-0.121429443359375,-0.02496337890625
1772790127496369700,2.88736962890625,-0.99249267578125,-0.1212310791015625,-0.0281219482421875
1772790127506435600,2.897435546875,-0.964630126953125,-0.123687744140625,-0.023345947265625
1772790127516501800,2.907501708984375,-0.944732666015625,-0.1297149658203125,-0.018157958984375
1772790127526567700,2.917567626953125,-0.931396484375,-0.1383056640625,-0.013519287109375
1772790127536633900,2.9276337890625,-0.917449951171875,-0.1411895751953125,-0.01776123046875
1772790127546699500,2.937699462890625,-0.87841796875,-0.1325225830078125,-0.018218994140625
1772790127556765400,2.947765380859375,-0.85009765625,-0.1352996826171875,-0.0106201171875
1772790127566831600,2.95783154296875,-0.8475189208984375,-0.1462249755859375,-0.0059814453125
1772790127576897500,2.9678974609375,-0.850067138671875,-0.1497802734375,0.0027618408203125
1772790127586962700,2.977962646484375,-0.8545379638671875,-0.1597137451171875,0.0101470947265625
1772790127597028600,2.988028564453125,-0.85418701171875,-0.168182373046875,0.0123291015625
1772790127607094500,2.998094482421875,-0.8519439697265625,-0.1747894287109375,0.0196380615234375
1772790127617160400,3.008160400390625,-0.858795166015625,-0.184112548828125,0.02239990234375
1772790127627226600,3.0182265625,-0.878021240234375,-0.1945953369140625,0.0303497314453125
1772790127637292500,3.02829248046875,-0.905426025390625,-0.207427978515625,0.0402984619140625
1772790127647358700,3.038358642578125,-0.92840576171875,-0.2150421142578125,0.04522705078125
1772790127657424600,3.048424560546875,-0.9445648193359375,-0.2123565673828125,0.0460205078125
1772790127667490800,3.05849072265625,-0.9661865234375,-0.2021026611328125,0.04681396484375
1772790127677556500,3.068556396484375,-0.9976043701171875,-0.1873626708984375,0.0402374267578125
1772790127687622700,3.07862255859375,-1.0198822021484375,-0.17315673828125,0.0352783203125
1772790127697688600,3.0886884765625,-1.0360565185546875,-0.1687164306640625,0.0358123779296875
1772790127707754500,3.09875439453125,-1.0413970947265625,-0.1587677001953125,0.034088134765625
1772790127717820700,3.108820556640625,-1.0333251953125,-0.1468963623046875,0.0252532958984375
1772790127727886600,3.118886474609375,-1.0064239501953125,-0.139556884765625,0.0171051025390625
1772790127737952800,3.128952880859375,-0.973876953125,-0.138641357421875,0.0160675048828125
1772790127748018700,3.139018798828125,-0.9528961181640625,-0.1537322998046875,0.02410888671875
1772790127758084600,3.149084716796875,-0.9501190185546875,-0.182525634765625,0.047393798828125
1772790127768150500,3.159150634765625,-0.9607696533203125,-0.217132568359375,0.0687408447265625
1772790127778216700,3.169216796875,-0.9622344970703125,-0.2498321533203125,0.082183837890625
1772790127788282600,3.17928271484375,-0.942138671875,-0.2766876220703125,0.1015167236328125
1772790127798348500,3.1893486328125,-0.93499755859375,-0.2914581298828125,0.1158905029296875
1772790127808414700,3.199414794921875,-0.9287261962890625,-0.29571533203125,0.125335693359375
1772790127818480600,3.209480712890625,-0.9175262451171875,-0.297271728515625,0.1280364990234375
1772790127828546600,3.219546630859375,-0.90093994140625,-0.292938232421875,0.1279449462890625
1772790127838612500,3.229612548828125,-0.889251708984375,-0.28521728515625,0.126068115234375
1772790127848678700,3.2396787109375,-0.896820068359375,-0.28582763671875,0.1252593994140625
1772790127858743600,3.24974365234375,-0.9111175537109375,-0.289093017578125,0.1258697509765625
1772790127868809700,3.259809814453125,-0.9137725830078125,-0.291351318359375,0.12841796875
1772790127878875600,3.269875732421875,-0.9145965576171875,-0.2928466796875,0.1281585693359375
1772790127888941600,3.279941650390625,-0.9240570068359375,-0.2962188720703125,0.124725341796875
1772790127899013400,3.290013427734375,-0.92657470703125,-0.299041748046875,0.1271514892578125
1772790127909079300,3.300079345703125,-0.9235382080078125,-0.3074493408203125,0.1252288818359375
1772790127919145200,3.310145263671875,-0.9189910888671875,-0.313629150390625,0.128753662109375
1772790127929211100,3.320211181640625,-0.9124298095703125,-0.32025146484375,0.1375732421875
1772790127939277000,3.330277099609375,-0.9086456298828125,-0.3276214599609375,0.141754150390625
1772790127949343200,3.34034326171875,-0.90081787109375,-0.3352203369140625,0.1421356201171875
1772790127959409200,3.3504091796875,-0.9061126708984375,-0.3459930419921875,0.142425537109375
1772790127969475300,3.360475341796875,-0.9002532958984375,-0.3577880859375,0.1568603515625
1772790127979541200,3.370541259765625,-0.8994903564453125,-0.370880126953125,0.1663055419921875
1772790127989607200,3.380607177734375,-0.9052734375,-0.3751983642578125,0.1649169921875
1772790127999673000,3.390673095703125,-0.8996124267578125,-0.3766937255859375,0.1618804931640625
1772790128009739300,3.4007392578125,-0.8944244384765625,-0.376220703125,0.1607666015625
1772790128019805200,3.41080517578125,-0.9029998779296875,-0.3752593994140625,0.165771484375
1772790128029871000,3.42087109375,-0.9141693115234375,-0.378448486328125,0.171295166015625
1772790128039937300,3.430937255859375,-0.9199066162109375,-0.379241943359375,0.1767730712890625
1772790128050003200,3.441003173828125,-0.92230224609375,-0.3763885498046875,0.182830810546875
1772790128060069400,3.4510693359375,-0.9247283935546875,-0.372314453125,0.1850433349609375
1772790128070135000,3.461135009765625,-0.9315185546875,-0.3669281005859375,0.184783935546875
1772790128080201200,3.471201171875,-0.9438629150390625,-0.359649658203125,0.1863555908203125
1772790128090267100,3.48126708984375,-0.9540557861328125,-0.3534698486328125,0.190582275390625
1772790128100333300,3.491333251953125,-0.9578399658203125,-0.3475341796875,0.19891357421875
1772790128110399200,3.501399169921875,-0.9600067138671875,-0.3443450927734375,0.203887939453125
1772790128120464400,3.51146435546875,-0.969757080078125,-0.3434295654296875,0.2006072998046875
1772790128130530000,3.521530029296875,-0.978271484375,-0.342529296875,0.1972808837890625
1772790128140596200,3.53159619140625,-0.98822021484375,-0.345703125,0.2025604248046875
1772790128150662100,3.541662109375,-1.0056610107421875,-0.35089111328125,0.203338623046875
1772790128160728300,3.551728271484375,-1.020965576171875,-0.35595703125,0.205108642578125
1772790128170794200,3.561794189453125,-1.0293731689453125,-0.358642578125,0.20672607421875
1772790128180860200,3.571860107421875,-1.036041259765625,-0.3603973388671875,0.2038421630859375
1772790128190926300,3.58192626953125,-1.0450897216796875,-0.3600616455078125,0.2027587890625
1772790128200992000,3.591991943359375,-1.062469482421875,-0.3621978759765625,0.2035064697265625
1772790128211058200,3.60205810546875,-1.0779876708984375,-0.3623809814453125,0.2087860107421875
1772790128221124000,3.6121240234375,-1.09686279296875,-0.3493804931640625,0.2099456787109375
1772790128231190300,3.622190185546875,-1.1290130615234375,-0.331298828125,0.2017059326171875
1772790128241256200,3.632256103515625,-1.1709442138671875,-0.3144073486328125,0.1868438720703125
1772790128251322400,3.642322265625,-1.207763671875,-0.2891845703125,0.167755126953125
1772790128261388300,3.65238818359375,-1.2234649658203125,-0.255584716796875,0.1473388671875
1772790128271454200,3.6624541015625,-1.21539306640625,-0.2276763916015625,0.137939453125
1772790128281520000,3.67252001953125,-1.2126617431640625,-0.19598388671875,0.113189697265625
1772790128291586000,3.6825859375,-1.1795196533203125,-0.1595916748046875,0.0846405029296875
1772790128301652200,3.69265234375,-1.141265869140625,-0.1383056640625,0.0572967529296875
1772790128311718100,3.70271826171875,-1.097320556640625,-0.1175689697265625,0.0302276611328125
1772790128321784300,3.712784423828125,-1.0592193603515625,-0.108612060546875,0.0255889892578125
1772790128331850200,3.722850341796875,-1.0384979248046875,-0.11285400390625,0.024658203125
1772790128341916400,3.73291650390625,-1.0172882080078125,-0.11956787109375,0.0303192138671875
1772790128351981000,3.74298095703125,-0.9828643798828125,-0.1340179443359375,0.031646728515625
1772790128362047200,3.753047119140625,-0.9536590576171875,-0.1505584716796875,0.031585693359375
1772790128372113200,3.763113037109375,-0.931671142578125,-0.1661529541015625,0.0226287841796875
1772790128382179300,3.773179443359375,-0.90313720703125,-0.1807403564453125,0.0186309814453125
1772790128392245200,3.783245361328125,-0.88507080078125,-0.1983795166015625,0.0197601318359375
1772790128402311400,3.7933115234375,-0.8751220703125,-0.216827392578125,0.0185089111328125
1772790128412377000,3.803377197265625,-0.8572235107421875,-0.2282562255859375,0.010467529296875
1772790128422443300,3.813443359375,-0.8296051025390625,-0.234832763671875,0.0064239501953125
1772790128432509200,3.82350927734375,-0.822113037109375,-0.25299072265625,0.00775146484375
1772790128442575000,3.8335751953125,-0.8413543701171875,-0.2657928466796875,0.0283355712890625
1772790128452641300,3.843641357421875,-0.8602142333984375,-0.2813873291015625,0.0352325439453125
1772790128462707200,3.853707275390625,-0.859893798828125,-0.288177490234375,0.0448760986328125
1772790128472773400,3.8637734375,-0.8614044189453125,-0.2825775146484375,0.0461578369140625
1772790128482839000,3.873839111328125,-0.863494873046875,-0.27642822265625,0.0478515625
1772790128492905200,3.8839052734375,-0.8687591552734375,-0.2694854736328125,0.0557403564453125
1772790128502971100,3.89397119140625,-0.8813323974609375,-0.2607574462890625,0.064300537109375
1772790128513037300,3.904037353515625,-0.9018096923828125,-0.255828857421875,0.07183837890625
1772790128523103200,3.914103271484375,-0.919525146484375,-0.248809814453125,0.0777130126953125
1772790128533169200,3.924169189453125,-0.915557861328125,-0.2363739013671875,0.0757598876953125
1772790128543235300,3.9342353515625,-0.8982086181640625,-0.2227783203125,0.0741729736328125
1772790128553301000,3.944301025390625,-0.889068603515625,-0.2160797119140625,0.0796356201171875
1772790128563367200,3.9543671875,-0.8916778564453125,-0.2177886962890625,0.084442138671875
1772790128573433000,3.96443310546875,-0.8941192626953125,-0.22454833984375,0.0930328369140625
1772790128583498200,3.974498291015625,-0.8878631591796875,-0.2315521240234375,0.10687255859375
1772790128593564200,3.984564208984375,-0.8809661865234375,-0.2388763427734375,0.1169586181640625
1772790128603630300,3.99463037109375,-0.878143310546875,-0.2446441650390625,0.121856689453125
1772790128613696000,4.004696044921875,-0.8768463134765625,-0.254150390625,0.1220855712890625
1772790128623762200,4.01476220703125,-0.8758697509765625,-0.2702484130859375,0.1255950927734375
1772790128633828000,4.024828125,-0.8798675537109375,-0.285491943359375,0.134033203125
1772790128643893200,4.034893310546875,-0.884002685546875,-0.295013427734375,0.1357421875
1772790128653959200,4.044959228515625,-0.8835601806640625,-0.30059814453125,0.1357269287109375
1772790128664025300,4.055025390625,-0.8787384033203125,-0.2998199462890625,0.1404571533203125
1772790128674091000,4.065091064453125,-0.8765716552734375,-0.2979888916015625,0.1492156982421875
1772790128684157200,4.0751572265625,-0.8756103515625,-0.2979278564453125,0.1561126708984375
1772790128694223000,4.08522314453125,-0.8814239501953125,-0.2979583740234375,0.15948486328125
1772790128704289300,4.095289306640625,-0.891143798828125,-0.2983856201171875,0.158477783203125
1772790128714355200,4.105355224609375,-0.8929901123046875,-0.2951507568359375,0.1575469970703125
1772790128724421400,4.11542138671875,-0.89068603515625,-0.2900543212890625,0.158050537109375
1772790128734487300,4.1254873046875,-0.890289306640625,-0.28607177734375,0.1597442626953125
1772790128744553200,4.13555322265625,-0.8998565673828125,-0.2828216552734375,0.1597137451171875
1772790128754619100,4.145619140625,-0.91534423828125,-0.283233642578125,0.162017822265625
1772790128764685000,4.15568505859375,-0.9267425537109375,-0.29119873046875,0.1617584228515625
1772790128774751200,4.165751220703125,-0.938873291015625,-0.3012237548828125,0.1654052734375
1772790128784817200,4.175817138671875,-0.94744873046875,-0.3080291748046875,0.1636810302734375
1772790128794883300,4.18588330078125,-0.945037841796875,-0.31329345703125,0.154815673828125
1772790128804949200,4.19594921875,-0.9442901611328125,-0.32318115234375,0.15277099609375
1772790128815015400,4.206015380859375,-0.9615936279296875,-0.3381195068359375,0.1580047607421875
1772790128825081000,4.2160810546875,-0.977874755859375,-0.35528564453125,0.1629791259765625
1772790128835147300,4.226147216796875,-0.9960174560546875,-0.3750152587890625,0.170013427734375
1772790128845213200,4.236213134765625,-1.0106353759765625,-0.3842620849609375,0.1696929931640625
1772790128855278300,4.2462783203125,-1.00909423828125,-0.387054443359375,0.162109375
1772790128865344300,4.25634423828125,-1.012176513671875,-0.393218994140625,0.1570281982421875
1772790128875410400,4.266410400390625,-1.02392578125,-0.3973846435546875,0.1607513427734375
1772790128885476000,4.27647607421875,-1.0385589599609375,-0.3994903564453125,0.1656036376953125
1772790128895540000,4.2865400390625,-1.0508880615234375,-0.400482177734375,0.172515869140625
1772790128905606100,4.296606201171875,-1.0682373046875,-0.4010772705078125,0.174407958984375
1772790128915672000,4.306672119140625,-1.080047607421875,-0.392364501953125,0.17425537109375
1772790128925738000,4.316738037109375,-1.0850677490234375,-0.3809356689453125,0.169525146484375
1772790128935804000,4.326803955078125,-1.0900726318359375,-0.3704986572265625,0.170074462890625
1772790128945869800,4.336869873046875,-1.105865478515625,-0.3596343994140625,0.1701812744140625
1772790128955936000,4.34693603515625,-1.126739501953125,-0.3476715087890625,0.1676483154296875
1772790128966002000,4.357001953125,-1.1439361572265625,-0.3371124267578125,0.1685638427734375
1772790128976068000,4.367068115234375,-1.158843994140625,-0.3259735107421875,0.1583709716796875
1772790128986134000,4.377134033203125,-1.16693115234375,-0.3139495849609375,0.1436767578125
1772790128996200000,4.387199951171875,-1.164764404296875,-0.2971954345703125,0.12982177734375
1772790129006265900,4.397265869140625,-1.15350341796875,-0.289520263671875,0.128631591796875
1772790129016332000,4.40733203125,-1.1674041748046875,-0.2906036376953125,0.12689208984375
1772790129026398000,4.41739794921875,-1.17376708984375,-0.285064697265625,0.12017822265625
1772790129036463900,4.4274638671875,-1.1637725830078125,-0.279510498046875,0.113616943359375
1772790129046530000,4.437530029296875,-1.170440673828125,-0.2689056396484375,0.102630615234375
1772790129056596000,4.447595947265625,-1.1651458740234375,-0.2490234375,0.094329833984375
1772790129066662100,4.457662109375,-1.1399993896484375,-0.237152099609375,0.07861328125
1772790129076727800,4.467727783203125,-1.1079254150390625,-0.2252044677734375,0.0625762939453125
1772790129086793000,4.47779296875,-1.06494140625,-0.2085723876953125,0.0477752685546875
1772790129096859000,4.48785888671875,-1.0194091796875,-0.1902008056640625,0.0392303466796875
1772790129106925000,4.497925048828125,-0.9829559326171875,-0.181610107421875,0.0341033935546875
1772790129116991000,4.507990966796875,-0.947418212890625,-0.178955078125,0.028350830078125
1772790129127057200,4.51805712890625,-0.9055328369140625,-0.1742706298828125,0.0235137939453125
1772790129137122800,4.528122802734375,-0.8656005859375,-0.1689910888671875,0.015838623046875
1772790129147189000,4.53818896484375,-0.832061767578125,-0.16802978515625,0.0082244873046875
1772790129157255000,4.5482548828125,-0.8147430419921875,-0.1797027587890625,0.0111541748046875
1772790129167321000,4.558321044921875,-0.8153839111328125,-0.1897430419921875,0.0139007568359375
1772790129177387000,4.568386962890625,-0.8036346435546875,-0.1919097900390625,0.00872802734375
1772790129187453000,4.578452880859375,-0.7908172607421875,-0.1925506591796875,0.018157958984375
1772790129197519000,4.58851904296875,-0.7852935791015625,-0.1967926025390625,0.01971435546875
1772790129207584800,4.598584716796875,-0.78106689453125,-0.19659423828125,0.022491455078125
1772790129217651000,4.60865087890625,-0.784881591796875,-0.1938629150390625,0.026519775390625
1772790129227716900,4.618716796875,-0.79107666015625,-0.2024383544921875,0.0344390869140625
1772790129237783000,4.628782958984375,-0.8059539794921875,-0.212615966796875,0.04595947265625
1772790129247849000,4.638848876953125,-0.8243865966796875,-0.2162017822265625,0.05816650390625
1772790129257915100,4.6489150390625,-0.837371826171875,-0.2283477783203125,0.057037353515625
1772790129267981000,4.65898095703125,-0.84930419921875,-0.2473297119140625,0.0609130859375
1772790129278046700,4.669046630859375,-0.87353515625,-0.2647857666015625,0.0558013916015625
1772790129288111900,4.67911181640625,-0.904693603515625,-0.278228759765625,0.055877685546875
1772790129298178000,4.689177978515625,-0.9388885498046875,-0.2873687744140625,0.056304931640625
1772790129308244000,4.699243896484375,-0.976806640625,-0.288116455078125,0.0550537109375
1772790129318310100,4.70931005859375,-1.012359619140625,-0.2784423828125,0.0444183349609375
1772790129328376000,4.7193759765625,-1.050079345703125,-0.276153564453125,0.0345306396484375
1772790129338441700,4.729441650390625,-1.0687713623046875,-0.267578125,0.0281524658203125
1772790129348508000,4.7395078125,-1.06805419921875,-0.25115966796875,0.0195465087890625
1772790129358573800,4.74957373046875,-1.05609130859375,-0.23980712890625,0.0126800537109375
1772790129368640000,4.759639892578125,-1.042083740234375,-0.232513427734375,0.00360107421875
1772790129378706000,4.769705810546875,-1.0229949951171875,-0.2274169921875,-0.0064849853515625
1772790129388772000,4.779772216796875,-0.9971771240234375,-0.225677490234375,-0.0065765380859375
1772790129398838000,4.789838134765625,-0.9688720703125,-0.2353973388671875,0.0081024169921875
1772790129408904200,4.799904296875,-0.9652099609375,-0.25390625,0.02362060546875
1772790129418969900,4.809969970703125,-0.96722412109375,-0.2740020751953125,0.03985595703125
1772790129429035800,4.820035888671875,-0.9575958251953125,-0.2938690185546875,0.0620574951171875
1772790129439102000,4.83010205078125,-0.9407806396484375,-0.305938720703125,0.078521728515625
1772790129449168000,4.84016796875,-0.9193572998046875,-0.31329345703125,0.092193603515625
1772790129459234000,4.850234130859375,-0.90289306640625,-0.3227996826171875,0.0987701416015625
1772790129469300000,4.860300048828125,-0.9026336669921875,-0.3279876708984375,0.09661865234375
1772790129479366100,4.8703662109375,-0.8992156982421875,-0.3283843994140625,0.095733642578125
1772790129489431800,4.880431884765625,-0.8946380615234375,-0.329010009765625,0.09619140625
1772790129499497000,4.8904970703125,-0.8950653076171875,-0.3266143798828125,0.09417724609375
1772790129509563000,4.90056298828125,-0.9034576416015625,-0.3323822021484375,0.0995330810546875
1772790129519629000,4.910629150390625,-0.917999267578125,-0.338043212890625,0.095703125
1772790129529695000,4.920695068359375,-0.92156982421875,-0.33819580078125,0.0953826904296875
1772790129539761200,4.93076123046875,-0.926483154296875,-0.3423309326171875,0.0931854248046875
1772790129549826800,4.940826904296875,-0.935150146484375,-0.3431396484375,0.0893707275390625
1772790129559893000,4.95089306640625,-0.942413330078125,-0.342254638671875,0.0891876220703125
1772790129569959000,4.960958984375,-0.952545166015625,-0.338623046875,0.0830535888671875
1772790129580024800,4.97102490234375,-0.95367431640625,-0.3376007080078125,0.0791168212890625
1772790129590091000,4.981091064453125,-0.95208740234375,-0.3383636474609375,0.084808349609375
1772790129600157000,4.991156982421875,-0.9626007080078125,-0.3424835205078125,0.0876922607421875
1772790129610223000,5.00122314453125,-0.97198486328125,-0.343719482421875,0.0851593017578125
1772790129620288800,5.011288818359375,-0.97113037109375,-0.347869873046875,0.0829315185546875
1772790129630355000,5.02135498046875,-0.967926025390625,-0.3532562255859375,0.079559326171875
1772790129640420900,5.0314208984375,-0.9676971435546875,-0.35821533203125,0.07635498046875
1772790129650487000,5.041487060546875,-0.964141845703125,-0.363128662109375,0.0752410888671875
1772790129660553000,5.051552978515625,-0.9607391357421875,-0.365203857421875,0.07501220703125
1772790129670619100,5.061619140625,-0.957244873046875,-0.3681640625,0.0792083740234375
1772790129680685000,5.07168505859375,-0.952911376953125,-0.37274169921875,0.0834197998046875
1772790129690751000,5.0817509765625,-0.9659881591796875,-0.375030517578125,0.0869598388671875
1772790129700816000,5.09181591796875,-0.981109619140625,-0.376678466796875,0.086151123046875
1772790129710882000,5.101882080078125,-0.9844818115234375,-0.3794708251953125,0.0858306884765625
1772790129720948000,5.111947998046875,-0.9890899658203125,-0.381195068359375,0.083740234375
1772790129731014000,5.122013916015625,-0.9927520751953125,-0.376708984375,0.0800018310546875
1772790129741080000,5.132080078125,-0.9993743896484375,-0.373382568359375,0.0802764892578125
1772790129751146000,5.14214599609375,-1.011871337890625,-0.3712310791015625,0.083038330078125
1772790129761212000,5.1522119140625,-1.028106689453125,-0.3680877685546875,0.0837249755859375
1772790129771277800,5.16227783203125,-1.0403594970703125,-0.3702392578125,0.0838470458984375
1772790129781344000,5.172343994140625,-1.0489044189453125,-0.3759613037109375,0.0852508544921875
1772790129791410000,5.182409912109375,-1.0587615966796875,-0.374725341796875,0.07342529296875
1772790129801476000,5.19247607421875,-1.071014404296875,-0.3654022216796875,0.0643310546875
1772790129811542000,5.2025419921875,-1.0843505859375,-0.3607330322265625,0.060150146484375
1772790129821608200,5.212608154296875,-1.092498779296875,-0.3653717041015625,0.054412841796875
1772790129831673900,5.222673828125,-1.1072235107421875,-0.35968017578125,0.0517120361328125
1772790129841739800,5.23273974609375,-1.1352996826171875,-0.35186767578125,0.0427093505859375
1772790129851806000,5.242805908203125,-1.140106201171875,-0.337127685546875,0.026580810546875
1772790129861871900,5.252871826171875,-1.130157470703125,-0.3138580322265625,0.0102996826171875
1772790129871938000,5.26293798828125,-1.11767578125,-0.2892303466796875,-0.010162353515625
1772790129882004000,5.27300390625,-1.088531494140625,-0.2668304443359375,-0.0235137939453125
1772790129892068900,5.28306884765625,-1.0600128173828125,-0.248016357421875,-0.0363006591796875
1772790129902131500,5.29313134765625,-1.0378875732421875,-0.23004150390625,-0.0480804443359375
1772790129912197600,5.30319775390625,-1.0076446533203125,-0.2216339111328125,-0.0569610595703125
1772790129922263600,5.313263671875,-0.9733734130859375,-0.218505859375,-0.050537109375
1772790129932329700,5.323329833984375,-0.9461212158203125,-0.2191009521484375,-0.03863525390625
1772790129942395600,5.333395751953125,-0.9337310791015625,-0.2170562744140625,-0.038482666015625
1772790129952461600,5.343461669921875,-0.91363525390625,-0.2143096923828125,-0.038604736328125
1772790129962527500,5.353527587890625,-0.89471435546875,-0.2207489013671875,-0.0327301025390625
1772790129972593700,5.36359375,-0.895294189453125,-0.228973388671875,-0.030548095703125
1772790129982659600,5.37365966796875,-0.8955535888671875,-0.231414794921875,-0.0314483642578125
1772790129992725500,5.3837255859375,-0.8871612548828125,-0.23468017578125,-0.0320892333984375
1772790130002791700,5.393791748046875,-0.8978118896484375,-0.2429962158203125,-0.033935546875
1772790130012857600,5.403857666015625,-0.912994384765625,-0.251708984375,-0.0317535400390625
1772790130022923500,5.413923583984375,-0.9356689453125,-0.26129150390625,-0.0407562255859375
1772790130032989400,5.423989501953125,-0.94140625,-0.2568206787109375,-0.0532379150390625
1772790130043055600,5.4340556640625,-0.9351654052734375,-0.251708984375,-0.0638580322265625
1772790130053121500,5.44412158203125,-0.9326171875,-0.2530364990234375,-0.0751800537109375
1772790130063187700,5.454187744140625,-0.9408111572265625,-0.2532196044921875,-0.0841217041015625
1772790130073253600,5.464253662109375,-0.95135498046875,-0.2603912353515625,-0.0897369384765625
1772790130083318500,5.474318603515625,-0.951324462890625,-0.26812744140625,-0.0914459228515625
1772790130093384400,5.484384521484375,-0.9456634521484375,-0.27435302734375,-0.083648681640625
1772790130103450600,5.49445068359375,-0.953643798828125,-0.2890167236328125,-0.0688934326171875
1772790130113516500,5.5045166015625,-0.9642333984375,-0.2958984375,-0.0483245849609375
1772790130123582700,5.514582763671875,-0.9600372314453125,-0.296875,-0.0355224609375
1772790130133648600,5.524648681640625,-0.940399169921875,-0.2965545654296875,-0.0272216796875
1772790130143714600,5.534714599609375,-0.9304351806640625,-0.2965087890625,-0.01739501953125
1772790130153780700,5.54478076171875,-0.925537109375,-0.299774169921875,-0.01025390625
1772790130163846400,5.554846435546875,-0.9279327392578125,-0.3088531494140625,-0.004791259765625
1772790130173912600,5.56491259765625,-0.9234619140625,-0.3101043701171875,0.0025634765625
1772790130183978500,5.574978515625,-0.912384033203125,-0.3127593994140625,0.0131072998046875
1772790130194044700,5.585044677734375,-0.91778564453125,-0.31597900390625,0.0181884765625
1772790130204110600,5.595110595703125,-0.915008544921875,-0.3212127685546875,0.02911376953125
1772790130214176800,5.6051767578125,-0.9151763916015625,-0.325592041015625,0.0283660888671875
1772790130224242700,5.61524267578125,-0.9068145751953125,-0.32879638671875,0.0253448486328125
1772790130234308600,5.62530859375,-0.916717529296875,-0.3391876220703125,0.0334014892578125
1772790130244374500,5.63537451171875,-0.93310546875,-0.3415985107421875,0.031463623046875
1772790130254440400,5.6454404296875,-0.93450927734375,-0.3468170166015625,0.0344085693359375
1772790130264505600,5.655505615234375,-0.932342529296875,-0.3448944091796875,0.0330810546875
1772790130274571800,5.66557177734375,-0.928985595703125,-0.338836669921875,0.0355377197265625
1772790130284637700,5.6756376953125,-0.940216064453125,-0.340728759765625,0.042572021484375
1772790130294703400,5.685703369140625,-0.9333038330078125,-0.3315887451171875,0.0203857421875
1772790130304769500,5.69576953125,-0.9190826416015625,-0.3294830322265625,0.013336181640625
1772790130314835500,5.70583544921875,-0.9281158447265625,-0.3282928466796875,0.0110015869140625
1772790130324901600,5.715901611328125,-0.928802490234375,-0.33184814453125,0.0172119140625
1772790130334967600,5.725967529296875,-0.9383697509765625,-0.340179443359375,0.02001953125
1772790130345033700,5.73603369140625,-0.9382171630859375,-0.34161376953125,0.0182647705078125
1772790130355099600,5.746099609375,-0.922943115234375,-0.3445587158203125,0.0160675048828125
1772790130365165600,5.75616552734375,-0.9133758544921875,-0.34893798828125,0.01348876953125
1772790130375231500,5.7662314453125,-0.912872314453125,-0.3566436767578125,0.016632080078125
1772790130385297700,5.776297607421875,-0.914886474609375,-0.365325927734375,0.0224761962890625
1772790130395363600,5.786363525390625,-0.9149627685546875,-0.3721923828125,0.024993896484375
1772790130405429500,5.796429443359375,-0.912445068359375,-0.378875732421875,0.020477294921875
1772790130415495700,5.80649560546875,-0.904144287109375,-0.3805694580078125,0.0209503173828125
1772790130425561600,5.8165615234375,-0.9076995849609375,-0.387054443359375,0.0279388427734375
1772790130435627800,5.826627685546875,-0.9235382080078125,-0.388702392578125,0.0235748291015625
1772790130445692400,5.8366923828125,-0.9170074462890625,-0.3852081298828125,0.0200958251953125
1772790130455758600,5.846758544921875,-0.9027252197265625,-0.3850860595703125,0.0216217041015625
1772790130465824500,5.856824462890625,-0.90802001953125,-0.389892578125,0.0189971923828125
1772790130475890700,5.866890625,-0.92779541015625,-0.3919219970703125,0.012481689453125
1772790130485956600,5.87695654296875,-0.9355316162109375,-0.3907012939453125,0.0034942626953125
1772790130496022800,5.887022705078125,-0.9358673095703125,-0.3889617919921875,-0.0027008056640625
1772790130506088400,5.89708837890625,-0.94012451171875,-0.3872528076171875,-0.004852294921875
1772790130516154600,5.907154541015625,-0.9448394775390625,-0.38543701171875,0.0009613037109375
1772790130526220500,5.917220458984375,-0.951080322265625,-0.3870849609375,-0.00006103515625
1772790130536286700,5.92728662109375,-0.9645538330078125,-0.3868408203125,-0.0009002685546875
1772790130546352600,5.9373525390625,-0.96832275390625,-0.385009765625,-0.003326416015625
1772790130556418600,5.94741845703125,-0.962738037109375,-0.3836212158203125,-0.000732421875
1772790130566484700,5.957484619140625,-0.96112060546875,-0.3861846923828125,0.005462646484375
1772790130576550400,5.96755029296875,-0.9710235595703125,-0.39013671875,0.01416015625
1772790130586616600,5.977616455078125,-0.981048583984375,-0.3977203369140625,0.0166778564453125
1772790130596682500,5.9876826171875,-0.9808349609375,-0.4023284912109375,0.013641357421875
1772790130606748700,5.997748779296875,-0.974090576171875,-0.4041748046875,0.0092010498046875
1772790130616813600,6.0078134765625,-0.9835052490234375,-0.4055633544921875,0.01104736328125
1772790130626879700,6.017879638671875,-1.001373291015625,-0.4091033935546875,0.0105743408203125
1772790130636945400,6.0279453125,-1.00701904296875,-0.4127197265625,0.0039825439453125
1772790130647011600,6.038011474609375,-0.9953765869140625,-0.4180755615234375,-0.001861572265625
1772790130657077500,6.048077392578125,-0.9950714111328125,-0.424591064453125,0.00115966796875
1772790130667143700,6.058143798828125,-1.0076141357421875,-0.4299163818359375,-0.003875732421875
1772790130677209600,6.068209716796875,-1.003631591796875,-0.4368438720703125,-0.004150390625
1772790130687275800,6.07827587890625,-1.0067596435546875,-0.43890380859375,-0.00482177734375
1772790130697341700,6.088341796875,-1.0172119140625,-0.435943603515625,-0.0081024169921875
1772790130707407400,6.098407470703125,-1.0281829833984375,-0.4256439208984375,-0.0203704833984375
1772790130717473500,6.1084736328125,-1.045135498046875,-0.4109954833984375,-0.04034423828125
1772790130727539500,6.11853955078125,-1.059844970703125,-0.3984832763671875,-0.061431884765625
1772790130737605600,6.128605712890625,-1.066680908203125,-0.387451171875,-0.08026123046875
1772790130747671600,6.138671630859375,-1.06640625,-0.3739471435546875,-0.07763671875
1772790130757737700,6.14873779296875,-1.072174072265625,-0.3590545654296875,-0.09326171875
1772790130767803600,6.1588037109375,-1.068572998046875,-0.339996337890625,-0.1055145263671875
1772790130777869800,6.168869873046875,-1.0565185546875,-0.3159942626953125,-0.1122894287109375
1772790130787934500,6.1789345703125,-1.0229949951171875,-0.3009796142578125,-0.11859130859375
1772790130798000600,6.189000732421875,-1.012542724609375,-0.2805633544921875,-0.1121368408203125
1772790130808066600,6.199066650390625,-1.0001678466796875,-0.26702880859375,-0.11163330078125
1772790130818132700,6.2091328125,-0.9853363037109375,-0.265289306640625,-0.096832275390625
1772790130828198700,6.21919873046875,-0.9785614013671875,-0.26263427734375,-0.0827178955078125
1772790130838264600,6.2292646484375,-0.9625244140625,-0.2625579833984375,-0.0666046142578125
1772790130848330500,6.23933056640625,-0.9384613037109375,-0.2613525390625,-0.0550537109375
1772790130858396400,6.249396484375,-0.91778564453125,-0.26226806640625,-0.04351806640625
1772790130868462600,6.259462646484375,-0.89874267578125,-0.26373291015625,-0.0324554443359375
1772790130878528500,6.269528564453125,-0.8805084228515625,-0.2689056396484375,-0.01885986328125
1772790130888594700,6.2795947265625,-0.8726806640625,-0.272796630859375,-0.010009765625
1772790130898660000,6.28966015625,-0.8704681396484375,-0.27752685546875,0.001312255859375
1772790130908726000,6.29972607421875,-0.874603271484375,-0.282379150390625,0.0117645263671875
1772790130918792000,6.3097919921875,-0.879913330078125,-0.2874908447265625,0.02081298828125
1772790130928858000,6.319858154296875,-0.8800506591796875,-0.290008544921875,0.0297393798828125
1772790130938924000,6.329924072265625,-0.884002685546875,-0.2902679443359375,0.034423828125
1772790130948989200,6.3399892578125,-0.898834228515625,-0.293243408203125,0.0339202880859375
1772790130959055000,6.35005517578125,-0.9193115234375,-0.2975311279296875,0.03265380859375
1772790130969121000,6.36012109375,-0.936614990234375,-0.3024139404296875,0.03375244140625
1772790130979187000,6.37018701171875,-0.9477691650390625,-0.3003692626953125,0.0349273681640625
1772790130989253000,6.380253173828125,-0.96142578125,-0.2948455810546875,0.0299224853515625
1772790130999319000,6.390319091796875,-0.983856201171875,-0.289398193359375,0.0191650390625
1772790131009385200,6.40038525390625,-1.0136566162109375,-0.28131103515625,0.0074615478515625
1772790131019451100,6.410451171875,-1.0302581787109375,-0.27618408203125,-0.0000152587890625
1772790131029517000,6.42051708984375,-1.0304412841796875,-0.2731781005859375,-0.005157470703125
1772790131039583200,6.430583251953125,-1.029876708984375,-0.27081298828125,-0.0063323974609375
1772790131049649000,6.44064892578125,-1.0225677490234375,-0.2703094482421875,-0.0079498291015625
1772790131059715000,6.450715087890625,-1.0156402587890625,-0.266265869140625,-0.0229949951171875
1772790131069781000,6.460781005859375,-0.995391845703125,-0.2545318603515625,-0.0302581787109375
1772790131079847200,6.47084716796875,-0.97235107421875,-0.257965087890625,-0.03057861328125
1772790131089913000,6.4809130859375,-0.9616546630859375,-0.2703094482421875,-0.02178955078125
1772790131099979300,6.490979248046875,-0.956207275390625,-0.2885894775390625,-0.009918212890625
1772790131110044000,6.5010439453125,-0.941497802734375,-0.3116455078125,-0.00054931640625
1772790131120110000,6.511110107421875,-0.9324798583984375,-0.331817626953125,0.00927734375
1772790131130176000,6.521176025390625,-0.920379638671875,-0.3492431640625,0.021453857421875
1772790131140242200,6.5312421875,-0.9213104248046875,-0.362060546875,0.032135009765625
1772790131150308000,6.54130810546875,-0.923065185546875,-0.3694915771484375,0.0357208251953125
1772790131160374300,6.551374267578125,-0.9183502197265625,-0.3741912841796875,0.0370941162109375
1772790131170440200,6.561440185546875,-0.9145050048828125,-0.37677001953125,0.0384674072265625
1772790131180506000,6.571506103515625,-0.9130859375,-0.377716064453125,0.0391998291015625
1772790131190572000,6.581572021484375,-0.913299560546875,-0.37640380859375,0.0382080078125
1772790131200638000,6.591637939453125,-0.924285888671875,-0.3780670166015625,0.0330657958984375
1772790131210704100,6.6017041015625,-0.9340972900390625,-0.37579345703125,0.0240936279296875
1772790131220770000,6.61177001953125,-0.9339599609375,-0.3693389892578125,0.02056884765625
1772790131230836200,6.621836181640625,-0.9256591796875,-0.3667144775390625,0.0203857421875
1772790131240902100,6.631902099609375,-0.924591064453125,-0.367462158203125,0.02197265625
1772790131250968000,6.641968017578125,-0.926361083984375,-0.3699493408203125,0.0270233154296875
1772790131261034000,6.652033935546875,-0.91839599609375,-0.37396240234375,0.0354766845703125
1772790131271100200,6.66210009765625,-0.906890869140625,-0.37396240234375,0.0424041748046875
1772790131281165000,6.6721650390625,-0.914276123046875,-0.372314453125,0.046539306640625
1772790131291231200,6.682231201171875,-0.9306182861328125,-0.37835693359375,0.0540008544921875
1772790131301297200,6.692297119140625,-0.933685302734375,-0.3863372802734375,0.0586700439453125
1772790131311363000,6.702363037109375,-0.9225311279296875,-0.385833740234375,0.0633392333984375
1772790131321429000,6.712428955078125,-0.9133148193359375,-0.3807220458984375,0.0682373046875
1772790131331495200,6.7224951171875,-0.91357421875,-0.377593994140625,0.07171630859375
1772790131341561000,6.73256103515625,-0.923583984375,-0.3777618408203125,0.072845458984375
1772790131351627000,6.742626953125,-0.9296112060546875,-0.3757171630859375,0.0768585205078125
1772790131361693200,6.752693115234375,-0.933746337890625,-0.374481201171875,0.083740234375
1772790131371759000,6.762759033203125,-0.946502685546875,-0.375732421875,0.089202880859375
1772790131381825000,6.772824951171875,-0.9478302001953125,-0.37335205078125,0.0902252197265625
1772790131391891000,6.782890869140625,-0.9349517822265625,-0.37127685546875,0.09259033203125
1772790131401957000,6.79295703125,-0.9344482421875,-0.3702545166015625,0.0974578857421875
1772790131412023000,6.80302294921875,-0.9457244873046875,-0.3688201904296875,0.093780517578125
1772790131422089200,6.813089111328125,-0.948699951171875,-0.3665313720703125,0.0889892578125
1772790131432155100,6.823155029296875,-0.94915771484375,-0.3647918701171875,0.0887298583984375
1772790131442220000,6.833219970703125,-0.9512786865234375,-0.366058349609375,0.0870819091796875
1772790131452286000,6.843285888671875,-0.9476318359375,-0.363555908203125,0.084442138671875
1772790131462352100,6.85335205078125,-0.9362335205078125,-0.36517333984375,0.0814361572265625
1772790131472418000,6.86341796875,-0.932769775390625,-0.3719940185546875,0.0771942138671875
1772790131482484200,6.873484130859375,-0.933013916015625,-0.37957763671875,0.076171875
1772790131492550100,6.883550048828125,-0.935577392578125,-0.386199951171875,0.081756591796875
1772790131502616000,6.893615966796875,-0.943389892578125,-0.399200439453125,0.0876617431640625
1772790131512682200,6.90368212890625,-0.9312744140625,-0.397216796875,0.0883636474609375
1772790131522748000,6.913747802734375,-0.926971435546875,-0.4020233154296875,0.0903778076171875
1772790131532814000,6.92381396484375,-0.9406890869140625,-0.408477783203125,0.0984954833984375
1772790131542880000,6.9338798828125,-0.951385498046875,-0.4128570556640625,0.1099853515625
1772790131552946200,6.9439462890625,-0.9566802978515625,-0.4129180908203125,0.1133270263671875
1772790131563012000,6.95401220703125,-0.959259033203125,-0.4063720703125,0.1109161376953125
1772790131573078300,6.964078369140625,-0.9585113525390625,-0.3929901123046875,0.1011810302734375
1772790131583144200,6.974144287109375,-0.959503173828125,-0.3800201416015625,0.09649658203125
1772790131593209900,6.9842099609375,-0.96490478515625,-0.365936279296875,0.08563232421875
1772790131603275000,6.99427490234375,-0.96826171875,-0.347991943359375,0.0767364501953125
1772790131613341200,7.004341064453125,-0.977294921875,-0.32818603515625,0.0609283447265625
1772790131623407000,7.014406982421875,-0.98626708984375,-0.309234619140625,0.0499267578125
1772790131633473300,7.024473388671875,-0.9918060302734375,-0.2890777587890625,0.03814697265625
1772790131643539200,7.034539306640625,-0.9859466552734375,-0.2708282470703125,0.030487060546875
1772790131653604900,7.04460498046875,-0.9784088134765625,-0.2512969970703125,0.0303955078125
1772790131663671000,7.054671142578125,-0.9741973876953125,-0.23553466796875,0.0252532958984375
1772790131673737000,7.064737060546875,-0.9685211181640625,-0.22637939453125,0.031646728515625
1772790131683803100,7.07480322265625,-0.962921142578125,-0.2225494384765625,0.0381317138671875
1772790131693869000,7.084869140625,-0.9443359375,-0.206329345703125,0.0311279296875
1772790131703935200,7.094935302734375,-0.9298248291015625,-0.2114410400390625,0.0367279052734375
1772790131714001200,7.105001220703125,-0.9315643310546875,-0.222808837890625,0.04315185546875
1772790131724067000,7.115067138671875,-0.9218597412109375,-0.2216339111328125,0.0596160888671875
1772790131734133000,7.125133056640625,-0.9308929443359375,-0.2255859375,0.0605621337890625
1772790131744199000,7.135198974609375,-0.9302215576171875,-0.2263336181640625,0.0554656982421875
1772790131754265000,7.14526513671875,-0.9195098876953125,-0.2296295166015625,0.0587615966796875
1772790131764330200,7.155330322265625,-0.910125732421875,-0.2332763671875,0.0560760498046875
1772790131774396200,7.165396240234375,-0.8975677490234375,-0.2400665283203125,0.0565185546875
1772790131784462000,7.175462158203125,-0.9040069580078125,-0.2548980712890625,0.0479888916015625
1772790131794528000,7.185528076171875,-0.91094970703125,-0.2659759521484375,0.041778564453125
1772790131804594000,7.195593994140625,-0.9213104248046875,-0.2788543701171875,0.035980224609375
1772790131814660000,7.20566015625,-0.9320831298828125,-0.2894287109375,0.0283050537109375
1772790131824726000,7.21572607421875,-0.9318695068359375,-0.295989990234375,0.0160675048828125
1772790131834792200,7.225792236328125,-0.930206298828125,-0.29193115234375,-0.00238037109375
1772790131844858000,7.235858154296875,-0.9400177001953125,-0.2834320068359375,-0.0160064697265625
1772790131854924300,7.24592431640625,-0.9712677001953125,-0.2824249267578125,-0.0287017822265625
1772790131864990000,7.255989990234375,-1.018646240234375,-0.285125732421875,-0.0428314208984375
1772790131875056000,7.26605615234375,-1.0519561767578125,-0.2834320068359375,-0.05706787109375
1772790131885122000,7.2761220703125,-1.0645904541015625,-0.274139404296875,-0.072601318359375
1772790131895188000,7.28618798828125,-1.0572357177734375,-0.254241943359375,-0.0912628173828125
1772790131905258500,7.296258544921875,-1.0449371337890625,-0.2431640625,-0.103607177734375
1772790131915323400,7.306323486328125,-1.049102783203125,-0.2430267333984375,-0.1138763427734375
1772790131925389300,7.316389404296875,-1.0534515380859375,-0.2396087646484375,-0.1151123046875
1772790131935455200,7.326455322265625,-1.05584716796875,-0.2480621337890625,-0.1150360107421875
1772790131945521400,7.336521484375,-1.0649261474609375,-0.2619476318359375,-0.107757568359375
1772790131955587300,7.34658740234375,-1.059356689453125,-0.2563629150390625,-0.126953125
1772790131965653500,7.356653564453125,-1.033477783203125,-0.26312255859375,-0.132293701171875
1772790131975719400,7.366719482421875,-1.017364501953125,-0.2701416015625,-0.1329345703125
1772790131985785600,7.37678564453125,-1.00042724609375,-0.2821044921875,-0.1186065673828125
1772790131995851300,7.386851318359375,-0.9799346923828125,-0.2900238037109375,-0.1063995361328125
1772790132005917200,7.396917236328125,-0.96673583984375,-0.2909698486328125,-0.0963287353515625
1772790132015983400,7.4069833984375,-0.967254638671875,-0.2955169677734375,-0.09320068359375
1772790132026049300,7.41704931640625,-0.9630279541015625,-0.2953033447265625,-0.0902862548828125
1772790132036115500,7.427115478515625,-0.9574432373046875,-0.292327880859375,-0.0814056396484375
1772790132046181400,7.437181396484375,-0.9535064697265625,-0.2893829345703125,-0.0699920654296875
1772790132056246300,7.447246337890625,-0.9423980712890625,-0.2830047607421875,-0.06402587890625
1772790132066312200,7.457312255859375,-0.93109130859375,-0.27764892578125,-0.0642242431640625
1772790132076378400,7.46737841796875,-0.9250946044921875,-0.27496337890625,-0.0623016357421875
1772790132086444300,7.4774443359375,-0.9277801513671875,-0.274383544921875,-0.052276611328125
1772790132096510500,7.487510498046875,-0.93048095703125,-0.277740478515625,-0.046844482421875
1772790132106576400,7.497576416015625,-0.928070068359375,-0.279449462890625,-0.035736083984375
1772790132116642600,7.507642578125,-0.9231719970703125,-0.285736083984375,-0.0257568359375
1772790132126708200,7.517708251953125,-0.9149017333984375,-0.2920989990234375,-0.016082763671875
1772790132136774400,7.5277744140625,-0.8951568603515625,-0.294189453125,-0.001312255859375
1772790132146840300,7.53784033203125,-0.88641357421875,-0.2985382080078125,0.0112762451171875
1772790132156906200,7.54790625,-0.88482666015625,-0.3044281005859375,0.0286712646484375
1772790132166972400,7.557972412109375,-0.8848724365234375,-0.3115386962890625,0.049346923828125
1772790132177038300,7.568038330078125,-0.8865509033203125,-0.3143310546875,0.0594329833984375
1772790132187104500,7.5781044921875,-0.891998291015625,-0.3156280517578125,0.0664215087890625
1772790132197170400,7.58817041015625,-0.9046630859375,-0.3146820068359375,0.0743255615234375
1772790132207236400,7.598236328125,-0.9166107177734375,-0.31219482421875,0.0820159912109375
1772790132217301200,7.60830126953125,-0.9271240234375,-0.3118438720703125,0.0847625732421875
1772790132227367400,7.618367431640625,-0.9362335205078125,-0.3062896728515625,0.0857086181640625
1772790132237433300,7.628433349609375,-0.9492340087890625,-0.3018951416015625,0.08551025390625
1772790132247499500,7.63849951171875,-0.962982177734375,-0.2969207763671875,0.084564208984375
1772790132257565400,7.6485654296875,-0.9707794189453125,-0.29083251953125,0.0806732177734375
1772790132267631400,7.65863134765625,-0.9798736572265625,-0.2863311767578125,0.0818939208984375
1772790132277697300,7.668697265625,-0.986541748046875,-0.2893829345703125,0.0879058837890625
1772790132287763500,7.678763427734375,-0.9850311279296875,-0.3005218505859375,0.1023406982421875
1772790132297829400,7.688829345703125,-0.988861083984375,-0.3109893798828125,0.118377685546875
1772790132307895300,7.698895263671875,-0.996337890625,-0.3216094970703125,0.13531494140625
1772790132317961500,7.70896142578125,-1.0110015869140625,-0.3323516845703125,0.147186279296875
1772790132328027400,7.71902734375,-1.0287933349609375,-0.339111328125,0.152740478515625
1772790132338093300,7.72909326171875,-1.042083740234375,-0.3332061767578125,0.1501617431640625
1772790132348159200,7.7391591796875,-1.055023193359375,-0.314178466796875,0.14056396484375
1772790132358224400,7.749224365234375,-1.071441650390625,-0.2949066162109375,0.12152099609375
1772790132368290300,7.759290283203125,-1.0768280029296875,-0.2771759033203125,0.1045379638671875
1772790132378356500,7.7693564453125,-1.0602569580078125,-0.26483154296875,0.0963897705078125
1772790132388422400,7.77942236328125,-1.031951904296875,-0.2607574462890625,0.0980224609375
1772790132398488300,7.78948828125,-1.019134521484375,-0.2611236572265625,0.0981597900390625
1772790132408554200,7.79955419921875,-1.0070648193359375,-0.2609710693359375,0.101593017578125
1772790132418620400,7.809620361328125,-0.979248046875,-0.2607574462890625,0.1144256591796875
1772790132428686300,7.819686279296875,-0.964202880859375,-0.266998291015625,0.1349639892578125
1772790132438752500,7.82975244140625,-0.9687957763671875,-0.2781524658203125,0.1546630859375
1772790132448818400,7.839818359375,-0.96478271484375,-0.2915191650390625,0.1717071533203125
1772790132458884400,7.84988427734375,-0.9411773681640625,-0.2922515869140625,0.1930389404296875
1772790132468950300,7.8599501953125,-0.9209136962890625,-0.2944183349609375,0.21600341796875
1772790132479016200,7.87001611328125,-0.9152374267578125,-0.303497314453125,0.2275238037109375
1772790132489082400,7.880082275390625,-0.92364501953125,-0.3046112060546875,0.25177001953125
1772790132499147500,7.8901474609375,-0.946014404296875,-0.307586669921875,0.2562713623046875
1772790132509213400,7.90021337890625,-0.953887939453125,-0.296112060546875,0.265106201171875
1772790132519279400,7.910279296875,-0.98260498046875,-0.2886810302734375,0.264892578125
1772790132529345300,7.92034521484375,-1.0203094482421875,-0.26983642578125,0.259857177734375
1772790132539411200,7.9304111328125,-1.0565643310546875,-0.249755859375,0.248809814453125
1772790132549477400,7.940477294921875,-1.079925537109375,-0.23480224609375,0.229827880859375
1772790132559543300,7.950543212890625,-1.0957183837890625,-0.2173004150390625,0.2179718017578125
1772790132569609500,7.960609375,-1.1070098876953125,-0.203277587890625,0.1961669921875
1772790132579675400,7.97067529296875,-1.102813720703125,-0.1879730224609375,0.1767425537109375
1772790132589741600,7.980741455078125,-1.0883941650390625,-0.18060302734375,0.16558837890625
1772790132599807200,7.99080712890625,-1.09661865234375,-0.1811676025390625,0.161376953125
1772790132609873400,8.000873291015624,-1.096527099609375,-0.169189453125,0.1533660888671875
1772790132619939300,8.010939208984375,-1.0669403076171875,-0.154327392578125,0.15338134765625
1772790132630005200,8.021005126953124,-1.023681640625,-0.1499176025390625,0.157684326171875
1772790132640070400,8.0310703125,-0.9940185546875,-0.147705078125,0.16253662109375
1772790132650136600,8.041136474609376,-0.9760894775390625,-0.1493682861328125,0.156768798828125
1772790132660202200,8.0512021484375,-0.9615478515625,-0.16094970703125,0.1774444580078125
1772790132670268400,8.061268310546875,-0.9710845947265625,-0.1744232177734375,0.191192626953125
1772790132680334300,8.071334228515624,-0.9638671875,-0.1822357177734375,0.2060089111328125
1772790132690400300,8.081400146484375,-0.9497528076171875,-0.1898040771484375,0.217071533203125
1772790132700466400,8.091466552734374,-0.9328155517578125,-0.1960296630859375,0.2160797119140625
1772790132710532400,8.101532470703125,-0.9237060546875,-0.2042694091796875,0.2108001708984375
1772790132720598500,8.1115986328125,-0.921905517578125,-0.2071685791015625,0.19769287109375
1772790132730664400,8.12166455078125,-0.9246978759765625,-0.2212677001953125,0.1934051513671875
1772790132740730400,8.13173046875,-0.936920166015625,-0.2321624755859375,0.18890380859375
1772790132750796300,8.14179638671875,-0.939117431640625,-0.2354278564453125,0.1845550537109375
1772790132760862500,8.151862548828126,-0.93743896484375,-0.240692138671875,0.1870880126953125
1772790132770928400,8.161928466796875,-0.9448394775390625,-0.247100830078125,0.186767578125
1772790132780993500,8.17199365234375,-0.9462890625,-0.2447662353515625,0.1815643310546875
1772790132791059500,8.1820595703125,-0.938995361328125,-0.2490081787109375,0.1755828857421875
1772790132801125400,8.19212548828125,-0.9432220458984375,-0.2567138671875,0.174560546875
1772790132811191300,8.20219140625,-0.9542236328125,-0.259490966796875,0.173919677734375
1772790132821257500,8.212257568359375,-0.951202392578125,-0.2621002197265625,0.1712493896484375
1772790132831323400,8.222323486328126,-0.946685791015625,-0.262847900390625,0.1667327880859375
1772790132841389300,8.232389404296875,-0.9509429931640625,-0.265167236328125,0.155487060546875
1772790132851455500,8.24245556640625,-0.944915771484375,-0.2649688720703125,0.147369384765625
1772790132861521400,8.252521484375,-0.9387664794921875,-0.2679290771484375,0.142242431640625
1772790132871587300,8.26258740234375,-0.9237213134765625,-0.270355224609375,0.136505126953125
1772790132881653200,8.2726533203125,-0.9056396484375,-0.2758636474609375,0.142059326171875
1772790132891719400,8.282719482421875,-0.9017486572265625,-0.290802001953125,0.147796630859375
1772790132901781000,8.292781005859375,-0.8994903564453125,-0.3022613525390625,0.156005859375
1772790132911847200,8.30284716796875,-0.891021728515625,-0.3142547607421875,0.164642333984375
1772790132921912300,8.312912353515625,-0.8772125244140625,-0.3248443603515625,0.168914794921875
1772790132931978000,8.32297802734375,-0.8623046875,-0.3304901123046875,0.1673583984375
1772790132942044000,8.3330439453125,-0.850830078125,-0.335113525390625,0.168853759765625
1772790132952110000,8.343110107421875,-0.843780517578125,-0.341766357421875,0.1736297607421875
1772790132962176000,8.353176025390624,-0.8466949462890625,-0.3461761474609375,0.1804351806640625
1772790132972242200,8.3632421875,-0.8460235595703125,-0.3494873046875,0.1830291748046875
1772790132982308000,8.37330810546875,-0.8372650146484375,-0.3543701171875,0.185302734375
1772790132992374300,8.383374267578125,-0.83489990234375,-0.35809326171875,0.18408203125
1772790133002440000,8.39343994140625,-0.8408966064453125,-0.36163330078125,0.1876373291015625
1772790133012506000,8.403506103515625,-0.8469696044921875,-0.3715362548828125,0.188720703125
1772790133022572000,8.413572021484375,-0.8515472412109375,-0.37945556640625,0.1887969970703125
1772790133032638000,8.423637939453124,-0.86309814453125,-0.3863067626953125,0.1862945556640625
1772790133042704100,8.4337041015625,-0.8733062744140625,-0.3943023681640625,0.1840667724609375
1772790133052769300,8.443769287109374,-0.8855743408203125,-0.4004058837890625,0.1787109375
1772790133062835000,8.4538349609375,-0.894317626953125,-0.407562255859375,0.1791229248046875
1772790133072901000,8.463901123046876,-0.906280517578125,-0.4164276123046875,0.183868408203125
1772790133082967000,8.473967041015625,-0.9201202392578125,-0.4207611083984375,0.1836700439453125
1772790133093033000,8.484032958984375,-0.933441162109375,-0.421051025390625,0.1777496337890625
1772790133103099100,8.49409912109375,-0.9443511962890625,-0.4205474853515625,0.1773223876953125
1772790133113165000,8.5041650390625,-0.97314453125,-0.417572021484375,0.1828460693359375
1772790133123231200,8.514231201171874,-0.9967803955078125,-0.4152984619140625,0.186920166015625
1772790133133297200,8.524297119140625,-1.00537109375,-0.4067840576171875,0.1841278076171875
1772790133143363000,8.534363037109374,-1.0132293701171875,-0.3953857421875,0.17498779296875
1772790133153429000,8.544428955078125,-1.0207366943359375,-0.3856353759765625,0.1690521240234375
1772790133163495200,8.5544951171875,-1.0316925048828125,-0.3808441162109375,0.167449951171875
1772790133173561000,8.56456103515625,-1.0504913330078125,-0.377960205078125,0.1663818359375
1772790133183627000,8.574626953125,-1.0620574951171875,-0.3752288818359375,0.16583251953125
1772790133193692000,8.58469189453125,-1.069488525390625,-0.3724212646484375,0.1646728515625
1772790133203759000,8.594759033203125,-1.0808563232421875,-0.371063232421875,0.15802001953125
1772790133213825000,8.604824951171874,-1.0881500244140625,-0.3644866943359375,0.156341552734375
1772790133223891000,8.614890869140625,-1.0920257568359375,-0.3595428466796875,0.1470794677734375
1772790133233957000,8.62495703125,-1.0930938720703125,-0.352081298828125,0.134552001953125
1772790133244023000,8.63502294921875,-1.1002655029296875,-0.3455352783203125,0.1237945556640625
1772790133254089200,8.645089111328126,-1.109954833984375,-0.3512115478515625,0.118438720703125
1772790133264155100,8.655155029296875,-1.10723876953125,-0.3603515625,0.11944580078125
1772790133274221000,8.665220947265626,-1.1027069091796875,-0.3612060546875,0.113189697265625
1772790133284286000,8.675285888671874,-1.1043548583984375,-0.3577423095703125,0.10308837890625
1772790133294352100,8.68535205078125,-1.112213134765625,-0.35357666015625,0.092681884765625
1772790133304418000,8.69541796875,-1.12115478515625,-0.3451080322265625,0.0816192626953125
1772790133314484200,8.705484130859375,-1.1192779541015625,-0.32891845703125,0.0667877197265625
1772790133324550100,8.715550048828124,-1.104644775390625,-0.3087615966796875,0.0532073974609375
1772790133334616000,8.725615966796875,-1.0846099853515625,-0.285186767578125,0.039337158203125
1772790133344682000,8.735681884765626,-1.056671142578125,-0.259918212890625,0.0330810546875
1772790133354748000,8.745747802734375,-1.035552978515625,-0.236328125,0.0230865478515625
1772790133364814000,8.75581396484375,-1.00482177734375,-0.2151947021484375,0.0136260986328125
1772790133374880000,8.7658798828125,-0.97979736328125,-0.20196533203125,0.012542724609375
1772790133384946200,8.7759462890625,-0.96661376953125,-0.195770263671875,0.01629638671875
1772790133395012000,8.78601220703125,-0.9568634033203125,-0.196441650390625,0.0217132568359375
1772790133405078300,8.796078369140625,-0.945587158203125,-0.2080230712890625,0.024383544921875
1772790133415143000,8.806142822265626,-0.9385528564453125,-0.2191162109375,0.02642822265625
1772790133425209000,8.816208984375,-0.92620849609375,-0.2213134765625,0.0196533203125
1772790133435275000,8.82627490234375,-0.9061279296875,-0.2273406982421875,0.0167388916015625
1772790133445341200,8.836341064453125,-0.890899658203125,-0.2326202392578125,0.01544189453125
1772790133455407000,8.846406982421875,-0.8841094970703125,-0.2332611083984375,0.0153350830078125
1772790133465473300,8.856473388671875,-0.8867034912109375,-0.2362518310546875,0.009185791015625
1772790133475539000,8.8665390625,-0.887359619140625,-0.23443603515625,0.001007080078125
1772790133485605000,8.876605224609374,-0.8818817138671875,-0.228546142578125,-0.0076141357421875
1772790133495671000,8.886671142578125,-0.8699798583984375,-0.2270050048828125,-0.0148468017578125
1772790133505737000,8.896737060546876,-0.865203857421875,-0.22735595703125,-0.016693115234375
1772790133515803100,8.90680322265625,-0.8641815185546875,-0.2310791015625,-0.0184478759765625
1772790133525869000,8.916869140625,-0.855560302734375,-0.2333831787109375,-0.0191497802734375
1772790133535935200,8.926935302734375,-0.8451080322265625,-0.23590087890625,-0.0190277099609375
1772790133546000100,8.937000244140625,-0.8461456298828125,-0.2396087646484375,-0.0066680908203125
1772790133556066000,8.947066162109374,-0.8548431396484375,-0.249725341796875,0.00665283203125
1772790133566132000,8.957132080078125,-0.85784912109375,-0.2551422119140625,0.0203704833984375
1772790133576198100,8.9671982421875,-0.84698486328125,-0.25506591796875,0.03173828125
1772790133586264000,8.97726416015625,-0.8285064697265625,-0.257568359375,0.0457611083984375
1772790133596330200,8.987330322265626,-0.8184356689453125,-0.26849365234375,0.0637054443359375
1772790133606396200,8.997396240234375,-0.8170928955078125,-0.2806243896484375,0.08709716796875
1772790133616462000,9.007462158203126,-0.818572998046875,-0.2925567626953125,0.1105194091796875
1772790133626528000,9.017528076171875,-0.8238677978515625,-0.3028411865234375,0.1263580322265625
1772790133636594200,9.02759423828125,-0.83038330078125,-0.31475830078125,0.139373779296875
1772790133646660000,9.03766015625,-0.843536376953125,-0.32403564453125,0.1530914306640625
1772790133656726000,9.04772607421875,-0.8662567138671875,-0.3313751220703125,0.16436767578125
1772790133666792200,9.057792236328124,-0.8874969482421875,-0.3362884521484375,0.1649017333984375
1772790133676857000,9.067857177734375,-0.9043426513671875,-0.338165283203125,0.1633758544921875
1772790133686923000,9.077923095703126,-0.918701171875,-0.3349456787109375,0.1621856689453125
1772790133696989200,9.0879892578125,-0.9326629638671875,-0.3301239013671875,0.1603240966796875
1772790133707055000,9.09805517578125,-0.949127197265625,-0.3239288330078125,0.1557159423828125
1772790133717121000,9.10812109375,-0.9632415771484375,-0.317474365234375,0.1512451171875
1772790133727187200,9.118187255859375,-0.9815673828125,-0.3136749267578125,0.1476898193359375
1772790133737253000,9.128253173828124,-0.98968505859375,-0.3121795654296875,0.147674560546875
1772790133747319000,9.138319091796875,-0.99053955078125,-0.3124542236328125,0.149871826171875
1772790133757385000,9.148385009765626,-0.9870147705078125,-0.30810546875,0.1505126953125
1772790133767451100,9.158451171875,-0.9825286865234375,-0.3080596923828125,0.1526641845703125
1772790133777517000,9.16851708984375,-0.9771728515625,-0.3122100830078125,0.1609649658203125
1772790133787583200,9.178583251953125,-0.9765167236328125,-0.311859130859375,0.1678924560546875
1772790133797648100,9.188648193359375,-0.97930908203125,-0.3186187744140625,0.1778564453125
1772790133807714000,9.198714111328124,-0.985137939453125,-0.3270416259765625,0.18994140625
1772790133817780000,9.208780029296875,-0.9853668212890625,-0.3256988525390625,0.194305419921875
1772790133827846100,9.21884619140625,-0.968292236328125,-0.3242950439453125,0.1901397705078125
1772790133837912000,9.228912109375,-0.9716339111328125,-0.3258056640625,0.1827392578125
1772790133847978200,9.238978271484376,-0.9774017333984375,-0.3235015869140625,0.175567626953125
1772790133858044200,9.249044189453125,-0.9777069091796875,-0.3289337158203125,0.1830596923828125
1772790133868110000,9.259110107421876,-0.98687744140625,-0.33319091796875,0.190460205078125
1772790133878176000,9.269176025390625,-0.9986114501953125,-0.33819580078125,0.1954498291015625
1772790133888242000,9.279241943359375,-1.0014495849609375,-0.3467864990234375,0.1982879638671875
1772790133898308900,9.289308837890625,-1.004425048828125,-0.3530120849609375,0.196258544921875
1772790133908374800,9.299374755859375,-1.008056640625,-0.3560028076171875,0.1930694580078125
1772790133918440700,9.309440673828124,-1.0095367431640625,-0.3577880859375,0.188507080078125
1772790133928505600,9.319505615234375,-1.0120086669921875,-0.3590240478515625,0.19024658203125
1772790133938571800,9.32957177734375,-1.022308349609375,-0.362457275390625,0.190185546875
1772790133948637700,9.3396376953125,-1.034210205078125,-0.3646240234375,0.19012451171875
1772790133958703900,9.349703857421876,-1.0435638427734375,-0.3660736083984375,0.1926727294921875
1772790133968769800,9.359769775390625,-1.0541839599609375,-0.3629150390625,0.1920928955078125
1772790133978835700,9.369835693359375,-1.0593414306640625,-0.3535003662109375,0.178314208984375
1772790133988901600,9.379901611328124,-1.061248779296875,-0.345703125,0.1667327880859375
1772790133998967600,9.389967529296875,-1.0692138671875,-0.3408966064453125,0.1608734130859375
1772790134009033700,9.40003369140625,-1.0774688720703125,-0.3424224853515625,0.164520263671875
1772790134019099600,9.410099609375,-1.088897705078125,-0.3440093994140625,0.1628265380859375
1772790134029165800,9.420165771484376,-1.098846435546875,-0.3468780517578125,0.1597747802734375
1772790134039231700,9.430231689453125,-1.0976104736328125,-0.3455657958984375,0.15771484375
1772790134049296600,9.440296630859375,-1.098175048828125,-0.3419036865234375,0.154296875
1772790134059362600,9.450362548828124,-1.0998687744140625,-0.3493499755859375,0.1547698974609375
1772790134069428700,9.4604287109375,-1.1025238037109375,-0.3624267578125,0.16375732421875
1772790134079494700,9.47049462890625,-1.11151123046875,-0.372589111328125,0.173095703125
1772790134089560800,9.480560791015625,-1.1263885498046875,-0.3827362060546875,0.1839141845703125
1772790134099626800,9.490626708984376,-1.15716552734375,-0.3812408447265625,0.18182373046875
1772790134109693000,9.50069287109375,-1.1826324462890625,-0.37469482421875,0.16741943359375
1772790134119758600,9.510758544921876,-1.18499755859375,-0.3598480224609375,0.1408843994140625
1772790134129824500,9.520824462890625,-1.1529693603515625,-0.3258819580078125,0.112060546875
1772790134139890700,9.530890625,-1.10205078125,-0.295257568359375,0.0854644775390625
1772790134149956600,9.54095654296875,-1.0468292236328125,-0.271087646484375,0.056793212890625
1772790134160022800,9.551022705078125,-0.9876556396484375,-0.240631103515625,0.039031982421875
1772790134170088000,9.561087890625,-0.9598541259765625,-0.2318572998046875,0.029998779296875
1772790134180153600,9.571153564453125,-0.9477996826171875,-0.2373504638671875,0.041351318359375
1772790134190219500,9.581219482421876,-0.9277496337890625,-0.2416534423828125,0.057464599609375
1772790134200285700,9.59128564453125,-0.9006195068359375,-0.2481536865234375,0.0644073486328125
1772790134210351600,9.6013515625,-0.87054443359375,-0.2593231201171875,0.072967529296875
1772790134220417800,9.611417724609375,-0.856170654296875,-0.267364501953125,0.0832366943359375
1772790134230483700,9.621483642578125,-0.8373565673828125,-0.2700653076171875,0.09027099609375
1772790134240550000,9.6315498046875,-0.807891845703125,-0.2705841064453125,0.0958099365234375
1772790134250615600,9.641615478515625,-0.788909912109375,-0.2729949951171875,0.1044921875
1772790134260681700,9.651681640625,-0.7930145263671875,-0.27734375,0.109954833984375
1772790134270747600,9.66174755859375,-0.7904052734375,-0.282501220703125,0.125030517578125
1772790134280813600,9.6718134765625,-0.7847900390625,-0.28668212890625,0.132415771484375
1772790134290878700,9.681878662109375,-0.780120849609375,-0.2849884033203125,0.146148681640625
1772790134300945000,9.69194482421875,-0.7864837646484375,-0.2934722900390625,0.1450042724609375
1772790134311010600,9.702010498046874,-0.7854461669921875,-0.308502197265625,0.144805908203125
1772790134321076700,9.71207666015625,-0.7824859619140625,-0.3219451904296875,0.14605712890625
1772790134331142700,9.722142578125,-0.7855682373046875,-0.34039306640625,0.155303955078125
1772790134341208600,9.73220849609375,-0.7930450439453125,-0.355926513671875,0.165985107421875
1772790134351274800,9.742274658203126,-0.8090667724609375,-0.3667144775390625,0.1620635986328125
1772790134361340700,9.752340576171875,-0.8209075927734375,-0.3780059814453125,0.1595611572265625
1772790134371406800,9.76240673828125,-0.8328399658203125,-0.3791656494140625,0.1656494140625
1772790134381472800,9.77247265625,-0.848358154296875,-0.379791259765625,0.154388427734375
1772790134391538700,9.78253857421875,-0.8611297607421875,-0.37939453125,0.1392364501953125
1772790134401604600,9.7926044921875,-0.862091064453125,-0.37359619140625,0.1251068115234375
1772790134411669800,9.802669677734375,-0.86376953125,-0.371673583984375,0.1210784912109375
1772790134421735700,9.812735595703124,-0.8813323974609375,-0.362884521484375,0.1097869873046875
1772790134431801900,9.8228017578125,-0.885711669921875,-0.355804443359375,0.1051788330078125
1772790134441867800,9.83286767578125,-0.880401611328125,-0.35809326171875,0.1009674072265625
1772790134451933700,9.84293359375,-0.8746337890625,-0.3621826171875,0.1024169921875
1772790134461999600,9.85299951171875,-0.8777923583984375,-0.3752899169921875,0.11090087890625
1772790134472065800,9.863065673828125,-0.88702392578125,-0.3860626220703125,0.107696533203125
1772790134482131700,9.873131591796875,-0.8546295166015625,-0.3929901123046875,0.1024627685546875
1772790134492197600,9.88319775390625,-0.826751708984375,-0.4032745361328125,0.11785888671875
1772790134502263800,9.893263916015625,-0.825469970703125,-0.4117889404296875,0.13323974609375
1772790134512329700,9.903329833984374,-0.8392791748046875,-0.4215087890625,0.137176513671875
1772790134522395600,9.913395751953125,-0.8399200439453125,-0.432037353515625,0.1418914794921875
1772790134532460800,9.923460693359376,-0.8407135009765625,-0.4358367919921875,0.1497039794921875
1772790134542526700,9.933526611328125,-0.8425140380859375,-0.4421539306640625,0.15289306640625
1772790134552592600,9.943592529296875,-0.849700927734375,-0.45452880859375,0.1539306640625
1772790134562658800,9.953658935546875,-0.8618621826171875,-0.461822509765625,0.144622802734375
1772790134572724700,9.963724853515625,-0.8705596923828125,-0.46624755859375,0.13702392578125
1772790134582790700,9.973790771484374,-0.8852691650390625,-0.4640045166015625,0.1266326904296875
1772790134592856600,9.983856689453125,-0.8950958251953125,-0.4497833251953125,0.1175384521484375
1772790134602922800,9.9939228515625,-0.903289794921875,-0.4501495361328125,0.117828369140625
1772790134612988700,10.00398876953125,-0.926544189453125,-0.457244873046875,0.104888916015625
1772790134623054800,10.014054931640626,-0.9379730224609375,-0.4603424072265625,0.091583251953125
1772790134633120800,10.024120849609375,-0.9282073974609375,-0.45794677734375,0.085052490234375
1772790134643186700,10.034186767578126,-0.917022705078125,-0.4554901123046875,0.0831298828125
1772790134653251600,10.04425146484375,-0.9002532958984375,-0.4531402587890625,0.075592041015625
1772790134663317800,10.05431787109375,-0.8905487060546875,-0.4539337158203125,0.0851593017578125
1772790134673383700,10.0643837890625,-0.9059600830078125,-0.456787109375,0.1020355224609375
1772790134683449900,10.074449951171875,-0.9203033447265625,-0.4615631103515625,0.117584228515625
1772790134693515800,10.084515869140626,-0.921142578125,-0.469635009765625,0.1239166259765625
1772790134703581700,10.094581787109375,-0.90374755859375,-0.4726104736328125,0.128936767578125
1772790134713647600,10.104647705078126,-0.888946533203125,-0.47296142578125,0.1333770751953125
1772790134723713500,10.114713623046875,-0.8888397216796875,-0.4741668701171875,0.134368896484375
1772790134733779700,10.12477978515625,-0.895294189453125,-0.4771728515625,0.1370391845703125
1772790134743845600,10.134845703125,-0.9007720947265625,-0.4773101806640625,0.1399688720703125
1772790134753911800,10.144911865234375,-0.9090576171875,-0.47430419921875,0.1343994140625
1772790134763976700,10.154976806640626,-0.906646728515625,-0.4709930419921875,0.133514404296875
1772790134774042600,10.165042724609375,-0.9074859619140625,-0.4749755859375,0.130584716796875
1772790134784108500,10.175108642578126,-0.914764404296875,-0.483551025390625,0.1338348388671875
1772790134794174700,10.1851748046875,-0.925445556640625,-0.4934234619140625,0.140472412109375
1772790134804240600,10.19524072265625,-0.929901123046875,-0.5037994384765625,0.14111328125
1772790134814306800,10.205306884765625,-0.9324951171875,-0.510711669921875,0.140655517578125
1772790134824372700,10.215372802734375,-0.9315643310546875,-0.5135498046875,0.14044189453125
1772790134834439000,10.22543896484375,-0.935272216796875,-0.51190185546875,0.14801025390625
1772790134844504600,10.235504638671875,-0.936614990234375,-0.5086822509765625,0.14288330078125
1772790134854570800,10.24557080078125,-0.917633056640625,-0.5062255859375,0.1453094482421875
1772790134864636700,10.25563671875,-0.925628662109375,-0.510101318359375,0.155120849609375
1772790134874702600,10.26570263671875,-0.9346923828125,-0.52056884765625,0.1545257568359375
1772790134884767700,10.275767822265625,-0.936767578125,-0.5327301025390625,0.1542510986328125
1772790134894837000,10.2858369140625,-0.9408416748046875,-0.5384063720703125,0.151336669921875
1772790134904903000,10.29590283203125,-0.9482879638671875,-0.537200927734375,0.1492156982421875
1772790134914969000,10.305968994140626,-0.9571380615234375,-0.5311279296875,0.1470794677734375
1772790134925034800,10.31603466796875,-0.96240234375,-0.5311431884765625,0.1425323486328125
1772790134935100700,10.3261005859375,-0.97540283203125,-0.5389556884765625,0.1448516845703125
1772790134945166800,10.336166748046875,-0.9839630126953125,-0.5322265625,0.141937255859375
1772790134955232800,10.346232666015625,-0.9914398193359375,-0.5143585205078125,0.13824462890625
1772790134965299000,10.356298828125,-1.010650634765625,-0.48931884765625,0.1266937255859375
1772790134975364900,10.36636474609375,-1.02130126953125,-0.458892822265625,0.1185302734375
1772790134985431000,10.37643115234375,-1.0213623046875,-0.426483154296875,0.107666015625
1772790134995497000,10.3864970703125,-1.017303466796875,-0.396087646484375,0.0921173095703125
1772790135005561900,10.396561767578126,-1.0088653564453125,-0.3763275146484375,0.076568603515625
1772790135015627800,10.406627685546875,-0.9903717041015625,-0.36102294921875,0.0780487060546875
1772790135025694000,10.41669384765625,-0.971160888671875,-0.3477325439453125,0.06805419921875
1772790135035759900,10.426759765625,-0.939666748046875,-0.3415985107421875,0.066650390625
1772790135045826000,10.436825927734375,-0.9131927490234375,-0.3478546142578125,0.073089599609375
1772790135055892000,10.44689208984375,-0.9192352294921875,-0.35272216796875,0.085784912109375
1772790135065958000,10.4569580078125,-0.941680908203125,-0.351959228515625,0.0922698974609375
1772790135076023800,10.46702392578125,-0.96343994140625,-0.359344482421875,0.0770721435546875
1772790135086089700,10.47708984375,-0.94744873046875,-0.3531036376953125,0.0754852294921875
1772790135096156000,10.487156005859376,-0.9161224365234375,-0.34051513671875,0.0774993896484375
1772790135106221800,10.497221923828125,-0.898773193359375,-0.34033203125,0.0653533935546875
1772790135116288000,10.5072880859375,-0.8984375,-0.3387603759765625,0.054779052734375
1772790135126353000,10.517352783203124,-0.8943023681640625,-0.3308258056640625,0.0435791015625
1772790135136418800,10.527418701171875,-0.8834991455078125,-0.32550048828125,0.0417327880859375
1772790135146484700,10.537484619140624,-0.886810302734375,-0.32720947265625,0.033172607421875
1772790135156551000,10.547551025390625,-0.8898773193359375,-0.3292083740234375,0.0292205810546875
1772790135166616800,10.557616943359376,-0.8852081298828125,-0.3325347900390625,0.03192138671875
1772790135176683000,10.56768310546875,-0.87408447265625,-0.3348388671875,0.0351104736328125
1772790135186749000,10.5777490234375,-0.8716888427734375,-0.33734130859375,0.044769287109375
1772790135196814800,10.58781494140625,-0.87872314453125,-0.34930419921875,0.055816650390625
1772790135206880800,10.597880859375,-0.8881988525390625,-0.3582763671875,0.0674285888671875
1772790135216947000,10.607947021484375,-0.8847808837890625,-0.358795166015625,0.0771636962890625
1772790135227012900,10.618012939453125,-0.8791351318359375,-0.357513427734375,0.0846710205078125
1772790135237078800,10.628078857421874,-0.8820037841796875,-0.3519134521484375,0.0936279296875
1772790135247144000,10.63814404296875,-0.882476806640625,-0.3507537841796875,0.10455322265625
1772790135257209900,10.6482099609375,-0.8828125,-0.3485107421875,0.104278564453125
1772790135267275800,10.65827587890625,-0.86260986328125,-0.3484649658203125,0.115570068359375
1772790135277342000,10.668342041015626,-0.868408203125,-0.360321044921875,0.1383056640625
1772790135287407900,10.678407958984375,-0.8851165771484375,-0.3699493408203125,0.149078369140625
1772790135297473800,10.688473876953125,-0.87274169921875,-0.3790435791015625,0.155242919921875
1772790135307540000,10.6985400390625,-0.85845947265625,-0.3898162841796875,0.1586761474609375
1772790135317606000,10.70860595703125,-0.7737274169921875,-0.3979644775390625,0.1949310302734375
1772790135327671800,10.718671875,-0.8010406494140625,-0.412200927734375,0.208709716796875
1772790135337737700,10.72873779296875,-0.9030303955078125,-0.4306793212890625,0.1942596435546875
1772790135347804000,10.738803955078126,-0.892791748046875,-0.44110107421875,0.190185546875
1772790135357869800,10.748869873046875,-0.8716278076171875,-0.4284820556640625,0.184295654296875
1772790135367935000,10.75893505859375,-0.8953399658203125,-0.4180755615234375,0.1688385009765625
1772790135378001000,10.7690009765625,-0.915374755859375,-0.41729736328125,0.164306640625
1772790135388066800,10.77906689453125,-0.9034423828125,-0.4039764404296875,0.1662445068359375
1772790135398132700,10.7891328125,-0.8489990234375,-0.387939453125,0.1447296142578125
1772790135408199000,10.799198974609375,-0.8410491943359375,-0.36724853515625,0.14703369140625
