time,seconds_elapsed,z,y,x
1772790124684186400,0.075186279296875,1.5090869665145874,0.4866894781589508,0.07032778859138489
1772790124694252500,0.08525244140625,1.52728271484375,0.4171746075153351,0.09192416071891785
1772790124704318200,0.095318115234375,1.5399656295776367,0.3747766613960266,0.09369148313999176
1772790124714384400,0.10538427734375,1.5383656024932861,0.3402194678783417,0.08140365779399872
1772790124724450300,0.1154501953125,1.5332354307174683,0.29020318388938904,0.07429943978786469
1772790124734516500,0.1255166015625,1.5064290761947632,0.23536814749240875,0.08900915086269379
1772790124744582400,0.13558251953125,1.4725934267044067,0.1999598890542984,0.10725045949220657
1772790124754648300,0.1456484375,1.4373356103897095,0.19161273539066315,0.14108112454414368
1772790124764714500,0.155714599609375,1.387986183166504,0.17567914724349976,0.16718287765979767
1772790124774780200,0.1657802734375,1.3404783010482788,0.1322784125804901,0.1852782517671585
1772790124784846300,0.175846435546875,1.2820475101470947,0.06958998739719391,0.2030070424079895
1772790124794912300,0.185912353515625,1.2189548015594482,0.04199032112956047,0.22664526104927063
1772790124804978400,0.195978515625,1.1556248664855957,0.04557570442557335,0.2569288909435272
1772790124815044400,0.20604443359375,1.094707727432251,0.07419775426387787,0.2800824046134949
1772790124825110500,0.216110595703125,1.0238871574401855,0.09835901856422424,0.28310561180114746
1772790124835176400,0.226176513671875,0.9452428221702576,0.1289781779050827,0.27954840660095215
1772790124845242400,0.236242431640625,0.8808166980743408,0.18178626894950867,0.2660658359527588
1772790124855308300,0.246308349609375,0.8186228275299072,0.24312178790569305,0.24468626081943512
1772790124865374200,0.256374267578125,0.7587452530860901,0.27795636653900146,0.2188188135623932
1772790124875440400,0.2664404296875,0.6969527006149292,0.275333434343338,0.19200904667377472
1772790124885506300,0.27650634765625,0.646977424621582,0.2782290279865265,0.16380034387111664
1772790124895573200,0.2865732421875,0.60850590467453,0.29695823788642883,0.1388731598854065
1772790124905639200,0.29663916015625,0.5812169909477234,0.3361920118331909,0.10715856403112411
1772790124915705000,0.306705078125,0.5453684329986572,0.3481517434120178,0.06316900253295898
1772790124925771000,0.31677099609375,0.507350742816925,0.30914321541786194,0.015278318896889687
1772790124935837000,0.3268369140625,0.47539225220680237,0.24200518429279327,-0.03475448861718178
1772790124945903000,0.336903076171875,0.45555225014686584,0.2014407515525818,-0.07595592737197876
1772790124955969000,0.346968994140625,0.43643662333488464,0.199856698513031,-0.10457772016525269
1772790124966035200,0.35703515625,0.43284571170806885,0.22294911742210388,-0.1324433833360672
1772790124976101000,0.36710107421875,0.44417375326156616,0.24450846016407013,-0.17270798981189728
1772790124986167300,0.377167236328125,0.45840367674827576,0.25499019026756287,-0.20315885543823242
1772790124996233000,0.38723291015625,0.47521916031837463,0.2528032064437866,-0.23075959086418152
1772790125006299100,0.397299072265625,0.4870143532752991,0.24115483462810516,-0.24832771718502045
1772790125016365000,0.407364990234375,0.4925236403942108,0.218600794672966,-0.27030518651008606
1772790125026431000,0.417430908203125,0.4930080473423004,0.19665013253688812,-0.292059987783432
1772790125036497200,0.4274970703125,0.4884524643421173,0.20150640606880188,-0.3236224353313446
1772790125046563000,0.43756298828125,0.48620855808258057,0.20090004801750183,-0.34947362542152405
1772790125056629200,0.447629150390625,0.4799940884113312,0.17936626076698303,-0.36394232511520386
1772790125066695000,0.45769482421875,0.4726899564266205,0.1353057622909546,-0.3428024649620056
1772790125076761000,0.467760986328125,0.4693945646286011,0.08238928765058517,-0.29209455847740173
1772790125086827000,0.477826904296875,0.4790651500225067,0.025988180190324783,-0.2197117954492569
1772790125096892200,0.48789208984375,0.4890384078025818,-0.03981906175613403,-0.1336781233549118
1772790125106958000,0.4979580078125,0.4966355264186859,-0.09075219929218292,-0.05349573865532875
1772790125117024300,0.508024169921875,0.48539406061172485,-0.08667862415313721,0.01993373967707157
1772790125127090000,0.51808984375,0.4518524408340454,-0.07055173814296722,0.07404161989688873
1772790125137156000,0.528156005859375,0.38381877541542053,-0.05320363491773605,0.10869573801755905
1772790125147222000,0.538221923828125,0.29863816499710083,-0.030499238520860672,0.10521100461483002
1772790125157288200,0.5482880859375,0.21818619966506958,-0.011764965951442719,0.06743220239877701
1772790125167354000,0.55835400390625,0.13566206395626068,-0.0069508240558207035,-0.0023772576823830605
1772790125177420000,0.568419921875,0.06230075657367706,-0.026311472058296204,-0.07750849425792694
1772790125187486200,0.578486328125,-0.0020085074938833714,-0.052176956087350845,-0.13190525770187378
1772790125197552000,0.58855224609375,-0.07602494955062866,-0.06481179594993591,-0.16000694036483765
1772790125207618000,0.5986181640625,-0.14369376003742218,-0.04408958926796913,-0.1720474809408188
1772790125217684000,0.60868408203125,-0.19458943605422974,-0.004018602892756462,-0.18263353407382965
1772790125227750100,0.618750244140625,-0.24114149808883667,0.02968651056289673,-0.2074471414089203
1772790125237816000,0.628816162109375,-0.29188165068626404,0.0309097021818161,-0.2624094486236572
1772790125247882200,0.63888232421875,-0.3384770452976227,-0.025476131588220596,-0.3143202066421509
1772790125257948200,0.6489482421875,-0.37932032346725464,-0.09050039947032928,-0.3565851151943207
1772790125268014000,0.65901416015625,-0.411989688873291,-0.1251063495874405,-0.37574368715286255
1772790125278080000,0.669080078125,-0.4255952537059784,-0.1268853396177292,-0.3744368851184845
1772790125288146000,0.67914599609375,-0.4226621687412262,-0.09728217869997025,-0.35978782176971436
1772790125298212000,0.689212158203125,-0.4212477505207062,-0.0557059720158577,-0.3547437787055969
1772790125308278000,0.699278076171875,-0.4049989879131317,-0.018571767956018448,-0.3793218433856964
1772790125318344200,0.70934423828125,-0.37213823199272156,-0.026981499046087265,-0.41855284571647644
1772790125328410000,0.71941015625,-0.33469104766845703,-0.03290978819131851,-0.4464226961135864
1772790125338476300,0.729476318359375,-0.3023376166820526,-0.006327178794890642,-0.44669273495674133
1772790125348542000,0.7395419921875,-0.2706727981567383,-0.00586266303434968,-0.42554032802581787
1772790125358608100,0.749608154296875,-0.23354408144950867,-0.04305211082100868,-0.3852437734603882
1772790125368674000,0.759674072265625,-0.19465835392475128,-0.06456692516803741,-0.34986287355422974
1772790125378740000,0.769739990234375,-0.1505633294582367,-0.10096168518066406,-0.32379451394081116
1772790125388806100,0.77980615234375,-0.10647030919790268,-0.15889893472194672,-0.3227546811103821
1772790125398872000,0.7898720703125,-0.06074783205986023,-0.22032713890075684,-0.3500041365623474
1772790125408938200,0.799938232421875,-0.019965780898928642,-0.27418166399002075,-0.37255868315696716
1772790125419004200,0.810004150390625,-0.002097301883623004,-0.27441683411598206,-0.38776320219039917
1772790125429070000,0.820070068359375,0.011423833668231964,-0.26298636198043823,-0.410534530878067
1772790125439136000,0.830135986328125,0.04389762133359909,-0.22307464480400085,-0.44852399826049805
1772790125449202200,0.8402021484375,0.08471696078777313,-0.17181962728500366,-0.4884735643863678
1772790125459268000,0.85026806640625,0.1265469640493393,-0.1727578490972519,-0.5221867561340332
1772790125469334000,0.860333984375,0.1614893227815628,-0.19682329893112183,-0.5320483446121216
1772790125479400200,0.870400146484375,0.2023153156042099,-0.20418693125247955,-0.49656760692596436
1772790125489466000,0.880466064453125,0.24832576513290405,-0.18201929330825806,-0.4272626042366028
1772790125499532000,0.890531982421875,0.3003593981266022,-0.1261909008026123,-0.3280028700828552
1772790125509598000,0.900597900390625,0.33907029032707214,-0.06525491178035736,-0.23796026408672333
1772790125519664000,0.9106640625,0.36718448996543884,-0.03431350737810135,-0.1619826853275299
1772790125529730000,0.92072998046875,0.3825967013835907,-0.03698308765888214,-0.11038186401128769
1772790125539796200,0.930796142578125,0.39056968688964844,-0.030684182420372963,-0.06752840429544449
1772790125549862100,0.940862060546875,0.3954383432865143,-0.005469403229653835,-0.03830920159816742
1772790125559928000,0.950927978515625,0.39500904083251953,0.02522086352109909,-0.016552506014704704
1772790125569994000,0.960993896484375,0.38924363255500793,0.039477623999118805,-0.010065361857414246
1772790125580060000,0.971059814453125,0.3664853274822235,0.05606618896126747,-0.011839027516543865
1772790125590126000,0.9811259765625,0.34926077723503113,0.0803985670208931,-0.017405958846211433
1772790125600192000,0.99119189453125,0.3298167586326599,0.09978851675987244,-0.032636843621730804
1772790125610258200,1.001258056640625,0.31172671914100647,0.10563871264457703,-0.04374712333083153
1772790125620324000,1.011323974609375,0.2921799123287201,0.11677312105894089,-0.05362718552350998
1772790125630390300,1.021390380859375,0.27450278401374817,0.14725065231323242,-0.03976411372423172
1772790125640456200,1.031456298828125,0.2559349536895752,0.1830693781375885,-0.027881618589162827
1772790125650522000,1.041522216796875,0.23683767020702362,0.2038874477148056,-0.020122624933719635
1772790125660588000,1.051588134765625,0.22041554749011993,0.20879779756069183,-0.03270605951547623
1772790125670654000,1.061654052734375,0.2073100358247757,0.2135145515203476,-0.05386170372366905
1772790125680720100,1.07172021484375,0.19589678943157196,0.21732738614082336,-0.06877860426902771
1772790125690786000,1.0817861328125,0.1774146407842636,0.2015666365623474,-0.07311883568763733
1772790125700852200,1.091852294921875,0.16914446651935577,0.18654321134090424,-0.051908884197473526
1772790125710917000,1.101917236328125,0.16825900971889496,0.19839885830879211,-0.013490439392626286
1772790125720983000,1.111983154296875,0.17457203567028046,0.23156000673770905,0.01961664669215679
1772790125731049000,1.122049072265625,0.1856609582901001,0.24999873340129852,0.02284115180373192
1772790125741115100,1.132115234375,0.20048224925994873,0.22434262931346893,-0.012466770596802235
1772790125751181000,1.14218115234375,0.20992398262023926,0.18092508614063263,-0.06687809526920319
1772790125761247200,1.152247314453125,0.2050037980079651,0.1564551591873169,-0.11757189780473709
1772790125771313200,1.162313232421875,0.1964256763458252,0.17186525464057922,-0.15696930885314941
1772790125781379000,1.172379150390625,0.18496182560920715,0.21933849155902863,-0.19563627243041992
1772790125791445000,1.182445068359375,0.14619798958301544,0.24798904359340668,-0.22862321138381958
1772790125801511200,1.19251123046875,0.0855865627527237,0.18639066815376282,-0.285482257604599
1772790125811577000,1.2025771484375,-0.015794537961483,0.05004735663533211,-0.3546020984649658
1772790125821643000,1.21264306640625,-0.1317642778158188,-0.1486217975616455,-0.4151586592197418
1772790125831709200,1.222709228515625,-0.22996996343135834,-0.36952000856399536,-0.4166853129863739
1772790125841775000,1.232775146484375,-0.30036821961402893,-0.5388590097427368,-0.3358897864818573
1772790125851841000,1.242841064453125,-0.3539642095565796,-0.6206557750701904,-0.17859172821044922
1772790125861907000,1.252906982421875,-0.37440210580825806,-0.6013438701629639,0.02365138754248619
1772790125871973000,1.26297314453125,-0.33921295404434204,-0.46480801701545715,0.24775061011314392
1772790125882039000,1.2730390625,-0.257283478975296,-0.22042252123355865,0.4576713442802429
1772790125892108800,1.28310888671875,-0.1447480469942093,0.11198575794696808,0.6043476462364197
1772790125902174500,1.293174560546875,-0.03287423402070999,0.4399183690547943,0.6631965637207031
1772790125912240400,1.303240478515625,0.0485110804438591,0.661319375038147,0.612811267375946
1772790125922306600,1.313306640625,0.09907998144626617,0.7817562818527222,0.49182093143463135
1772790125932372500,1.32337255859375,0.12457092106342316,0.8438807725906372,0.34282875061035156
1772790125942438700,1.333438720703125,0.12221188843250275,0.867732048034668,0.21262627840042114
1772790125952504600,1.343504638671875,0.12059781700372696,0.8602272868156433,0.12365870177745819
1772790125962570800,1.35357080078125,0.10889508575201035,0.8298691511154175,0.07151693850755692
1772790125972636700,1.36363671875,0.08988817036151886,0.7340717911720276,0.04138890281319618
1772790125982702600,1.37370263671875,0.06643504649400711,0.5896003842353821,0.035086262971162796
1772790125992768500,1.3837685546875,0.05235990509390831,0.4376542568206787,0.05208757892251015
1772790126002834400,1.39383447265625,0.03344986215233803,0.28825703263282776,0.08172989636659622
1772790126012900600,1.403900634765625,0.016935577616095543,0.1412585824728012,0.10973373800516129
1772790126022966500,1.413966552734375,0.015988290309906006,0.010991653427481651,0.12593801319599152
1772790126033032700,1.42403271484375,0.024019386619329453,-0.12692226469516754,0.12409541010856628
1772790126043098600,1.4340986328125,0.033251501619815826,-0.263901948928833,0.10980435460805893
1772790126053164500,1.44416455078125,0.028201816603541374,-0.389478862285614,0.08076327294111252
1772790126063230500,1.45423046875,0.011791684664785862,-0.49045369029045105,0.03720087930560112
1772790126073296600,1.464296630859375,-0.013700651004910469,-0.5497277975082397,-0.011453758925199509
1772790126083362600,1.474362548828125,-0.05058170482516289,-0.5648500323295593,-0.06322880834341049
1772790126093428700,1.4844287109375,-0.09801517426967621,-0.5612282156944275,-0.11598722636699677
1772790126103494700,1.49449462890625,-0.13529011607170105,-0.5630862712860107,-0.16481095552444458
1772790126113560600,1.504560546875,-0.16047531366348267,-0.5662089586257935,-0.19064584374427795
1772790126123626500,1.51462646484375,-0.1623224914073944,-0.5338912606239319,-0.17596010863780975
1772790126133692400,1.5246923828125,-0.14487189054489136,-0.4194648265838623,-0.12504440546035767
1772790126143758600,1.534758544921875,-0.10069218277931213,-0.22844986617565155,-0.0566195473074913
1772790126153824500,1.544824462890625,-0.030424367636442184,-0.0029914788901805878,0.005867786705493927
1772790126163890700,1.554890625,0.050690989941358566,0.19675545394420624,0.03736978396773338
1772790126173956600,1.56495654296875,0.12526941299438477,0.3329774737358093,0.033898234367370605
1772790126184022800,1.575022705078125,0.18367387354373932,0.40668606758117676,0.0051307701505720615
1772790126194088700,1.585088623046875,0.217910036444664,0.4425165355205536,-0.03156239539384842
1772790126204154400,1.595154296875,0.22023364901542664,0.4624074101448059,-0.054463185369968414
1772790126214219500,1.605219482421875,0.19456036388874054,0.4532643258571625,-0.07742293924093246
1772790126224285700,1.61528564453125,0.15711073577404022,0.4161912798881531,-0.10457706451416016
1772790126234351600,1.6253515625,0.10534031689167023,0.3588174283504486,-0.13836164772510529
1772790126244417800,1.635417724609375,0.04589536786079407,0.265653133392334,-0.17213985323905945
1772790126254483700,1.645483642578125,-0.011156776919960976,0.15531207621097565,-0.20175357162952423
1772790126264549400,1.65554931640625,-0.07723139971494675,0.06914523243904114,-0.2095015048980713
1772790126274615600,1.665615478515625,-0.1287432610988617,-0.035737235099077225,-0.19636808335781097
1772790126284681500,1.675681396484375,-0.17685620486736298,-0.1485801637172699,-0.15772321820259094
1772790126294747600,1.68574755859375,-0.2071186900138855,-0.22468692064285278,-0.10770130157470703
1772790126304813600,1.6958134765625,-0.22819600999355316,-0.2652399241924286,-0.059808339923620224
1772790126314879700,1.705879638671875,-0.2622077465057373,-0.2917589247226715,-0.027216587215662003
1772790126324945700,1.715945556640625,-0.29656171798706055,-0.2877042591571808,-0.011334827169775963
1772790126335011600,1.726011474609375,-0.3428942561149597,-0.25469771027565,-0.018521467223763466
1772790126345077500,1.736077392578125,-0.39500564336776733,-0.20443828403949738,-0.049577921628952026
1772790126355143400,1.746143310546875,-0.4466867744922638,-0.13882675766944885,-0.09113870561122894
1772790126365209600,1.756209716796875,-0.49229660630226135,-0.06502203643321991,-0.1387118250131607
1772790126375275500,1.766275634765625,-0.5275570750236511,-0.011465362273156643,-0.16920208930969238
1772790126385341700,1.776341796875,-0.5511519312858582,0.03556632995605469,-0.1749526560306549
1772790126395407600,1.78640771484375,-0.5555586814880371,0.06940487027168274,-0.1493624597787857
1772790126405473500,1.7964736328125,-0.5472632050514221,0.10070207715034485,-0.10006709396839142
1772790126415539500,1.80653955078125,-0.5414878726005554,0.13693271577358246,-0.03663666918873787
1772790126425605600,1.816605712890625,-0.5381386876106262,0.16015388071537018,0.040883686393499374
1772790126435671600,1.826671630859375,-0.5345862507820129,0.1628040224313736,0.09675407409667969
1772790126445737700,1.83673779296875,-0.5342024564743042,0.1274697333574295,0.13278904557228088
1772790126455803600,1.8468037109375,-0.5282519459724426,0.07249647378921509,0.1507313996553421
1772790126465869600,1.85686962890625,-0.5255908966064453,0.027462687343358994,0.16593033075332642
1772790126475935700,1.866935791015625,-0.5274583697319031,-0.003131827339529991,0.18333232402801514
1772790126486001400,1.87700146484375,-0.5229160785675049,-0.01846178248524666,0.19865243136882782
1772790126496067600,1.887067626953125,-0.5117623805999756,-0.029176924377679825,0.2032361477613449
1772790126506133500,1.897133544921875,-0.5076494216918945,-0.045362282544374466,0.18603958189487457
1772790126516199700,1.90719970703125,-0.4975334107875824,-0.09284135699272156,0.14954710006713867
1772790126526265600,1.917265625,-0.5020599961280823,-0.1703374832868576,0.10007461160421371
1772790126536331800,1.927331787109375,-0.5138526558876038,-0.24302461743354797,0.05227832496166229
1772790126546397700,1.937397705078125,-0.5196450352668762,-0.26775315403938293,0.01880212500691414
1772790126556463400,1.94746337890625,-0.5320826172828674,-0.18857400119304657,-0.008174896240234375
1772790126566529500,1.957529541015625,-0.5384576916694641,-0.1021467074751854,-0.0618881918489933
1772790126576595500,1.967595458984375,-0.5531558990478516,-0.057900320738554,-0.15336649119853973
1772790126586661600,1.97766162109375,-0.5808717012405396,-0.074100062251091,-0.2852645814418793
1772790126596727600,1.9877275390625,-0.6226322054862976,-0.14104324579238892,-0.4192948043346405
1772790126606793700,1.997793701171875,-0.666238009929657,-0.22858907282352448,-0.52814781665802
1772790126616859600,2.007859619140625,-0.6947280168533325,-0.343424528837204,-0.5687247514724731
1772790126626924500,2.017924560546875,-0.7097548842430115,-0.46550968289375305,-0.5164216160774231
1772790126636990500,2.027990478515625,-0.6949341893196106,-0.5479860901832581,-0.3717900216579437
1772790126647056600,2.038056640625,-0.6562914848327637,-0.5541419982910156,-0.15998561680316925
1772790126657122600,2.04812255859375,-0.5725560188293457,-0.4878852069377899,0.07427429407835007
1772790126667188700,2.058188720703125,-0.4691038727760315,-0.35014572739601135,0.29348334670066833
1772790126677254700,2.068254638671875,-0.3665258288383484,-0.17328032851219177,0.47318994998931885
1772790126687320600,2.078320556640625,-0.27297723293304443,-0.013129271566867828,0.579136312007904
1772790126697386500,2.088386474609375,-0.19276827573776245,0.1016913503408432,0.6100937128067017
1772790126707452400,2.098452392578125,-0.12317880243062973,0.19323112070560455,0.5870339274406433
1772790126717518600,2.1085185546875,-0.07409539073705673,0.27828630805015564,0.5443209409713745
1772790126727584500,2.11858447265625,-0.04542326554656029,0.3354364037513733,0.5171260237693787
1772790126737650700,2.128650634765625,-0.03368484973907471,0.3060773015022278,0.5182037949562073
1772790126747716600,2.138716552734375,-0.048771657049655914,0.2489495575428009,0.5639832615852356
1772790126757782800,2.14878271484375,-0.07535182684659958,0.1832212656736374,0.6296898722648621
1772790126767848400,2.158848388671875,-0.12639105319976807,0.094408318400383,0.7094520330429077
1772790126777914600,2.16891455078125,-0.1918303370475769,-0.01587412692606449,0.7876770496368408
1772790126787980500,2.17898046875,-0.2663181722164154,-0.10697660595178604,0.844139814376831
1772790126798046500,2.18904638671875,-0.3414660096168518,-0.1795887053012848,0.8613852262496948
1772790126808112600,2.199112548828125,-0.4053078293800354,-0.24457409977912903,0.8388810157775879
1772790126818178600,2.209178466796875,-0.47935009002685547,-0.30437222123146057,0.7774973511695862
1772790126828244700,2.21924462890625,-0.5652114748954773,-0.34118056297302246,0.6782463788986206
1772790126838310400,2.229310302734375,-0.6581598520278931,-0.34025296568870544,0.5445170402526855
1772790126848376600,2.23937646484375,-0.7486404776573181,-0.32301005721092224,0.3783736228942871
1772790126858442500,2.2494423828125,-0.8236556053161621,-0.2912324368953705,0.19710902869701385
1772790126868508700,2.2595087890625,-0.8737544417381287,-0.22763295471668243,0.015806348994374275
1772790126878574600,2.26957470703125,-0.8843452334403992,-0.13587415218353271,-0.1543998420238495
1772790126888640800,2.279640869140625,-0.8594034314155579,-0.050615452229976654,-0.28898054361343384
1772790126898702600,2.28970263671875,-0.8119415044784546,0.022169455885887146,-0.38044777512550354
1772790126908768800,2.299768798828125,-0.758711040019989,0.0853007510304451,-0.4258631765842438
1772790126918834700,2.309834716796875,-0.7120636105537415,0.11620353907346725,-0.43706896901130676
1772790126928900600,2.319900634765625,-0.6712890267372131,0.09533113241195679,-0.4232923090457916
1772790126938966500,2.329966552734375,-0.6461533904075623,0.060635197907686234,-0.3877042531967163
1772790126949032400,2.340032470703125,-0.6317890882492065,0.02036767080426216,-0.3523944616317749
1772790126959098600,2.3500986328125,-0.6254791617393494,-0.028973426669836044,-0.3234577476978302
1772790126969164500,2.36016455078125,-0.6251087188720703,-0.07709887623786926,-0.29901471734046936
1772790126979229700,2.370229736328125,-0.6275404095649719,-0.10410941392183304,-0.2864682376384735
1772790126989296600,2.380296630859375,-0.6390929222106934,-0.1369541883468628,-0.29456213116645813
1772790126999361500,2.390361572265625,-0.6448193788528442,-0.19557732343673706,-0.3299170732498169
1772790127009427500,2.400427490234375,-0.6457040905952454,-0.24898995459079742,-0.37998875975608826
1772790127019493600,2.41049365234375,-0.6371744275093079,-0.29878127574920654,-0.4314109683036804
1772790127029559600,2.4205595703125,-0.6232588887214661,-0.3619735538959503,-0.4663689434528351
1772790127039625700,2.430625732421875,-0.6158945560455322,-0.4182121157646179,-0.48797404766082764
1772790127049691600,2.440691650390625,-0.6167126893997192,-0.45823463797569275,-0.49119406938552856
1772790127059757800,2.4507578125,-0.6169373393058777,-0.4835052192211151,-0.49554508924484253
1772790127069823700,2.46082373046875,-0.6061230301856995,-0.506256639957428,-0.48301011323928833
1772790127079889400,2.470889404296875,-0.5859110951423645,-0.5173916816711426,-0.43924885988235474
1772790127089955600,2.48095556640625,-0.564588189125061,-0.4911092221736908,-0.3748144805431366
1772790127100021500,2.491021484375,-0.5311648845672607,-0.43303537368774414,-0.2957664728164673
1772790127110087700,2.501087646484375,-0.499870628118515,-0.3495979905128479,-0.20537637174129486
1772790127120153600,2.511153564453125,-0.470165878534317,-0.2347557693719864,-0.13477474451065063
1772790127130219800,2.5212197265625,-0.43619272112846375,-0.1359729915857315,-0.09048478305339813
1772790127140285700,2.53128564453125,-0.4057008922100067,-0.07956688106060028,-0.08205299079418182
1772790127150351600,2.5413515625,-0.3845415413379669,-0.06882315874099731,-0.0969078317284584
1772790127160417500,2.55141748046875,-0.37637224793434143,-0.0788702517747879,-0.11679357290267944
1772790127170483700,2.561483642578125,-0.3764822483062744,-0.08983022719621658,-0.12680065631866455
1772790127180549600,2.571549560546875,-0.3829256594181061,-0.0865388959646225,-0.11893691122531891
1772790127190615600,2.581615478515625,-0.39706677198410034,-0.07033462822437286,-0.10093899816274643
1772790127200681700,2.591681640625,-0.39847037196159363,-0.06488475948572159,-0.09678733348846436
1772790127210747600,2.60174755859375,-0.39386844635009766,-0.08079101890325546,-0.0841708704829216
1772790127220813600,2.6118134765625,-0.40887364745140076,-0.09816668927669525,-0.076594278216362
1772790127230879500,2.62187939453125,-0.41967064142227173,-0.13518597185611725,-0.07376120984554291
1772790127240945700,2.631945556640625,-0.41450998187065125,-0.1620621681213379,-0.06565654277801514
1772790127251011600,2.642011474609375,-0.3993523418903351,-0.1563616693019867,-0.04537257179617882
1772790127261077800,2.652077880859375,-0.38597434759140015,-0.1358954757452011,-0.015670351684093475
1772790127271143700,2.662143798828125,-0.3749896287918091,-0.1376771330833435,0.021716434508562088
1772790127281209600,2.672209716796875,-0.3677583336830139,-0.15922875702381134,0.06498508155345917
1772790127291275800,2.68227587890625,-0.3592873513698578,-0.17331022024154663,0.11360987275838852
1772790127301340700,2.692340576171875,-0.3426467478275299,-0.15947672724723816,0.1685197502374649
1772790127311406600,2.702406494140625,-0.33189475536346436,-0.1265086680650711,0.21807506680488586
1772790127321472800,2.71247265625,-0.33091551065444946,-0.11747387051582336,0.24626664817333221
1772790127331538700,2.72253857421875,-0.3492753505706787,-0.12536348402500153,0.2540401518344879
1772790127341604600,2.7326044921875,-0.3701638877391815,-0.13546082377433777,0.24731194972991943
1772790127351670800,2.7426708984375,-0.3846125900745392,-0.12941278517246246,0.24866802990436554
1772790127361736400,2.752736328125,-0.4086308777332306,-0.10550644993782043,0.250728040933609
1772790127371802600,2.762802734375,-0.43769848346710205,-0.1071229875087738,0.2589385509490967
1772790127381868500,2.77286865234375,-0.4760761857032776,-0.12664490938186646,0.28133565187454224
1772790127391934700,2.782934814453125,-0.5157577991485596,-0.158492311835289,0.3038891553878784
1772790127402000600,2.793000732421875,-0.5466801524162292,-0.17862465977668762,0.33431461453437805
1772790127412066800,2.80306689453125,-0.5751736164093018,-0.186406672000885,0.37284043431282043
1772790127422132700,2.8131328125,-0.6017912030220032,-0.2029523104429245,0.3957456946372986
1772790127432198400,2.823198486328125,-0.6317360401153564,-0.22965368628501892,0.4065176546573639
1772790127442264600,2.8332646484375,-0.6484436988830566,-0.262674480676651,0.4029572904109955
1772790127452330500,2.84333056640625,-0.6572920083999634,-0.2698298692703247,0.41740334033966064
1772790127462396700,2.853396728515625,-0.6576170921325684,-0.22837448120117188,0.4594036638736725
1772790127472462600,2.863462646484375,-0.645325779914856,-0.12019902467727661,0.5293886065483093
1772790127482528800,2.87352880859375,-0.6264402866363525,0.03313285484910011,0.6008607745170593
1772790127492594700,2.8835947265625,-0.5995516777038574,0.1665249913930893,0.6630964279174805
1772790127502660600,2.89366064453125,-0.5832367539405823,0.25923681259155273,0.6934235095977783
1772790127512726500,2.9037265625,-0.5764941573143005,0.31118044257164,0.6906208395957947
1772790127522792700,2.913792724609375,-0.5792293548583984,0.3230862021446228,0.6618021130561829
1772790127532858600,2.923858642578125,-0.5790647864341736,0.29436108469963074,0.6352008581161499
1772790127542924500,2.933924560546875,-0.584688663482666,0.2771104574203491,0.6267194747924805
1772790127552990700,2.94399072265625,-0.5884109735488892,0.2562086582183838,0.6323469877243042
1772790127563056600,2.954056640625,-0.5934513211250305,0.1931094527244568,0.6257845759391785
1772790127573122800,2.964122802734375,-0.609179675579071,0.10761265456676483,0.6042894124984741
1772790127583188500,2.9741884765625,-0.6213027834892273,0.0038023972883820534,0.5726722478866577
1772790127593254700,2.984254638671875,-0.6429619789123535,-0.0914122685790062,0.5385225415229797
1772790127603319600,2.994319580078125,-0.6720442771911621,-0.16649898886680603,0.4958081543445587
1772790127613385700,3.0043857421875,-0.7138055562973022,-0.23771697282791138,0.4392106533050537
1772790127623451600,3.01445166015625,-0.7706827521324158,-0.32118162512779236,0.36449897289276123
1772790127633517800,3.024517822265625,-0.8522955775260925,-0.4302862882614136,0.2741698920726776
1772790127643583500,3.03458349609375,-0.9447482228279114,-0.5412812232971191,0.18803636729717255
1772790127653649700,3.044649658203125,-1.0537256002426147,-0.6452891230583191,0.09807851165533066
1772790127663715600,3.054715576171875,-1.1701146364212036,-0.7281885743141174,0.010364393703639507
1772790127673781800,3.06478173828125,-1.2783162593841553,-0.8046399354934692,-0.0719432607293129
1772790127683847700,3.07484765625,-1.3644301891326904,-0.8415033221244812,-0.1437445878982544
1772790127693913600,3.08491357421875,-1.4161591529846191,-0.834423840045929,-0.18049727380275726
1772790127703979800,3.094979736328125,-1.4367717504501343,-0.7866259217262268,-0.1687765270471573
1772790127714045400,3.10504541015625,-1.4117300510406494,-0.68522047996521,-0.11003918945789337
1772790127724111600,3.115111572265625,-1.3526948690414429,-0.5078688859939575,-0.0067265816032886505
1772790127734177500,3.125177490234375,-1.2701576948165894,-0.27239376306533813,0.10511846095323563
1772790127744243700,3.13524365234375,-1.1835994720458984,-0.04706518352031708,0.18260006606578827
1772790127754309600,3.1453095703125,-1.115350365638733,0.10563167929649353,0.20879651606082916
1772790127764375800,3.155375732421875,-1.089554786682129,0.15258076786994934,0.16527415812015533
1772790127774441700,3.165441650390625,-1.0983823537826538,0.15745434165000916,0.07858160138130188
1772790127784507400,3.17550732421875,-1.150458574295044,0.13803350925445557,-0.020838988944888115
1772790127794573600,3.185573486328125,-1.2292002439498901,0.07635976374149323,-0.10855712741613388
1772790127804639500,3.195639404296875,-1.3064981698989868,-0.029495812952518463,-0.15813392400741577
1772790127814705700,3.20570556640625,-1.3686097860336304,-0.14897240698337555,-0.17061428725719452
1772790127824771600,3.215771484375,-1.4056178331375122,-0.25368010997772217,-0.1336238980293274
1772790127834837800,3.225837646484375,-1.429360270500183,-0.3397870361804962,-0.07650921493768692
1772790127844903700,3.235903564453125,-1.433606505393982,-0.4259761869907379,-0.016591906547546387
1772790127854969900,3.245969970703125,-1.4311805963516235,-0.5037670731544495,0.02929435856640339
1772790127865034500,3.256034423828125,-1.4304999113082886,-0.5330122709274292,0.059647440910339355
1772790127875100700,3.2661005859375,-1.4348044395446777,-0.5218390226364136,0.07596995681524277
1772790127885166600,3.27616650390625,-1.4365910291671753,-0.48608100414276123,0.06154537945985794
1772790127895238100,3.286238037109375,-1.4451677799224854,-0.41498181223869324,0.033834390342235565
1772790127905304300,3.29630419921875,-1.4330185651779175,-0.3339747190475464,0.0012007844634354115
1772790127915370200,3.306370361328125,-1.4158241748809814,-0.2540529668331146,-0.015301227569580078
1772790127925436200,3.316436279296875,-1.3980754613876343,-0.19494599103927612,-0.02249872125685215
1772790127935502300,3.32650244140625,-1.3847317695617676,-0.16693778336048126,-0.0106812110170722
1772790127945568300,3.336568359375,-1.3689261674880981,-0.14616598188877106,-0.0011025686981156468
1772790127955634200,3.34663427734375,-1.3594083786010742,-0.19107913970947266,0.02154655009508133
1772790127965700000,3.3567001953125,-1.3757613897323608,-0.2364291250705719,0.05750785768032074
1772790127975766300,3.366766357421875,-1.3990733623504639,-0.29124176502227783,0.09770029038190842
1772790127985832200,3.376832275390625,-1.4085674285888672,-0.3418223261833191,0.1355680227279663
1772790127995898400,3.3868984375,-1.4150139093399048,-0.35011276602745056,0.155039981007576
1772790128005964300,3.39696435546875,-1.407562255859375,-0.33686724305152893,0.16082800924777985
1772790128016030200,3.4070302734375,-1.401737928390503,-0.33123835921287537,0.14192010462284088
1772790128026096000,3.41709619140625,-1.3814587593078613,-0.3438996970653534,0.11088086664676666
1772790128036162000,3.427162109375,-1.3571957349777222,-0.36152368783950806,0.0775306299328804
1772790128046228200,3.437228271484375,-1.3335362672805786,-0.36350372433662415,0.05536291375756264
1772790128056294100,3.447294189453125,-1.3041887283325195,-0.34656548500061035,0.04952846094965935
1772790128066360300,3.4573603515625,-1.2741845846176147,-0.32519587874412537,0.05515022575855255
1772790128076426200,3.46742626953125,-1.2349340915679932,-0.32289355993270874,0.08315789699554443
1772790128086492400,3.477492431640625,-1.1952306032180786,-0.34384313225746155,0.14034590125083923
1772790128096558000,3.48755810546875,-1.1548786163330078,-0.3624940514564514,0.21946121752262115
1772790128106624000,3.4976240234375,-1.114291787147522,-0.3621457815170288,0.301616370677948
1772790128116689200,3.507689208984375,-1.0630842447280884,-0.35512301325798035,0.3635500371456146
1772790128126755300,3.51775537109375,-1.0226680040359497,-0.3324868977069855,0.40281084179878235
1772790128136821200,3.5278212890625,-0.9937543869018555,-0.3055572807788849,0.39300772547721863
1772790128146887400,3.537887451171875,-0.9704803824424744,-0.30407261848449707,0.35705703496932983
1772790128156953000,3.547953125,-0.9579049348831177,-0.3177593946456909,0.31311461329460144
1772790128167019000,3.55801904296875,-0.9582118988037109,-0.3298444151878357,0.27750319242477417
1772790128177085200,3.568085205078125,-0.9622164964675903,-0.3253149092197418,0.2528393864631653
1772790128187151000,3.578151123046875,-0.9706565141677856,-0.31603580713272095,0.24700507521629333
1772790128197217300,3.58821728515625,-0.9762587547302246,-0.31234732270240784,0.23520541191101074
1772790128207283200,3.598283203125,-0.9804520010948181,-0.3144915699958801,0.2104906439781189
1772790128217349400,3.608349365234375,-0.9982947111129761,-0.33417049050331116,0.15815767645835876
1772790128227415300,3.618415283203125,-1.0303436517715454,-0.37262067198753357,0.06279466301202774
1772790128237481200,3.628481201171875,-1.0615063905715942,-0.4380744993686676,-0.08239288628101349
1772790128247547100,3.638547119140625,-1.087830901145935,-0.5221114754676819,-0.22947958111763
1772790128257613000,3.648613037109375,-1.113981008529663,-0.5851796865463257,-0.33550482988357544
1772790128267679200,3.65867919921875,-1.1308945417404175,-0.6391042470932007,-0.37095651030540466
1772790128277745200,3.6687451171875,-1.1127687692642212,-0.6548198461532593,-0.32320496439933777
1772790128287811300,3.678811279296875,-1.053553819656372,-0.5816425681114197,-0.20632117986679077
1772790128297877200,3.688877197265625,-0.9722902178764343,-0.42464444041252136,-0.039914365857839584
1772790128307943200,3.698943115234375,-0.8556995391845703,-0.18595755100250244,0.14168280363082886
1772790128318009000,3.709009033203125,-0.737439751625061,0.06539905816316605,0.3037302792072296
1772790128328075300,3.7190751953125,-0.6184547543525696,0.2479432076215744,0.42983192205429077
1772790128338141200,3.72914111328125,-0.507013201713562,0.3660711646080017,0.5041199922561646
1772790128348207400,3.739207275390625,-0.40903791785240173,0.4310755729675293,0.5445657968521118
1772790128358272300,3.749272216796875,-0.3314872086048126,0.43449878692626953,0.5582832098007202
1772790128368338200,3.759338134765625,-0.2785246968269348,0.37337714433670044,0.5599038600921631
1772790128378404000,3.769404052734375,-0.2654011845588684,0.27915024757385254,0.5669080018997192
1772790128388470300,3.77947021484375,-0.30307865142822266,0.15718621015548706,0.5924594402313232
1772790128398536200,3.7895361328125,-0.378212034702301,0.011963775381445885,0.6313162446022034
1772790128408602000,3.79960205078125,-0.47414401173591614,-0.11477584391832352,0.6863614320755005
1772790128418668300,3.809668212890625,-0.6038873195648193,-0.19276970624923706,0.7293096780776978
1772790128428734200,3.819734130859375,-0.7442418932914734,-0.25571680068969727,0.746617317199707
1772790128438800100,3.829800048828125,-0.9040643572807312,-0.37960225343704224,0.7157110571861267
1772790128448866000,3.839865966796875,-1.0622551441192627,-0.5230525135993958,0.6402871012687683
1772790128458932200,3.84993212890625,-1.203969120979309,-0.6231871247291565,0.5363673567771912
1772790128468998100,3.859998046875,-1.3311150074005127,-0.6758188009262085,0.41407454013824463
1772790128479064300,3.870064208984375,-1.4225023984909058,-0.6788609623908997,0.2875807583332062
1772790128489130200,3.880130126953125,-1.4952020645141602,-0.6515020132064819,0.1634964495897293
1772790128499196400,3.890196533203125,-1.5472573041915894,-0.6192138195037842,0.042544469237327576
1772790128509262300,3.900262451171875,-1.5926337242126465,-0.6070942282676697,-0.07354531437158585
1772790128519328000,3.910327880859375,-1.6248360872268677,-0.5889639258384705,-0.1506531536579132
1772790128529394200,3.920394287109375,-1.6325793266296387,-0.5370425581932068,-0.18350599706172943
1772790128539460000,3.930460205078125,-1.6151747703552246,-0.4409783184528351,-0.16909989714622498
1772790128549526300,3.9405263671875,-1.5714415311813354,-0.33601731061935425,-0.13385802507400513
1772790128559592200,3.95059228515625,-1.4970089197158813,-0.2637718915939331,-0.097722128033638
1772790128569658400,3.960658447265625,-1.4051580429077148,-0.24413128197193146,-0.05507804825901985
1772790128579723000,3.970722900390625,-1.3141323328018188,-0.25225257873535156,-0.005767222959548235
1772790128589789200,3.9807890625,-1.2259819507598877,-0.28603819012641907,0.042226653546094894
1772790128599855000,3.990855224609375,-1.143446683883667,-0.31658491492271423,0.07406074553728104
1772790128609921300,4.00092138671875,-1.073394536972046,-0.34055477380752563,0.08898933976888657
1772790128619987200,4.0109873046875,-1.0266224145889282,-0.3373938500881195,0.07721657305955887
1772790128630053400,4.021053466796875,-1.0026088953018188,-0.3089599609375,0.04269741475582123
1772790128640119300,4.031119384765625,-0.9827017784118652,-0.2671222388744354,-0.018169665709137917
1772790128650185200,4.041185302734375,-0.960089385509491,-0.22134912014007568,-0.0913262665271759
1772790128660251100,4.051251220703125,-0.9406232833862305,-0.19394972920417786,-0.1568882316350937
1772790128670317000,4.061317138671875,-0.9163802862167358,-0.20851126313209534,-0.20863699913024902
1772790128680383200,4.07138330078125,-0.8860447406768799,-0.2502131760120392,-0.25301218032836914
1772790128690449200,4.08144921875,-0.8450847268104553,-0.3181084990501404,-0.2882392406463623
1772790128700514300,4.091514404296875,-0.8066118955612183,-0.3917962908744812,-0.30784302949905396
1772790128710580200,4.101580322265625,-0.7711626291275024,-0.44856539368629456,-0.3077470362186432
1772790128720646100,4.111646240234375,-0.7439142465591431,-0.4723234474658966,-0.2960839867591858
1772790128730712000,4.121712158203125,-0.7120018601417542,-0.46519026160240173,-0.2752801477909088
1772790128740778200,4.1317783203125,-0.6671625375747681,-0.4702441394329071,-0.26785871386528015
1772790128750844200,4.14184423828125,-0.6072266697883606,-0.489765465259552,-0.26594141125679016
1772790128760910300,4.151910400390625,-0.5374987125396729,-0.5131980776786804,-0.2583058476448059
1772790128770976300,4.161976318359375,-0.4736272096633911,-0.521028995513916,-0.24717499315738678
1772790128781042200,4.172042236328125,-0.42023882269859314,-0.5104791522026062,-0.20775195956230164
1772790128791108000,4.182108154296875,-0.3701900839805603,-0.4551328718662262,-0.1636035144329071
1772790128801174300,4.19217431640625,-0.3264732360839844,-0.39211875200271606,-0.13134650886058807
1772790128811240200,4.202240234375,-0.28964993357658386,-0.36194106936454773,-0.11136523634195328
1772790128821306000,4.21230615234375,-0.26534536480903625,-0.35788294672966003,-0.11212397366762161
1772790128831372300,4.222372314453125,-0.2501358687877655,-0.37867605686187744,-0.10673362761735916
1772790128841438200,4.232438232421875,-0.24158310890197754,-0.38849008083343506,-0.0892193466424942
1772790128851504400,4.24250439453125,-0.2253744751214981,-0.36257404088974,-0.05381011590361595
1772790128861570000,4.252570068359375,-0.20037831366062164,-0.3268352150917053,-0.007923850789666176
1772790128871636200,4.26263623046875,-0.18451020121574402,-0.3100425601005554,0.04295390099287033
1772790128881702100,4.2727021484375,-0.18287022411823273,-0.30804625153541565,0.09315235912799835
1772790128891768300,4.282768310546875,-0.20257434248924255,-0.31709566712379456,0.13754026591777802
1772790128901832000,4.29283203125,-0.22146333754062653,-0.32448458671569824,0.17734307050704956
1772790128911896800,4.302896728515625,-0.23240448534488678,-0.31266191601753235,0.20863443613052368
1772790128921963000,4.312962890625,-0.22377318143844604,-0.2772655785083771,0.23243775963783264
1772790128932029000,4.32302880859375,-0.19912083446979523,-0.2436293512582779,0.2531723380088806
1772790128942095000,4.33309521484375,-0.1710178256034851,-0.24422669410705566,0.2695086896419525
1772790128952161000,4.3431611328125,-0.1432258039712906,-0.28623831272125244,0.27606675028800964
1772790128962227000,4.35322705078125,-0.1196882426738739,-0.3232000470161438,0.2933184504508972
1772790128972292900,4.36329296875,-0.09405463933944702,-0.33816978335380554,0.3124847114086151
1772790128982359000,4.373359130859375,-0.05934832617640495,-0.324804425239563,0.3423595428466797
1772790128992425000,4.383425048828125,-0.020480439066886902,-0.269980251789093,0.38788169622421265
1772790129002491000,4.393490966796875,0.008883574977517128,-0.1990932822227478,0.44056436419487
1772790129012557000,4.40355712890625,0.05028644949197769,-0.17660534381866455,0.48144280910491943
1772790129022623000,4.413623046875,0.0881427526473999,-0.1556960642337799,0.5109072923660278
1772790129032689000,4.42368896484375,0.1273624151945114,-0.13131186366081238,0.5162926316261292
1772790129042754800,4.4337548828125,0.15167920291423798,-0.15132498741149902,0.5224434733390808
1772790129052821000,4.443821044921875,0.1618952453136444,-0.1858905702829361,0.5230764150619507
1772790129062887000,4.453886962890625,0.18046626448631287,-0.19421027600765228,0.536359429359436
1772790129072953000,4.463953125,0.20613601803779602,-0.1802920401096344,0.5729424953460693
1772790129083019000,4.47401904296875,0.23273487389087677,-0.14342163503170013,0.6258043646812439
1772790129093085000,4.4840849609375,0.24738290905952454,-0.10283537209033966,0.6853044033050537
1772790129103150800,4.49415087890625,0.2714190185070038,-0.07811164855957031,0.7313805818557739
1772790129113216800,4.504216796875,0.3117682635784149,-0.07557562738656998,0.7580216526985168
1772790129123283000,4.514282958984375,0.3576816916465759,-0.07149752974510193,0.7696647047996521
1772790129133348000,4.52434814453125,0.39873433113098145,-0.05952571704983711,0.7682591080665588
1772790129143414000,4.5344140625,0.4229408800601959,-0.0231099184602499,0.7444093823432922
1772790129153480000,4.54447998046875,0.42920607328414917,-0.0173706766217947,0.6958537101745605
1772790129163545900,4.5545458984375,0.408749520778656,-0.0023991847410798073,0.6206715703010559
1772790129173611800,4.56461181640625,0.37665340304374695,0.029718119651079178,0.5300805568695068
1772790129183678000,4.574677978515625,0.32825177907943726,0.10723420977592468,0.4179699718952179
1772790129193744000,4.584743896484375,0.29754260182380676,0.1930854767560959,0.29610052704811096
1772790129203810000,4.59481005859375,0.3024537265300751,0.2793566882610321,0.15194042026996613
1772790129213876000,4.6048759765625,0.3281686007976532,0.3301132321357727,0.01354908850044012
1772790129223942100,4.614942138671875,0.37474942207336426,0.35146647691726685,-0.12419306486845016
1772790129234008000,4.625008056640625,0.42103004455566406,0.3011535406112671,-0.2240687906742096
1772790129244075000,4.635074951171875,0.4581555724143982,0.18573160469532013,-0.2844223976135254
1772790129254141000,4.645140869140625,0.4840148985385895,0.048445336520671844,-0.29810166358947754
1772790129264206800,4.655206787109375,0.48019060492515564,-0.06588336825370789,-0.2836758494377136
1772790129274273000,4.66527294921875,0.44396740198135376,-0.1480330377817154,-0.2731952965259552
1772790129284338000,4.675337890625,0.37475794553756714,-0.2239174097776413,-0.2834162414073944
1772790129294404000,4.685404052734375,0.28520336747169495,-0.29818135499954224,-0.3118131756782532
1772790129304470000,4.695469970703125,0.18751250207424164,-0.3891671895980835,-0.36625030636787415
1772790129314536000,4.705535888671875,0.09602506458759308,-0.47991102933883667,-0.4320675730705261
1772790129324601900,4.715601806640625,0.00875780824571848,-0.5541782975196838,-0.5012199878692627
1772790129334668000,4.72566796875,-0.06544780731201172,-0.5855907797813416,-0.5406543612480164
1772790129344734000,4.73573388671875,-0.11449071764945984,-0.538710355758667,-0.5450038313865662
1772790129354799900,4.7457998046875,-0.12956620752811432,-0.40887707471847534,-0.5111562609672546
1772790129364866000,4.755865966796875,-0.0905626118183136,-0.20568643510341644,-0.4533345401287079
1772790129374932000,4.765931884765625,-0.010242669843137264,0.039556894451379776,-0.384903222322464
1772790129384998000,4.775997802734375,0.08023929595947266,0.3270973265171051,-0.322660356760025
1772790129395063800,4.786063720703125,0.1570616066455841,0.6007670164108276,-0.28803348541259766
1772790129405130000,4.7961298828125,0.2174045741558075,0.780143141746521,-0.30629369616508484
1772790129415196000,4.80619580078125,0.25377675890922546,0.8507872819900513,-0.3621835708618164
1772790129425262000,4.816261962890625,0.271700918674469,0.8397822976112366,-0.4211089611053467
1772790129435328000,4.826327880859375,0.2657143175601959,0.785369336605072,-0.46963176131248474
1772790129445394000,4.836393798828125,0.24720215797424316,0.7166733741760254,-0.48752981424331665
1772790129455460000,4.846460205078125,0.22978635132312775,0.627818763256073,-0.48852288722991943
1772790129465525800,4.85652587890625,0.22157076001167297,0.507152259349823,-0.47011780738830566
1772790129475592000,4.866592041015625,0.21078906953334808,0.3719942271709442,-0.43071448802948
1772790129485657900,4.876657958984375,0.2026461809873581,0.2390657514333725,-0.37786540389060974
1772790129495723000,4.886722900390625,0.18076619505882263,0.11746794730424881,-0.3139854669570923
1772790129505789000,4.896788818359375,0.15776921808719635,-0.008161946199834347,-0.25403687357902527
1772790129515855000,4.906855224609375,0.13249315321445465,-0.135969877243042,-0.19499996304512024
1772790129525920800,4.916920654296875,0.10734917968511581,-0.22542253136634827,-0.13747914135456085
1772790129535987000,4.926987060546875,0.08775348216295242,-0.27989983558654785,-0.08553167432546616
1772790129546052900,4.937052978515625,0.061635591089725494,-0.2986343801021576,-0.039200395345687866
1772790129556119000,4.947119140625,0.03044603392481804,-0.2809043824672699,-0.01292551402002573
1772790129566185000,4.95718505859375,0.00936578307300806,-0.2440984547138214,0.0009596752934157848
1772790129576251100,4.967251220703125,0.0029155616648495197,-0.17019498348236084,0.002829532139003277
1772790129586317000,4.977317138671875,-0.00043016765266656876,-0.09106048941612244,-0.003969251643866301
1772790129596383000,4.987383056640625,0.004774830304086208,-0.0449720099568367,-0.025595467537641525
1772790129606449000,4.997448974609375,0.011393051594495773,-0.014815440401434898,-0.05510728806257248
1772790129616514800,5.007514892578125,0.02189498208463192,0.010547017678618431,-0.07125150412321091
1772790129626581000,5.0175810546875,0.02435547672212124,0.038120854645967484,-0.06882589310407639
1772790129636647000,5.02764697265625,0.01747635006904602,0.060682110488414764,-0.04716993495821953
1772790129646713000,5.037713134765625,0.00005741161294281483,0.07891090959310532,-0.0009422515286132693
1772790129656779000,5.047779052734375,-0.02083483338356018,0.07868853211402893,0.060431189835071564
1772790129666845000,5.057844970703125,-0.04394068568944931,0.06553597748279572,0.12321920692920685
1772790129676910800,5.067910888671875,-0.05766638368368149,0.029361408203840256,0.17817722260951996
1772790129686977000,5.07797705078125,-0.063074991106987,-0.04619566723704338,0.21664312481880188
1772790129697042000,5.0880419921875,-0.06432206928730011,-0.14055587351322174,0.24029934406280518
1772790129707108000,5.098108154296875,-0.07128196954727173,-0.19963490962982178,0.255180299282074
1772790129717174000,5.108174072265625,-0.08618918806314468,-0.2320568859577179,0.27486467361450195
1772790129727240000,5.118239990234375,-0.09717819094657898,-0.23473070561885834,0.30449819564819336
1772790129737305900,5.128305908203125,-0.10391537100076675,-0.23388966917991638,0.33603450655937195
1772790129747372000,5.1383720703125,-0.10404213517904282,-0.25525861978530884,0.3634544014930725
1772790129757438000,5.14843798828125,-0.09456050395965576,-0.2865852117538452,0.3908454179763794
1772790129767504000,5.15850390625,-0.07885052263736725,-0.3114551305770874,0.40198755264282227
1772790129777570000,5.168570068359375,-0.06495342403650284,-0.3016367554664612,0.41094696521759033
1772790129787636000,5.178635986328125,-0.051220834255218506,-0.26492244005203247,0.40119314193725586
1772790129797702100,5.1887021484375,-0.05099562555551529,-0.23128454387187958,0.3822219967842102
1772790129807767800,5.198767822265625,-0.06319982558488846,-0.1964392066001892,0.33778953552246094
1772790129817834000,5.208833984375,-0.06634103506803513,-0.16567884385585785,0.28191065788269043
1772790129827900000,5.21889990234375,-0.07667862623929977,-0.1671166867017746,0.2111547291278839
1772790129837966000,5.228966064453125,-0.10346478223800659,-0.2115194946527481,0.13151611387729645
1772790129848032000,5.239031982421875,-0.1319590061903,-0.2472846806049347,0.07531409710645676
1772790129858098000,5.249097900390625,-0.1568857878446579,-0.2647804021835327,0.05873549357056618
1772790129868164000,5.2591640625,-0.17230123281478882,-0.26058006286621094,0.0822373554110527
1772790129878229800,5.269229736328125,-0.17470940947532654,-0.20795893669128418,0.15288110077381134
1772790129888295000,5.279294921875,-0.1647758185863495,-0.1392001211643219,0.23614215850830078
1772790129898357500,5.289357421875,-0.14169439673423767,-0.07451502233743668,0.3227287232875824
1772790129908423700,5.299423583984375,-0.10802484303712845,-0.018537238240242004,0.4121547341346741
1772790129918489600,5.309489501953125,-0.07289478182792664,0.05532762035727501,0.4789212644100189
1772790129928555500,5.319555419921875,-0.04257762432098389,0.12296737730503082,0.5168483853340149
1772790129938621400,5.329621337890625,-0.010698869824409485,0.1655403971672058,0.5154880881309509
1772790129948687600,5.3396875,0.01611330360174179,0.2049165666103363,0.4788166582584381
1772790129958753500,5.34975341796875,0.03644278272986412,0.23752301931381226,0.42074447870254517
1772790129968819700,5.35981982421875,0.05138071998953819,0.20930203795433044,0.3505041301250458
1772790129978885600,5.3698857421875,0.04699540138244629,0.15560920536518097,0.2734906077384949
1772790129988951800,5.379951904296875,0.020244751125574112,0.07647392153739929,0.2034422606229782
1772790129999017500,5.390017578125,-0.024621479213237762,-0.028046835213899612,0.13194112479686737
1772790130009083400,5.40008349609375,-0.08787741512060165,-0.15320102870464325,0.06588141620159149
1772790130019149600,5.410149658203125,-0.14152918756008148,-0.29237034916877747,0.01833466999232769
1772790130029215500,5.420215576171875,-0.19074146449565887,-0.40644365549087524,0.013263479806482792
1772790130039281700,5.43028173828125,-0.23564867675304413,-0.4523593783378601,0.044165100902318954
1772790130049347600,5.44034765625,-0.27233585715293884,-0.4316551685333252,0.09041409194469452
1772790130059413800,5.450413818359375,-0.30794602632522583,-0.3687050938606262,0.11563301831483841
1772790130069479700,5.460479736328125,-0.33831697702407837,-0.2809012234210968,0.11171337962150574
1772790130079544600,5.470544677734375,-0.3640056848526001,-0.1578054279088974,0.08130773156881332
1772790130089610500,5.480610595703125,-0.38655975461006165,-0.01932530291378498,0.0247227493673563
1772790130099676700,5.4906767578125,-0.40694838762283325,0.08347238600254059,-0.049954406917095184
1772790130109742600,5.50074267578125,-0.42851200699806213,0.12824997305870056,-0.12366005033254623
1772790130119808800,5.510808837890625,-0.4401077926158905,0.15761201083660126,-0.19023014605045319
1772790130129874700,5.520874755859375,-0.437531441450119,0.19141657650470734,-0.23887118697166443
1772790130139940600,5.530940673828125,-0.43055373430252075,0.2302129566669464,-0.27742213010787964
1772790130150006500,5.541006591796875,-0.40857332944869995,0.24869075417518616,-0.3086540699005127
1772790130160072400,5.551072509765625,-0.366272509098053,0.22896546125411987,-0.31292998790740967
1772790130170138600,5.561138671875,-0.33034780621528625,0.19952954351902008,-0.2938425838947296
1772790130180204500,5.57120458984375,-0.2945215106010437,0.1541753113269806,-0.23808653652668
1772790130190270700,5.581270751953125,-0.27129074931144714,0.0987517237663269,-0.1652512103319168
1772790130200336600,5.591336669921875,-0.2571917772293091,0.04895177483558655,-0.08840026706457138
1772790130210402600,5.601402587890625,-0.24036404490470886,0.026857925578951836,-0.028671961277723312
1772790130220468500,5.611468505859375,-0.22001174092292786,0.048666585236787796,-0.0020755294244736433
1772790130230534700,5.62153466796875,-0.19995467364788055,0.041919730603694916,-0.01980898715555668
1772790130240600600,5.6316005859375,-0.17945362627506256,0.009959729388356209,-0.06092211976647377
1772790130250666500,5.64166650390625,-0.16270847618579865,-0.03530095890164375,-0.10315346717834473
1772790130260731600,5.651731689453125,-0.14683446288108826,-0.06715109944343567,-0.1331360787153244
1772790130270797600,5.661797607421875,-0.14171293377876282,-0.1005878821015358,-0.14474745094776154
1772790130280863500,5.671863525390625,-0.13522277772426605,-0.16694197058677673,-0.14357523620128632
1772790130290929700,5.6819296875,-0.10293487459421158,-0.17539723217487335,-0.12873823940753937
1772790130300995600,5.69199560546875,-0.06328336149454117,-0.14731629192829132,-0.10462579131126404
1772790130311061500,5.7020615234375,-0.02719539776444435,-0.12498168647289276,-0.07564633339643478
1772790130321127700,5.712127685546875,0.00079678138718009,-0.099825419485569,-0.04827462136745453
1772790130331193600,5.722193603515625,0.03041645884513855,-0.09819237142801285,-0.025005783885717392
1772790130341259500,5.732259521484375,0.0538959875702858,-0.08580189943313599,-0.00063436443451792
1772790130351325400,5.742325439453125,0.0866675078868866,-0.04489921033382416,0.02382197603583336
1772790130361391600,5.7523916015625,0.12322093546390533,0.011266258545219898,0.032400693744421005
1772790130371457500,5.76245751953125,0.14700616896152496,0.06488101929426193,0.03820718452334404
1772790130381523700,5.772523681640625,0.15662139654159546,0.09407435357570648,0.035357046872377396
1772790130391589600,5.782589599609375,0.16629746556282043,0.10196796804666519,0.026331061497330666
1772790130401655600,5.792655517578125,0.17655320465564728,0.10484682023525238,0.015592189505696297
1772790130411721700,5.8027216796875,0.17938707768917084,0.1198103278875351,-0.0037689916789531708
1772790130421787400,5.812787353515625,0.18631179630756378,0.10636008530855179,-0.016415271908044815
1772790130431853600,5.822853515625,0.1954387128353119,0.03398042172193527,-0.016117529943585396
1772790130441918700,5.832918701171875,0.20098508894443512,-0.035552676767110825,0.014262465760111809
1772790130451984600,5.842984619140625,0.18854600191116333,-0.07826551795005798,0.06599703431129456
1772790130462050600,5.853050537109375,0.16818885505199432,-0.10828593373298645,0.10224330425262451
1772790130472116500,5.863116455078125,0.14879144728183746,-0.13837964832782745,0.12024867534637451
1772790130482182400,5.873182373046875,0.1352991759777069,-0.14424477517604828,0.11329980939626694
1772790130492248600,5.88324853515625,0.12364091724157333,-0.1138375923037529,0.10044340044260025
1772790130502314500,5.893314453125,0.11073001474142075,-0.07857684046030045,0.08630665391683578
1772790130512380700,5.903380615234375,0.09483999758958817,-0.03624429926276207,0.0642428994178772
1772790130522446600,5.913446533203125,0.09604059159755707,0.014985018409788609,0.043699003756046295
1772790130532512800,5.9235126953125,0.10188409686088562,0.05168551206588745,0.0221851896494627
1772790130542578700,5.93357861328125,0.11899791657924652,0.08765097707509995,0.022606708109378815
1772790130552644600,5.94364453125,0.13094991445541382,0.12498344480991364,0.038377415388822556
1772790130562710500,5.95371044921875,0.1369771659374237,0.1390889286994934,0.06892165541648865
1772790130572776400,5.9637763671875,0.131876140832901,0.12839260697364807,0.10200317949056625
1772790130582842600,5.973842529296875,0.13468468189239502,0.10769359767436981,0.13520903885364532
1772790130592908500,5.983908447265625,0.1488417685031891,0.10544536262750626,0.1677323579788208
1772790130602974700,5.993974609375,0.16304649412631989,0.11048123240470886,0.2000349909067154
1772790130613039600,6.00403955078125,0.1722080409526825,0.0850248634815216,0.2268919050693512
1772790130623105500,6.01410546875,0.17873920500278473,0.036968350410461426,0.2365405261516571
1772790130633171500,6.02417138671875,0.17454738914966583,0.021307097747921944,0.23925402760505676
1772790130643237600,6.034237548828125,0.17842525243759155,0.05845212936401367,0.2336648851633072
1772790130653303600,6.044303466796875,0.17469443380832672,0.09308813512325287,0.22641628980636597
1772790130663369700,6.05436962890625,0.17158903181552887,0.12342566251754761,0.22004741430282593
1772790130673435600,6.064435546875,0.16353216767311096,0.16462449729442596,0.21819040179252625
1772790130683501600,6.07450146484375,0.1428838074207306,0.1773783564567566,0.20823414623737335
1772790130693567500,6.0845673828125,0.10697214305400848,0.14395862817764282,0.18317699432373047
1772790130703633700,6.094633544921875,0.056006260216236115,0.06467042118310928,0.14027650654315948
1772790130713699600,6.104699462890625,-0.005396645981818438,-0.039464499801397324,0.0846414789557457
1772790130723765500,6.114765625,-0.0731034129858017,-0.1541738063097,0.028362786397337914
1772790130733831700,6.124831787109375,-0.14056900143623352,-0.2655322849750519,0.00552218547090888
1772790130743897600,6.134897705078125,-0.23773479461669922,-0.35638657212257385,0.018657222390174866
1772790130753963500,6.144963623046875,-0.3232906758785248,-0.3956386148929596,0.052277497947216034
1772790130764029400,6.155029541015625,-0.39080730080604553,-0.3853142261505127,0.10833924263715744
1772790130774095600,6.165095703125,-0.4331640899181366,-0.3253006935119629,0.1949865072965622
1772790130784160500,6.175160400390625,-0.44918885827064514,-0.20821908116340637,0.29173436760902405
1772790130794226700,6.185226806640625,-0.4545639157295227,-0.06496019661426544,0.3630293309688568
1772790130804292600,6.195292724609375,-0.4355180859565735,0.0774148479104042,0.4110087454319
1772790130814358500,6.205358642578125,-0.412802129983902,0.19811835885047913,0.4251876771450043
1772790130824424400,6.215424560546875,-0.39742153882980347,0.25531113147735596,0.4049692451953888
1772790130834490600,6.22549072265625,-0.39265236258506775,0.2902805805206299,0.3609866201877594
1772790130844556500,6.235556640625,-0.38322174549102783,0.30812788009643555,0.31230688095092773
1772790130854622700,6.245622802734375,-0.37902992963790894,0.3064255714416504,0.2776801884174347
1772790130864688600,6.255688720703125,-0.37089911103248596,0.2826586961746216,0.2610091269016266
1772790130874754600,6.265754638671875,-0.36692407727241516,0.24440425634384155,0.2575334310531616
1772790130884820700,6.27582080078125,-0.3650018870830536,0.19128456711769104,0.2629132568836212
1772790130894886100,6.28588623046875,-0.36524078249931335,0.10798462480306625,0.2626999318599701
1772790130904952000,6.2959521484375,-0.37045395374298096,0.000859440304338932,0.2644837498664856
1772790130915018000,6.30601806640625,-0.37538692355155945,-0.11478567123413086,0.25861653685569763
1772790130925084200,6.316084228515625,-0.38717275857925415,-0.22017212212085724,0.25607869029045105
1772790130935150000,6.326150146484375,-0.40138179063796997,-0.30829373002052307,0.23735640943050385
1772790130945215000,6.336215087890625,-0.4201834797859192,-0.38129329681396484,0.19747042655944824
1772790130955281000,6.346281005859375,-0.44450637698173523,-0.4407201409339905,0.13704410195350647
1772790130965347000,6.35634716796875,-0.4693037271499634,-0.48373308777809143,0.07996099442243576
1772790130975413000,6.3664130859375,-0.4992853105068207,-0.5070333480834961,0.03198840469121933
1772790130985479200,6.376479248046875,-0.5316110253334045,-0.5125987529754639,-0.013122390024363995
1772790130995545000,6.386545166015625,-0.5647197365760803,-0.5248226523399353,-0.06265904754400253
1772790131005611300,6.396611328125,-0.5971491932868958,-0.5581375360488892,-0.11369329690933228
1772790131015677000,6.406677001953125,-0.6365965008735657,-0.5767000317573547,-0.15617631375789642
1772790131025743000,6.4167431640625,-0.6771410703659058,-0.5514076352119446,-0.1764300912618637
1772790131035809000,6.42680908203125,-0.7129254341125488,-0.48958662152290344,-0.16634203493595123
1772790131045875200,6.436875244140625,-0.7375909090042114,-0.36988565325737,-0.14293211698532104
1772790131055941000,6.446941162109375,-0.7301833629608154,-0.24930784106254578,-0.10216578841209412
1772790131066007000,6.457007080078125,-0.7129034399986267,-0.1104564368724823,-0.04493959620594978
1772790131076073200,6.4670732421875,-0.6838656663894653,0.03257236257195473,0.018461478874087334
1772790131086139100,6.47713916015625,-0.6605222225189209,0.142157182097435,0.06959550082683563
1772790131096205000,6.487205078125,-0.6504637598991394,0.20578674972057343,0.10311537981033325
1772790131106270000,6.49727001953125,-0.6565579771995544,0.23309540748596191,0.1111660972237587
1772790131116336000,6.507336181640625,-0.6793767809867859,0.23776528239250183,0.09959013015031815
1772790131126402000,6.517402099609375,-0.7221925258636475,0.20995226502418518,0.07989691197872162
1772790131136468200,6.52746826171875,-0.7857608795166016,0.13584661483764648,0.05198778584599495
1772790131146534100,6.5375341796875,-0.8514915704727173,0.01981685496866703,0.03798886761069298
1772790131156600000,6.54760009765625,-0.9160370230674744,-0.09788741171360016,0.030990879982709885
1772790131166666000,6.557666015625,-0.9744832515716553,-0.20666266977787018,0.04926903545856476
1772790131176732200,6.567732177734375,-1.0289169549942017,-0.305396169424057,0.08203630894422531
1772790131186798000,6.577798095703125,-1.0830154418945312,-0.3804190456867218,0.11243332922458649
1772790131196864300,6.5878642578125,-1.1287012100219727,-0.45606106519699097,0.1331910640001297
1772790131206930200,6.59793017578125,-1.1671624183654785,-0.5192977786064148,0.14915139973163605
1772790131216996000,6.60799609375,-1.2064709663391113,-0.5561298131942749,0.17215339839458466
1772790131227062000,6.61806201171875,-1.252030849456787,-0.5479336977005005,0.19875533878803253
1772790131237128000,6.6281279296875,-1.288108468055725,-0.5138041973114014,0.21322590112686157
1772790131247194000,6.638194091796875,-1.313902497291565,-0.466188907623291,0.21074019372463226
1772790131257260000,6.648260009765625,-1.3369218111038208,-0.40349623560905457,0.20250889658927917
1772790131267326200,6.658326171875,-1.3601499795913696,-0.3546496033668518,0.18399174511432648
1772790131277391000,6.66839111328125,-1.3876800537109375,-0.3643043339252472,0.14919860661029816
1772790131287457000,6.67845703125,-1.4185187816619873,-0.43273264169692993,0.10629858076572418
1772790131297523000,6.68852294921875,-1.4422162771224976,-0.5190049409866333,0.08496133238077164
1772790131307589000,6.698589111328125,-1.4665582180023193,-0.5843563079833984,0.09474395215511322
1772790131317655000,6.708655029296875,-1.4953006505966187,-0.6246156096458435,0.13176187872886658
1772790131327721200,6.71872119140625,-1.5105197429656982,-0.6424821615219116,0.16605564951896667
1772790131337787100,6.728787109375,-1.5195497274398804,-0.657311201095581,0.18545225262641907
1772790131347853000,6.73885302734375,-1.5274978876113892,-0.6609354019165039,0.18798433244228363
1772790131357919000,6.7489189453125,-1.5394046306610107,-0.6595044732093811,0.16478075087070465
1772790131367985000,6.75898486328125,-1.5489004850387573,-0.6681468486785889,0.12926898896694183
1772790131378051000,6.769051025390625,-1.5560647249221802,-0.6595576405525208,0.11062952131032944
1772790131388117000,6.779116943359375,-1.5629416704177856,-0.6349709630012512,0.10629056394100189
1772790131398183200,6.78918310546875,-1.573676347732544,-0.6267575025558472,0.1185978353023529
1772790131408249000,6.7992490234375,-1.5730432271957397,-0.649326741695404,0.12762117385864258
1772790131418315300,6.809315185546875,-1.5751101970672607,-0.6798617839813232,0.14333967864513397
1772790131428381200,6.819381103515625,-1.5887197256088257,-0.7061130404472351,0.1654399037361145
1772790131438446000,6.829446044921875,-1.6039533615112305,-0.7277362942695618,0.19709371030330658
1772790131448512000,6.839511962890625,-1.6288189888000488,-0.7327584624290466,0.24843913316726685
1772790131458578200,6.849578125,-1.6565686464309692,-0.7024093270301819,0.3030155599117279
1772790131468644000,6.85964404296875,-1.6737490892410278,-0.6617380380630493,0.3442774713039398
1772790131478710300,6.869710205078125,-1.692572832107544,-0.6243400573730469,0.3738231062889099
1772790131488776200,6.879776123046875,-1.7187459468841553,-0.590874969959259,0.39302554726600647
1772790131498842000,6.889842041015625,-1.7469769716262817,-0.5555760860443115,0.40645691752433777
1772790131508908000,6.899907958984375,-1.7832541465759277,-0.4713572561740875,0.4123378098011017
1772790131518974000,6.909973876953125,-1.8213081359863281,-0.38600561022758484,0.4016052782535553
1772790131529040100,6.9200400390625,-1.8626846075057983,-0.35493871569633484,0.37759900093078613
1772790131539106000,6.93010595703125,-1.9128423929214478,-0.38463908433914185,0.34041541814804077
1772790131549172200,6.940172119140625,-1.967239260673523,-0.4451853334903717,0.3060140311717987
1772790131559238100,6.950238037109375,-2.029132843017578,-0.5174408555030823,0.26872551441192627
1772790131569304000,6.960303955078125,-2.095003843307495,-0.5831377506256104,0.22197043895721436
1772790131579370000,6.970369873046875,-2.156965494155884,-0.6689234972000122,0.17376935482025146
1772790131589436200,6.980436279296875,-2.2208797931671143,-0.7551993131637573,0.11736205965280533
1772790131599501000,6.9905009765625,-2.2774288654327393,-0.8313729166984558,0.04572755843400955
1772790131609567200,7.000567138671875,-2.31661057472229,-0.8798647522926331,-0.04005495086312294
1772790131619633200,7.010633056640625,-2.3505730628967285,-0.8957539796829224,-0.13114570081233978
1772790131629699000,7.020698974609375,-2.3664700984954834,-0.8760373592376709,-0.2120569348335266
1772790131639765000,7.030764892578125,-2.362356662750244,-0.8062630891799927,-0.2633853554725647
1772790131649831200,7.0408310546875,-2.3426947593688965,-0.7180525064468384,-0.2862878143787384
1772790131659897000,7.05089697265625,-2.3097496032714844,-0.6327850222587585,-0.28689101338386536
1772790131669963000,7.060962890625,-2.274869203567505,-0.5628963708877563,-0.26363033056259155
1772790131680029200,7.071029296875,-2.2176456451416016,-0.5132132768630981,-0.22764833271503448
1772790131690095000,7.08109521484375,-2.1420488357543945,-0.46545732021331787,-0.1852150857448578
1772790131700161000,7.0911611328125,-2.073979377746582,-0.4221290349960327,-0.14385885000228882
1772790131710227000,7.10122705078125,-2.0244531631469727,-0.417533814907074,-0.10361554473638535
1772790131720293000,7.111293212890625,-1.9764978885650635,-0.4335823059082031,-0.0577511191368103
1772790131730359000,7.121359130859375,-1.9166057109832764,-0.5114888548851013,-0.0189877487719059
1772790131740425200,7.13142529296875,-1.8507428169250488,-0.5971473455429077,0.01842593587934971
1772790131750491100,7.1414912109375,-1.7816367149353027,-0.6828679442405701,0.07789434492588043
1772790131760556000,7.15155615234375,-1.717649221420288,-0.7497212290763855,0.1480902135372162
1772790131770622000,7.1616220703125,-1.6545697450637817,-0.7924553751945496,0.2069823443889618
1772790131780688100,7.171688232421875,-1.5883841514587402,-0.8465425968170166,0.25181347131729126
1772790131790754000,7.181754150390625,-1.5478260517120361,-0.9046003222465515,0.2628137171268463
1772790131800820200,7.1918203125,-1.5246853828430176,-0.9689774513244629,0.2585848867893219
1772790131810886100,7.20188623046875,-1.5259976387023926,-1.0190935134887695,0.2306385338306427
1772790131820952000,7.2119521484375,-1.5294272899627686,-1.0286681652069092,0.20255522429943085
1772790131831018000,7.22201806640625,-1.5330822467803955,-1.037205457687378,0.1708916276693344
1772790131841084000,7.232083984375,-1.552858591079712,-1.074917197227478,0.1215621680021286
1772790131851150000,7.242150146484375,-1.5887867212295532,-1.1705036163330078,0.027633002027869225
1772790131861216000,7.252216064453125,-1.6415956020355225,-1.3099267482757568,-0.09654992818832397
1772790131871282200,7.2622822265625,-1.6984665393829346,-1.4647347927093506,-0.19684787094593048
1772790131881348000,7.27234814453125,-1.7471721172332764,-1.585684061050415,-0.23803046345710754
1772790131891414300,7.282414306640625,-1.7802228927612305,-1.6317875385284424,-0.2111119031906128
1772790131901484500,7.292484619140625,-1.7937816381454468,-1.614194393157959,-0.13313959538936615
1772790131911549400,7.302549560546875,-1.790913462638855,-1.5613975524902344,-0.036558233201503754
1772790131921615400,7.312615478515625,-1.7936735153198242,-1.4869009256362915,0.060080692172050476
1772790131931681300,7.322681396484375,-1.787177324295044,-1.3865296840667725,0.1199839785695076
1772790131941747500,7.33274755859375,-1.7839562892913818,-1.3064132928848267,0.1379576474428177
1772790131951813400,7.3428134765625,-1.7756409645080566,-1.1850829124450684,0.11506762355566025
1772790131961879600,7.352879638671875,-1.7648370265960693,-1.0231975317001343,0.07205544412136078
1772790131971945200,7.3629453125,-1.768273115158081,-0.861203134059906,0.019977383315563202
1772790131982011400,7.373011474609375,-1.7834177017211914,-0.730904757976532,-0.023766901344060898
1772790131992077300,7.383077392578125,-1.8169217109680176,-0.6339125633239746,-0.0555887371301651
1772790132002143500,7.3931435546875,-1.8648500442504883,-0.5835468769073486,-0.09051476418972015
1772790132012209400,7.40320947265625,-1.909206748008728,-0.5932632684707642,-0.1274358630180359
1772790132022275300,7.413275390625,-1.9491227865219116,-0.644984781742096,-0.1535273790359497
1772790132032341500,7.423341552734375,-1.98932683467865,-0.7269217371940613,-0.1525871753692627
1772790132042407200,7.4334072265625,-2.0272936820983887,-0.8193182349205017,-0.11022958904504776
1772790132052472300,7.443472412109375,-2.0506527423858643,-0.867835283279419,-0.06234196946024895
1772790132062538500,7.45353857421875,-2.0503175258636475,-0.858258843421936,-0.005483482964336872
1772790132072604400,7.4636044921875,-2.0413548946380615,-0.8068161606788635,0.027457689866423607
1772790132082670300,7.47367041015625,-2.0250675678253174,-0.7374742031097412,0.02843901887536049
1772790132092736500,7.483736572265625,-2.004962921142578,-0.6644015312194824,-0.003826587228104472
1772790132102802200,7.49380224609375,-1.9847065210342407,-0.5727456212043762,-0.061079226434230804
1772790132112868400,7.503868408203125,-1.954185128211975,-0.47792255878448486,-0.12973730266094208
1772790132122934300,7.513934326171875,-1.9191516637802124,-0.38168203830718994,-0.19070878624916077
1772790132133000400,7.52400048828125,-1.888831377029419,-0.28054434061050415,-0.2302725911140442
1772790132143066400,7.53406640625,-1.8557062149047852,-0.19779035449028015,-0.256511926651001
1772790132153132500,7.544132568359375,-1.822417974472046,-0.15585552155971527,-0.26250508427619934
1772790132163198500,7.554198486328125,-1.7893449068069458,-0.15782387554645538,-0.25424742698669434
1772790132173264400,7.564264404296875,-1.7513954639434814,-0.17308083176612854,-0.24567952752113342
1772790132183330300,7.574330322265625,-1.7103108167648315,-0.21007400751113892,-0.24125388264656067
1772790132193396200,7.584396240234375,-1.6718331575393677,-0.27846646308898926,-0.24038197100162506
1772790132203462400,7.59446240234375,-1.6376440525054932,-0.3580819368362427,-0.22149643301963806
1772790132213527600,7.604527587890625,-1.6080098152160645,-0.4282105565071106,-0.20024631917476654
1772790132223593500,7.614593505859375,-1.571588397026062,-0.46576303243637085,-0.17245782911777496
1772790132233659400,7.624659423828125,-1.538953185081482,-0.4702722430229187,-0.14099116623401642
1772790132243725300,7.634725341796875,-1.4927641153335571,-0.43384233117103577,-0.11852659285068512
1772790132253791200,7.644791259765625,-1.4396405220031738,-0.37241458892822266,-0.09756138920783997
1772790132263857400,7.654857421875,-1.3772287368774414,-0.29877686500549316,-0.08373212814331055
1772790132273923300,7.66492333984375,-1.308655858039856,-0.2075076699256897,-0.05789990723133087
1772790132283989500,7.674989501953125,-1.235738754272461,-0.1159825399518013,-0.03416501730680466
1772790132294055400,7.685055419921875,-1.170481562614441,-0.05578949674963951,-0.01902819611132145
1772790132304121600,7.69512158203125,-1.1097536087036133,-0.035295404493808746,-0.026106612756848335
1772790132314187300,7.705187255859375,-1.0657546520233154,-0.059123292565345764,-0.05851089954376221
1772790132324253400,7.71525341796875,-1.0262866020202637,-0.12970559298992157,-0.10485681891441345
1772790132334319400,7.7253193359375,-1.0042692422866821,-0.24989493191242218,-0.1417778581380844
1772790132344385300,7.73538525390625,-0.9992888569831848,-0.4000532925128937,-0.15071889758110046
1772790132354450400,7.745450439453125,-0.9852746725082397,-0.5656732320785522,-0.12095221877098083
1772790132364516600,7.7555166015625,-0.9716770648956299,-0.6854933500289917,-0.04211946204304695
1772790132374582300,7.765582275390625,-0.9601312875747681,-0.721939742565155,0.08543229103088379
1772790132384648400,7.7756484375,-0.9361364841461182,-0.6609592437744141,0.23432829976081848
1772790132394714400,7.78571435546875,-0.8987714052200317,-0.54410320520401,0.37550365924835205
1772790132404780300,7.7957802734375,-0.8491790890693665,-0.38088127970695496,0.4811890721321106
1772790132414846500,7.805846435546875,-0.7957946062088013,-0.17832975089550018,0.5436997413635254
1772790132424912400,7.815912353515625,-0.7536964416503906,0.0086164316162467,0.5285152196884155
1772790132434978600,7.825978515625,-0.7093241214752197,0.12849906086921692,0.4468609392642975
1772790132445044200,7.836044189453125,-0.665973961353302,0.18775120377540588,0.34195181727409363
1772790132455110400,7.8461103515625,-0.6456706523895264,0.21324791014194489,0.2501900792121887
1772790132465176300,7.85617626953125,-0.6439957618713379,0.22107760608196259,0.18250074982643127
1772790132475242500,7.866242431640625,-0.6333696842193604,0.22662194073200226,0.11793133616447449
1772790132485308400,7.876308349609375,-0.6416598558425903,0.1938682645559311,0.05765574425458908
1772790132495373600,7.88637353515625,-0.6512282490730286,0.13327310979366302,-0.014515086077153683
1772790132505439200,7.896439208984375,-0.657387375831604,0.07402922213077545,-0.09486691653728485
1772790132515505400,7.90650537109375,-0.6579359769821167,-0.05157545208930969,-0.1791069209575653
1772790132525571300,7.9165712890625,-0.6774588227272034,-0.21938841044902802,-0.2625810503959656
1772790132535637500,7.926637451171875,-0.7035738825798035,-0.3780982196331024,-0.3335857689380646
1772790132545703400,7.936703369140625,-0.7243201732635498,-0.4897158145904541,-0.37134966254234314
1772790132555769300,7.946769287109375,-0.7513909339904785,-0.5403004288673401,-0.37701576948165894
1772790132565835500,7.95683544921875,-0.7609665989875793,-0.5253209471702576,-0.3579331636428833
1772790132575901200,7.966901123046875,-0.7547438740730286,-0.41670507192611694,-0.31662529706954956
1772790132585967400,7.97696728515625,-0.7444531917572021,-0.2227018028497696,-0.266685426235199
1772790132596033300,7.987033203125,-0.7151427865028381,-0.028032798320055008,-0.2226901650428772
1772790132606098400,7.997098388671875,-0.6578600406646729,0.15257880091667175,-0.16250751912593842
1772790132616164400,8.007164306640625,-0.574923574924469,0.3233802020549774,-0.07874695211648941
1772790132626230500,8.01723046875,-0.4755397439002991,0.4918661415576935,0.010256960988044739
1772790132636296200,8.027296142578125,-0.37641000747680664,0.6210336089134216,0.07205642759799957
1772790132646362400,8.0373623046875,-0.27422478795051575,0.7168855667114258,0.09810853749513626
1772790132656428300,8.04742822265625,-0.20318703353405,0.7456573247909546,0.0820813924074173
1772790132666494500,8.057494384765626,-0.14271411299705505,0.6656665802001953,0.03962980955839157
1772790132676559400,8.067559326171875,-0.10827025026082993,0.5273643732070923,0.013125965371727943
1772790132686625500,8.07762548828125,-0.08019787073135376,0.37695565819740295,0.014662609435617924
1772790132696691200,8.087691162109374,-0.05987022817134857,0.2569587826728821,0.055436618626117706
1772790132706757400,8.09775732421875,-0.042743440717458725,0.15929588675498962,0.11020132899284363
1772790132716823300,8.1078232421875,-0.06008581444621086,0.09573908895254135,0.16452331840991974
1772790132726889500,8.117889404296875,-0.09374230355024338,0.03000987321138382,0.22152401506900787
1772790132736955400,8.127955322265626,-0.1414846032857895,-0.03760620951652527,0.2660251557826996
1772790132747021300,8.138021240234375,-0.19888398051261902,-0.08633140474557877,0.30013757944107056
1772790132757087500,8.14808740234375,-0.25649213790893555,-0.12863914668560028,0.32402506470680237
1772790132767153200,8.158153076171875,-0.30207347869873047,-0.1782439947128296,0.3260144293308258
1772790132777219300,8.16821923828125,-0.32828161120414734,-0.19519567489624023,0.3070674538612366
1772790132787285200,8.17828515625,-0.34333378076553345,-0.1713278889656067,0.2657615542411804
1772790132797351400,8.188351318359375,-0.3505306541919708,-0.15637478232383728,0.2118515521287918
1772790132807417300,8.198417236328124,-0.3711685538291931,-0.15141916275024414,0.153108611702919
1772790132817482500,8.208482421875,-0.3822774589061737,-0.13497424125671387,0.1093454658985138
1772790132827548200,8.218548095703126,-0.3911963701248169,-0.09147629886865616,0.07981234043836594
1772790132837614300,8.2286142578125,-0.3962305188179016,-0.03988294303417206,0.06534568965435028
1772790132847680300,8.23868017578125,-0.39653652906417847,0.02762259729206562,0.07274848222732544
1772790132857746400,8.248746337890625,-0.38258475065231323,0.09642311930656433,0.09358971565961838
1772790132867812400,8.258812255859375,-0.3645857572555542,0.1777917593717575,0.11110425740480423
1772790132877878500,8.26887841796875,-0.3470912277698517,0.2704748511314392,0.11955118924379349
1772790132887944400,8.2789443359375,-0.32154911756515503,0.319318562746048,0.0968240424990654
1772790132898006300,8.28900634765625,-0.2945380210876465,0.31915155053138733,0.05615401268005371
1772790132908072000,8.299072021484376,-0.2791132628917694,0.29608166217803955,0.012245412915945053
1772790132918138000,8.30913818359375,-0.2680857479572296,0.28296032547950745,-0.0308841485530138
1772790132928204000,8.3192041015625,-0.2600046396255493,0.27152392268180847,-0.05986280366778374
1772790132938270200,8.329270263671875,-0.24535764753818512,0.24977418780326843,-0.07571014761924744
1772790132948336000,8.339336181640626,-0.2323552966117859,0.20884937047958374,-0.08483413606882095
1772790132958401300,8.3494013671875,-0.22202329337596893,0.13130638003349304,-0.08299149572849274
1772790132968467000,8.359467041015625,-0.20575164258480072,0.03329859673976898,-0.06863545626401901
1772790132978533000,8.369533203125,-0.18634216487407684,-0.0411628857254982,-0.04026557505130768
1772790132988599000,8.37959912109375,-0.16271352767944336,-0.10849052667617798,-0.010300752706825733
1772790132998665200,8.389665283203126,-0.1366812288761139,-0.17444980144500732,0.010052962228655815
1772790133008731100,8.399731201171875,-0.11419111490249634,-0.21049383282661438,0.0166365634649992
1772790133018797000,8.409797119140626,-0.08506887406110764,-0.23908716440200806,0.00805105920881033
1772790133028863200,8.41986328125,-0.06679666042327881,-0.25831305980682373,-0.014783416874706745
1772790133038929000,8.429928955078125,-0.04695744812488556,-0.2767646312713623,-0.04801057279109955
1772790133048995000,8.4399951171875,-0.03284376114606857,-0.29681238532066345,-0.07811175286769867
1772790133059061000,8.45006103515625,-0.042388807982206345,-0.31530988216400146,-0.09814181923866272
1772790133069127200,8.460127197265624,-0.06600464880466461,-0.3357293903827667,-0.09782197326421738
1772790133079193000,8.470193115234375,-0.1059781014919281,-0.34026724100112915,-0.09356829524040222
1772790133089258200,8.48025830078125,-0.1448376178741455,-0.3200748860836029,-0.09031950682401657
1772790133099324000,8.490323974609375,-0.17911368608474731,-0.3023746907711029,-0.09707321971654892
1772790133109390000,8.50039013671875,-0.21522456407546997,-0.3093084990978241,-0.10956984013319016
1772790133119456000,8.5104560546875,-0.2472221702337265,-0.3257974684238434,-0.12095093727111816
1772790133129522200,8.520522216796875,-0.2556028366088867,-0.321942001581192,-0.11642969399690628
1772790133139588000,8.530588134765624,-0.24633996188640594,-0.29333922266960144,-0.10071658343076706
1772790133149654300,8.540654296875,-0.23747722804546356,-0.24434055387973785,-0.07599978893995285
1772790133159720200,8.55072021484375,-0.22392794489860535,-0.20815177261829376,-0.04077751561999321
1772790133169785900,8.560785888671875,-0.2144595980644226,-0.2007087618112564,-0.01068326085805893
1772790133179852000,8.57085205078125,-0.21164509654045105,-0.21105115115642548,0.023542562499642372
1772790133189918000,8.58091796875,-0.20928660035133362,-0.22642292082309723,0.06404870748519897
1772790133199984000,8.590984130859376,-0.21116487681865692,-0.25016602873802185,0.11526142060756683
1772790133210050000,8.601050048828125,-0.21027404069900513,-0.2641840875148773,0.17450504004955292
1772790133220116200,8.6111162109375,-0.20159929990768433,-0.24911808967590332,0.23218706250190735
1772790133230182100,8.62118212890625,-0.17556264996528625,-0.21996340155601501,0.29258009791374207
1772790133240248300,8.631248291015625,-0.1397925466299057,-0.19616557657718658,0.3407723605632782
1772790133250314000,8.64131396484375,-0.11411328613758087,-0.1707180142402649,0.377585768699646
1772790133260380000,8.6513798828125,-0.08238708227872849,-0.11494828760623932,0.40223631262779236
1772790133270446000,8.661446044921876,-0.0657162293791771,-0.04467678815126419,0.3946079611778259
1772790133280512000,8.671511962890625,-0.05919059365987778,0.017755145207047462,0.3476349711418152
1772790133290577200,8.6815771484375,-0.05326772481203079,0.023142188787460327,0.25916770100593567
1772790133300643300,8.691643310546874,-0.06656618416309357,-0.0382411815226078,0.1664593666791916
1772790133310709000,8.701708984375,-0.09381884336471558,-0.1431494802236557,0.09894371032714844
1772790133320775000,8.71177490234375,-0.13805541396141052,-0.23897461593151093,0.08095683157444
1772790133330841000,8.721841064453125,-0.1810883730649948,-0.29434120655059814,0.11581254750490189
1772790133340907000,8.731906982421876,-0.22027114033699036,-0.3177468776702881,0.20283465087413788
1772790133350973200,8.74197314453125,-0.22131003439426422,-0.3161519169807434,0.3123265206813812
1772790133361039000,8.7520390625,-0.19929535686969757,-0.27167847752571106,0.43049928545951843
1772790133371105300,8.762105224609375,-0.16344387829303741,-0.19258524477481842,0.5268998742103577
1772790133381171000,8.7721708984375,-0.12491161376237869,-0.11409079283475876,0.5957028269767761
1772790133391237000,8.782237060546874,-0.09283437579870224,-0.05681391805410385,0.6201426386833191
1772790133401303000,8.792302978515625,-0.05970583111047745,-0.025228530168533325,0.6137105226516724
1772790133411369000,8.802368896484374,-0.0374591127038002,-0.03508142754435539,0.594453752040863
1772790133421434000,8.81243408203125,-0.038834571838378906,-0.0686381533741951,0.5765842795372009
1772790133431500300,8.822500244140626,-0.06976345926523209,-0.10256762057542801,0.5744162201881409
1772790133441566000,8.83256591796875,-0.13654853403568268,-0.13390901684761047,0.5773606300354004
1772790133451632000,8.842632080078126,-0.22465576231479645,-0.17421089112758636,0.5659689903259277
1772790133461698000,8.852697998046875,-0.316773921251297,-0.22732415795326233,0.5307050347328186
1772790133471764000,8.862763916015625,-0.40469416975975037,-0.2873627245426178,0.4721998870372772
1772790133481830100,8.872830078125,-0.48198676109313965,-0.3385885953903198,0.40432003140449524
1772790133491896000,8.88289599609375,-0.5493857860565186,-0.35867440700531006,0.3315662145614624
1772790133501962200,8.892962158203124,-0.6087092161178589,-0.3554174304008484,0.26464247703552246
1772790133512028000,8.90302783203125,-0.6643442511558533,-0.3269474506378174,0.19370117783546448
1772790133522094000,8.913093994140626,-0.7085909247398376,-0.2541614770889282,0.13066047430038452
1772790133532160000,8.923159912109375,-0.7597542405128479,-0.15000256896018982,0.054512444883584976
1772790133542226200,8.93322607421875,-0.8214423060417175,-0.05078347027301788,-0.035433556884527206
1772790133552291000,8.943291015625,-0.8763177990913391,0.006566641852259636,-0.13913093507289886
1772790133562357200,8.953357177734375,-0.9145984649658203,0.039100319147109985,-0.2408122569322586
1772790133572423000,8.9634228515625,-0.9324818849563599,0.062251973897218704,-0.32524242997169495
1772790133582489000,8.973489013671875,-0.9323418736457825,0.10881568491458893,-0.3842508792877197
1772790133592555000,8.983554931640626,-0.9234994053840637,0.15220922231674194,-0.4265668988227844
1772790133602621200,8.99362109375,-0.9071058034896851,0.17009788751602173,-0.45542457699775696
1772790133612687000,9.00368701171875,-0.8875843286514282,0.14515818655490875,-0.47895413637161255
1772790133622753000,9.0137529296875,-0.8630406260490417,0.0924149751663208,-0.5002251863479614
1772790133632819200,9.023819091796875,-0.8331072330474854,0.018791083246469498,-0.5205352902412415
1772790133642884900,9.033884765625,-0.814003050327301,-0.0827481672167778,-0.5390158891677856
1772790133652951000,9.043950927734375,-0.8001205325126648,-0.19558735191822052,-0.5545514225959778
1772790133663017000,9.054016845703124,-0.7857886552810669,-0.29907116293907166,-0.5608915090560913
1772790133673083100,9.064083251953125,-0.7624803781509399,-0.36689493060112,-0.5509083867073059
1772790133683148000,9.07414794921875,-0.7392879128456116,-0.39492085576057434,-0.5177081823348999
1772790133693214200,9.084214111328125,-0.708026111125946,-0.38740700483322144,-0.48292168974876404
1772790133703279900,9.09427978515625,-0.6684629917144775,-0.3557630181312561,-0.45390868186950684
1772790133713346000,9.104345947265625,-0.6221761703491211,-0.3073723316192627,-0.4382149279117584
1772790133723412000,9.114411865234375,-0.5717372298240662,-0.2590824365615845,-0.4363594055175781
1772790133733478100,9.12447802734375,-0.5222684741020203,-0.20290784537792206,-0.43326428532600403
1772790133743544000,9.1345439453125,-0.47150012850761414,-0.12878769636154175,-0.4206739366054535
1772790133753610200,9.1446103515625,-0.41175344586372375,-0.05139303207397461,-0.4097917377948761
1772790133763676200,9.15467626953125,-0.34874141216278076,0.017162123695015907,-0.39199548959732056
1772790133773742000,9.1647421875,-0.2955564856529236,0.06284945458173752,-0.37192296981811523
1772790133783808000,9.17480810546875,-0.2505415380001068,0.05518434941768646,-0.36113643646240234
1772790133793873200,9.184873046875,-0.20757487416267395,0.00003641005605459213,-0.3407813608646393
1772790133803939000,9.19493896484375,-0.16382859647274017,-0.0944138616323471,-0.2998018264770508
1772790133814005200,9.205005126953125,-0.13520361483097076,-0.1778096854686737,-0.22599655389785767
1772790133824071200,9.2150712890625,-0.10766773670911789,-0.18036743998527527,-0.13118571043014526
1772790133834137000,9.22513720703125,-0.06437592208385468,-0.14809498190879822,-0.0398576520383358
1772790133844203000,9.235203125,-0.013024164363741875,-0.0928262248635292,0.030806690454483032
1772790133854269000,9.24526904296875,0.03742356225848198,-0.02768983505666256,0.07608362287282944
1772790133864335000,9.255335205078126,0.0905739963054657,0.010251495987176895,0.09712941199541092
1772790133874401000,9.265401123046875,0.14238952100276947,0.017940308898687363,0.09563378244638443
1772790133884467200,9.27546728515625,0.1960519403219223,0.02601958066225052,0.0944531187415123
1772790133894533000,9.285533203125,0.2437209188938141,0.04226300120353699,0.10351425409317017
1772790133904599600,9.295599609375,0.2836485803127289,0.07453615963459015,0.12499314546585083
1772790133914665700,9.305665771484374,0.3269449472427368,0.11149684339761734,0.16189523041248322
1772790133924731000,9.31573095703125,0.35873571038246155,0.14130400121212006,0.20433814823627472
1772790133934796800,9.325796875,0.39539358019828796,0.15075848996639252,0.24007564783096313
1772790133944862700,9.33586279296875,0.4268975853919983,0.12268083542585373,0.28565701842308044
1772790133954928600,9.3459287109375,0.4450150728225708,0.08915722370147705,0.3355068862438202
1772790133964994600,9.35599462890625,0.46138399839401245,0.05464506149291992,0.3910635709762573
1772790133975060700,9.366060791015625,0.4856257140636444,0.03899738937616348,0.4542374610900879
1772790133985126700,9.376126708984375,0.5163818001747131,0.05301165208220482,0.5117458701133728
1772790133995192800,9.38619287109375,0.5486550331115723,0.06655462086200714,0.5609033107757568
1772790134005258800,9.3962587890625,0.5654417276382446,0.09053993970155716,0.5975938439369202
1772790134015325000,9.406324951171875,0.5839146971702576,0.11836385726928711,0.6166136264801025
1772790134025390600,9.416390625,0.5957565903663635,0.14632873237133026,0.6275762319564819
1772790134035456800,9.426456787109375,0.6128724813461304,0.19110845029354095,0.6385052800178528
1772790134045522700,9.436522705078126,0.6216002702713013,0.25152021646499634,0.6405730843544006
1772790134055587800,9.446587890625,0.6276547312736511,0.3229624330997467,0.6300882697105408
1772790134065653800,9.45665380859375,0.6284357309341431,0.39290207624435425,0.6058862805366516
1772790134075719700,9.4667197265625,0.6248524188995361,0.4240272343158722,0.5740266442298889
1772790134085785600,9.47678564453125,0.6202052235603333,0.4036162197589874,0.5299277305603027
1772790134095851800,9.486851806640624,0.6002845168113708,0.3050225079059601,0.47657766938209534
1772790134105917700,9.496917724609375,0.5816043019294739,0.1679842621088028,0.41958433389663696
1772790134115983600,9.506983642578126,0.5627626776695251,0.03938447684049606,0.40323278307914734
1772790134126049800,9.5170498046875,0.5485223531723022,-0.028019938617944717,0.4481566846370697
1772790134136115700,9.52711572265625,0.5519511699676514,0.00031849369406700134,0.5561867356300354
1772790134146182000,9.537181884765625,0.5651128888130188,0.10410303622484207,0.6881788372993469
1772790134156247600,9.54724755859375,0.5805776119232178,0.25046929717063904,0.8007551431655884
1772790134166313700,9.557313720703124,0.5977651476860046,0.3497336208820343,0.8699889779090881
1772790134176378600,9.567378662109375,0.5995745062828064,0.36855044960975647,0.8901829123497009
1772790134186444800,9.57744482421875,0.5866264700889587,0.36415529251098633,0.8620503544807434
1772790134196510700,9.5875107421875,0.5772865414619446,0.377590149641037,0.799168050289154
1772790134206577000,9.597576904296876,0.5764200091362,0.41958484053611755,0.7178454995155334
1772790134216642600,9.607642578125,0.5788448452949524,0.42116329073905945,0.6253994703292847
1772790134226708700,9.617708740234375,0.5723627209663391,0.4010729491710663,0.5463765859603882
1772790134236774700,9.627774658203125,0.561015784740448,0.38312962651252747,0.49493497610092163
1772790134246840800,9.6378408203125,0.5461427569389343,0.3645749092102051,0.4586470127105713
1772790134256906800,9.64790673828125,0.5434446930885315,0.3354119658470154,0.43397441506385803
1772790134266972700,9.65797265625,0.5509260296821594,0.29131945967674255,0.4177795648574829
1772790134277038800,9.668038818359374,0.5622039437294006,0.23179729282855988,0.41618990898132324
1772790134287104500,9.6781044921875,0.5712359547615051,0.17035329341888428,0.4002707302570343
1772790134297169700,9.688169677734376,0.6019858717918396,0.10967423766851425,0.37493953108787537
1772790134307235800,9.69823583984375,0.645687997341156,0.07888016104698181,0.32961446046829224
1772790134317301800,9.7083017578125,0.6770927906036377,0.07473069429397583,0.27124860882759094
1772790134327367700,9.71836767578125,0.6819210648536682,0.08802869915962219,0.20249073207378387
1772790134337433900,9.728433837890625,0.661080002784729,0.10551074892282486,0.12174874544143677
1772790134347499500,9.73849951171875,0.6414152383804321,0.11097818613052368,0.031418394297361374
1772790134357565700,9.748565673828125,0.6174889206886292,0.08548188209533691,-0.049200817942619324
1772790134367631600,9.758631591796876,0.5836146473884583,0.02406463399529457,-0.11467583477497101
1772790134377697800,9.76869775390625,0.5601673722267151,-0.06029685214161873,-0.16748738288879395
1772790134387763700,9.778763671875,0.5165987610816956,-0.11860840022563934,-0.2100062072277069
1772790134397830000,9.788829833984375,0.4546366035938263,-0.12414830923080444,-0.22152091562747955
1772790134407895800,9.798895751953125,0.3835488259792328,-0.09232419729232788,-0.2276216298341751
1772790134417960700,9.808960693359374,0.3399563431739807,-0.07399152964353561,-0.23197750747203827
1772790134428026600,9.819026611328125,0.33385899662971497,-0.029053041711449623,-0.24025948345661163
1772790134438092800,9.8290927734375,0.3574466109275818,0.04805079847574234,-0.25080639123916626
1772790134448158700,9.83915869140625,0.39223766326904297,0.14980030059814453,-0.26320919394493103
1772790134458225000,9.849224853515626,0.42289862036705017,0.2524137496948242,-0.27405890822410583
1772790134468290800,9.859290771484375,0.4543111324310303,0.3526221215724945,-0.2760259211063385
1772790134478356500,9.8693564453125,0.4717828035354614,0.5058558583259583,-0.2569393217563629
1772790134488422700,9.879422607421875,0.47575652599334717,0.6428966522216797,-0.2194887399673462
1772790134498488600,9.889488525390625,0.4660397171974182,0.6884625554084778,-0.20184344053268433
1772790134508554800,9.8995546875,0.47362977266311646,0.6400730013847351,-0.20249739289283752
1772790134518620700,9.90962060546875,0.4918375313282013,0.5252223014831543,-0.2230178415775299
1772790134528685800,9.919685791015626,0.5076582431793213,0.3520190417766571,-0.22823314368724823
1772790134538751500,9.92975146484375,0.504383385181427,0.174166738986969,-0.23540423810482025
1772790134548817700,9.939817626953126,0.4856746792793274,0.021267306059598923,-0.24819554388523102
1772790134558883600,9.949883544921875,0.45534124970436096,-0.08978570997714996,-0.276728093624115
1772790134568949800,9.95994970703125,0.4096207618713379,-0.15809796750545502,-0.3226272165775299
1772790134579015700,9.970015625,0.36395636200904846,-0.2169828563928604,-0.3665829598903656
1772790134589081900,9.980081787109375,0.32479509711265564,-0.273968368768692,-0.3785077929496765
1772790134599147800,9.990147705078124,0.28455179929733276,-0.30702805519104004,-0.3776044547557831
1772790134609214000,10.0002138671875,0.25217071175575256,-0.3160209059715271,-0.36248892545700073
1772790134619279600,10.010279541015626,0.22985048592090607,-0.2836640179157257,-0.3358789086341858
1772790134629345500,10.020345458984375,0.189194917678833,-0.20344024896621704,-0.26929062604904175
1772790134639411700,10.03041162109375,0.13487042486667633,-0.06559078395366669,-0.18574514985084534
1772790134649477600,10.0404775390625,0.0905972346663475,0.10510053485631943,-0.11021682620048523
1772790134659542800,10.050542724609375,0.06267532706260681,0.24958792328834534,-0.05925936624407768
1772790134669608700,10.060608642578124,0.05225322023034096,0.30140092968940735,-0.05862116813659668
1772790134679674600,10.070674560546875,0.05112963542342186,0.27713742852211,-0.10379850119352341
1772790134689740500,10.080740478515626,0.06793458014726639,0.23130102455615997,-0.153137668967247
1772790134699806700,10.090806640625,0.08002053201198578,0.2016904056072235,-0.1844034343957901
1772790134709872600,10.10087255859375,0.07425530254840851,0.18032775819301605,-0.18990913033485413
1772790134719938800,10.110938720703125,0.06403674930334091,0.1428847759962082,-0.17072291672229767
1772790134730004700,10.121004638671875,0.054000746458768845,0.09426245838403702,-0.12643003463745117
1772790134740071000,10.13107080078125,0.050567932426929474,0.04468239098787308,-0.0616220161318779
1772790134750136600,10.141136474609375,0.071295827627182,-0.011092561297118664,0.01350029930472374
1772790134760202800,10.15120263671875,0.08938615024089813,-0.026482436805963516,0.08723577111959457
1772790134770267600,10.161267578125,0.11472195386886597,-0.017320765182375908,0.14650166034698486
1772790134780333800,10.171333740234376,0.12177453190088272,-0.011576061137020588,0.1891023814678192
1772790134790399700,10.181399658203125,0.10842610895633698,-0.0018690340220928192,0.20249691605567932
1772790134800466000,10.1914658203125,0.09099332243204117,0.013610589317977428,0.20880913734436035
1772790134810531600,10.201531494140625,0.06680868566036224,0.055812276899814606,0.20504163205623627
1772790134820597800,10.21159765625,0.05082519352436066,0.09858450293540955,0.21614089608192444
1772790134830663700,10.22166357421875,0.035644397139549255,0.11169029027223587,0.23671340942382812
1772790134840729600,10.2317294921875,0.03779862821102142,0.12658534944057465,0.26582786440849304
1772790134850795800,10.241795654296874,0.044083356857299805,0.1404954046010971,0.3111340403556824
1772790134860861700,10.25186181640625,0.04344978928565979,0.09477851539850235,0.3443599045276642
1772790134870928000,10.261927978515626,0.037089768797159195,0.02361198142170906,0.3559409976005554
1772790134880993500,10.27199365234375,0.02466106228530407,-0.03813233971595764,0.34532350301742554
1772790134891058700,10.28205859375,-0.0010454365983605385,-0.09646837413311005,0.32709839940071106
1772790134901128000,10.2921279296875,-0.027522316202521324,-0.16804030537605286,0.28970229625701904
1772790134911193900,10.30219384765625,-0.0616421215236187,-0.22960524260997772,0.24930636584758759
1772790134921259800,10.312259765625,-0.0935870036482811,-0.24986204504966736,0.19840724766254425
1772790134931326000,10.322325927734376,-0.11471448093652725,-0.22829817235469818,0.14585354924201965
1772790134941392000,10.332391845703125,-0.13452866673469543,-0.1763441562652588,0.09663832187652588
1772790134951458000,10.3424580078125,-0.1442575752735138,-0.13146108388900757,0.03911269083619118
1772790134961523700,10.352523681640625,-0.13937120139598846,-0.1289883255958557,-0.02476988546550274
1772790134971590000,10.36258984375,-0.12799577414989471,-0.15675204992294312,-0.08753233402967453
1772790134981655800,10.37265576171875,-0.12107901275157928,-0.18900905549526215,-0.131796196103096
1772790134991722000,10.382721923828125,-0.10321643948554993,-0.1944771111011505,-0.1720314621925354
1772790135001788000,10.392787841796874,-0.058076392859220505,-0.1628342568874359,-0.18720242381095886
1772790135011853000,10.40285302734375,-0.017658572643995285,-0.10788644850254059,-0.16551055014133453
1772790135021918700,10.412918701171876,0.04056691750884056,-0.03716966137290001,-0.11203853040933609
1772790135031985000,10.42298486328125,0.09349279850721359,0.08980666846036911,-0.04364701360464096
1772790135042050800,10.43305078125,0.13651803135871887,0.2240893840789795,0.010255367495119572
1772790135052117000,10.443116943359374,0.1410563439130783,0.29212555289268494,0.022952470928430557
1772790135062183000,10.453182861328125,0.13530923426151276,0.2919423282146454,-0.03722564876079559
1772790135072248800,10.463248779296874,0.1454491764307022,0.22201523184776306,-0.11028388142585754
1772790135082315000,10.47331494140625,0.14410987496376038,0.15333417057991028,-0.13095985352993011
1772790135092380700,10.483380615234376,0.13480451703071594,0.1199282705783844,-0.08759801089763641
1772790135102446800,10.49344677734375,0.13075731694698334,0.1144791841506958,-0.009841692633926868
1772790135112512800,10.5035126953125,0.12689031660556793,0.0913378968834877,0.07892818003892899
1772790135122579000,10.513578857421875,0.10789664834737778,0.04654539376497269,0.17605552077293396
1772790135132643800,10.523643798828125,0.06139528006315231,-0.00891772098839283,0.2626279592514038
1772790135142710000,10.5337099609375,0.01631222292780876,-0.07947391271591187,0.3098090589046478
1772790135152775700,10.543775634765625,-0.027780404314398766,-0.1355837881565094,0.323802649974823
1772790135162841900,10.553841796875,-0.0630987137556076,-0.15981057286262512,0.29781845211982727
1772790135172907800,10.56390771484375,-0.09304117411375046,-0.15277940034866333,0.23793837428092957
1772790135182974000,10.573973876953126,-0.12344995141029358,-0.12833824753761292,0.14637383818626404
1772790135193040000,10.584039794921875,-0.13733769953250885,-0.10513094067573547,0.032792266458272934
1772790135203106000,10.59410595703125,-0.1510697603225708,-0.08900310099124908,-0.08294552564620972
1772790135213172000,10.604171875,-0.16518542170524597,-0.04276606813073158,-0.1710359901189804
1772790135223238000,10.61423779296875,-0.1690765619277954,0.027748312801122665,-0.22846439480781555
1772790135233303800,10.6243037109375,-0.16396021842956543,0.08851850777864456,-0.24307282269001007
1772790135243369700,10.63436962890625,-0.14886248111724854,0.16379249095916748,-0.22719958424568176
1772790135253435000,10.644434814453126,-0.10952810198068619,0.26447802782058716,-0.19009190797805786
1772790135263501000,10.6545009765625,-0.06904458999633789,0.39562246203422546,-0.14446450769901276
1772790135273567000,10.66456689453125,-0.017989089712500572,0.47210997343063354,-0.1184142678976059
1772790135283633000,10.6746328125,0.039217740297317505,0.5044082999229431,-0.13236257433891296
1772790135293698800,10.68469873046875,0.11702494323253632,0.5476734042167664,-0.17127341032028198
1772790135303764700,10.6947646484375,0.1932573914527893,0.5741724371910095,-0.1978786587715149
1772790135313831000,10.704830810546875,0.2143469750881195,0.6863961815834045,-0.12316899746656418
1772790135323896800,10.714896728515624,0.25016355514526367,0.5894808173179626,-0.0952145978808403
1772790135333963000,10.724962890625,0.3154939115047455,0.2902243137359619,-0.15741579234600067
1772790135344029000,10.73502880859375,0.36812010407447815,0.07626327127218246,-0.22095003724098206
1772790135354095000,10.74509521484375,0.3901488780975342,-0.06420830637216568,-0.26899072527885437
1772790135364160800,10.755160888671876,0.40394991636276245,-0.12867890298366547,-0.34224072098731995
1772790135374226000,10.765225830078125,0.40729328989982605,-0.12798349559307098,-0.43847382068634033
1772790135384291800,10.775291748046875,0.41002196073532104,-0.07987987995147705,-0.5002613067626953
1772790135394358000,10.78535791015625,0.4494689702987671,0.06435585767030716,-0.4913999140262604
1772790135404424000,10.795423828125,0.5085764527320862,0.16483771800994873,-0.4728808104991913
