time,seconds_elapsed,z,y,x
1772797636892211700,0.082211669921875,-0.2569732666015625,0.2156829833984375,0.00482177734375
1772797636902237700,0.09223779296875,-0.25225830078125,0.181884765625,-0.0047454833984375
1772797636912263700,0.102263671875,-0.268218994140625,0.1457672119140625,-0.03936767578125
1772797636922290700,0.112290771484375,-0.3400421142578125,0.112274169921875,-0.0737762451171875
1772797636932316700,0.122316650390625,-0.4716796875,0.076446533203125,-0.0897369384765625
1772797636942342700,0.1323427734375,-0.60162353515625,0.0346832275390625,-0.1444244384765625
1772797636952369700,0.14236962890625,-0.67449951171875,-0.0158538818359375,-0.225860595703125
1772797636962395600,0.152395751953125,-0.7349090576171875,-0.0776519775390625,-0.2702789306640625
1772797636972421600,0.162421630859375,-0.794708251953125,-0.189178466796875,-0.2876129150390625
1772797636982448600,0.17244873046875,-0.8600006103515625,-0.382049560546875,-0.29559326171875
1772797636992475000,0.182474853515625,-0.987060546875,-0.65069580078125,-0.305938720703125
1772797637002500900,0.1925009765625,-1.359771728515625,-0.8679656982421875,-0.41943359375
1772797637012527600,0.202527587890625,-2.24993896484375,-0.8487091064453125,-0.5324554443359375
1772797637022553600,0.2125537109375,-3.6754608154296875,-0.7474822998046875,-0.42437744140625
1772797637032580600,0.22258056640625,-5.3538970947265625,-0.49334716796875,-0.275421142578125
1772797637042606600,0.232606689453125,-6.6906890869140625,-0.240264892578125,-0.2915496826171875
1772797637052632600,0.242632568359375,-6.7042999267578125,-0.21258544921875,-0.403717041015625
1772797637062659800,0.252659912109375,-5.5458221435546875,-0.3668212890625,-0.5398712158203125
1772797637072685800,0.262685791015625,-4.254364013671875,-0.569610595703125,-0.5761871337890625
1772797637082711800,0.2727119140625,-3.237884521484375,-0.754302978515625,-0.5780487060546875
1772797637092738600,0.282738525390625,-2.3542327880859375,-0.8548431396484375,-0.508636474609375
1772797637102764500,0.2927646484375,-1.608123779296875,-0.89178466796875,-0.4531097412109375
1772797637112790500,0.30279052734375,-1.08502197265625,-0.922210693359375,-0.431121826171875
1772797637122817800,0.31281787109375,-0.857818603515625,-0.90625,-0.3215789794921875
1772797637132843800,0.32284375,-0.891204833984375,-0.884552001953125,-0.133209228515625
1772797637142869800,0.332869873046875,-0.9630584716796875,-0.87353515625,0.031951904296875
1772797637152896800,0.342896728515625,-0.914581298828125,-0.867767333984375,0.1071014404296875
1772797637162922500,0.352922607421875,-0.8047637939453125,-0.796539306640625,0.1529083251953125
1772797637172948500,0.362948486328125,-0.6744232177734375,-0.6756591796875,0.17437744140625
1772797637182975700,0.372975830078125,-0.495635986328125,-0.569732666015625,0.1217041015625
1772797637193001700,0.383001708984375,-0.1862945556640625,-0.46002197265625,0.041778564453125
1772797637203027700,0.39302783203125,0.16009521484375,-0.3524627685546875,-0.0201263427734375
1772797637213054700,0.4030546875,0.4513092041015625,-0.24676513671875,-0.0061798095703125
1772797637223080700,0.413080810546875,0.5890960693359375,-0.1402740478515625,0.12628173828125
1772797637233106700,0.423106689453125,0.5980072021484375,-0.051239013671875,0.156036376953125
1772797637243133700,0.4331337890625,0.56512451171875,-0.044647216796875,0.080718994140625
1772797637253159700,0.44315966796875,0.56964111328125,-0.0303192138671875,0.013824462890625
1772797637263185700,0.453185546875,0.6079254150390625,0.00433349609375,-0.009796142578125
1772797637273212700,0.463212646484375,0.6237945556640625,0.003570556640625,-0.0373687744140625
1772797637283238700,0.47323876953125,0.59869384765625,0.0035552978515625,-0.0845794677734375
1772797637293264600,0.4832646484375,0.53216552734375,0.02978515625,-0.139556884765625
1772797637303292000,0.4932919921875,0.49298095703125,0.0654296875,-0.1480560302734375
1772797637313318000,0.50331787109375,0.495513916015625,0.092864990234375,-0.1390228271484375
1772797637323344000,0.51334375,0.5327606201171875,0.14520263671875,-0.1401214599609375
1772797637333370600,0.52337060546875,0.51947021484375,0.17694091796875,-0.1333770751953125
1772797637343396600,0.533396728515625,0.4660186767578125,0.198577880859375,-0.0972442626953125
1772797637353422600,0.543422607421875,0.3688812255859375,0.2429962158203125,-0.1228790283203125
1772797637363449600,0.55344970703125,0.1843109130859375,0.240936279296875,-0.1413421630859375
1772797637373475800,0.563475830078125,0.0035858154296875,0.2576141357421875,-0.1107330322265625
1772797637383501800,0.573501708984375,-0.1541900634765625,0.272430419921875,-0.1088104248046875
1772797637393528600,0.583528564453125,-0.2510223388671875,0.2634124755859375,-0.05084228515625
1772797637403554600,0.593554443359375,-0.2410125732421875,0.253692626953125,-0.03515625
1772797637413580500,0.60358056640625,-0.173065185546875,0.2415008544921875,-0.0858612060546875
1772797637423607600,0.613607666015625,-0.11907958984375,0.217987060546875,-0.0996856689453125
1772797637433633500,0.623633544921875,-0.1322021484375,0.1984100341796875,-0.0809783935546875
1772797637443659800,0.63365966796875,-0.213531494140625,0.1807708740234375,-0.066741943359375
1772797637453686800,0.643686767578125,-0.3428802490234375,0.1502838134765625,-0.0587921142578125
1772797637463712800,0.653712646484375,-0.4514617919921875,0.1272430419921875,-0.0548095703125
1772797637473738800,0.66373876953125,-0.54052734375,0.087554931640625,-0.058441162109375
1772797637483765500,0.673765625,-0.6707611083984375,0.060943603515625,-0.091796875
1772797637493791500,0.68379150390625,-0.8551177978515625,0.0001373291015625,-0.07550048828125
1772797637503817700,0.693817626953125,-1.0035552978515625,-0.1061553955078125,0.054168701171875
1772797637513844700,0.7038447265625,-1.1368560791015625,-0.2611846923828125,0.264678955078125
1772797637523870700,0.71387060546875,-1.3159942626953125,-0.459442138671875,0.43572998046875
1772797637533897700,0.723897705078125,-1.6546630859375,-0.649444580078125,0.33795166015625
1772797637543923700,0.733923828125,-2.399749755859375,-0.7227935791015625,-0.000885009765625
1772797637553949700,0.74394970703125,-3.482330322265625,-0.597442626953125,-0.3936309814453125
1772797637563976700,0.753976806640625,-4.940185546875,-0.3374176025390625,-0.7163848876953125
1772797637574002700,0.764002685546875,-6.046417236328125,-0.14215087890625,-0.88714599609375
1772797637584028700,0.774028564453125,-6.1514129638671875,-0.0877532958984375,-0.852081298828125
1772797637594055700,0.7840556640625,-5.496551513671875,-0.19683837890625,-0.845916748046875
1772797637604081700,0.79408154296875,-4.5305633544921875,-0.401336669921875,-0.929473876953125
1772797637614107600,0.804107666015625,-3.5152435302734375,-0.533111572265625,-1.012176513671875
1772797637624134700,0.814134765625,-2.704315185546875,-0.6537933349609375,-0.923370361328125
1772797637634160600,0.82416064453125,-2.152313232421875,-0.7272796630859375,-0.7012939453125
1772797637644186600,0.8341865234375,-1.8050079345703125,-0.6877288818359375,-0.5403289794921875
1772797637654213600,0.844213623046875,-1.6565093994140625,-0.5783843994140625,-0.44415283203125
1772797637664240000,0.854240234375,-1.498504638671875,-0.474578857421875,-0.3092041015625
1772797637674266000,0.86426611328125,-1.2368927001953125,-0.3838348388671875,-0.131561279296875
1772797637684293000,0.874293212890625,-0.9084625244140625,-0.324951171875,0.00390625
1772797637694319000,0.884319091796875,-0.557464599609375,-0.2994384765625,0.0684356689453125
1772797637704345000,0.894344970703125,-0.1825408935546875,-0.27325439453125,0.07159423828125
1772797637714372000,0.9043720703125,0.14813232421875,-0.2700958251953125,0.0765533447265625
1772797637724398000,0.914398193359375,0.441741943359375,-0.2328338623046875,0.107818603515625
1772797637734425000,0.924425048828125,0.680267333984375,-0.1979217529296875,0.17120361328125
1772797637744451000,0.934451171875,0.751129150390625,-0.179046630859375,0.1871337890625
1772797637754477000,0.94447705078125,0.7682342529296875,-0.113525390625,0.247650146484375
1772797637764504000,0.954504150390625,0.6913909912109375,-0.069854736328125,0.3377838134765625
1772797637774530000,0.964530029296875,0.5918426513671875,-0.0336151123046875,0.4523162841796875
1772797637784556000,0.97455615234375,0.4905853271484375,-0.0247802734375,0.5072784423828125
1772797637794583000,0.9845830078125,0.4129180908203125,-0.0046234130859375,0.497222900390625
1772797637804609000,0.994609130859375,0.319549560546875,-0.0109710693359375,0.445343017578125
1772797637814635000,1.004635009765625,0.2178192138671875,-0.021209716796875,0.3701934814453125
1772797637824662000,1.014662109375,0.1108245849609375,-0.035675048828125,0.2928619384765625
1772797637834688000,1.02468798828125,-0.0009002685546875,-0.0543670654296875,0.2205963134765625
1772797637844714200,1.03471435546875,-0.0923309326171875,-0.073211669921875,0.1700286865234375
1772797637854741000,1.044740966796875,-0.146453857421875,-0.096466064453125,0.12091064453125
1772797637864767000,1.05476708984375,-0.202117919921875,-0.1198272705078125,0.068756103515625
1772797637874793000,1.06479296875,-0.2297210693359375,-0.1365966796875,0.03375244140625
1772797637884820000,1.074820068359375,-0.2343902587890625,-0.1534423828125,0.0105133056640625
1772797637894846000,1.084845947265625,-0.224822998046875,-0.1553497314453125,-0.0152740478515625
1772797637904872000,1.094871826171875,-0.2280120849609375,-0.151214599609375,-0.0236663818359375
1772797637914899200,1.104899169921875,-0.26361083984375,-0.132415771484375,-0.012542724609375
1772797637924925200,1.11492529296875,-0.3134002685546875,-0.1114654541015625,0.0161590576171875
1772797637934952000,1.124951904296875,-0.3923797607421875,-0.08013916015625,0.0606689453125
1772797637944978000,1.13497802734375,-0.474273681640625,-0.056243896484375,0.1055450439453125
1772797637955004000,1.14500390625,-0.5388946533203125,-0.04473876953125,0.106292724609375
1772797637965031200,1.15503125,-0.583221435546875,-0.0516510009765625,0.0626983642578125
1772797637975057200,1.16505712890625,-0.640350341796875,-0.05535888671875,0.005035400390625
1772797637985083100,1.175083251953125,-0.7146148681640625,-0.071563720703125,-0.04412841796875
1772797637995110100,1.185110107421875,-0.7859649658203125,-0.0775146484375,-0.056488037109375
1772797638005136100,1.19513623046875,-0.882415771484375,-0.0967254638671875,-0.0540771484375
1772797638015162000,1.205162109375,-0.9800567626953125,-0.1198577880859375,-0.0421295166015625
1772797638025189000,1.215189208984375,-1.10113525390625,-0.174285888671875,-0.0451202392578125
1772797638035215000,1.225215087890625,-1.26397705078125,-0.2427520751953125,-0.088836669921875
1772797638045242000,1.2352421875,-1.556854248046875,-0.294219970703125,-0.196044921875
1772797638055268000,1.24526806640625,-2.0330047607421875,-0.338775634765625,-0.2997283935546875
1772797638065294000,1.255294189453125,-2.622833251953125,-0.42474365234375,-0.3327178955078125
1772797638075320800,1.26532080078125,-3.1040802001953125,-0.4839019775390625,-0.4415740966796875
1772797638085347000,1.27534716796875,-3.38092041015625,-0.4868927001953125,-0.6984100341796875
1772797638095373000,1.285373046875,-3.3844757080078125,-0.5423431396484375,-0.934722900390625
1772797638105400000,1.295400146484375,-3.1070404052734375,-0.6531219482421875,-1.0046234130859375
1772797638115426000,1.305426025390625,-2.743072509765625,-0.7587127685546875,-0.957122802734375
1772797638125452000,1.3154521484375,-2.522979736328125,-0.8252716064453125,-0.8237762451171875
1772797638135479000,1.32547900390625,-2.57550048828125,-0.8326263427734375,-0.6488494873046875
1772797638145505000,1.335505126953125,-2.715118408203125,-0.7757568359375,-0.555206298828125
1772797638155531300,1.34553125,-2.7441864013671875,-0.6881561279296875,-0.479827880859375
1772797638165558000,1.35555810546875,-2.6676483154296875,-0.6084136962890625,-0.340545654296875
1772797638175584000,1.365583984375,-2.498321533203125,-0.539825439453125,-0.1620941162109375
1772797638185610000,1.37560986328125,-2.2590179443359375,-0.4943389892578125,-0.03582763671875
1772797638195637000,1.385636962890625,-1.9873199462890625,-0.44720458984375,-0.02020263671875
1772797638205663000,1.3956630859375,-1.601837158203125,-0.413421630859375,-0.0186767578125
1772797638215690200,1.405690185546875,-1.1688232421875,-0.3710174560546875,0.0088348388671875
1772797638225716200,1.41571630859375,-0.7620391845703125,-0.3133087158203125,0.04608154296875
1772797638235742200,1.4257421875,-0.4277801513671875,-0.2603912353515625,0.1020660400390625
1772797638245769000,1.43576904296875,-0.122314453125,-0.1935882568359375,0.166290283203125
1772797638255795000,1.445794921875,0.148468017578125,-0.1470184326171875,0.2562255859375
1772797638265821000,1.455821044921875,0.3538360595703125,-0.13055419921875,0.34368896484375
1772797638275848200,1.46584814453125,0.54180908203125,-0.1092071533203125,0.417999267578125
1772797638285874200,1.475874267578125,0.5770111083984375,-0.123779296875,0.459075927734375
1772797638295900200,1.485900146484375,0.56781005859375,-0.1106414794921875,0.4578094482421875
1772797638305927000,1.495927001953125,0.546783447265625,-0.103485107421875,0.45892333984375
1772797638315953000,1.505952880859375,0.54412841796875,-0.08465576171875,0.4506072998046875
1772797638325979000,1.515978759765625,0.56805419921875,-0.07012939453125,0.438140869140625
1772797638336006100,1.526006103515625,0.586944580078125,-0.0576019287109375,0.434906005859375
1772797638346032000,1.5360322265625,0.5800628662109375,-0.033477783203125,0.4334564208984375
1772797638356059100,1.54605908203125,0.4762115478515625,-0.00042724609375,0.4279022216796875
1772797638366085000,1.556085205078125,0.3222503662109375,0.04339599609375,0.402313232421875
1772797638376111000,1.566111083984375,0.1413116455078125,0.0683135986328125,0.356719970703125
1772797638386137900,1.576137939453125,-0.0107421875,0.1044921875,0.312255859375
1772797638396163800,1.586163818359375,-0.12554931640625,0.117706298828125,0.2664642333984375
1772797638406190000,1.596190185546875,-0.24261474609375,0.1113128662109375,0.2023162841796875
1772797638416217000,1.606217041015625,-0.346710205078125,0.116119384765625,0.0831451416015625
1772797638426243000,1.6162431640625,-0.4080963134765625,0.1025848388671875,-0.02032470703125
1772797638436269000,1.62626904296875,-0.4422760009765625,0.085540771484375,-0.090911865234375
1772797638446296000,1.636296142578125,-0.47119140625,0.0574951171875,-0.14129638671875
1772797638456322000,1.646322021484375,-0.4937896728515625,0.0199737548828125,-0.2001800537109375
1772797638466349000,1.65634912109375,-0.5137939453125,-0.0257415771484375,-0.285797119140625
1772797638476375000,1.666375,-0.51812744140625,-0.0626983642578125,-0.391021728515625
1772797638486401000,1.676401123046875,-0.501617431640625,-0.0816802978515625,-0.5090179443359375
1772797638496428000,1.686427978515625,-0.4935455322265625,-0.0871429443359375,-0.580596923828125
1772797638506454000,1.6964541015625,-0.5309906005859375,-0.0958709716796875,-0.5785369873046875
1772797638516480000,1.70647998046875,-0.6416168212890625,-0.10394287109375,-0.556396484375
1772797638526507300,1.71650732421875,-0.8373260498046875,-0.096710205078125,-0.547210693359375
1772797638536533000,1.726532958984375,-1.0214996337890625,-0.097412109375,-0.493408203125
1772797638546559000,1.73655908203125,-1.134918212890625,-0.123870849609375,-0.438934326171875
1772797638556586000,1.7465859375,-1.22674560546875,-0.162567138671875,-0.39849853515625
1772797638566612000,1.756612060546875,-1.2891845703125,-0.218048095703125,-0.3637237548828125
1772797638576638000,1.766637939453125,-1.3869476318359375,-0.3000335693359375,-0.307891845703125
1772797638586665200,1.776665283203125,-1.604705810546875,-0.3702545166015625,-0.228424072265625
1772797638596691200,1.786691162109375,-1.972625732421875,-0.4945526123046875,-0.11029052734375
1772797638606718000,1.796718017578125,-2.3925628662109375,-0.601348876953125,-0.0812530517578125
1772797638616744000,1.806743896484375,-2.8435516357421875,-0.6881103515625,-0.096405029296875
1772797638626770000,1.81677001953125,-3.2639007568359375,-0.7181396484375,-0.172943115234375
1772797638636797000,1.826796875,-3.4555206298828125,-0.7752227783203125,-0.2682647705078125
1772797638646823200,1.8368232421875,-3.4397430419921875,-0.889984130859375,-0.2361602783203125
1772797638656849200,1.84684912109375,-3.34100341796875,-0.981048583984375,-0.114501953125
1772797638666875100,1.856875244140625,-3.2238311767578125,-1.0435943603515625,0.070953369140625
1772797638676901000,1.866901123046875,-3.11102294921875,-1.1097564697265625,0.2469482421875
1772797638686927000,1.876927001953125,-2.96685791015625,-1.137481689453125,0.2825775146484375
1772797638696954000,1.8869541015625,-2.7631683349609375,-1.1167755126953125,0.2465667724609375
1772797638706980000,1.89697998046875,-2.47894287109375,-1.108856201171875,0.2017059326171875
1772797638717006000,1.907006103515625,-2.1824798583984375,-1.0616912841796875,0.118804931640625
1772797638727032800,1.91703271484375,-1.915771484375,-0.9675750732421875,0.0518798828125
1772797638737059000,1.92705908203125,-1.644866943359375,-0.831573486328125,0.0477294921875
1772797638747086000,1.937086181640625,-1.3072967529296875,-0.6771240234375,0.1051177978515625
1772797638757112000,1.947112060546875,-0.96099853515625,-0.5309600830078125,0.1891021728515625
1772797638767138000,1.957137939453125,-0.6668243408203125,-0.4047088623046875,0.2472991943359375
1772797638777165000,1.9671650390625,-0.4176025390625,-0.2984619140625,0.252593994140625
1772797638787191000,1.97719091796875,-0.2118988037109375,-0.2085113525390625,0.2203521728515625
1772797638797217000,1.987217041015625,-0.00347900390625,-0.11822509765625,0.1879425048828125
1772797638807244000,1.997244140625,0.1744384765625,-0.03936767578125,0.199127197265625
1772797638817270000,2.00727001953125,0.34356689453125,0.053070068359375,0.2279052734375
1772797638827296000,2.0172958984375,0.4578094482421875,0.120086669921875,0.2938079833984375
1772797638837323000,2.027322998046875,0.475341796875,0.1912689208984375,0.3492431640625
1772797638847349000,2.037348876953125,0.4685821533203125,0.2436065673828125,0.3882598876953125
1772797638857375000,2.047375,0.4430084228515625,0.263458251953125,0.377044677734375
1772797638867402000,2.057402099609375,0.4643707275390625,0.2712554931640625,0.269805908203125
1772797638877428000,2.067427978515625,0.5363922119140625,0.2385406494140625,0.115325927734375
1772797638887455000,2.077455078125,0.6471099853515625,0.2388153076171875,-0.0577850341796875
1772797638897481000,2.08748095703125,0.700469970703125,0.2077484130859375,-0.1895599365234375
1772797638907507000,2.0975068359375,0.689422607421875,0.1985931396484375,-0.2838592529296875
1772797638917534200,2.1075341796875,0.612579345703125,0.1694183349609375,-0.3549346923828125
1772797638927560200,2.117560302734375,0.438507080078125,0.1383514404296875,-0.3645172119140625
1772797638937586200,2.127586181640625,0.254608154296875,0.1377410888671875,-0.3511962890625
1772797638947613000,2.137613037109375,0.12908935546875,0.1182403564453125,-0.276153564453125
1772797638957639000,2.147638916015625,0.073272705078125,0.091156005859375,-0.1814117431640625
1772797638967665000,2.157664794921875,0.022857666015625,0.0665130615234375,-0.10308837890625
1772797638977692200,2.167692138671875,-0.0157928466796875,0.038055419921875,-0.02203369140625
1772797638987718100,2.17771826171875,-0.066497802734375,-0.0170745849609375,0.0521392822265625
1772797638997744000,2.187744140625,-0.093505859375,-0.0694122314453125,0.09796142578125
1772797639007771100,2.197771240234375,-0.07623291015625,-0.1373443603515625,0.1454620361328125
1772797639017797000,2.207797119140625,-0.013275146484375,-0.2313385009765625,0.2209320068359375
1772797639027823900,2.217823974609375,0.041961669921875,-0.3189239501953125,0.31011962890625
1772797639037849900,2.227849853515625,0.031494140625,-0.4036407470703125,0.4137725830078125
1772797639047876000,2.2378759765625,-0.0960235595703125,-0.4921722412109375,0.5198516845703125
1772797639057903000,2.247903076171875,-0.2643585205078125,-0.580963134765625,0.6742706298828125
1772797639067929000,2.25792919921875,-0.3111724853515625,-0.6921539306640625,0.87384033203125
1772797639077955000,2.267955078125,-0.3049163818359375,-0.7766571044921875,0.9898834228515625
1772797639087981800,2.27798193359375,-0.3795318603515625,-0.88140869140625,1.062957763671875
1772797639098007800,2.2880078125,-0.5153656005859375,-1.007904052734375,1.2774505615234375
1772797639108034000,2.298033935546875,-0.8341217041015625,-1.2213592529296875,1.67620849609375
1772797639118061000,2.30806103515625,-1.62457275390625,-1.46893310546875,2.0748443603515625
1772797639128087000,2.318087158203125,-3.109161376953125,-1.7173309326171875,2.2497711181640625
1772797639138113000,2.328113037109375,-5.092529296875,-2.0869903564453125,1.8777008056640625
1772797639148140000,2.33814013671875,-7.17059326171875,-2.4209747314453125,0.812744140625
1772797639158166000,2.348166015625,-8.08319091796875,-2.5303497314453125,-0.60296630859375
1772797639168192000,2.35819189453125,-8.027984619140625,-2.36273193359375,-1.9493865966796875
1772797639178219000,2.368218994140625,-8.044631958007812,-1.6124267578125,-2.90625
1772797639188245000,2.378244873046875,-8.052093505859375,-0.610198974609375,-3.125518798828125
1772797639198272000,2.38827197265625,-8.053863525390625,0.2945098876953125,-3.00567626953125
1772797639208298000,2.398298095703125,-7.8809356689453125,1.129638671875,-2.795684814453125
1772797639218324000,2.408323974609375,-6.23492431640625,1.7098388671875,-2.802764892578125
1772797639228351200,2.418351318359375,-4.2831878662109375,2.044830322265625,-3.0030517578125
1772797639238377200,2.428377197265625,-2.41583251953125,2.048980712890625,-2.66925048828125
1772797639248403200,2.4384033203125,-0.60137939453125,1.91009521484375,-1.7411041259765625
1772797639258430000,2.448429931640625,0.4570465087890625,1.9508514404296875,-0.798004150390625
1772797639268456000,2.4584560546875,1.0468902587890625,2.1632080078125,-0.0235748291015625
1772797639278482000,2.46848193359375,1.610260009765625,2.194488525390625,0.5614166259765625
1772797639288509200,2.47850927734375,1.47979736328125,2.0995330810546875,0.7369232177734375
1772797639298535200,2.48853515625,0.9093017578125,2.1894683837890625,0.62744140625
1772797639308561200,2.49856103515625,0.662109375,2.333099365234375,0.5174407958984375
1772797639318588000,2.508587890625,0.52740478515625,2.45635986328125,0.2148895263671875
1772797639328614000,2.51861376953125,0.4221649169921875,2.40484619140625,-0.330535888671875
1772797639338641000,2.528640869140625,0.8017120361328125,2.1591949462890625,-0.8432464599609375
1772797639348667000,2.5386669921875,1.437225341796875,1.7811279296875,-1.119415283203125
1772797639358693000,2.548693115234375,1.7774658203125,1.3856048583984375,-1.3169097900390625
1772797639368720100,2.55872021484375,1.8321990966796875,1.073577880859375,-1.4516448974609375
1772797639378746000,2.56874609375,1.88531494140625,0.814300537109375,-1.310577392578125
1772797639388772000,2.578772216796875,1.9318389892578125,0.613128662109375,-0.976898193359375
1772797639398798800,2.588798828125,1.780792236328125,0.5218048095703125,-0.6767730712890625
1772797639408824800,2.598824951171875,1.5273284912109375,0.4781646728515625,-0.4073638916015625
1772797639418850800,2.608850830078125,1.3186798095703125,0.42474365234375,-0.19580078125
1772797639428878000,2.618878173828125,1.1327056884765625,0.34735107421875,-0.09002685546875
1772797639438904000,2.628904052734375,1.0232391357421875,0.282501220703125,-0.0052032470703125
1772797639448930000,2.638929931640625,0.91571044921875,0.1911163330078125,0.1578216552734375
1772797639458957000,2.64895703125,0.8161773681640625,0.032867431640625,0.4516754150390625
1772797639468983000,2.658983154296875,0.71514892578125,-0.1727142333984375,0.899749755859375
1772797639479009000,2.669009033203125,0.5273284912109375,-0.389678955078125,1.24713134765625
1772797639489036000,2.6790361328125,0.11273193359375,-0.5660552978515625,1.3572540283203125
1772797639499062000,2.68906201171875,-0.38690185546875,-0.678619384765625,1.304168701171875
1772797639509088000,2.699087890625,-0.900848388671875,-0.6983642578125,1.12457275390625
1772797639519115000,2.709114990234375,-1.5073699951171875,-0.6610260009765625,0.79669189453125
1772797639529141000,2.71914111328125,-2.32208251953125,-0.52056884765625,0.418304443359375
1772797639539168000,2.72916796875,-3.0815582275390625,-0.3546905517578125,0.018157958984375
1772797639549194000,2.739194091796875,-3.236846923828125,-0.1945343017578125,-0.264739990234375
1772797639559220000,2.749219970703125,-2.8461761474609375,-0.068328857421875,-0.50823974609375
1772797639569247000,2.7592470703125,-2.3744049072265625,0.0435943603515625,-0.7764129638671875
1772797639579273000,2.76927294921875,-1.953277587890625,0.13702392578125,-0.95904541015625
1772797639589299000,2.779298828125,-1.5594635009765625,0.27459716796875,-1.02276611328125
1772797639599326200,2.789326171875,-1.090087890625,0.367950439453125,-0.9993133544921875
1772797639609352200,2.799352294921875,-0.5040130615234375,0.42547607421875,-0.9915313720703125
1772797639619378200,2.809378173828125,0.1110382080078125,0.44384765625,-0.9515228271484375
1772797639629405000,2.819405029296875,0.6486358642578125,0.4615936279296875,-0.7707672119140625
1772797639639431000,2.829430908203125,1.0107879638671875,0.471923828125,-0.4737701416015625
1772797639649457000,2.839456787109375,1.1817474365234375,0.46044921875,-0.1778411865234375
1772797639659484700,2.849484619140625,1.2634429931640625,0.39306640625,0.07861328125
1772797639669510700,2.8595107421875,1.3129730224609375,0.3325653076171875,0.3242034912109375
1772797639679536600,2.86953662109375,1.224395751953125,0.2529296875,0.582122802734375
1772797639689563400,2.8795634765625,1.0320587158203125,0.1432342529296875,0.7752685546875
1772797639699589400,2.88958935546875,0.804840087890625,0.044769287109375,0.89715576171875
1772797639709615400,2.899615478515625,0.63250732421875,-0.078765869140625,1.0478668212890625
1772797639719642400,2.909642333984375,0.597747802734375,-0.282012939453125,1.182037353515625
1772797639729668600,2.919668701171875,0.543975830078125,-0.5040435791015625,1.22955322265625
1772797639739695600,2.929695556640625,0.2349853515625,-0.706756591796875,1.180145263671875
1772797639749721600,2.9397216796875,-0.3728485107421875,-0.94036865234375,1.1468658447265625
1772797639759747600,2.94974755859375,-1.3531951904296875,-1.2839813232421875,1.1191864013671875
1772797639769774300,2.9597744140625,-2.8062744140625,-1.7357330322265625,1.0472564697265625
1772797639779800300,2.96980029296875,-4.3740997314453125,-2.2829132080078125,1.0545501708984375
1772797639789826600,2.97982666015625,-5.920745849609375,-2.893890380859375,0.816619873046875
1772797639799853600,2.989853515625,-7.6847991943359375,-3.2394561767578125,-0.0705108642578125
1772797639809879600,2.999879638671875,-8.075424194335938,-3.0701904296875,-1.27960205078125
1772797639819905500,3.009905517578125,-8.025848388671875,-2.3263397216796875,-2.244354248046875
1772797639829932500,3.0199326171875,-8.048309326171875,-1.5501861572265625,-3.0171661376953125
1772797639839958500,3.02995849609375,-8.044769287109375,-0.9166717529296875,-4.0601043701171875
1772797639849984500,3.039984619140625,-6.920623779296875,-0.3412017822265625,-4.725799560546875
1772797639860011500,3.050011474609375,-3.9485015869140625,-0.0395355224609375,-4.3254241943359375
1772797639870037500,3.06003759765625,-2.0612030029296875,0.089752197265625,-3.221832275390625
1772797639880063500,3.0700634765625,-1.50946044921875,0.23016357421875,-2.099395751953125
1772797639890090500,3.080090576171875,-1.1365814208984375,0.425079345703125,-1.228515625
1772797639900116500,3.090116455078125,-0.4019622802734375,0.56793212890625,-0.6568145751953125
1772797639910142500,3.100142578125,0.337677001953125,0.6314544677734375,-0.3949737548828125
1772797639920169500,3.11016943359375,0.614105224609375,0.69549560546875,-0.2081146240234375
1772797639930195500,3.120195556640625,0.5650634765625,0.7640533447265625,-0.020355224609375
1772797639940221400,3.130221435546875,0.4453582763671875,0.81964111328125,0.120697021484375
1772797639950248400,3.14024853515625,0.299072265625,0.8929290771484375,0.187347412109375
1772797639960274400,3.1502744140625,0.1536865234375,0.9461822509765625,0.2000732421875
1772797639970301700,3.1603017578125,0.0765838623046875,0.986846923828125,0.1467132568359375
1772797639980327700,3.17032763671875,0.135955810546875,0.9878997802734375,0.0072784423828125
1772797639990353700,3.180353759765625,0.3047027587890625,0.9316558837890625,-0.188262939453125
1772797640000379600,3.190379638671875,0.51531982421875,0.8352813720703125,-0.36785888671875
1772797640010406400,3.200406494140625,0.7485198974609375,0.737396240234375,-0.532928466796875
1772797640020432400,3.210432373046875,0.954833984375,0.6331329345703125,-0.611358642578125
1772797640030459400,3.22045947265625,1.0469818115234375,0.54034423828125,-0.5685882568359375
1772797640040485600,3.230485595703125,0.9915008544921875,0.487518310546875,-0.4792327880859375
1772797640050511600,3.24051171875,0.869720458984375,0.4523162841796875,-0.3780975341796875
1772797640060538600,3.25053857421875,0.73394775390625,0.42376708984375,-0.279937744140625
1772797640070564600,3.260564697265625,0.6613616943359375,0.396148681640625,-0.1980743408203125
1772797640080590600,3.270590576171875,0.6604156494140625,0.3558807373046875,-0.1481170654296875
1772797640090617300,3.280617431640625,0.6887969970703125,0.3069305419921875,-0.1422576904296875
1772797640100643600,3.2906435546875,0.70220947265625,0.2717742919921875,-0.160552978515625
1772797640110669600,3.300669677734375,0.676025390625,0.2463836669921875,-0.1789703369140625
1772797640120696600,3.310696533203125,0.592681884765625,0.238555908203125,-0.179901123046875
1772797640130722600,3.32072265625,0.4855194091796875,0.2248687744140625,-0.172943115234375
1772797640140748500,3.33074853515625,0.4082183837890625,0.2053070068359375,-0.1243743896484375
1772797640150775600,3.340775634765625,0.3609161376953125,0.173095703125,-0.0598297119140625
1772797640160801500,3.350801513671875,0.3329620361328125,0.13800048828125,0.03253173828125
1772797640170827500,3.36082763671875,0.2566070556640625,0.0914764404296875,0.128082275390625
1772797640180854500,3.3708544921875,0.1269989013671875,0.043701171875,0.23529052734375
1772797640190880500,3.380880615234375,-0.0256500244140625,-0.026153564453125,0.365203857421875
1772797640200906500,3.390906494140625,-0.194976806640625,-0.1084136962890625,0.4539031982421875
1772797640210933500,3.40093359375,-0.358795166015625,-0.2127532958984375,0.4924163818359375
1772797640220959500,3.41095947265625,-0.4682464599609375,-0.3406982421875,0.534637451171875
1772797640230985500,3.4209853515625,-0.5369873046875,-0.4583892822265625,0.5970306396484375
1772797640241012500,3.431012451171875,-0.5563201904296875,-0.572021484375,0.6031036376953125
1772797640251038500,3.44103857421875,-0.549346923828125,-0.671661376953125,0.56451416015625
1772797640261064400,3.451064453125,-0.558624267578125,-0.7328033447265625,0.52325439453125
1772797640271091500,3.461091552734375,-0.627197265625,-0.7689971923828125,0.5342864990234375
1772797640281117400,3.471117431640625,-0.788299560546875,-0.7835693359375,0.5425262451171875
1772797640291143400,3.481143310546875,-1.0294952392578125,-0.7650299072265625,0.5336761474609375
1772797640301170700,3.491170654296875,-1.35003662109375,-0.76190185546875,0.4670257568359375
1772797640311196700,3.50119677734375,-1.6907806396484375,-0.8096771240234375,0.395355224609375
1772797640321222700,3.51122265625,-2.0926971435546875,-0.92852783203125,0.3168792724609375
1772797640331249400,3.52124951171875,-2.5861968994140625,-1.10760498046875,0.262054443359375
1772797640341275400,3.531275390625,-2.994384765625,-1.3461761474609375,0.2688446044921875
1772797640351302700,3.541302734375,-3.5596771240234375,-1.493377685546875,0.136077880859375
1772797640361328600,3.55132861328125,-4.5659637451171875,-1.3791961669921875,-0.3914337158203125
1772797640371354600,3.561354736328125,-5.673736572265625,-0.9878387451171875,-1.2335357666015625
1772797640381381600,3.571381591796875,-6.5756072998046875,-0.5592041015625,-2.232666015625
1772797640391407600,3.58140771484375,-6.698333740234375,-0.29852294921875,-3.176971435546875
1772797640401433300,3.591433349609375,-5.664947509765625,-0.1739501953125,-3.786376953125
1772797640411460400,3.60146044921875,-4.2571563720703125,-0.1436004638671875,-3.6830291748046875
1772797640421486600,3.611486572265625,-3.2136993408203125,-0.0658721923828125,-2.85137939453125
1772797640431512600,3.6215126953125,-2.537109375,0.0879974365234375,-1.6221771240234375
1772797640441539600,3.63153955078125,-2.0653228759765625,0.218475341796875,-0.4983062744140625
1772797640451565600,3.641565673828125,-1.822784423828125,0.261932373046875,0.168701171875
1772797640461591600,3.651591552734375,-1.63372802734375,0.2574920654296875,0.375946044921875
1772797640471618300,3.661618408203125,-1.2889862060546875,0.221588134765625,0.259063720703125
1772797640481644500,3.67164453125,-0.8712158203125,0.1670379638671875,-0.0050201416015625
1772797640491670500,3.68167041015625,-0.50909423828125,0.1106414794921875,-0.2029266357421875
1772797640501697500,3.691697509765625,-0.178741455078125,0.11724853515625,-0.2906036376953125
1772797640511723500,3.7017236328125,0.0952606201171875,0.1526641845703125,-0.31573486328125
1772797640521749500,3.71174951171875,0.399658203125,0.1838226318359375,-0.2245330810546875
1772797640531776500,3.721776611328125,0.6162261962890625,0.2086334228515625,-0.0746612548828125
1772797640541802500,3.731802490234375,0.6789703369140625,0.232421875,0.019012451171875
1772797640551828700,3.741828857421875,0.6168670654296875,0.2334747314453125,-0.0235748291015625
1772797640561855500,3.75185546875,0.656646728515625,0.2334747314453125,-0.09429931640625
1772797640571881500,3.761881591796875,0.7750701904296875,0.2191925048828125,-0.1688079833984375
1772797640581907500,3.771907470703125,0.8018646240234375,0.163421630859375,-0.3221282958984375
1772797640591934500,3.7819345703125,0.874969482421875,0.0665740966796875,-0.530731201171875
1772797640601960400,3.79196044921875,1.1234588623046875,-0.0977630615234375,-0.6813507080078125
1772797640611986400,3.801986328125,1.2966461181640625,-0.2695770263671875,-0.918975830078125
1772797640622013700,3.812013671875,1.307830810546875,-0.2899932861328125,-1.156402587890625
1772797640632039400,3.822039306640625,1.0073089599609375,-0.418853759765625,-1.086517333984375
1772797640642065400,3.8320654296875,0.5328369140625,-0.3491973876953125,-0.9339752197265625
1772797640652092400,3.842092529296875,0.064361572265625,-0.2142486572265625,-0.6367950439453125
1772797640662119200,3.852119140625,-0.2335052490234375,-0.113189697265625,-0.3092193603515625
1772797640672145200,3.862145263671875,-0.331085205078125,-0.0455322265625,-0.03564453125
1772797640682172200,3.872172119140625,-0.203277587890625,0.0186309814453125,0.1313018798828125
1772797640692198100,3.8821982421875,-0.033782958984375,0.0633392333984375,0.1987152099609375
1772797640702224100,3.89222412109375,0.10711669921875,0.08880615234375,0.1795501708984375
1772797640712251100,3.902251220703125,0.22161865234375,0.0620574951171875,0.1383514404296875
1772797640722277000,3.912277099609375,0.2715911865234375,0.033294677734375,0.115814208984375
1772797640732303000,3.92230322265625,0.2256622314453125,0.0247955322265625,0.116241455078125
1772797640742330000,3.932330078125,0.13427734375,0.02557373046875,0.16278076171875
1772797640752356000,3.942356201171875,0.0470123291015625,0.0133514404296875,0.256103515625
1772797640762382000,3.952382080078125,-0.0153350830078125,-0.0245513916015625,0.3909912109375
1772797640772409000,3.9624091796875,-0.1099395751953125,-0.0623016357421875,0.5720367431640625
1772797640782435000,3.97243505859375,-0.197357177734375,-0.1187591552734375,0.7333984375
1772797640792461000,3.9824609375,-0.2615509033203125,-0.202362060546875,0.7764129638671875
1772797640802488000,3.992488037109375,-0.287567138671875,-0.2531280517578125,0.7019805908203125
1772797640812514000,4.00251416015625,-0.3217620849609375,-0.3038482666015625,0.6168365478515625
1772797640822540000,4.0125400390625,-0.3771514892578125,-0.349334716796875,0.566650390625
1772797640832567300,4.0225673828125,-0.5478515625,-0.3942718505859375,0.4667205810546875
1772797640842593300,4.03259326171875,-0.877197265625,-0.486785888671875,0.28411865234375
1772797640852619300,4.042619384765625,-1.33892822265625,-0.627960205078125,0.0841217041015625
1772797640862646000,4.05264599609375,-1.9300079345703125,-0.7669677734375,0.0595245361328125
1772797640872672000,4.062672119140625,-2.5019683837890625,-0.8912200927734375,0.355743408203125
1772797640882698000,4.072697998046875,-3.1589202880859375,-0.99493408203125,0.801971435546875
1772797640892725200,4.082725341796875,-4.2922515869140625,-0.883392333984375,0.8638916015625
1772797640902751200,4.092751220703125,-5.77349853515625,-0.6331024169921875,0.3534698486328125
1772797640912777200,4.102777099609375,-7.0620269775390625,-0.31988525390625,-0.6838531494140625
1772797640922804200,4.11280419921875,-7.8902587890625,-0.033721923828125,-1.8861236572265625
1772797640932830200,4.122830322265625,-7.3100128173828125,0.151397705078125,-2.645355224609375
1772797640942856200,4.132856201171875,-5.3973846435546875,0.2429351806640625,-2.73785400390625
1772797640952883200,4.14288330078125,-3.615142822265625,0.138885498046875,-2.272003173828125
1772797640962909200,4.1529091796875,-2.4456787109375,0.0327606201171875,-1.5302276611328125
1772797640972935200,4.16293505859375,-1.9365234375,-0.0369110107421875,-0.8282470703125
1772797640982962200,4.172962158203125,-1.677978515625,-0.0557098388671875,-0.391632080078125
1772797640992988200,4.18298828125,-1.297607421875,-0.055450439453125,-0.21923828125
1772797641003014100,4.19301416015625,-0.7909698486328125,-0.05926513671875,-0.1638641357421875
1772797641013041200,4.203041259765625,-0.332122802734375,-0.0526123046875,-0.1785888671875
1772797641023067100,4.213067138671875,-0.0442047119140625,-0.03948974609375,-0.207244873046875
1772797641033093000,4.223093017578125,0.1158905029296875,0.001556396484375,-0.22528076171875
1772797641043120000,4.2331201171875,0.2626495361328125,0.06463623046875,-0.17645263671875
1772797641053146000,4.24314599609375,0.3180694580078125,0.1216583251953125,-0.100067138671875
1772797641063172000,4.253172119140625,0.3566131591796875,0.1631927490234375,-0.037017822265625
1772797641073199000,4.26319921875,0.4281768798828125,0.15936279296875,0.036468505859375
1772797641083225300,4.273225341796875,0.468292236328125,0.1339569091796875,0.061187744140625
1772797641093251300,4.283251220703125,0.5153045654296875,0.125640869140625,0.032806396484375
1772797641103278000,4.293278076171875,0.544281005859375,0.0920867919921875,0.015106201171875
1772797641113304000,4.303303955078125,0.558258056640625,0.078155517578125,-0.0108795166015625
1772797641123330000,4.313330078125,0.5885162353515625,0.073211669921875,-0.021209716796875
1772797641133357000,4.323357177734375,0.56396484375,0.0592193603515625,-0.031829833984375
1772797641143383000,4.333383056640625,0.49285888671875,0.0683746337890625,-0.0403289794921875
1772797641153409300,4.3434091796875,0.403289794921875,0.071441650390625,-0.0227813720703125
1772797641163436300,4.353436279296875,0.3538665771484375,0.090667724609375,0.005767822265625
1772797641173462300,4.363462158203125,0.3360748291015625,0.0863494873046875,0.0235595703125
1772797641183488300,4.37348828125,0.3202056884765625,0.0793914794921875,0.0327301025390625
1772797641193515000,4.383514892578125,0.2911376953125,0.0739593505859375,0.0153656005859375
1772797641203541000,4.393541015625,0.2550506591796875,0.055023193359375,-0.007171630859375
1772797641213567200,4.403567138671875,0.2460479736328125,0.0371246337890625,-0.0258941650390625
1772797641223594200,4.41359423828125,0.248931884765625,-0.0055084228515625,-0.042510986328125
1772797641233620200,4.4236201171875,0.2489013671875,-0.064697265625,-0.069183349609375
1772797641243646200,4.433646240234375,0.235260009765625,-0.1118927001953125,-0.102264404296875
1772797641253673000,4.4436728515625,0.1918182373046875,-0.1363525390625,-0.1316986083984375
1772797641263699000,4.453698974609375,0.1323699951171875,-0.1475067138671875,-0.123779296875
1772797641273725000,4.463724853515625,0.027923583984375,-0.1498260498046875,-0.0736083984375
1772797641283752200,4.473752197265625,-0.0842132568359375,-0.1658782958984375,0.0002593994140625
1772797641293778200,4.483778076171875,-0.1388702392578125,-0.208709716796875,0.1147613525390625
1772797641303804200,4.49380419921875,-0.19158935546875,-0.2218475341796875,0.238525390625
1772797641313831200,4.5038310546875,-0.214752197265625,-0.2247161865234375,0.3031158447265625
1772797641323857200,4.513857177734375,-0.2812652587890625,-0.2409515380859375,0.3003997802734375
1772797641333883100,4.523883056640625,-0.46356201171875,-0.259033203125,0.3106842041015625
1772797641343910100,4.53391015625,-0.820281982421875,-0.285430908203125,0.4416351318359375
1772797641353936100,4.54393603515625,-1.2723541259765625,-0.2881927490234375,0.61846923828125
1772797641363962000,4.553962158203125,-1.6693572998046875,-0.2667694091796875,0.5025787353515625
1772797641373989000,4.563989013671875,-1.9217681884765625,-0.4176177978515625,0.2052001953125
1772797641384015000,4.57401513671875,-1.695709228515625,-0.517303466796875,-0.2310943603515625
1772797641394041000,4.584041015625,-1.8102874755859375,-0.87677001953125,-0.4758453369140625
1772797641404068400,4.594068359375,-1.8541717529296875,-1.02947998046875,-0.19793701171875
1772797641414094300,4.60409423828125,-2.5460968017578125,-0.7740020751953125,0.1847381591796875
1772797641424120000,4.6141201171875,-3.605682373046875,-0.6432952880859375,0.52740478515625
1772797641434146000,4.62414599609375,-4.383819580078125,-0.409454345703125,0.7021026611328125
1772797641444173000,4.634173095703125,-4.810272216796875,-0.1732177734375,0.8069305419921875
1772797641454199000,4.644198974609375,-5.177825927734375,0.0894317626953125,0.7457122802734375
1772797641464225000,4.65422509765625,-5.1005096435546875,0.16949462890625,0.423126220703125
1772797641474252300,4.664252197265625,-5.0729217529296875,0.1761627197265625,-0.1508331298828125
1772797641484278300,4.6742783203125,-4.6584625244140625,0.1211700439453125,-0.61920166015625
1772797641494304300,4.68430419921875,-3.839111328125,0.028167724609375,-0.7140350341796875
1772797641504331000,4.6943310546875,-3.0494384765625,-0.0009918212890625,-0.5321044921875
1772797641514357000,4.70435693359375,-2.3453521728515625,-0.0091094970703125,-0.3485260009765625
1772797641524383000,4.714383056640625,-1.770904541015625,-0.041595458984375,-0.2703094482421875
1772797641534410200,4.72441015625,-1.2612152099609375,-0.097564697265625,-0.2333984375
1772797641544436200,4.734436279296875,-0.831268310546875,-0.173095703125,-0.2370147705078125
1772797641554462200,4.744462158203125,-0.4192047119140625,-0.3447418212890625,-0.358184814453125
1772797641564489200,4.7544892578125,-0.102264404296875,-0.427947998046875,-0.4404144287109375
1772797641574515200,4.76451513671875,0.0211639404296875,-0.36773681640625,-0.3549346923828125
1772797641584541200,4.774541259765625,-0.0131988525390625,-0.281524658203125,-0.220428466796875
1772797641594568200,4.784568115234375,-0.0103302001953125,-0.197418212890625,-0.1627197265625
1772797641604594200,4.79459423828125,-0.0066070556640625,-0.1272125244140625,-0.141265869140625
1772797641614620200,4.8046201171875,0.026885986328125,-0.0423736572265625,-0.070037841796875
1772797641624647200,4.814647216796875,0.0814971923828125,0.0097503662109375,-0.02996826171875
1772797641634673200,4.824673095703125,0.2046661376953125,0.0540618896484375,-0.0123443603515625
1772797641644699100,4.83469921875,0.3591461181640625,0.0774993896484375,0.024261474609375
1772797641654726100,4.84472607421875,0.4891510009765625,0.111328125,0.080596923828125
1772797641664751000,4.854751220703125,0.5683746337890625,0.118896484375,0.0763397216796875
1772797641674777000,4.864777099609375,0.6057281494140625,0.106475830078125,0.0081787109375
1772797641684803800,4.874803955078125,0.639556884765625,0.067413330078125,-0.0643157958984375
1772797641694829800,4.884829833984375,0.6399078369140625,0.003570556640625,-0.1640472412109375
1772797641704856000,4.89485595703125,0.7008209228515625,-0.066070556640625,-0.3080596923828125
1772797641714883000,4.904883056640625,0.7307891845703125,-0.0600433349609375,-0.284576416015625
1772797641724909000,4.914908935546875,0.6862945556640625,-0.0983734130859375,-0.2371826171875
1772797641734935000,4.92493505859375,0.6218719482421875,-0.04083251953125,-0.1072845458984375
1772797641744962000,4.934962158203125,0.46502685546875,-0.01983642578125,0.00457763671875
1772797641754988000,4.944988037109375,0.337646484375,0.0169677734375,0.0763092041015625
1772797641765014300,4.95501416015625,0.2127227783203125,0.0316314697265625,0.0796661376953125
1772797641775040300,4.965040283203125,0.165924072265625,0.0404510498046875,0.0409698486328125
1772797641785067000,4.97506689453125,0.12579345703125,0.0440521240234375,-0.029571533203125
1772797641795093000,4.985093017578125,0.0572509765625,0.0279083251953125,-0.0222930908203125
1772797641805119000,4.995118896484375,0.02166748046875,0.0342559814453125,0.042999267578125
1772797641815146000,5.00514599609375,0.0545806884765625,0.028167724609375,0.08917236328125
1772797641825172000,5.015171875,0.0035400390625,0.0066375732421875,0.0655517578125
1772797641835198200,5.0251982421875,-0.0169525146484375,-0.0126953125,0.034942626953125
1772797641845225200,5.03522509765625,-0.07537841796875,-0.0315093994140625,-0.01031494140625
1772797641855251200,5.045251220703125,-0.132598876953125,-0.0655517578125,-0.012115478515625
1772797641865277000,5.05527685546875,-0.1807708740234375,-0.0745697021484375,0.074310302734375
1772797641875304000,5.065303955078125,-0.238677978515625,-0.0729217529296875,0.1570587158203125
1772797641885330000,5.075329833984375,-0.267364501953125,-0.0753631591796875,0.1729583740234375
1772797641895356200,5.085356201171875,-0.2777099609375,-0.08489990234375,0.162506103515625
1772797641905383200,5.095383056640625,-0.3780975341796875,-0.0812835693359375,0.1658782958984375
1772797641915409200,5.1054091796875,-0.599822998046875,-0.0617828369140625,0.2592620849609375
1772797641925435100,5.11543505859375,-0.905670166015625,-0.078338623046875,0.378448486328125
1772797641935462000,5.1254619140625,-1.2022705078125,-0.131805419921875,0.3613433837890625
1772797641945488000,5.13548779296875,-1.381561279296875,-0.3686676025390625,0.2720184326171875
1772797641955513900,5.145513916015625,-1.337646484375,-0.7069091796875,0.0998077392578125
1772797641965541000,5.155541015625,-1.614288330078125,-0.8555450439453125,-0.2947845458984375
1772797641975567000,5.165567138671875,-3.170318603515625,-0.5361480712890625,-0.679779052734375
1772797641985593000,5.175593017578125,-5.7611236572265625,0.23809814453125,-0.7201385498046875
1772797641995619000,5.185619140625,-7.7814788818359375,1.04315185546875,-0.3033294677734375
1772797642005646000,5.19564599609375,-8.072921752929688,1.16046142578125,0.4044189453125
1772797642015672000,5.205672119140625,-7.9658203125,0.984619140625,0.84088134765625
1772797642025698000,5.215697998046875,-6.7438507080078125,0.8173675537109375,0.7862548828125
1772797642035725000,5.22572509765625,-4.416595458984375,0.53143310546875,0.438720703125
1772797642045751000,5.2357509765625,-2.4680328369140625,0.29791259765625,0.11810302734375
1772797642055777000,5.245777099609375,-1.491363525390625,0.1235809326171875,-0.07684326171875
1772797642065804000,5.255803955078125,-1.2438812255859375,0.054473876953125,-0.06695556640625
1772797642075830000,5.265830078125,-1.2783660888671875,-0.02972412109375,-0.0126190185546875
1772797642085856000,5.27585595703125,-1.32916259765625,-0.1084747314453125,-0.029998779296875
1772797642095883000,5.285883056640625,-1.196319580078125,-0.1486663818359375,-0.0764312744140625
1772797642105909000,5.295908935546875,-0.8961181640625,-0.172332763671875,-0.1338958740234375
1772797642115935000,5.30593505859375,-0.510009765625,-0.106964111328125,-0.13018798828125
1772797642125962000,5.3159619140625,-0.1743316650390625,-0.0539093017578125,-0.113433837890625
1772797642135988000,5.325988037109375,0.0276641845703125,-0.013519287109375,-0.120086669921875
1772797642146014000,5.336013916015625,0.1730804443359375,-0.01800537109375,-0.1212005615234375
1772797642156041200,5.346041259765625,0.3379974365234375,-0.0077362060546875,-0.0449066162109375
1772797642166067200,5.356067138671875,0.497650146484375,-0.00927734375,-0.0204620361328125
1772797642176093200,5.36609326171875,0.574554443359375,0.000701904296875,-0.0047607421875
1772797642186119200,5.376119140625,0.5505828857421875,-0.00384521484375,-0.00323486328125
1772797642196146000,5.38614599609375,0.587677001953125,0.0229644775390625,0.006500244140625
1772797642206172000,5.396171875,0.6066436767578125,0.0338134765625,0.029266357421875
1772797642216198000,5.406197998046875,0.6000518798828125,0.0235595703125,0.01239013671875
1772797642226225200,5.41622509765625,0.6027069091796875,0.02056884765625,0.0047149658203125
1772797642236251100,5.426251220703125,0.5986480712890625,0.030120849609375,-0.0015106201171875
1772797642246277000,5.436277099609375,0.597930908203125,0.0458526611328125,-0.040740966796875
1772797642256304000,5.44630419921875,0.6298828125,0.0656890869140625,-0.0573883056640625
1772797642266330000,5.456330078125,0.62493896484375,0.0806427001953125,-0.0794219970703125
1772797642276356000,5.466356201171875,0.565185546875,0.095672607421875,-0.107666015625
1772797642286383000,5.476383056640625,0.472808837890625,0.1112060546875,-0.0877532958984375
1772797642296409000,5.4864091796875,0.3311004638671875,0.1180419921875,-0.0421295166015625
1772797642306435000,5.49643505859375,0.185028076171875,0.1199188232421875,-0.01373291015625
1772797642316462000,5.506462158203125,0.0859222412109375,0.1183013916015625,0.0147552490234375
1772797642326488000,5.516488037109375,0.006622314453125,0.12481689453125,0.0485382080078125
1772797642336514000,5.52651416015625,-0.0618896484375,0.1333160400390625,0.0581512451171875
1772797642346540000,5.5365400390625,-0.1259307861328125,0.1359100341796875,0.057708740234375
1772797642356567000,5.546567138671875,-0.168304443359375,0.1265411376953125,0.059722900390625
1772797642366593000,5.556593017578125,-0.180877685546875,0.1016998291015625,0.0454254150390625
1772797642376619000,5.566618896484375,-0.1565399169921875,0.06707763671875,0.0307159423828125
1772797642386646000,5.57664599609375,-0.125152587890625,0.0189666748046875,0.021453857421875
1772797642396672000,5.586672119140625,-0.1164398193359375,-0.0207977294921875,0.021484375
1772797642406698000,5.596697998046875,-0.121734619140625,-0.0432891845703125,0.0093841552734375
1772797642416725200,5.606725341796875,-0.1331787109375,-0.0626220703125,0.02685546875
1772797642426751200,5.616751220703125,-0.1769256591796875,-0.0988311767578125,0.07659912109375
1772797642436777200,5.626777099609375,-0.2338409423828125,-0.1432037353515625,0.1182098388671875
1772797642446804000,5.636803955078125,-0.2584381103515625,-0.21063232421875,0.1378173828125
1772797642456830000,5.646829833984375,-0.2857513427734375,-0.2606201171875,0.166351318359375
1772797642466856000,5.65685595703125,-0.45294189453125,-0.2868194580078125,0.2059326171875
1772797642476883200,5.66688330078125,-0.737640380859375,-0.43084716796875,0.27056884765625
1772797642486909200,5.6769091796875,-1.225006103515625,-0.6073150634765625,0.2400054931640625
1772797642496935200,5.68693505859375,-2.2035980224609375,-0.624298095703125,-0.15850830078125
1772797642506961200,5.696961181640625,-3.769775390625,-0.55279541015625,-0.7007293701171875
1772797642516988200,5.70698828125,-5.4862823486328125,-0.355987548828125,-0.787933349609375
1772797642527014100,5.71701416015625,-6.992706298828125,0.04437255859375,-0.2240753173828125
1772797642537040000,5.727039794921875,-7.5835113525390625,0.30950927734375,-0.053314208984375
1772797642547067100,5.737067138671875,-6.7982025146484375,0.0021209716796875,-0.157440185546875
1772797642557093000,5.747093017578125,-5.3784637451171875,-0.0846099853515625,-0.0361175537109375
1772797642567119000,5.757119140625,-3.7703094482421875,-0.2447967529296875,0.051483154296875
1772797642577146000,5.76714599609375,-2.4731292724609375,-0.3818206787109375,-0.0692901611328125
1772797642587172000,5.777172119140625,-1.621795654296875,-0.406707763671875,-0.0853729248046875
1772797642597198000,5.787197998046875,-1.2564544677734375,-0.4538726806640625,0.00836181640625
1772797642607224000,5.79722412109375,-1.15411376953125,-0.4693756103515625,0.0552978515625
1772797642617251000,5.8072509765625,-1.150054931640625,-0.476837158203125,0.0697784423828125
1772797642627277000,5.817277099609375,-1.1306915283203125,-0.471435546875,0.0733184814453125
1772797642637303000,5.827302978515625,-1.0160980224609375,-0.408782958984375,0.0608673095703125
1772797642647330000,5.837330078125,-0.819580078125,-0.2974700927734375,0.03076171875
1772797642657356000,5.84735595703125,-0.6248779296875,-0.1865692138671875,-0.01202392578125
1772797642667383000,5.857383056640625,-0.44256591796875,-0.0990447998046875,-0.0596466064453125
1772797642677410000,5.86741015625,-0.252593994140625,-0.039642333984375,-0.07568359375
1772797642687436000,5.87743603515625,-0.0692138671875,-0.0138702392578125,-0.0845947265625
1772797642697462000,5.8874619140625,0.1126251220703125,-0.00396728515625,-0.097442626953125
1772797642707489000,5.897489013671875,0.276031494140625,-0.0125579833984375,-0.1002349853515625
1772797642717515000,5.907514892578125,0.4192657470703125,-0.0171966552734375,-0.1051788330078125
1772797642727541000,5.917541015625,0.564910888671875,-0.019805908203125,-0.1253204345703125
1772797642737567000,5.92756689453125,0.6309814453125,-0.0296630859375,-0.1255645751953125
1772797642747594200,5.93759423828125,0.6280670166015625,-0.0367584228515625,-0.118927001953125
1772797642757620200,5.9476201171875,0.6203155517578125,-0.0209808349609375,-0.11407470703125
1772797642767646000,5.95764599609375,0.603546142578125,-0.0115509033203125,-0.105072021484375
1772797642777673000,5.9676728515625,0.5880584716796875,0.021240234375,-0.0752716064453125
1772797642787699000,5.977698974609375,0.532867431640625,0.03961181640625,-0.059967041015625
1772797642797725000,5.987724853515625,0.4445953369140625,0.0561370849609375,-0.0497589111328125
1772797642807752200,5.997752197265625,0.3134307861328125,0.0682525634765625,-0.03143310546875
1772797642817778200,6.007778076171875,0.2090301513671875,0.0862274169921875,-0.0235748291015625
1772797642827804200,6.01780419921875,0.13006591796875,0.0868988037109375,-0.0194854736328125
1772797642837831000,6.027830810546875,0.0332489013671875,0.0927886962890625,-0.0100250244140625
1772797642847857000,6.03785693359375,-0.0687103271484375,0.0975189208984375,0.0018157958984375
1772797642857883000,6.0478828125,-0.171051025390625,0.0960693359375,0.001068115234375
1772797642867908900,6.057908935546875,-0.2391510009765625,0.086181640625,0.0147552490234375
1772797642877936000,6.06793603515625,-0.2671966552734375,0.0762481689453125,0.02435302734375
1772797642887962000,6.077962158203125,-0.289031982421875,0.0710601806640625,0.0287933349609375
1772797642897988000,6.087988037109375,-0.3242340087890625,0.0465240478515625,0.0495758056640625
1772797642908015000,6.09801513671875,-0.3615264892578125,0.00762939453125,0.057525634765625
1772797642918041000,6.108041015625,-0.381927490234375,-0.0402679443359375,0.0566253662109375
1772797642928067000,6.118067138671875,-0.372314453125,-0.1015625,0.066436767578125
1772797642938094000,6.128093994140625,-0.382354736328125,-0.1617279052734375,0.0733795166015625
1772797642948120000,6.1381201171875,-0.4669036865234375,-0.1977081298828125,0.069610595703125
1772797642958146000,6.14814599609375,-0.617828369140625,-0.2247772216796875,0.0672454833984375
1772797642968172000,6.158172119140625,-0.76776123046875,-0.282135009765625,0.0723114013671875
1772797642978199000,6.168198974609375,-0.895294189453125,-0.379974365234375,0.0396575927734375
1772797642988225000,6.17822509765625,-1.1246337890625,-0.5338897705078125,-0.0346832275390625
1772797642998251000,6.1882509765625,-1.4700775146484375,-0.7116851806640625,-0.1026763916015625
1772797643008278000,6.198278076171875,-1.9701080322265625,-0.876983642578125,-0.15814208984375
1772797643018304000,6.208303955078125,-2.6849517822265625,-1.013031005859375,-0.1751251220703125
1772797643028330000,6.218330078125,-3.3106231689453125,-1.06201171875,-0.0634002685546875
1772797643038357000,6.22835693359375,-3.6111907958984375,-0.987274169921875,0.1195831298828125
1772797643048383000,6.238383056640625,-3.6550750732421875,-0.8518829345703125,0.217376708984375
1772797643058409000,6.248408935546875,-3.5937347412109375,-0.7518310546875,0.174468994140625
1772797643068435000,6.25843505859375,-3.5160980224609375,-0.7576904296875,0.0663604736328125
1772797643078462200,6.268462158203125,-3.3922271728515625,-0.718048095703125,0.0307464599609375
1772797643088488200,6.27848828125,-3.2288360595703125,-0.68048095703125,0.00592041015625
1772797643098514200,6.28851416015625,-2.9151611328125,-0.6507415771484375,-0.0777587890625
1772797643108541000,6.298541015625,-2.497039794921875,-0.6075592041015625,-0.1635589599609375
1772797643118567000,6.30856689453125,-2.1533660888671875,-0.5689544677734375,-0.217620849609375
1772797643128593000,6.318593017578125,-1.9360198974609375,-0.5386505126953125,-0.2085113525390625
1772797643138620200,6.3286201171875,-1.7789154052734375,-0.5175018310546875,-0.1477813720703125
1772797643148646100,6.338646240234375,-1.6046142578125,-0.4752960205078125,-0.09625244140625
1772797643158672100,6.348672119140625,-1.37432861328125,-0.4232177734375,-0.06536865234375
1772797643168698000,6.358697998046875,-1.102874755859375,-0.350494384765625,-0.0643310546875
1772797643178725000,6.36872509765625,-0.8167724609375,-0.2828521728515625,-0.084320068359375
1772797643188751000,6.378751220703125,-0.5425567626953125,-0.245758056640625,-0.1032562255859375
1772797643198777000,6.388777099609375,-0.3281402587890625,-0.2128143310546875,-0.0843353271484375
1772797643208804000,6.39880419921875,-0.16009521484375,-0.207061767578125,-0.0482635498046875
1772797643218830000,6.408830078125,0.013275146484375,-0.1961212158203125,-0.0388641357421875
1772797643228856000,6.41885595703125,0.19781494140625,-0.18072509765625,-0.0292816162109375
1772797643238883000,6.428883056640625,0.3609466552734375,-0.1617431640625,-0.0279388427734375
1772797643248909000,6.438908935546875,0.4725494384765625,-0.133148193359375,-0.03802490234375
1772797643258935000,6.44893505859375,0.5260467529296875,-0.1153564453125,-0.0313720703125
1772797643268961000,6.4589609375,0.52532958984375,-0.0911865234375,-0.045135498046875
1772797643278988000,6.468988037109375,0.4787445068359375,-0.0548858642578125,-0.05377197265625
1772797643289014000,6.479013916015625,0.417022705078125,-0.0160369873046875,-0.0607147216796875
1772797643299040000,6.4890400390625,0.3736724853515625,0.0223541259765625,-0.0507049560546875
1772797643309067000,6.49906689453125,0.338653564453125,0.0529327392578125,-0.0418243408203125
1772797643319093000,6.509093017578125,0.298553466796875,0.0769805908203125,-0.035064697265625
1772797643329119000,6.519118896484375,0.25457763671875,0.103607177734375,-0.017120361328125
1772797643339146200,6.529146240234375,0.195343017578125,0.1332244873046875,-0.00946044921875
1772797643349172200,6.539172119140625,0.1383209228515625,0.1533050537109375,0.0038909912109375
1772797643359198200,6.5491982421875,0.1063385009765625,0.1643218994140625,0.0167083740234375
1772797643369224200,6.55922412109375,0.1035003662109375,0.17974853515625,0.0159149169921875
1772797643379251000,6.5692509765625,0.1065216064453125,0.19281005859375,0.01800537109375
1772797643389277000,6.57927685546875,0.0689849853515625,0.2017822265625,0.0223236083984375
1772797643399303000,6.589302978515625,-0.000701904296875,0.2072906494140625,0.04071044921875
1772797643409330200,6.599330078125,-0.0582427978515625,0.204559326171875,0.055999755859375
1772797643419356200,6.609356201171875,-0.0832366943359375,0.1982574462890625,0.0493621826171875
1772797643429382100,6.619382080078125,-0.0862579345703125,0.1922760009765625,0.0376434326171875
1772797643439409000,6.629408935546875,-0.06591796875,0.174774169921875,0.022491455078125
1772797643449435000,6.639434814453125,-0.0343780517578125,0.153839111328125,0.0012054443359375
1772797643459460900,6.6494609375,-0.0235137939453125,0.1209564208984375,-0.0289764404296875
1772797643469486800,6.65948681640625,-0.0354461669921875,0.0851287841796875,-0.0419769287109375
1772797643479514000,6.66951416015625,-0.0103759765625,0.0457611083984375,-0.0395660400390625
1772797643489540000,6.6795400390625,0.01324462890625,-0.0048370361328125,-0.0482330322265625
1772797643499566000,6.689566162109375,-0.0658416748046875,-0.02691650390625,-0.03466796875
1772797643509593000,6.699593017578125,-0.2221832275390625,-0.0523223876953125,-0.0207366943359375
1772797643519619000,6.709619140625,-0.4215545654296875,-0.1007232666015625,-0.043731689453125
1772797643529645000,6.71964501953125,-0.5671234130859375,-0.1838836669921875,-0.072479248046875
1772797643539671000,6.729671142578125,-0.5017242431640625,-0.299896240234375,-0.0926971435546875
1772797643549698000,6.739697998046875,-0.366943359375,-0.4438934326171875,-0.2366180419921875
1772797643559724000,6.74972412109375,-0.7832794189453125,-0.4911346435546875,-0.388671875
1772797643569750000,6.75975,-2.2498321533203125,-0.216033935546875,-0.32940673828125
1772797643579777000,6.769777099609375,-4.574951171875,0.230316162109375,-0.07135009765625
1772797643589803000,6.779802978515625,-6.821624755859375,0.4623870849609375,0.1629180908203125
1772797643599829000,6.7898291015625,-7.765472412109375,0.5959930419921875,0.4407806396484375
1772797643609855200,6.799855224609375,-7.566558837890625,0.3743743896484375,0.409881591796875
1772797643619882000,6.809882080078125,-6.887176513671875,0.0031890869140625,0.23284912109375
1772797643629908000,6.819907958984375,-5.9461669921875,-0.2608795166015625,0.1846923828125
1772797643639934000,6.829933837890625,-4.77655029296875,-0.4586639404296875,0.103668212890625
1772797643649961000,6.8399609375,-3.449127197265625,-0.6089019775390625,0.068695068359375
1772797643659987000,6.849987060546875,-2.29669189453125,-0.7003326416015625,0.0588226318359375
1772797643670013400,6.860013427734375,-1.52056884765625,-0.76593017578125,-0.0240631103515625
1772797643680040400,6.87004052734375,-1.2318115234375,-0.718505859375,-0.09356689453125
1772797643690066400,6.88006640625,-1.1100311279296875,-0.6584014892578125,0.023040771484375
1772797643700092400,6.890092529296875,-0.9936065673828125,-0.594818115234375,0.1096038818359375
1772797643710118700,6.90011865234375,-0.784942626953125,-0.4610595703125,0.0948333740234375
1772797643720145400,6.9101455078125,-0.5098419189453125,-0.32037353515625,0.0205230712890625
1772797643730171400,6.92017138671875,-0.2968597412109375,-0.190185546875,0.010162353515625
1772797643740197400,6.930197265625,-0.1716156005859375,-0.1016693115234375,0.0087738037109375
1772797643750224400,6.940224365234375,-0.043609619140625,-0.037353515625,-0.0146331787109375
1772797643760250400,6.95025048828125,0.1052703857421875,0.009429931640625,-0.04595947265625
1772797643770276600,6.960276611328125,0.2817535400390625,0.0579681396484375,-0.06622314453125
1772797643780303400,6.970303466796875,0.464752197265625,0.1153717041015625,-0.087188720703125
1772797643790329300,6.980329345703125,0.6779937744140625,0.1851959228515625,-0.0981292724609375
1772797643800355300,6.990355224609375,0.850677490234375,0.204498291015625,-0.10552978515625
1772797643810381300,7.00038134765625,0.9093017578125,0.1997528076171875,-0.1305389404296875
1772797643820408300,7.010408203125,0.92022705078125,0.2053070068359375,-0.167449951171875
1772797643830434300,7.020434326171875,0.8867950439453125,0.1925201416015625,-0.1915740966796875
1772797643840460500,7.03046044921875,0.800689697265625,0.197967529296875,-0.1689453125
1772797643850487600,7.040487548828125,0.7016143798828125,0.20001220703125,-0.1363067626953125
1772797643860513500,7.050513427734375,0.6124114990234375,0.2113494873046875,-0.1056060791015625
1772797643870539500,7.06053955078125,0.547943115234375,0.2151641845703125,-0.0805511474609375
1772797643880565500,7.0705654296875,0.480804443359375,0.2151641845703125,-0.0409393310546875
1772797643890592300,7.08059228515625,0.3866424560546875,0.2254638671875,-0.0084075927734375
1772797643900618500,7.090618408203125,0.2848663330078125,0.2279815673828125,0.0127716064453125
1772797643910644500,7.10064453125,0.1843719482421875,0.2396392822265625,0.033966064453125
1772797643920671500,7.11067138671875,0.0679473876953125,0.24267578125,0.0604705810546875
1772797643930697500,7.120697509765625,-0.0111541748046875,0.226318359375,0.0939483642578125
1772797643940723500,7.130723388671875,-0.0576324462890625,0.1952667236328125,0.126617431640625
1772797643950749400,7.14074951171875,-0.0707855224609375,0.1693878173828125,0.1526641845703125
1772797643960776400,7.1507763671875,-0.081085205078125,0.13385009765625,0.1768798828125
1772797643970802400,7.160802490234375,-0.0929107666015625,0.1006927490234375,0.17816162109375
1772797643980828400,7.170828369140625,-0.1077728271484375,0.064666748046875,0.174713134765625
1772797643990855400,7.18085546875,-0.1424407958984375,0.035614013671875,0.1372222900390625
1772797644000881400,7.19088134765625,-0.1823883056640625,0.0038909912109375,0.06243896484375
1772797644010907400,7.200907470703125,-0.1706085205078125,-0.015045166015625,0.030487060546875
1772797644020933400,7.210933349609375,-0.104400634765625,-0.0520172119140625,0.0179443359375
1772797644030960400,7.22096044921875,-0.0547027587890625,-0.10614013671875,-0.0009307861328125
1772797644040986600,7.230986572265625,-0.0892333984375,-0.1724395751953125,-0.0053558349609375
1772797644051012600,7.2410126953125,-0.2108917236328125,-0.2445831298828125,-0.029266357421875
1772797644061039400,7.251039306640625,-0.41815185546875,-0.333984375,-0.0909271240234375
1772797644071065300,7.2610654296875,-0.8021240234375,-0.4857330322265625,-0.2322845458984375
1772797644081091300,7.27109130859375,-1.2582244873046875,-0.7881622314453125,-0.343841552734375
1772797644091117300,7.281117431640625,-1.8634490966796875,-1.1848297119140625,-0.415252685546875
1772797644101144600,7.29114453125,-3.4327392578125,-1.2198028564453125,-0.532806396484375
1772797644111170600,7.301170654296875,-6.364593505859375,-0.46368408203125,-0.473175048828125
1772797644121196500,7.311196533203125,-8.125091552734375,0.5725250244140625,-0.5568695068359375
1772797644131223600,7.3212236328125,-8.02435302734375,1.126434326171875,-0.4859619140625
1772797644141249500,7.33124951171875,-7.973907470703125,0.8027801513671875,-0.3068695068359375
1772797644151275500,7.341275634765625,-6.4149322509765625,0.477935791015625,-0.69287109375
1772797644161302300,7.35130224609375,-3.626068115234375,0.2337493896484375,-0.90887451171875
1772797644171328500,7.36132861328125,-1.854034423828125,0.0711822509765625,-1.029571533203125
1772797644181354500,7.3713544921875,-1.211395263671875,0.0203094482421875,-1.0037384033203125
1772797644191380500,7.38138037109375,-1.1356048583984375,-0.008697509765625,-0.774932861328125
1772797644201407500,7.391407470703125,-1.033355712890625,-0.0543060302734375,-0.45050048828125
1772797644211433500,7.40143359375,-0.79083251953125,-0.0352020263671875,-0.2067413330078125
1772797644221459500,7.41145947265625,-0.5068817138671875,0.0129547119140625,-0.013031005859375
1772797644231486200,7.421486328125,-0.21588134765625,0.0837860107421875,0.092620849609375
1772797644241512400,7.431512451171875,-0.0091400146484375,0.1331634521484375,0.154937744140625
1772797644251538400,7.441538330078125,0.201904296875,0.14654541015625,0.1932373046875
1772797644261564400,7.451564453125,0.3592529296875,0.13336181640625,0.2579803466796875
1772797644271591400,7.46159130859375,0.4499359130859375,0.1093902587890625,0.260833740234375
1772797644281617400,7.471617431640625,0.5238494873046875,0.0877838134765625,0.203887939453125
1772797644291643400,7.481643310546875,0.6651458740234375,0.0889434814453125,0.1082763671875
1772797644301670700,7.491670654296875,0.7895355224609375,0.083953857421875,0.081878662109375
1772797644311696600,7.501696533203125,0.8770751953125,0.0816650390625,0.0625
1772797644321722600,7.51172265625,0.9677276611328125,0.049041748046875,-0.006622314453125
1772797644331748600,7.52174853515625,1.001617431640625,0.0229949951171875,-0.0901336669921875
1772797644341775400,7.531775390625,1.0031890869140625,0.0149688720703125,-0.1604156494140625
1772797644351801300,7.54180126953125,0.9730224609375,0.021484375,-0.159423828125
1772797644361827300,7.551827392578125,0.8637542724609375,0.05084228515625,-0.083251953125
1772797644371854600,7.5618544921875,0.6688385009765625,0.09454345703125,-0.0714874267578125
1772797644381880600,7.571880615234375,0.466522216796875,0.1393585205078125,-0.0792694091796875
1772797644391906600,7.581906494140625,0.28515625,0.2016448974609375,-0.0813140869140625
1772797644401932500,7.5919326171875,0.184722900390625,0.2599639892578125,-0.09088134765625
1772797644411959300,7.601959228515625,0.1603851318359375,0.310089111328125,-0.088043212890625
1772797644421985300,7.6119853515625,0.1529998779296875,0.354339599609375,-0.07684326171875
1772797644432011300,7.62201123046875,0.1250457763671875,0.3725433349609375,-0.060455322265625
1772797644442038500,7.63203857421875,0.06695556640625,0.356903076171875,-0.0130157470703125
1772797644452064500,7.642064453125,-0.029876708984375,0.3159942626953125,0.04754638671875
1772797644462090500,7.652090576171875,-0.123931884765625,0.2818603515625,0.0860137939453125
1772797644472116500,7.662116455078125,-0.156402587890625,0.264190673828125,0.086456298828125
1772797644482143500,7.6721435546875,-0.1435394287109375,0.245330810546875,0.0458984375
1772797644492169500,7.68216943359375,-0.111602783203125,0.25933837890625,-0.001617431640625
1772797644502195500,7.692195556640625,-0.09246826171875,0.279815673828125,-0.0336761474609375
1772797644512222500,7.702222412109375,-0.09375,0.2783050537109375,-0.0747222900390625
1772797644522248400,7.71224853515625,-0.1195220947265625,0.2518310546875,-0.0660552978515625
1772797644532274400,7.7222744140625,-0.1666412353515625,0.179779052734375,-0.064605712890625
1772797644542300400,7.732300537109375,-0.1979827880859375,0.0700531005859375,-0.074462890625
1772797644552327400,7.742327392578125,-0.2113800048828125,-0.0499267578125,-0.100799560546875
1772797644562353400,7.752353515625,-0.2484893798828125,-0.138031005859375,-0.1018829345703125
1772797644572379400,7.76237939453125,-0.384368896484375,-0.2187957763671875,-0.1294708251953125
1772797644582405400,7.7724052734375,-0.5927581787109375,-0.335784912109375,-0.179290771484375
1772797644592432400,7.782432373046875,-0.974578857421875,-0.5578460693359375,-0.221099853515625
1772797644602458400,7.792458251953125,-1.7349853515625,-0.6897125244140625,-0.2645416259765625
1772797644612484400,7.802484375,-3.128204345703125,-0.5943145751953125,-0.30780029296875
1772797644622511400,7.812511474609375,-5.2965850830078125,-0.3350982666015625,-0.2944488525390625
1772797644632537300,7.822537353515625,-7.7110748291015625,0.1214599609375,-0.0088653564453125
1772797644642563300,7.832563232421875,-8.084197998046875,0.4243927001953125,0.0792999267578125
1772797644652589300,7.84258935546875,-7.91668701171875,0.2813873291015625,0.0203857421875
1772797644662616600,7.852616455078125,-6.6275482177734375,0.091522216796875,-0.35498046875
1772797644672642000,7.86264208984375,-4.4874725341796875,-0.03302001953125,-0.729949951171875
1772797644682668000,7.87266796875,-2.872528076171875,-0.108551025390625,-0.9083251953125
1772797644692694800,7.88269482421875,-2.1534423828125,-0.2041473388671875,-0.85333251953125
1772797644702720800,7.892720703125,-1.9456787109375,-0.3605499267578125,-0.718414306640625
1772797644712746800,7.902746826171875,-1.8507080078125,-0.48321533203125,-0.4375762939453125
1772797644722772700,7.912772705078125,-1.6316986083984375,-0.5386810302734375,-0.1576690673828125
1772797644732800000,7.922800048828125,-1.3017425537109375,-0.53704833984375,-0.0171356201171875
1772797644742826000,7.932825927734375,-0.88409423828125,-0.38702392578125,0.1182403564453125
1772797644752852000,7.94285205078125,-0.537811279296875,-0.215667724609375,0.2324981689453125
1772797644762879000,7.95287890625,-0.2452239990234375,-0.0709075927734375,0.3374481201171875
1772797644772905000,7.962905029296875,-0.067718505859375,0.0509490966796875,0.443328857421875
1772797644782931000,7.972930908203125,0.0393829345703125,0.1658172607421875,0.50225830078125
1772797644792957000,7.98295703125,0.18157958984375,0.2718505859375,0.51556396484375
1772797644802984000,7.99298388671875,0.278533935546875,0.3243560791015625,0.48162841796875
1772797644813010000,8.003010009765624,0.4176788330078125,0.3720245361328125,0.4324798583984375
1772797644823036000,8.013035888671874,0.55340576171875,0.35845947265625,0.4012603759765625
1772797644833063000,8.02306298828125,0.727142333984375,0.354095458984375,0.362274169921875
1772797644843089000,8.0330888671875,0.8625030517578125,0.32794189453125,0.324066162109375
1772797644853115000,8.043114990234375,0.9298553466796875,0.3025970458984375,0.271331787109375
1772797644863140900,8.053140869140625,0.9993743896484375,0.281951904296875,0.1900787353515625
1772797644873168000,8.06316796875,0.9886322021484375,0.251068115234375,0.11199951171875
1772797644883193900,8.07319384765625,0.9298095703125,0.2321624755859375,0.047119140625
1772797644893219800,8.0832197265625,0.8523712158203125,0.231475830078125,-0.016937255859375
1772797644903246800,8.093246826171875,0.7450714111328125,0.244354248046875,-0.0550689697265625
1772797644913272800,8.10327294921875,0.5908203125,0.2736663818359375,-0.051483154296875
1772797644923298800,8.113298828125,0.3986053466796875,0.3177642822265625,-0.0318756103515625
1772797644933324800,8.12332470703125,0.1997833251953125,0.342071533203125,-0.0119476318359375
1772797644943352000,8.13335205078125,0.0336456298828125,0.3320159912109375,-0.013153076171875
1772797644953378000,8.1433779296875,-0.061004638671875,0.3078155517578125,-0.055419921875
1772797644963404000,8.153404052734375,-0.0839385986328125,0.282562255859375,-0.0877838134765625
1772797644973430000,8.163429931640625,-0.105712890625,0.2610015869140625,-0.0924072265625
1772797644983456800,8.173456787109375,-0.163299560546875,0.2360076904296875,-0.078582763671875
1772797644993482800,8.183482666015625,-0.244781494140625,0.1846923828125,-0.063446044921875
1772797645003508700,8.1935087890625,-0.308319091796875,0.1145172119140625,-0.0463104248046875
1772797645013536000,8.203535888671874,-0.344573974609375,0.0556793212890625,-0.0109100341796875
1772797645023562000,8.21356201171875,-0.404510498046875,0.00421142578125,0.0055084228515625
1772797645033588000,8.223587890625,-0.4795684814453125,-0.042449951171875,-0.0118408203125
1772797645043614000,8.233614013671875,-0.516571044921875,-0.0594940185546875,-0.03424072265625
1772797645053641000,8.243640869140625,-0.5389556884765625,-0.0586090087890625,-0.07598876953125
1772797645063667000,8.2536669921875,-0.580474853515625,-0.071441650390625,-0.1054840087890625
1772797645073692700,8.263692626953125,-0.727447509765625,-0.1102294921875,-0.1249542236328125
1772797645083720000,8.273719970703125,-1.014678955078125,-0.177978515625,-0.0886077880859375
1772797645093746000,8.283745849609375,-1.372650146484375,-0.3628997802734375,-0.03753662109375
1772797645103772000,8.29377197265625,-1.6805419921875,-0.6215057373046875,-0.046600341796875
1772797645113798000,8.3037978515625,-1.87225341796875,-0.900299072265625,-0.1358642578125
1772797645123825000,8.313824951171876,-2.0881195068359375,-1.1346588134765625,-0.2812347412109375
1772797645133851000,8.323850830078126,-2.489501953125,-1.2144622802734375,-0.4073638916015625
1772797645143876900,8.333876953125,-3.17144775390625,-1.1199951171875,-0.392974853515625
1772797645153903000,8.343903076171875,-4.0040435791015625,-0.88116455078125,-0.2958526611328125
1772797645163929900,8.353929931640625,-4.5796966552734375,-0.5848846435546875,-0.2274627685546875
1772797645173955800,8.363955810546875,-4.699859619140625,-0.4908447265625,-0.214447021484375
1772797645183981800,8.37398193359375,-4.3731842041015625,-0.509979248046875,-0.166412353515625
1772797645194007800,8.3840078125,-3.8746490478515625,-0.5534515380859375,-0.1696624755859375
1772797645204034800,8.394034912109374,-3.3314666748046875,-0.5924224853515625,-0.1709136962890625
1772797645214060800,8.404060791015626,-2.9280548095703125,-0.5996551513671875,-0.182403564453125
1772797645224087000,8.414087158203126,-2.4192352294921875,-0.62860107421875,-0.2613525390625
1772797645234114000,8.424114013671876,-2.0902557373046875,-0.5908355712890625,-0.2621307373046875
1772797645244140000,8.43414013671875,-1.922821044921875,-0.5189208984375,-0.31768798828125
1772797645254165800,8.444165771484375,-1.7834320068359375,-0.485748291015625,-0.270660400390625
1772797645264191700,8.454191650390625,-1.5087432861328125,-0.4049530029296875,-0.1450653076171875
1772797645274218800,8.46421875,-1.272552490234375,-0.33154296875,-0.0682830810546875
1772797645284244700,8.47424462890625,-1.0643310546875,-0.258392333984375,0.035125732421875
1772797645294271000,8.48427099609375,-0.8087310791015625,-0.1877288818359375,0.1194305419921875
1772797645304298000,8.494298095703124,-0.52313232421875,-0.1153106689453125,0.200286865234375
