time,seconds_elapsed,z,y,x
1772797303057663700,0.084663818359375,0.8065356612205505,-0.05198996514081955,0.4189000427722931
1772797303067690000,0.09468994140625,0.7528088092803955,-0.020181966945528984,0.4939253032207489
1772797303077716000,0.104716064453125,0.6932469010353088,0.029633792117238045,0.5208253264427185
1772797303087742000,0.114741943359375,0.667377769947052,0.10086935758590698,0.47799667716026306
1772797303097768700,0.124768798828125,0.6747033596038818,0.11520808190107346,0.39104312658309937
1772797303107794700,0.134794677734375,0.7178689241409302,0.10080890357494354,0.2525736689567566
1772797303117820700,0.144820556640625,0.7656484246253967,0.10702338814735413,0.11690158396959305
1772797303127846700,0.1548466796875,0.8124390840530396,0.11837564408779144,0.03297712281346321
1772797303137872600,0.16487255859375,0.8471280932426453,0.11897991597652435,-0.004581436049193144
1772797303147900000,0.17489990234375,0.877186119556427,0.14718598127365112,-0.0064744106493890285
1772797303157926000,0.18492578125,0.9244628548622131,0.19407466053962708,-0.001547030289657414
1772797303167952000,0.194951904296875,0.9601023197174072,0.21495145559310913,0.013085974380373955
1772797303177977900,0.204977783203125,0.9756107330322266,0.18423721194267273,0.03982996940612793
1772797303188003800,0.21500390625,0.974981963634491,0.13747504353523254,0.07100147008895874
1772797303198030600,0.225030517578125,0.9512033462524414,0.07940054684877396,0.10869798064231873
1772797303208056600,0.235056640625,0.9031476974487305,0.014987471513450146,0.1909920573234558
1772797303218082800,0.245082763671875,0.8328887224197388,-0.052016064524650574,0.3041819930076599
1772797303228108800,0.25510888671875,0.769821047782898,-0.14931678771972656,0.3989974558353424
1772797303238134800,0.265134765625,0.7021527886390686,-0.21619728207588196,0.4583792984485626
1772797303248161800,0.275161865234375,0.6335436701774597,-0.2012132704257965,0.4732093811035156
1772797303258187800,0.285187744140625,0.5992751717567444,-0.15565936267375946,0.3777981698513031
1772797303268213800,0.2952138671875,0.5869372487068176,-0.1376713067293167,0.17253342270851135
1772797303278239700,0.30523974609375,0.5418837666511536,-0.029835660010576248,-0.14940360188484192
1772797303288265700,0.315265625,0.4901942014694214,0.21670646965503693,-0.5164481997489929
1772797303298293000,0.32529296875,0.4854135811328888,0.5021856427192688,-0.8229476809501648
1772797303308319000,0.335319091796875,0.5296571850776672,0.6032549738883972,-1.0256201028823853
1772797303318344700,0.3453447265625,0.591092586517334,0.5015507340431213,-1.0511595010757446
1772797303328370700,0.35537060546875,0.6013553738594055,0.43354690074920654,-0.8431922197341919
1772797303338396700,0.365396728515625,0.5704360604286194,0.36396169662475586,-0.45258477330207825
1772797303348424000,0.375423828125,0.5235729217529297,0.2153429388999939,-0.04903918132185936
1772797303358450000,0.385449951171875,0.48204493522644043,0.09625649452209473,0.2516080141067505
1772797303368476000,0.395475830078125,0.4555089473724365,0.0005496764206327498,0.46201077103614807
1772797303378502000,0.405501953125,0.4134770631790161,-0.06042126566171646,0.6142109632492065
1772797303388527900,0.41552783203125,0.37854865193367004,-0.08518919348716736,0.7019669413566589
1772797303398555000,0.425554931640625,0.33503392338752747,-0.09431637823581696,0.7449652552604675
1772797303408580900,0.435580810546875,0.29992279410362244,-0.1275467723608017,0.7929428815841675
1772797303418607000,0.445607177734375,0.2427109181880951,-0.1617731899023056,0.8015768527984619
1772797303428633000,0.455633056640625,0.19601291418075562,-0.15575258433818817,0.7685928344726562
1772797303438659000,0.4656591796875,0.17478778958320618,-0.12318531423807144,0.6825010776519775
1772797303448685800,0.475685791015625,0.1886463463306427,-0.10670780390501022,0.5338681936264038
1772797303458711800,0.4857119140625,0.20893244445323944,-0.05806543305516243,0.37233468890190125
1772797303468737800,0.49573779296875,0.24049410223960876,-0.029161347076296806,0.18237194418907166
1772797303478763800,0.505763671875,0.28409403562545776,0.02787184529006481,-0.01998409442603588
1772797303488789800,0.515789794921875,0.32905617356300354,0.10997923463582993,-0.2126139998435974
1772797303498817000,0.525817138671875,0.3529876172542572,0.18112345039844513,-0.37856942415237427
1772797303508843000,0.535843017578125,0.36080214381217957,0.2186141014099121,-0.4871875047683716
1772797303518869000,0.545868896484375,0.35553839802742004,0.2210221290588379,-0.5299557447433472
1772797303528895000,0.55589501953125,0.34001830220222473,0.20185163617134094,-0.5268939137458801
1772797303538921000,0.5659208984375,0.3116327226161957,0.1633063703775406,-0.4719608724117279
1772797303548947700,0.57594775390625,0.29557865858078003,0.10240280628204346,-0.3541378378868103
1772797303558973700,0.5859736328125,0.27995601296424866,0.061418354511260986,-0.23319889605045319
1772797303568999700,0.595999755859375,0.2765636742115021,0.04440687969326973,-0.13559991121292114
1772797303579026000,0.60602587890625,0.2795514762401581,0.005967078730463982,-0.05216600000858307
1772797303589053000,0.616052978515625,0.29457277059555054,-0.006935404147952795,0.02564304508268833
1772797303599079000,0.626078857421875,0.318785697221756,-0.016385897994041443,0.07927564531564713
1772797303609105000,0.63610498046875,0.34458908438682556,-0.020262926816940308,0.10002993047237396
1772797303619131000,0.646130859375,0.38467976450920105,0.024516794830560684,0.11140455305576324
1772797303629156900,0.656156982421875,0.40911027789115906,0.06950823962688446,0.10376154631376266
1772797303639184000,0.666183837890625,0.4384519159793854,0.11099336296319962,0.0740332156419754
1772797303649209900,0.6762099609375,0.45737820863723755,0.18216368556022644,0.04682822525501251
1772797303659235800,0.68623583984375,0.4704391360282898,0.17597848176956177,0.010272344574332237
1772797303669261800,0.69626171875,0.4613335430622101,0.19684702157974243,-0.02407657355070114
1772797303679287800,0.706287841796875,0.4551725685596466,0.1802121102809906,-0.09921606630086899
1772797303689314800,0.716314697265625,0.45513343811035156,0.1601579785346985,-0.19356787204742432
1772797303699340800,0.7263408203125,0.4485439658164978,0.11124955862760544,-0.2879524230957031
1772797303709366800,0.73636669921875,0.4299497902393341,0.033669013530015945,-0.36810290813446045
1772797303719392800,0.746392822265625,0.4296872019767761,-0.027105653658509254,-0.42667463421821594
1772797303729419000,0.7564189453125,0.4418943226337433,-0.06419949233531952,-0.4739294946193695
1772797303739446000,0.766446044921875,0.46123844385147095,-0.10284089297056198,-0.4979674518108368
1772797303749472000,0.776471923828125,0.46459218859672546,-0.12886850535869598,-0.519740641117096
1772797303759498000,0.786498046875,0.4703960120677948,-0.1457020789384842,-0.5283176302909851
1772797303769524000,0.79652392578125,0.47502484917640686,-0.11681423336267471,-0.5228791832923889
1772797303779550000,0.806550048828125,0.48721814155578613,-0.11023090034723282,-0.4782709777355194
1772797303789576700,0.81657666015625,0.5078456401824951,-0.14643977582454681,-0.39360401034355164
1772797303799603000,0.82660302734375,0.5336554050445557,-0.21588648855686188,-0.2813650965690613
1772797303809629000,0.83662890625,0.5500117540359497,-0.23917236924171448,-0.14799851179122925
1772797303819655000,0.846655029296875,0.5589863061904907,-0.18956273794174194,-0.018730543553829193
1772797303829682000,0.856681884765625,0.5677419900894165,-0.13028796017169952,0.09142658859491348
1772797303839708000,0.8667080078125,0.5759679675102234,-0.07439061254262924,0.1762613207101822
1772797303849734000,0.87673388671875,0.5814751386642456,-0.008552475832402706,0.22874929010868073
1772797303859759900,0.886759765625,0.5964551568031311,0.07349711656570435,0.2318982183933258
1772797303869787000,0.896786865234375,0.5940529704093933,0.15683621168136597,0.1949918568134308
1772797303879812900,0.906812744140625,0.5541326999664307,0.2070503830909729,0.13617540895938873
1772797303889838800,0.9168388671875,0.48983946442604065,0.16312527656555176,0.04986422881484032
1772797303899864800,0.92686474609375,0.4167080223560333,0.03879240155220032,-0.023564182221889496
1772797303909890800,0.936890869140625,0.3297707140445709,-0.11282908171415329,-0.06114538013935089
1772797303919917800,0.946917724609375,0.25283917784690857,-0.2504625618457794,-0.04488704726099968
1772797303929943800,0.95694384765625,0.18069201707839966,-0.2365371733903885,0.023085610941052437
1772797303939969800,0.9669697265625,0.12143481522798538,-0.19148874282836914,0.10126696527004242
1772797303949996000,0.97699609375,0.08274494856595993,-0.22702649235725403,0.18484307825565338
1772797303960022000,0.98702197265625,0.06604106724262238,-0.16145281493663788,0.20001111924648285
1772797303970049000,0.997049072265625,0.08405415713787079,0.07402309775352478,0.07041504234075546
1772797303980075000,1.007074951171875,0.09799180924892426,0.306974321603775,-0.15955716371536255
1772797303990100700,1.017100830078125,0.0907440185546875,0.4595193862915039,-0.3487989902496338
1772797304000126700,1.027126708984375,0.04826979339122772,0.5924113988876343,-0.45429134368896484
1772797304010153700,1.03715380859375,-0.012189820408821106,0.6830542087554932,-0.4837184548377991
1772797304020180000,1.047179931640625,-0.24194525182247162,0.7690724730491638,-0.46569737792015076
1772797304030206000,1.0572060546875,-0.459471195936203,0.6269233226776123,-0.31747543811798096
1772797304040232000,1.06723193359375,-0.5963888168334961,0.493285596370697,0.023993216454982758
1772797304050258000,1.0772578125,-0.6821181178092957,0.29052478075027466,0.4909449517726898
1772797304060285000,1.087284912109375,-0.7421263456344604,0.13102512061595917,0.971707820892334
1772797304070311000,1.097310791015625,-0.7470587491989136,-0.018068483099341393,1.369512677192688
1772797304080337000,1.1073369140625,-0.6963782906532288,-0.068030446767807,1.647509217262268
1772797304090363000,1.11736279296875,-0.5885575413703918,-0.05004265904426575,1.7748346328735352
1772797304100390000,1.127389892578125,-0.47667521238327026,0.10831422358751297,1.7351926565170288
1772797304110416000,1.137415771484375,-0.3632887303829193,0.171178936958313,1.615906834602356
1772797304120441900,1.14744189453125,-0.22692929208278656,0.02431226335465908,1.4915393590927124
1772797304130467800,1.1574677734375,-0.13243474066257477,0.04272110015153885,1.259979009628296
1772797304140494800,1.167494873046875,-0.06732311099767685,0.11179550737142563,1.0054892301559448
1772797304150520800,1.177520751953125,-0.042867038398981094,0.21571151912212372,0.678503692150116
1772797304160546800,1.187546875,-0.013051619753241539,0.17650926113128662,0.3517915904521942
1772797304170573000,1.197572998046875,-0.019710853695869446,0.018991000950336456,-0.0200410857796669
1772797304180599000,1.20759912109375,-0.009528257884085178,-0.029032982885837555,-0.27016597986221313
1772797304190625800,1.217625732421875,0.006929545197635889,0.015851933509111404,-0.3773616552352905
1772797304200651800,1.22765185546875,0.01738032139837742,-0.035171568393707275,-0.38106027245521545
1772797304210677800,1.237677734375,0.02967081032693386,-0.16502836346626282,-0.2850429117679596
1772797304220703700,1.247703857421875,0.044377051293849945,-0.22554843127727509,-0.13362278044223785
1772797304230730800,1.257730712890625,0.07965248078107834,-0.2595902979373932,0.04138339310884476
1772797304240757000,1.267757080078125,0.1178552657365799,-0.23222418129444122,0.21757839620113373
1772797304250783000,1.277782958984375,0.15458957850933075,-0.17791993916034698,0.3626144230365753
1772797304260809000,1.28780908203125,0.1933699995279312,-0.17017465829849243,0.4658907353878021
1772797304270835000,1.2978349609375,0.21633443236351013,-0.15518106520175934,0.49929848313331604
1772797304280862000,1.307862060546875,0.26743677258491516,-0.12029232084751129,0.4614030420780182
1772797304290888000,1.317887939453125,0.31576406955718994,-0.06534145772457123,0.3781036138534546
1772797304300914000,1.327913818359375,0.358536034822464,-0.030470024794340134,0.24809342622756958
1772797304310940000,1.33793994140625,0.43157562613487244,-0.057073406875133514,0.11358275264501572
1772797304320968000,1.347968017578125,0.5049710273742676,-0.09194856882095337,-0.008870723657310009
1772797304330994000,1.357993896484375,0.5847521424293518,-0.138749361038208,-0.1215706393122673
1772797304341020000,1.36802001953125,0.6702215075492859,-0.14367301762104034,-0.22397184371948242
1772797304351046000,1.3780458984375,0.7481314539909363,-0.18342041969299316,-0.3159278631210327
1772797304361073000,1.388072998046875,0.8059628009796143,-0.1603768914937973,-0.376691073179245
1772797304371099000,1.398098876953125,0.8480897545814514,-0.14968669414520264,-0.4111877977848053
1772797304381124900,1.408124755859375,0.8648977875709534,-0.10483187437057495,-0.40410327911376953
1772797304391150800,1.41815087890625,0.8934282064437866,-0.11955169588327408,-0.3974307179450989
1772797304401176800,1.4281767578125,0.8894355893135071,-0.08752478659152985,-0.3979873061180115
1772797304411203800,1.438203857421875,0.8697916269302368,-0.0054182009771466255,-0.3901613652706146
1772797304421229800,1.448229736328125,0.8453376293182373,0.03364664316177368,-0.38820764422416687
1772797304431255800,1.458255859375,0.7902605533599854,0.028688102960586548,-0.37227290868759155
1772797304441282000,1.468281982421875,0.7484217882156372,0.0173808541148901,-0.28781792521476746
1772797304451309000,1.47830908203125,0.7133868336677551,0.012753878720104694,-0.12403219938278198
1772797304461335000,1.4883349609375,0.6810959577560425,-0.011371963657438755,0.06690420210361481
1772797304471361000,1.498361083984375,0.6523311734199524,-0.03193343058228493,0.2633346915245056
1772797304481387000,1.508386962890625,0.5899474620819092,-0.03398486599326134,0.4308408796787262
1772797304491413800,1.518413818359375,0.5077191591262817,-0.02213992364704609,0.5656359791755676
1772797304501439700,1.528439697265625,0.46544837951660156,0.0029443909879773855,0.6331934332847595
1772797304511466000,1.538466064453125,0.449683278799057,0.028003405779600143,0.6422055959701538
1772797304521492000,1.548491943359375,0.4374958574771881,0.08231857419013977,0.6337375044822693
1772797304531518000,1.55851806640625,0.43901678919792175,0.10519059747457504,0.6315457224845886
1772797304541545000,1.568544921875,0.4551115930080414,0.14414386451244354,0.5976599454879761
1772797304551571000,1.578571044921875,0.4769015610218048,0.14564268290996552,0.5075585246086121
1772797304561597000,1.588596923828125,0.5162314176559448,0.13873177766799927,0.37745675444602966
1772797304571623000,1.598622802734375,0.5138622522354126,0.1385861039161682,0.23414112627506256
1772797304581650000,1.60864990234375,0.54521244764328,0.12089419364929199,0.0755448266863823
1772797304591676000,1.618676025390625,0.5538322925567627,0.08446375280618668,-0.08943933248519897
1772797304601702000,1.628701904296875,0.6349796056747437,0.04109044373035431,-0.23798780143260956
1772797304611728000,1.638727783203125,0.7303977608680725,-0.032039426267147064,-0.3442907929420471
1772797304621755000,1.6487548828125,0.7843446135520935,-0.033256225287914276,-0.3674866557121277
1772797304631780900,1.65878076171875,0.7849430441856384,-0.01447081845253706,-0.29736483097076416
1772797304641806800,1.668806884765625,0.6934754252433777,-0.02748994715511799,-0.1984987109899521
1772797304651832800,1.678832763671875,0.5963960289955139,-0.028438299894332886,-0.09958784282207489
1772797304661859000,1.688859130859375,0.5643438100814819,-0.1446935385465622,0.030535804107785225
1772797304671886000,1.698885986328125,0.6214065551757812,-0.2664814889431,0.13569551706314087
1772797304681912000,1.708912109375,0.6875565648078918,-0.2923325300216675,0.1951684206724167
1772797304691938000,1.71893798828125,0.6761693954467773,-0.34901872277259827,0.14179840683937073
1772797304701963800,1.7289638671875,0.5717723965644836,-0.3305582106113434,-0.08326772600412369
1772797304711990800,1.73899072265625,0.44145384430885315,-0.21751607954502106,-0.3329113721847534
1772797304722016800,1.749016845703125,0.4771527051925659,-0.10068906098604202,-0.5193984508514404
1772797304732043000,1.75904296875,0.5837798118591309,-0.09606634825468063,-0.6362552642822266
1772797304742069000,1.769069091796875,0.698902428150177,0.041008684784173965,-0.5720307230949402
1772797304752096000,1.779095947265625,0.7956047058105469,0.1755441278219223,-0.36867842078208923
1772797304762122000,1.7891220703125,0.9039205312728882,0.22763369977474213,-0.07755710929632187
1772797304772148000,1.79914794921875,0.9194438457489014,0.0815047100186348,0.2713713049888611
1772797304782174000,1.809174072265625,0.8831034302711487,-0.11786991357803345,0.611037015914917
1772797304792200000,1.819199951171875,0.8140189051628113,-0.24698182940483093,0.8951403498649597
1772797304802227000,1.82922705078125,0.6927347779273987,-0.3306114673614502,1.112605094909668
1772797304812253000,1.8392529296875,0.5452784895896912,-0.2861800789833069,1.2296509742736816
1772797304822279000,1.84927880859375,0.3833335340023041,-0.12941178679466248,1.2364308834075928
1772797304832305000,1.859304931640625,0.27077609300613403,-0.015717709437012672,1.1345548629760742
1772797304842332000,1.869331787109375,0.2047874927520752,0.08819431066513062,0.9278692603111267
1772797304852358000,1.87935791015625,0.2095194011926651,0.20083403587341309,0.6567704081535339
1772797304862383900,1.8893837890625,0.2789493501186371,0.32926470041275024,0.3397897779941559
1772797304872409900,1.899409912109375,0.35189491510391235,0.40357568860054016,0.02003309689462185
1772797304882436900,1.909436767578125,0.4209893047809601,0.3975154161453247,-0.27439719438552856
1772797304892462800,1.919462890625,0.45222073793411255,0.45088088512420654,-0.4687219262123108
1772797304902488800,1.92948876953125,0.4880237281322479,0.5377758145332336,-0.5810461044311523
1772797304912514800,1.939514892578125,0.5236059427261353,0.5216147303581238,-0.6062148213386536
1772797304922540800,1.949540771484375,0.5647025108337402,0.4141969084739685,-0.5268529057502747
1772797304932567800,1.95956787109375,0.5812489986419678,0.24692189693450928,-0.3843740224838257
1772797304942593800,1.96959375,0.6048960089683533,0.12345456331968307,-0.20426392555236816
1772797304952620000,1.9796201171875,0.5992890000343323,0.006085323169827461,-0.028975725173950195
1772797304962646000,1.98964599609375,0.6033481955528259,-0.07658559083938599,0.11149430274963379
1772797304972673000,1.999673095703125,0.5951842665672302,-0.0773155614733696,0.20450174808502197
1772797304982699000,2.009698974609375,0.5800482034683228,-0.01065264455974102,0.2629069983959198
1772797304992725000,2.01972509765625,0.5461016893386841,0.09863603115081787,0.29377302527427673
1772797305002751000,2.0297509765625,0.5491179823875427,0.14391189813613892,0.30583101511001587
1772797305012777700,2.03977783203125,0.5765602588653564,0.17841582000255585,0.2958851754665375
1772797305022804000,2.049803955078125,0.592138946056366,0.16374579071998596,0.2707318961620331
1772797305032830000,2.059829833984375,0.6110111474990845,0.11485547572374344,0.21814724802970886
1772797305042856000,2.06985595703125,0.6094412207603455,0.08918499946594238,0.11014940589666367
1772797305052882000,2.0798818359375,0.5951129198074341,0.08566350489854813,-0.05380703881382942
1772797305062909000,2.089908935546875,0.5863252878189087,0.08614793419837952,-0.25638118386268616
1772797305072935000,2.099934814453125,0.5664626359939575,0.1124810054898262,-0.4681166112422943
1772797305082961000,2.1099609375,0.5489366054534912,0.1416679173707962,-0.6546569466590881
1772797305092987000,2.11998681640625,0.5432448983192444,0.17991144955158234,-0.8178945779800415
1772797305103014000,2.130013916015625,0.5488567352294922,0.1886756420135498,-0.9591286778450012
1772797305113040000,2.140039794921875,0.5743786096572876,0.18659783899784088,-1.0717164278030396
1772797305123065900,2.15006591796875,0.6078872680664062,0.15193094313144684,-1.1255544424057007
1772797305133091800,2.160091796875,0.6344813704490662,0.1064755767583847,-1.0976306200027466
1772797305143118800,2.170118896484375,0.6385330557823181,0.0446002259850502,-0.9980587363243103
1772797305153144800,2.180144775390625,0.6818890571594238,-0.028294488787651062,-0.8388829827308655
1772797305163170800,2.1901708984375,0.7135633826255798,-0.13041633367538452,-0.6506728529930115
1772797305173197000,2.200197021484375,0.7148352861404419,-0.21355941891670227,-0.45214030146598816
1772797305183223000,2.21022314453125,0.6927902102470398,-0.2790883481502533,-0.24961942434310913
1772797305193250000,2.22025,0.6730484366416931,-0.34091711044311523,-0.053576674312353134
1772797305203276000,2.230276123046875,0.6464455723762512,-0.3454737663269043,0.11315478384494781
1772797305213302000,2.240302001953125,0.6142287850379944,-0.2502402067184448,0.2291189432144165
1772797305223328000,2.250327880859375,0.5714653730392456,-0.17660751938819885,0.2705707848072052
1772797305233354800,2.260354736328125,0.5514951348304749,-0.12363272160291672,0.24859675765037537
1772797305243381000,2.270381103515625,0.5650969743728638,-0.05522410571575165,0.20155176520347595
1772797305253407000,2.280406982421875,0.5794508457183838,-0.017650365829467773,0.14059360325336456
1772797305263433000,2.290432861328125,0.6132623553276062,-0.020025106146931648,0.058094728738069534
1772797305273460000,2.3004599609375,0.6927214860916138,-0.03798892721533775,-0.03304077312350273
1772797305283486000,2.31048583984375,0.8064520359039307,-0.064023457467556,-0.0981803610920906
1772797305293512000,2.320511962890625,0.901155412197113,-0.05072017014026642,-0.14675642549991608
1772797305303538000,2.330537841796875,0.9396727085113525,-0.04549131914973259,-0.1715395301580429
1772797305313564000,2.34056396484375,0.9134160280227661,-0.04605324566364288,-0.1480025202035904
1772797305323590000,2.35058984375,0.8498184084892273,-0.042864907532930374,-0.07134661823511124
1772797305333615900,2.360615966796875,0.8062589764595032,-0.08211004734039307,0.04524444416165352
1772797305343641900,2.370641845703125,0.7680606842041016,-0.12013866007328033,0.18489421904087067
1772797305353667800,2.380667724609375,0.7289361953735352,-0.14413399994373322,0.36907151341438293
1772797305363694800,2.39069482421875,0.6526443958282471,-0.23081296682357788,0.577427089214325
1772797305373720800,2.400720947265625,0.5201691389083862,-0.3072419762611389,0.744254469871521
1772797305383746800,2.410746826171875,0.400966078042984,-0.22100667655467987,0.7491581439971924
1772797305393772800,2.420772705078125,0.29383987188339233,-0.11661343276500702,0.6362971067428589
1772797305403799800,2.4307998046875,0.24956375360488892,-0.046478550881147385,0.5071279406547546
1772797305413825800,2.44082568359375,0.1577310413122177,-0.030716633424162865,0.41294416785240173
1772797305423851800,2.450851806640625,-0.004573446698486805,-0.03975833207368851,0.38705530762672424
1772797305433877800,2.460877685546875,-0.14839133620262146,-0.11534842848777771,0.45595526695251465
1772797305443903700,2.47090380859375,-0.238163560628891,-0.21585293114185333,0.6431390047073364
1772797305453930800,2.4809306640625,-0.3089229464530945,-0.32673949003219604,0.9306970238685608
1772797305463956700,2.490956787109375,-0.321251779794693,-0.3333849012851715,1.2404236793518066
1772797305473982700,2.500982666015625,-0.22967340052127838,-0.17443491518497467,1.4892539978027344
1772797305484008700,2.5110087890625,-0.021080784499645233,0.03753326088190079,1.6065261363983154
1772797305494035700,2.52103564453125,0.3175784945487976,0.25538381934165955,1.5192625522613525
1772797305504061700,2.531061767578125,0.7193073034286499,0.46010926365852356,1.2461601495742798
1772797305514088000,2.541087890625,0.996350884437561,0.5468548536300659,0.8328881859779358
1772797305524114000,2.551114013671875,1.137491226196289,0.4041978120803833,0.4826611876487732
1772797305534141000,2.561140869140625,1.3229095935821533,0.305180162191391,0.17974552512168884
1772797305544167000,2.5711669921875,1.4572337865829468,0.16863295435905457,-0.1559736132621765
1772797305554193000,2.58119287109375,1.5651594400405884,0.006578007712960243,-0.4202739894390106
1772797305564219000,2.591218994140625,1.6546787023544312,-0.1683594435453415,-0.6274607181549072
1772797305574245600,2.60124560546875,1.713485836982727,-0.2688937783241272,-0.7557175159454346
1772797305584272000,2.61127197265625,1.6783698797225952,-0.2542189657688141,-0.7664662599563599
1772797305594297900,2.6212978515625,1.5706501007080078,-0.21831582486629486,-0.6793694496154785
1772797305604323800,2.63132373046875,1.4622431993484497,-0.20737183094024658,-0.5466545820236206
1772797305614349800,2.641349853515625,1.3776239156723022,-0.24770300090312958,-0.37687990069389343
1772797305624376800,2.651376953125,1.327645182609558,-0.2342039793729782,-0.18883702158927917
1772797305634402800,2.66140283203125,1.2987821102142334,-0.11181680858135223,0.036134302616119385
1772797305644428800,2.6714287109375,1.2981373071670532,-0.04584525153040886,0.2657051682472229
1772797305654454800,2.681454833984375,1.31098210811615,-0.08082693815231323,0.456821084022522
1772797305664481800,2.691481689453125,1.3299705982208252,-0.124590665102005,0.6018496155738831
1772797305674507800,2.7015078125,1.367709994316101,-0.18128590285778046,0.7057464718818665
1772797305684533800,2.71153369140625,1.405883550643921,-0.21379271149635315,0.748523473739624
1772797305694559700,2.721559814453125,1.4405986070632935,-0.22600224614143372,0.721180260181427
1772797305704586800,2.731586669921875,1.4847586154937744,-0.2640992999076843,0.6832259893417358
1772797305714612700,2.74161279296875,1.5212050676345825,-0.32101449370384216,0.644062876701355
1772797305724638700,2.751638671875,1.5238903760910034,-0.3577541410923004,0.5835934281349182
1772797305734665000,2.7616650390625,1.5251822471618652,-0.3439560532569885,0.4935964047908783
1772797305744691000,2.77169091796875,1.5152842998504639,-0.2923849821090698,0.38274523615837097
1772797305754718000,2.781718017578125,1.4935513734817505,-0.18900294601917267,0.2709188461303711
1772797305764743700,2.79174365234375,1.4157768487930298,0.028449751436710358,0.12540319561958313
1772797305774769700,2.801769775390625,1.4119019508361816,0.10036894679069519,0.01218502689152956
1772797305784795600,2.811795654296875,1.4067085981369019,0.1356523633003235,-0.03948935121297836
1772797305794822700,2.82182275390625,1.4080697298049927,0.08428638428449631,-0.005228850524872541
1772797305804849000,2.831848876953125,1.41349196434021,0.03593163564801216,0.04878218472003937
1772797305814875000,2.841875,1.400048017501831,0.08014383912086487,0.05444273725152016
1772797305824900900,2.85190087890625,1.4194592237472534,0.15163692831993103,-0.0006820355774834752
1772797305834927900,2.861927978515625,1.4211245775222778,0.21583828330039978,-0.0778370052576065
1772797305844953900,2.871953857421875,1.3572206497192383,0.2655608355998993,-0.07045526057481766
1772797305854979800,2.881979736328125,1.268553614616394,0.15303055942058563,0.06790661066770554
1772797305865005800,2.892005859375,1.2291984558105469,0.00039521310827694833,0.28022074699401855
1772797305875031800,2.90203173828125,1.2190220355987549,-0.13014522194862366,0.47792503237724304
1772797305885058800,2.912058837890625,1.201217770576477,-0.18693047761917114,0.6159089803695679
1772797305895084800,2.922084716796875,1.2015682458877563,-0.21784870326519012,0.7163757085800171
1772797305905110800,2.93211083984375,1.219030499458313,-0.19279901683330536,0.7709087133407593
1772797305915136800,2.94213671875,1.2533479928970337,-0.08379529416561127,0.7530929446220398
1772797305925163800,2.952163818359375,1.3103631734848022,-0.02647182159125805,0.7066969275474548
1772797305935189800,2.962189697265625,1.3938270807266235,0.043062251061201096,0.6506438255310059
1772797305945215700,2.9722158203125,1.440683364868164,0.11289246380329132,0.5759850144386292
1772797305955241700,2.98224169921875,1.441962718963623,0.19826754927635193,0.5184431672096252
1772797305965268000,2.99226806640625,1.4329947233200073,0.23005664348602295,0.472921758890152
1772797305975294700,3.002294677734375,1.3782463073730469,0.19177237153053284,0.4049605429172516
1772797305985320700,3.01232080078125,1.314363718032837,0.09545008838176727,0.3023265600204468
1772797305995346700,3.0223466796875,1.2670832872390747,-0.036373186856508255,0.18509502708911896
1772797306005372700,3.03237255859375,1.2548398971557617,-0.084337517619133,0.10308510810136795
1772797306015399700,3.042399658203125,1.2425768375396729,-0.03922383487224579,0.05758606269955635
1772797306025426000,3.052426025390625,1.246744990348816,0.06464850157499313,0.03506344556808472
1772797306035452000,3.062451904296875,1.2673869132995605,0.11294253170490265,0.05434446409344673
1772797306045478000,3.072477783203125,1.2864372730255127,0.09430226683616638,0.14963556826114655
1772797306055505000,3.0825048828125,1.3075577020645142,0.08863905817270279,0.246231347322464
1772797306065531000,3.09253076171875,1.3829004764556885,0.07097350805997849,0.24425581097602844
1772797306075556900,3.102556884765625,1.4224542379379272,-0.012804744765162468,0.12446043640375137
1772797306085582800,3.112582763671875,1.3877508640289307,-0.09572998434305191,-0.0592726431787014
1772797306095608800,3.12260888671875,1.302562952041626,-0.05528775602579117,-0.3767363429069519
1772797306105635800,3.1326357421875,1.2475053071975708,-0.006708502769470215,-0.7379025220870972
1772797306115661800,3.142661865234375,1.164866328239441,-0.022187061607837677,-0.9840475916862488
1772797306125687800,3.152687744140625,1.114559292793274,0.07071944326162338,-0.9956477880477905
1772797306135713800,3.1627138671875,1.132714867591858,0.22661210596561432,-0.8036946058273315
1772797306145740800,3.17274072265625,1.250008463859558,0.31011444330215454,-0.5193459987640381
1772797306155766800,3.182766845703125,1.4424340724945068,0.29457810521125793,-0.19383923709392548
1772797306165792800,3.192792724609375,1.6640958786010742,0.19286079704761505,0.12039165943861008
1772797306175818800,3.20281884765625,1.8942705392837524,0.07834913581609726,0.4006451666355133
1772797306185845000,3.212844970703125,2.074831485748291,0.00016431703988928348,0.658266544342041
1772797306195871700,3.222871826171875,2.1386773586273193,-0.030377613380551338,0.8675271272659302
1772797306205897700,3.232897705078125,2.0325441360473633,-0.04475868120789528,0.9946123361587524
1772797306215923700,3.242923828125,1.834311604499817,0.028170118108391762,1.0028226375579834
1772797306225949700,3.25294970703125,1.58594810962677,0.782505989074707,0.8972722291946411
1772797306235976700,3.262976806640625,1.3287397623062134,0.6340664029121399,0.7926792502403259
1772797306246003000,3.2730029296875,1.1225682497024536,0.7850037217140198,0.4904554784297943
1772797306256029000,3.28302880859375,0.9976853728294373,0.5305203199386597,0.23593769967556
1772797306266055000,3.293054931640625,0.9827711582183838,0.0557924248278141,0.06933459639549255
1772797306276081000,3.303080810546875,1.0129332542419434,0.13809502124786377,0.025113875046372414
1772797306286108000,3.31310791015625,1.0804572105407715,0.31565091013908386,0.09475021064281464
1772797306296133600,3.323133544921875,1.1474913358688354,0.3738446831703186,0.17566663026809692
1772797306306159600,3.33315966796875,1.2025713920593262,0.41769683361053467,0.22863849997520447
1772797306316185600,3.343185546875,1.2423502206802368,0.5381364226341248,0.2305314838886261
1772797306326213000,3.353213134765625,1.2738674879074097,0.5267924070358276,0.20388175547122955
1772797306336239000,3.363239013671875,1.3407948017120361,0.3963598608970642,0.16250795125961304
1772797306346265000,3.37326513671875,1.4396326541900635,0.3831215500831604,0.13704387843608856
1772797306356291000,3.383291015625,1.5446292161941528,0.38111352920532227,0.11710824817419052
1772797306366318000,3.393318115234375,1.6419384479522705,0.3210557997226715,0.12710654735565186
1772797306376344000,3.403343994140625,1.772885799407959,0.26082518696784973,0.143682599067688
1772797306386370000,3.4133701171875,1.890639305114746,0.25265222787857056,0.1587505042552948
1772797306396396000,3.42339599609375,2.0089340209960938,0.21210213005542755,0.13912779092788696
1772797306406422000,3.433422119140625,2.1319141387939453,0.18627506494522095,0.09175095707178116
1772797306416449000,3.443448974609375,2.221297025680542,0.17450548708438873,0.016594955697655678
1772797306426475000,3.45347509765625,2.2885451316833496,0.20338934659957886,-0.07450805604457855
1772797306436501000,3.4635009765625,2.348310947418213,0.19785821437835693,-0.15864530205726624
1772797306446527000,3.47352685546875,2.339749336242676,0.15340660512447357,-0.22584937512874603
1772797306456554000,3.483553955078125,2.248584747314453,0.1324283480644226,-0.26227155327796936
1772797306466580000,3.493580078125,2.1774487495422363,-0.04793902859091759,-0.32474666833877563
1772797306476606000,3.50360595703125,2.0892391204833984,-0.13600710034370422,-0.34267160296440125
1772797306486632200,3.513632080078125,1.994073510169983,-0.17824430763721466,-0.30188047885894775
1772797306496658200,3.523658203125,1.9247323274612427,-0.15312084555625916,-0.19943773746490479
1772797306506685000,3.533684814453125,1.8758145570755005,-0.15575550496578217,-0.06563067436218262
1772797306516711000,3.5437109375,1.845670461654663,-0.15748097002506256,0.04657815396785736
1772797306526737000,3.55373681640625,1.8138736486434937,-0.13740846514701843,0.10223475843667984
1772797306536763000,3.563762939453125,1.786712884902954,-0.10917575657367706,0.12665008008480072
1772797306546790100,3.5737900390625,1.764072060585022,-0.12296640127897263,0.13975363969802856
1772797306556816100,3.583816162109375,1.72186279296875,-0.11211535334587097,0.1535693258047104
1772797306566842000,3.593842041015625,1.6566071510314941,-0.08574526757001877,0.12534567713737488
1772797306576868000,3.6038681640625,1.6082371473312378,-0.04212428256869316,0.06130916252732277
1772797306586894000,3.61389404296875,1.5133473873138428,-0.002931075170636177,-0.023125026375055313
1772797306596921000,3.623921142578125,1.4141372442245483,0.035295937210321426,-0.09362662583589554
1772797306606947000,3.633947021484375,1.326022744178772,0.1064116582274437,-0.14114727079868317
1772797306616972800,3.643972900390625,1.2488981485366821,0.1762237697839737,-0.18019400537014008
1772797306626998800,3.653998779296875,1.202731728553772,0.25364744663238525,-0.21855977177619934
1772797306637026000,3.664026123046875,1.1952682733535767,0.3048001229763031,-0.24130742251873016
1772797306647052000,3.674052001953125,1.26093327999115,0.2329363077878952,-0.2860810160636902
1772797306657078000,3.684078125,1.3281482458114624,0.2576592266559601,-0.28111475706100464
1772797306667104000,3.69410400390625,1.3885083198547363,0.2970713675022125,-0.27740657329559326
1772797306677130000,3.7041298828125,1.4284833669662476,0.22510501742362976,-0.2512229084968567
1772797306687157000,3.714156982421875,1.4481899738311768,0.2407148778438568,-0.19934771955013275
1772797306697183000,3.724182861328125,1.325717806816101,0.4004281163215637,-0.1066068708896637
1772797306707209200,3.734209228515625,1.2782325744628906,0.29069361090660095,-0.005286374595016241
1772797306717235200,3.744235107421875,1.2071064710617065,0.16842150688171387,0.1736154705286026
1772797306727262000,3.754261962890625,1.123755693435669,-0.03731168434023857,0.3975715935230255
1772797306737288000,3.764287841796875,1.0712168216705322,-0.26232510805130005,0.651457667350769
1772797306747314000,3.77431396484375,1.003841519355774,-0.44603580236434937,0.9326629638671875
1772797306757340000,3.78433984375,0.9402844309806824,-0.6005534529685974,1.1769827604293823
1772797306767366000,3.794365966796875,0.9425752758979797,-0.6010666489601135,1.144224762916565
1772797306777393200,3.80439306640625,0.8961409330368042,-0.5112550258636475,0.8609421849250793
1772797306787419100,3.814419189453125,0.816292405128479,-0.39940065145492554,0.5066338777542114
1772797306797445000,3.824445068359375,0.7673286199569702,-0.3146732449531555,0.18182146549224854
1772797306807471000,3.83447119140625,0.7379475235939026,-0.24637435376644135,-0.0830160602927208
1772797306817497900,3.844497802734375,0.7111036777496338,-0.15922214090824127,-0.23595073819160461
1772797306827523800,3.85452392578125,0.7070761919021606,-0.059958942234516144,-0.25916633009910583
1772797306837549800,3.8645498046875,0.7148137092590332,0.06487753242254257,-0.17433078587055206
1772797306847575800,3.874575927734375,0.74232417345047,0.18365319073200226,-0.02785852923989296
1772797306857602000,3.88460205078125,0.805076539516449,0.2536751329898834,0.16300515830516815
1772797306867629000,3.894629150390625,0.8944202661514282,0.26390382647514343,0.36790770292282104
1772797306877655000,3.904655029296875,0.9867810606956482,0.23279383778572083,0.5671260356903076
1772797306887681000,3.914680908203125,1.0408909320831299,0.17040342092514038,0.6984683275222778
1772797306897707000,3.92470703125,1.1063785552978516,0.11355239152908325,0.7552575469017029
1772797306907733000,3.93473291015625,1.0973483324050903,0.035826973617076874,0.7367528676986694
1772797306917760000,3.944760009765625,1.0677299499511719,-0.013734987005591393,0.6975612640380859
1772797306927786000,3.954785888671875,1.0134468078613281,-0.023082949221134186,0.6657042503356934
1772797306937812000,3.96481201171875,0.9460917115211487,-0.010940265841782093,0.6221333146095276
1772797306947838000,3.974837890625,0.8859857320785522,0.025000158697366714,0.5702254176139832
1772797306957865000,3.984864990234375,0.8389439582824707,0.03835431486368179,0.4832358956336975
1772797306967891000,3.994890869140625,0.7963114976882935,-0.008100803010165691,0.3739197850227356
1772797306977917000,4.0049169921875,0.7740850448608398,0.016804546117782593,0.2924928367137909
1772797306987943000,4.01494287109375,0.7772691249847412,0.040833715349435806,0.24393171072006226
1772797306997969000,4.024968994140625,0.8234342336654663,0.07490033656358719,0.26848605275154114
1772797307007996200,4.03499609375,0.8930833339691162,0.09902991354465485,0.3279491066932678
1772797307018022100,4.045022216796875,0.9409387707710266,0.152386873960495,0.4315735101699829
1772797307028048100,4.055048095703125,0.9679045677185059,0.195609450340271,0.5247513651847839
1772797307038074000,4.06507421875,0.98590087890625,0.1954704225063324,0.5414184927940369
1772797307048100900,4.075100830078125,0.9863001108169556,0.21056389808654785,0.5823369026184082
1772797307058126800,4.085126953125,1.031914234161377,0.168805792927742,0.5848538875579834
1772797307068152800,4.09515283203125,1.0994516611099243,0.09746397286653519,0.5193299651145935
1772797307078179000,4.105178955078125,1.1673974990844727,-0.00004500742215896025,0.46513307094573975
1772797307088205000,4.115205078125,1.255785584449768,-0.10525292158126831,0.4353986084461212
1772797307098232000,4.125232177734375,1.3449817895889282,-0.16521558165550232,0.4330161511898041
1772797307108258000,4.135258056640625,1.4541962146759033,-0.20719632506370544,0.3812282979488373
1772797307118284000,4.145283935546875,1.5112369060516357,-0.22311830520629883,0.31699737906455994
1772797307128310000,4.15531005859375,1.516467809677124,-0.2029600441455841,0.24944151937961578
1772797307138337000,4.1653369140625,1.4909569025039673,-0.14661580324172974,0.2084895521402359
1772797307148363000,4.175363037109375,1.4357538223266602,-0.08641158789396286,0.18480579555034637
1772797307158389000,4.185388916015625,1.2888317108154297,0.0049401638098061085,0.15647722780704498
1772797307168415000,4.1954150390625,1.2228716611862183,0.0730622261762619,0.1612357646226883
1772797307178441000,4.20544091796875,1.1396139860153198,0.07019879668951035,0.17016267776489258
1772797307188468000,4.215468017578125,1.0859127044677734,0.054784949868917465,0.16723638772964478
1772797307198494000,4.225493896484375,1.0543653964996338,0.029858829453587532,0.15393656492233276
1772797307208520000,4.23552001953125,1.0427799224853516,0.008478705771267414,0.14277473092079163
1772797307218546000,4.2455458984375,1.0513368844985962,-0.00589650496840477,0.11692848056554794
1772797307228572000,4.255572021484375,1.0736379623413086,-0.03359071537852287,0.08000481873750687
1772797307238599200,4.26559912109375,1.0921597480773926,-0.061699315905570984,0.03284449875354767
1772797307248625200,4.275625244140625,1.089675784111023,-0.07871558517217636,0.005045624915510416
1772797307258651100,4.285651123046875,1.0638630390167236,-0.10782793164253235,0.00504083139821887
1772797307268677000,4.295677001953125,1.0059696435928345,-0.13270744681358337,0.021922608837485313
1772797307278703900,4.305703857421875,0.9413805603981018,-0.1667969673871994,0.0318484753370285
1772797307288729900,4.315729736328125,0.8788471221923828,-0.1748088300228119,0.01606898196041584
1772797307298756000,4.325756103515625,0.8075332641601562,-0.15725859999656677,-0.024091221392154694
1772797307308782000,4.335781982421875,0.73470139503479,-0.1300799697637558,-0.07114528119564056
1772797307318808000,4.34580810546875,0.6592857837677002,-0.0682552233338356,-0.10272584855556488
1772797307328835300,4.35583544921875,0.583168089389801,-0.0024112260434776545,-0.1265299767255783
1772797307338861300,4.365861328125,0.5179094672203064,0.06191183626651764,-0.14107723534107208
1772797307348887300,4.37588720703125,0.45798006653785706,0.12433793395757675,-0.13600869476795197
1772797307358913300,4.385913330078125,0.42770472168922424,0.19065383076667786,-0.13269226253032684
1772797307368939300,4.395939208984375,0.42631375789642334,0.24188080430030823,-0.11424321681261063
1772797307378966000,4.405966064453125,0.43164461851119995,0.27854400873184204,-0.0866675153374672
1772797307388992000,4.415991943359375,0.4383813440799713,0.2606278657913208,-0.04583593085408211
1772797307399018000,4.42601806640625,0.4223989248275757,0.1766493320465088,0.013100089505314827
1772797307409044000,4.4360439453125,0.42012324929237366,0.054355915635824203,0.07601034641265869
1772797307419071200,4.4460712890625,0.39358749985694885,-0.04595097899436951,0.1291625201702118
1772797307429097200,4.45609716796875,0.3501516282558441,-0.12696780264377594,0.1742759346961975
1772797307439123200,4.466123291015625,0.2671701908111572,-0.15961362421512604,0.20783229172229767
1772797307449149200,4.476149169921875,0.15124385058879852,-0.1570548713207245,0.22680677473545074
1772797307459175200,4.486175048828125,0.03116297908127308,-0.14650288224220276,0.2263662964105606
1772797307469202000,4.496201904296875,-0.017059942707419395,-0.048766475170850754,0.06342637538909912
1772797307479228000,4.506227783203125,0.026086727157235146,0.3410566449165344,-0.09553264826536179
1772797307489254100,4.516254150390625,0.10686519742012024,0.6889067888259888,-0.31588900089263916
1772797307499280100,4.526280029296875,0.21841968595981598,0.9597311019897461,-0.6315705180168152
1772797307509306000,4.53630615234375,0.381202757358551,1.2334887981414795,-0.7638904452323914
1772797307519333000,4.5463330078125,0.5959688425064087,1.1125110387802124,-0.9227917194366455
1772797307529359000,4.556359130859375,0.7242162823677063,1.0343539714813232,-1.0006111860275269
1772797307539385000,4.566385009765625,0.7601178288459778,0.8970743417739868,-0.816141664981842
1772797307549411000,4.5764111328125,0.7685906887054443,0.5666114687919617,-0.548870325088501
1772797307559438300,4.586438232421875,0.716916024684906,0.3860209286212921,0.0546235628426075
1772797307569464300,4.59646435546875,0.6519716382026672,0.25404852628707886,0.671187162399292
1772797307579490300,4.606490234375,0.6819279789924622,0.12008086591959,1.0742331743240356
1772797307589516300,4.616516357421875,0.6977514028549194,-0.0025893915444612503,1.3112208843231201
1772797307599542000,4.6265419921875,0.7495855689048767,-0.12233363837003708,1.3314779996871948
1772797307609569000,4.636569091796875,0.8679108619689941,-0.21478793025016785,1.1540217399597168
1772797307619595000,4.646594970703125,1.007716178894043,-0.28447672724723816,0.8960269093513489
1772797307629621000,4.65662109375,1.1485792398452759,-0.31247615814208984,0.6333809494972229
1772797307639647200,4.666647216796875,1.2506585121154785,-0.29832223057746887,0.3936362564563751
1772797307649673200,4.676673095703125,1.2949119806289673,-0.2312161773443222,0.18258951604366302
1772797307659700200,4.6867001953125,1.2551747560501099,-0.10778585076332092,-0.012762933038175106
1772797307669726200,4.696726318359375,1.1554875373840332,0.055688563734292984,-0.17785708606243134
1772797307679752200,4.706752197265625,0.9868684411048889,0.21297964453697205,-0.3027705252170563
1772797307689778200,4.716778076171875,0.771460771560669,0.35391679406166077,-0.4008467495441437
1772797307699805000,4.726804931640625,0.5813283920288086,0.3798149824142456,-0.48829004168510437
1772797307709831200,4.7368310546875,0.40533605217933655,0.40013328194618225,-0.5567529797554016
1772797307719857200,4.746857177734375,0.28677478432655334,0.4606530964374542,-0.6811593770980835
1772797307729883100,4.756883056640625,0.1126120314002037,0.47388526797294617,-0.6873453855514526
1772797307739909000,4.7669091796875,-0.05271833762526512,0.343250572681427,-0.5693840980529785
1772797307749936000,4.77693603515625,-0.16653358936309814,0.16405631601810455,-0.43341562151908875
1772797307759962000,4.786962158203125,-0.23751801252365112,0.0490594208240509,-0.31754574179649353
1772797307769988000,4.796988037109375,-0.2829214632511139,-0.008026501163840294,-0.23041483759880066
1772797307780014000,4.80701416015625,-0.32560285925865173,-0.052925799041986465,-0.17345461249351501
1772797307790040000,4.8170400390625,-0.39504292607307434,-0.08581956475973129,-0.15427878499031067
1772797307800067000,4.827067138671875,-0.465711772441864,-0.11837537586688995,-0.15737390518188477
1772797307810093000,4.837093017578125,-0.5273029804229736,-0.15455682575702667,-0.153413787484169
1772797307820119000,4.847119140625,-0.5750345587730408,-0.19750535488128662,-0.13138918578624725
1772797307830145000,4.85714501953125,-0.6370193362236023,-0.23934920132160187,-0.11950536072254181
1772797307840171000,4.8671708984375,-0.6954677104949951,-0.24867212772369385,-0.1121521070599556
1772797307850198000,4.877197998046875,-0.7404935359954834,-0.20763735473155975,-0.13342729210853577
1772797307860224300,4.887224365234375,-0.7734535932540894,-0.16632479429244995,-0.16429519653320312
1772797307870250200,4.897250244140625,-0.7861454486846924,-0.1383480280637741,-0.1822025626897812
1772797307880276200,4.907276123046875,-0.7784928679466248,-0.1236252710223198,-0.17799822986125946
1772797307890302200,4.91730224609375,-0.7609053254127502,-0.13407498598098755,-0.14420963823795319
1772797307900329200,4.9273291015625,-0.7435513734817505,-0.16754984855651855,-0.08781614154577255
1772797307910355200,4.937355224609375,-0.716465950012207,-0.22190310060977936,-0.012636433355510235
1772797307920381200,4.947381103515625,-0.6712012887001038,-0.27822256088256836,0.05445472151041031
1772797307930407200,4.9574072265625,-0.6094257831573486,-0.32010236382484436,0.08420116454362869
1772797307940434200,4.96743408203125,-0.5449174046516418,-0.3360230028629303,0.07989003509283066
1772797307950460200,4.977460205078125,-0.4979437291622162,-0.3332139253616333,0.04772757366299629
1772797307960486100,4.987486083984375,-0.4595598578453064,-0.33880335092544556,-0.001603222917765379
1772797307970512100,4.99751220703125,-0.4377261996269226,-0.33229726552963257,-0.06511189043521881
1772797307980538000,5.0075380859375,-0.4287164807319641,-0.28238561749458313,-0.1403278112411499
1772797307990565000,5.017565185546875,-0.42342236638069153,-0.1951732188463211,-0.21866656839847565
1772797308000591000,5.027591064453125,-0.3930516839027405,-0.09348787367343903,-0.2877742648124695
1772797308010617000,5.0376171875,-0.33786219358444214,-0.0010122675448656082,-0.34671640396118164
1772797308020643300,5.047643310546875,-0.2743958830833435,0.0991889014840126,-0.38669949769973755
1772797308030669300,5.05766943359375,-0.19467441737651825,0.17331506311893463,-0.3818355202674866
1772797308040696000,5.067696044921875,-0.11148232221603394,0.22767843306064606,-0.33162960410118103
1772797308050722000,5.07772216796875,-0.03898175433278084,0.2679257094860077,-0.24911954998970032
1772797308060748000,5.087748046875,0.01834731549024582,0.29704737663269043,-0.16586646437644958
1772797308070774000,5.09777392578125,0.05278997868299484,0.310305655002594,-0.06625145673751831
1772797308080800000,5.107800048828125,0.0799931064248085,0.3351319134235382,0.04087499529123306
1772797308090827300,5.1178271484375,0.10825270414352417,0.30813732743263245,0.11550049483776093
1772797308100853200,5.127853271484375,0.16521771252155304,0.19937728345394135,0.15032878518104553
1772797308110879200,5.137879150390625,0.12462688237428665,0.10260999947786331,0.2095303237438202
1772797308120905200,5.1479052734375,0.08093666285276413,0.024332502856850624,0.25088682770729065
1772797308130931200,5.15793115234375,0.03861290588974953,-0.08858099579811096,0.25555747747421265
1772797308140958000,5.1679580078125,-0.03527836129069328,-0.17330972850322723,0.2507685720920563
1772797308150984000,5.17798388671875,-0.11971841007471085,-0.24879543483257294,0.2512836158275604
1772797308161010000,5.188010009765625,-0.22227168083190918,-0.32213568687438965,0.2676287889480591
1772797308171036200,5.1980361328125,-0.3323467969894409,-0.42600056529045105,0.31788370013237
1772797308181062100,5.208062255859375,-0.408892422914505,-0.542153000831604,0.4106261432170868
1772797308191089200,5.218089111328125,-0.4202614724636078,-0.5126904845237732,0.35195350646972656
1772797308201115100,5.228115234375,-0.4829687774181366,-0.3552608788013458,0.021436050534248352
1772797308211141000,5.23814111328125,-0.6267938613891602,-0.16085092723369598,-0.3721756935119629
1772797308221167000,5.2481669921875,-0.7230391502380371,0.018088456243276596,-0.650032103061676
1772797308231193000,5.258193115234375,-0.6877216696739197,0.1604440063238144,-0.7974489331245422
1772797308241220400,5.268220458984375,-0.5143948793411255,0.23154853284358978,-0.832197904586792
1772797308251246300,5.278246337890625,-0.16614475846290588,0.20728634297847748,-0.7205113172531128
1772797308261272300,5.288272216796875,0.19732585549354553,0.12075677514076233,-0.5135802030563354
1772797308271298000,5.298298095703125,0.574507474899292,-0.015263374894857407,-0.23154401779174805
1772797308281325000,5.308324951171875,0.8936119675636292,-0.13369707763195038,0.0837327167391777
1772797308291351000,5.31835107421875,1.2329975366592407,-0.2000550627708435,0.4224356710910797
1772797308301377000,5.328376953125,1.5719374418258667,-0.2701507806777954,0.7514023780822754
1772797308311403000,5.338403076171875,1.8309440612792969,-0.32672858238220215,1.0437841415405273
1772797308321429000,5.348428955078125,1.980223536491394,-0.3652251064777374,1.2528793811798096
1772797308331456500,5.35845654296875,1.9996358156204224,-0.36271560192108154,1.3509976863861084
1772797308341482500,5.368482421875,1.9233378171920776,-0.3454226553440094,1.3756097555160522
1772797308351508500,5.378508544921875,1.8131290674209595,-0.3885861039161682,1.3681195974349976
1772797308361534500,5.388534423828125,1.5925959348678589,-0.4985690414905548,1.2503618001937866
1772797308371560400,5.398560546875,1.4068210124969482,-0.5541098117828369,1.0317929983139038
1772797308381587500,5.40858740234375,1.144602656364441,-0.6036339402198792,0.7554964423179626
1772797308391613400,5.418613525390625,0.9116056561470032,-0.5863282084465027,0.45656833052635193
1772797308401639400,5.428639404296875,0.6728798747062683,-0.42427805066108704,0.17545437812805176
1772797308411665400,5.43866552734375,0.4680204689502716,-0.23822961747646332,-0.041673943400382996
1772797308421691400,5.44869140625,0.34120872616767883,-0.04968792945146561,-0.21521857380867004
1772797308431718400,5.458718505859375,0.2874983549118042,0.20868130028247833,-0.3211231529712677
1772797308441744400,5.468744384765625,0.27905401587486267,0.3920695185661316,-0.3359183669090271
1772797308451770400,5.478770263671875,0.31970635056495667,0.475577175617218,-0.23258930444717407
1772797308461796600,5.488796630859375,0.3904159367084503,0.5150577425956726,-0.07894248515367508
1772797308471822600,5.498822509765625,0.46753230690956116,0.5137959122657776,0.08359982073307037
1772797308481849300,5.508849365234375,0.551704466342926,0.432389497756958,0.2232583910226822
1772797308491875300,5.518875244140625,0.6360605955123901,0.30398890376091003,0.3480064570903778
1772797308501901300,5.5289013671875,0.7196418046951294,0.10881729423999786,0.47753486037254333
1772797308511927300,5.53892724609375,0.825469434261322,-0.08317025750875473,0.5831388235092163
1772797308521953300,5.548953369140625,0.9319316744804382,-0.20063243806362152,0.6380899548530579
1772797308531980500,5.55898046875,1.0395736694335938,-0.25045883655548096,0.6517407894134521
1772797308542006500,5.569006591796875,1.173738956451416,-0.24675652384757996,0.6408465504646301
1772797308552032500,5.579032470703125,1.3051677942276,-0.23437708616256714,0.5982290506362915
1772797308562058500,5.58905859375,1.433532953262329,-0.22012677788734436,0.5317845344543457
1772797308572084500,5.59908447265625,1.5472121238708496,-0.1919390857219696,0.45585328340530396
1772797308582111200,5.609111328125,1.6346969604492188,-0.1551930457353592,0.36950719356536865
1772797308592137200,5.61913720703125,1.6998776197433472,-0.10100677609443665,0.27822551131248474
1772797308602163200,5.6291630859375,1.7258365154266357,-0.06468072533607483,0.2216240018606186
1772797308612189400,5.639189453125,1.7215783596038818,-0.03814232721924782,0.1945657581090927
1772797308622215400,5.64921533203125,1.6907789707183838,-0.012976252473890781,0.17669861018657684
1772797308632242400,5.659242431640625,1.6455490589141846,0.02371571585536003,0.1599595695734024
1772797308642268400,5.669268310546875,1.5909454822540283,0.08309675008058548,0.1465604156255722
1772797308652294400,5.67929443359375,1.5415438413619995,0.1268966943025589,0.14292094111442566
1772797308662320400,5.6893203125,1.5130035877227783,0.1425771266222,0.14973756670951843
1772797308672346400,5.699346435546875,1.4970344305038452,0.13187973201274872,0.14286553859710693
1772797308682373600,5.70937353515625,1.4610652923583984,0.06924538314342499,0.13360732793807983
1772797308692399600,5.719399658203125,1.410654067993164,-0.016938770189881325,0.1340118646621704
1772797308702425600,5.729425537109375,1.3656013011932373,-0.09496299922466278,0.12461622804403305
1772797308712451600,5.73945166015625,1.3269860744476318,-0.1547301858663559,0.09956280887126923
1772797308722477300,5.749477294921875,1.2897486686706543,-0.22825022041797638,0.06820142269134521
1772797308732504300,5.75950439453125,1.2345064878463745,-0.26019641757011414,0.06625492125749588
1772797308742530300,5.7695302734375,1.1620404720306396,-0.2521741986274719,0.09465806186199188
1772797308752556300,5.779556396484375,1.0752358436584473,-0.17964886128902435,0.12669909000396729
1772797308762582500,5.78958251953125,1.033133864402771,-0.046895336359739304,0.14952370524406433
1772797308772608500,5.7996083984375,1.087659478187561,0.10078493505716324,0.15278901159763336
1772797308782635500,5.809635498046875,1.2007924318313599,0.20685970783233643,0.14980360865592957
1772797308792661500,5.81966162109375,1.310384750366211,0.23037195205688477,0.1900269240140915
1772797308802687500,5.8296875,1.4054657220840454,0.15709827840328217,0.23701387643814087
1772797308812713500,5.83971337890625,1.4948903322219849,0.041182857006788254,0.27766916155815125
1772797308822739500,5.849739501953125,1.563466191291809,-0.05762574449181557,0.3142399489879608
1772797308832766500,5.859766357421875,1.5966686010360718,-0.10946284234523773,0.3378826975822449
1772797308842792400,5.86979248046875,1.58999502658844,-0.067254938185215,0.345526784658432
1772797308852818400,5.879818359375,1.5236226320266724,0.04916514828801155,0.3502722680568695
1772797308862844400,5.889844482421875,1.4836413860321045,0.1031104028224945,0.30017632246017456
1772797308872870400,5.899870361328125,1.1876037120819092,0.13192740082740784,0.3536797761917114
1772797308882897400,5.9098974609375,0.9731898903846741,0.26425907015800476,0.41980046033859253
1772797308892923400,5.91992333984375,0.8456165194511414,0.4458267390727997,0.4707246422767639
1772797308902949400,5.929949462890625,0.8374783992767334,0.5726430416107178,0.38949263095855713
1772797308912975400,5.939975341796875,0.864029049873352,0.688667893409729,0.2010367065668106
1772797308923001600,5.950001708984375,0.953098714351654,0.8561242818832397,0.02076466754078865
1772797308933027600,5.960027587890625,1.0618669986724854,0.9712958335876465,-0.14398780465126038
1772797308943054300,5.970054443359375,1.1638813018798828,1.0118600130081177,-0.23057888448238373
1772797308953080300,5.980080322265625,1.2888871431350708,0.9264509081840515,-0.15673261880874634
1772797308963106300,5.990106201171875,1.4024536609649658,0.7236168384552002,0.050504717975854874
1772797308973132300,6.00013232421875,1.490103840827942,0.4918152689933777,0.39371880888938904
1772797308983158300,6.010158203125,1.5276483297348022,0.28668609261512756,0.8405525088310242
1772797308993185500,6.020185546875,1.5358703136444092,0.1058550626039505,1.2525216341018677
1772797309003211500,6.03021142578125,1.533957839012146,-0.07955661416053772,1.570627212524414
1772797309013237500,6.040237548828125,1.5227051973342896,-0.2544187009334564,1.7292709350585938
1772797309023263500,6.050263427734375,1.524760127067566,-0.44873490929603577,1.706982970237732
1772797309033289500,6.06028955078125,1.5413957834243774,-0.5773629546165466,1.5111948251724243
1772797309043316500,6.07031640625,1.5777426958084106,-0.5991542339324951,1.168715476989746
1772797309053342500,6.080342529296875,1.621821403503418,-0.48293495178222656,0.7546958923339844
1772797309063368400,6.090368408203125,1.6689567565917969,-0.30091455578804016,0.34856116771698
1772797309073394400,6.10039453125,1.696904182434082,-0.06338775902986526,-0.010576744563877583
1772797309083420400,6.11042041015625,1.6884678602218628,0.2110816091299057,-0.2941565215587616
1772797309093447400,6.120447509765625,1.6251496076583862,0.5023549795150757,-0.4832947552204132
1772797309103473400,6.130473388671875,1.5336627960205078,0.7604525685310364,-0.6229541301727295
1772797309113499400,6.14049951171875,1.4405437707901,0.9552329778671265,-0.7545148134231567
1772797309123525400,6.150525390625,1.3441733121871948,1.0278671979904175,-0.9138248562812805
1772797309133551400,6.16055126953125,1.258110523223877,0.9565760493278503,-1.0502036809921265
1772797309143578600,6.17057861328125,1.1815239191055298,0.7950393557548523,-1.0780960321426392
1772797309153604600,6.1806044921875,1.1730899810791016,0.6352453827857971,-1.026223063468933
1772797309163630600,6.190630615234375,1.1340973377227783,0.39318618178367615,-0.9214074015617371
1772797309173656600,6.200656494140625,1.017800211906433,0.3693849742412567,-0.6778869032859802
1772797309183682600,6.2106826171875,1.0270310640335083,0.4177780747413635,-0.4720093607902527
1772797309193709300,6.220709228515625,1.0242520570755005,0.4052707850933075,-0.3253740966320038
1772797309203735300,6.2307353515625,1.0257446765899658,0.3965790271759033,-0.22117500007152557
1772797309213761300,6.24076123046875,1.026404619216919,0.35684067010879517,-0.16106478869915009
1772797309223787300,6.250787353515625,1.0175418853759766,0.2945948839187622,-0.13924257457256317
1772797309233813500,6.2608134765625,0.9990574717521667,0.1966259777545929,-0.16610269248485565
1772797309243839500,6.270839599609375,0.9741342663764954,0.07469554245471954,-0.2128869742155075
1772797309253866500,6.280866455078125,0.9559062719345093,-0.0620841421186924,-0.24172288179397583
1772797309263892500,6.290892578125,0.943452000617981,-0.1982204169034958,-0.24211569130420685
1772797309273918500,6.30091845703125,0.9348547458648682,-0.26690760254859924,-0.24950569868087769
1772797309283944400,6.3109443359375,0.9326539039611816,-0.24036094546318054,-0.2671355605125427
1772797309293970400,6.320970458984375,0.9325913190841675,-0.17434729635715485,-0.2982971966266632
1772797309303997400,6.33099755859375,0.9357362389564514,-0.08374283462762833,-0.33823344111442566
1772797309314023400,6.3410234375,0.9462181925773621,0.021468274295330048,-0.37323296070098877
1772797309324049400,6.35104931640625,0.9884543418884277,0.11983904987573624,-0.38730165362358093
1772797309334074600,6.36107470703125,1.037286639213562,0.19404856860637665,-0.3634873926639557
1772797309344100400,6.371100341796875,1.10089910030365,0.2398000806570053,-0.30370503664016724
1772797309354127400,6.38112744140625,1.1543279886245728,0.2727103531360626,-0.22687548398971558
1772797309364153300,6.3911533203125,1.1832715272903442,0.28674495220184326,-0.1588042974472046
1772797309374179300,6.401179443359375,1.1894886493682861,0.29484495520591736,-0.11310072243213654
1772797309384205300,6.411205322265625,1.1946866512298584,0.24243207275867462,-0.08048046380281448
1772797309394231300,6.421231201171875,1.1991742849349976,0.12723411619663239,-0.05415857583284378
1772797309404258600,6.431258544921875,1.204306960105896,-0.02478364296257496,-0.03443280979990959
1772797309414284500,6.441284423828125,1.1999977827072144,-0.1709027737379074,0.005931658670306206
1772797309424310500,6.451310546875,1.169478178024292,-0.2622776925563812,0.05564754828810692
1772797309434336500,6.46133642578125,1.1058976650238037,-0.2737937271595001,0.092779740691185
1772797309444362500,6.471362548828125,1.0243103504180908,-0.2058519572019577,0.1004650890827179
1772797309454388500,6.481388427734375,0.9375472068786621,-0.11411885172128677,0.058634817600250244
1772797309464415200,6.491415283203125,0.8756430745124817,-0.040348488837480545,0.019035477191209793
1772797309474441200,6.501441162109375,0.8215004801750183,0.035049863159656525,-0.0010239854454994202
1772797309484467200,6.51146728515625,0.7858847379684448,0.11519502848386765,-0.013822072185575962
1772797309494493400,6.521493408203125,0.7628121376037598,0.15956568717956543,-0.037452567368745804
1772797309504519400,6.53151953125,0.7307109236717224,0.16310477256774902,-0.051046404987573624
1772797309514546400,6.54154638671875,0.6858114004135132,0.13377511501312256,-0.030526749789714813
1772797309524572400,6.551572509765625,0.6415421962738037,0.08805795013904572,0.02629285678267479
1772797309534598400,6.561598388671875,0.5908252000808716,0.01733185164630413,0.1254737675189972
1772797309544624400,6.571624267578125,0.5409359335899353,-0.07465320080518723,0.22582221031188965
1772797309554650400,6.581650390625,0.4789889454841614,-0.18518024682998657,0.2819957435131073
1772797309564677400,6.591677490234375,0.41251033544540405,-0.31307268142700195,0.2981635332107544
1772797309574703400,6.601703369140625,0.3363646864891052,-0.45416003465652466,0.3199271261692047
1772797309584729300,6.611729248046875,0.28003990650177,-0.5705143213272095,0.3862430453300476
1772797309594755300,6.62175537109375,0.2580389976501465,-0.5568435192108154,0.39934206008911133
1772797309604781300,6.63178125,0.24026080965995789,-0.3964458703994751,0.24802471697330475
1772797309614807300,6.641807373046875,0.19456414878368378,-0.14728106558322906,-0.015107314102351665
1772797309624834300,6.651834228515625,0.17334622144699097,0.12970499694347382,-0.2655981183052063
1772797309634860300,6.6618603515625,0.211843803524971,0.34752947092056274,-0.45549827814102173
1772797309644886500,6.671886474609375,0.31503942608833313,0.4958406388759613,-0.5324793457984924
1772797309654912500,6.68191259765625,0.5083010196685791,0.553500235080719,-0.46543240547180176
1772797309664938500,6.6919384765625,0.7969498634338379,0.47046124935150146,-0.26301246881484985
1772797309674965500,6.701965576171875,1.1643811464309692,0.23218876123428345,0.0547572560608387
1772797309684991200,6.7119912109375,1.547777771949768,-0.11603552848100662,0.4499583840370178
1772797309695017200,6.722017333984375,1.8956481218338013,-0.4599026143550873,0.8593463897705078
1772797309705043200,6.732043212890625,2.170828104019165,-0.7371906638145447,1.2372417449951172
1772797309715069200,6.742069091796875,2.3525846004486084,-0.911098301410675,1.5590081214904785
1772797309725095200,6.75209521484375,2.4372341632843018,-0.9538923501968384,1.7187999486923218
1772797309735122400,6.762122314453125,2.4371225833892822,-0.8723328113555908,1.7111856937408447
1772797309745148400,6.7721484375,2.3357441425323486,-0.7945849895477295,1.594105839729309
1772797309755174400,6.78217431640625,2.2194983959198,-0.7254221439361572,1.398561716079712
1772797309765200400,6.792200439453125,2.1057896614074707,-0.617615282535553,1.1415565013885498
1772797309775226400,6.802226318359375,2.0230553150177,-0.5242629647254944,0.8905474543571472
1772797309785253400,6.81225341796875,2.002911329269409,-0.40794381499290466,0.6562843918800354
1772797309795279400,6.822279296875,1.9508661031723022,-0.19593489170074463,0.45929062366485596
1772797309805305600,6.8323056640625,1.803244709968567,0.02333914488554001,0.3294615149497986
1772797309815331600,6.84233154296875,1.6060749292373657,0.21579806506633759,0.22431273758411407
1772797309825357300,6.852357421875,1.386899709701538,0.3986952006816864,0.15016180276870728
1772797309835384300,6.86238427734375,1.2097078561782837,0.558209240436554,0.1211802214384079
1772797309845410300,6.872410400390625,1.1161813735961914,0.663561224937439,0.14445358514785767
1772797309855436300,6.882436279296875,1.108575701713562,0.6994555592536926,0.21045736968517303
1772797309865462300,6.892462158203125,1.1650205850601196,0.6495356559753418,0.2875170111656189
1772797309875488300,6.90248828125,1.2611199617385864,0.564717710018158,0.34726476669311523
1772797309885514500,6.912514404296875,1.3680444955825806,0.45916280150413513,0.3929595351219177
1772797309895541500,6.92254150390625,1.4737282991409302,0.30549708008766174,0.421520859003067
1772797309905567500,6.9325673828125,1.5680077075958252,0.1470688134431839,0.4653959274291992
1772797309915593500,6.942593505859375,1.6674277782440186,0.006030195392668247,0.511288583278656
1772797309925619500,6.952619384765625,1.759891152381897,-0.04615604504942894,0.5260829925537109
1772797309935645400,6.9626455078125,1.8247367143630981,-0.032696161419153214,0.5404331684112549
1772797309945672200,6.972672119140625,1.8761279582977295,0.02755705825984478,0.5639315247535706
1772797309955698400,6.982698486328125,1.9003633260726929,0.06052033603191376,0.5479565858840942
1772797309965724400,6.992724365234375,1.8980474472045898,0.07039400190114975,0.45047876238822937
1772797309975750400,7.00275048828125,1.8172721862792969,0.05609655752778053,0.4664449393749237
1772797309985776400,7.0127763671875,1.7775044441223145,0.0891229510307312,0.4693693518638611
1772797309995803400,7.022803466796875,1.8282310962677002,0.1357375979423523,0.37613341212272644
1772797310005829400,7.032829345703125,1.8250021934509277,0.2395462840795517,0.32269760966300964
1772797310015855400,7.04285546875,1.7240798473358154,0.17303329706192017,0.242494136095047
1772797310025881300,7.05288134765625,1.6231207847595215,0.020919131115078926,0.0935126394033432
1772797310035907300,7.0629072265625,1.482761263847351,-0.11706271022558212,0.010245979763567448
1772797310045933600,7.07293359375,0.970801591873169,-0.12939581274986267,0.17085936665534973
1772797310055960300,7.082960205078125,0.6116146445274353,-0.16699910163879395,0.1966470181941986
1772797310065986300,7.092986328125,0.3821929097175598,-0.2710123360157013,-0.01931430958211422
1772797310076012300,7.10301220703125,0.20973564684391022,-0.18026643991470337,-0.15925650298595428
1772797310086038300,7.113038330078125,0.27938157320022583,-0.12142975628376007,-0.21333837509155273
1772797310096064300,7.123064208984375,0.6228609085083008,-0.2887772023677826,-0.3540896475315094
1772797310106091500,7.133091552734375,0.8339771628379822,-0.423756867647171,-0.3635864555835724
1772797310116117500,7.143117431640625,0.9499191641807556,-0.40881893038749695,-0.3159923255443573
1772797310126143500,7.1531435546875,0.9978678226470947,-0.298347532749176,-0.25578731298446655
1772797310136169500,7.16316943359375,1.0082671642303467,-0.19335481524467468,-0.24486248195171356
1772797310146195500,7.173195556640625,0.8737578392028809,-0.08243149518966675,-0.06376060098409653
1772797310156221400,7.183221435546875,0.7897406816482544,-0.1570279598236084,0.22237341105937958
1772797310166248400,7.19324853515625,0.8445032835006714,-0.3873961865901947,0.4135356545448303
1772797310176274200,7.203274169921875,0.9163076877593994,-0.4476856291294098,0.5876060128211975
1772797310186300200,7.213300048828125,0.9855365753173828,-0.07993318140506744,0.7305506467819214
1772797310196326400,7.223326416015625,1.0097711086273193,0.19577376544475555,0.9246742725372314
1772797310206352400,7.233352294921875,1.1079498529434204,0.32926738262176514,1.0828313827514648
1772797310216379400,7.24337939453125,1.2009836435317993,0.31146013736724854,1.1604084968566895
1772797310226405400,7.2534052734375,1.2017908096313477,0.3225037455558777,1.194270133972168
1772797310236431400,7.263431396484375,1.0449464321136475,0.3584289848804474,1.172749638557434
1772797310246457300,7.273457275390625,0.7810359001159668,0.457119882106781,1.1066858768463135
1772797310256483300,7.2834833984375,0.4992670714855194,0.35649606585502625,0.9873531460762024
1772797310266509300,7.29350927734375,0.26953694224357605,0.07370644807815552,0.8590782284736633
1772797310276536600,7.30353662109375,0.10840556770563126,-0.1475393921136856,0.7482587695121765
1772797310286562600,7.3135625,0.026611370965838432,-0.2812279462814331,0.6581853628158569
1772797310296588500,7.323588623046875,0.007059773895889521,-0.4309884011745453,0.5911540985107422
1772797310306614300,7.3336142578125,-0.0057590859942138195,-0.458950012922287,0.5652242302894592
1772797310316640300,7.34364013671875,-0.05639376863837242,-0.6568614840507507,0.5871945023536682
1772797310326667000,7.3536669921875,-0.06624346971511841,-0.7328079342842102,0.6510512828826904
1772797310336694000,7.363694091796875,-0.0063798688352108,-0.6647742986679077,0.5983254909515381
1772797310346720000,7.373719970703125,0.13511307537555695,-0.6361644864082336,0.38717514276504517
1772797310356746000,7.38374609375,0.27247095108032227,-0.4122360348701477,-0.05470559000968933
1772797310366772000,7.39377197265625,0.4175828695297241,-0.16389386355876923,-0.6273043751716614
1772797310376798000,7.4037978515625,0.6005212664604187,0.10669075697660446,-1.1789627075195312
1772797310386825000,7.413824951171875,0.8281999230384827,0.31956255435943604,-1.5886991024017334
1772797310396851000,7.423850830078125,1.0575436353683472,0.4894101619720459,-1.8201854228973389
1772797310406877000,7.433876953125,1.2554162740707397,0.6351375579833984,-1.8878812789916992
1772797310416903000,7.44390283203125,1.4029724597930908,0.6522899270057678,-1.7905441522598267
1772797310426929000,7.453928955078125,1.4924581050872803,0.5801216959953308,-1.5254848003387451
1772797310436955000,7.463954833984375,1.5168143510818481,0.49490800499916077,-1.1669468879699707
1772797310446982000,7.47398193359375,1.4937812089920044,0.47625547647476196,-0.7827525734901428
1772797310457008000,7.484008056640625,1.443606972694397,0.4708487391471863,-0.4210550785064697
1772797310467034000,7.4940341796875,1.292672038078308,0.4584767520427704,-0.10916856676340103
1772797310477060000,7.50406005859375,1.1257411241531372,0.41704994440078735,0.11283653974533081
1772797310487086000,7.514086181640625,0.911255419254303,0.40565696358680725,0.2752275764942169
1772797310497113000,7.524113037109375,0.7262541651725769,0.4705462157726288,0.3594162166118622
1772797310507139000,7.53413916015625,0.5838586688041687,0.5684764981269836,0.3724116384983063
1772797310517165000,7.5441650390625,0.5494495630264282,0.7092916965484619,0.2717742621898651
1772797310527191000,7.55419091796875,0.5967891216278076,0.7894722819328308,0.08698523044586182
1772797310537217000,7.564217041015625,0.6752956509590149,0.846102237701416,-0.11020906269550323
1772797310547243000,7.574242919921875,0.7796614170074463,0.8931118249893188,-0.2854408025741577
1772797310557270000,7.58427001953125,0.7775900363922119,0.9293537139892578,-0.36659476161003113
1772797310567296000,7.5942958984375,0.8716587424278259,0.908786416053772,-0.4818585216999054
1772797310577322000,7.604322021484375,0.9171684384346008,0.8055867552757263,-0.5562006831169128
1772797310587348000,7.614347900390625,0.9024960398674011,0.6086950302124023,-0.6224316358566284
1772797310597374000,7.6243740234375,0.8562371730804443,0.42456698417663574,-0.6862854361534119
1772797310607401000,7.63440087890625,0.8104353547096252,0.32971903681755066,-0.708549439907074
1772797310617427200,7.64442724609375,0.7741295099258423,0.31031525135040283,-0.6918501257896423
1772797310627453200,7.654453125,0.7942087054252625,0.3036392331123352,-0.6750207543373108
1772797310637479200,7.664479248046875,0.7912464737892151,0.3361353874206543,-0.6151273846626282
1772797310647505200,7.674505126953125,0.768993616104126,0.3392353355884552,-0.522876501083374
1772797310657531100,7.68453125,0.7141420841217041,0.32514452934265137,-0.3990773558616638
1772797310667558000,7.694557861328125,0.6728441715240479,0.3428276479244232,-0.2585087716579437
1772797310677584000,7.704583984375,0.6282881498336792,0.30571091175079346,-0.1159961074590683
1772797310687609900,7.71460986328125,0.5707859992980957,0.24768836796283722,0.005088767968118191
1772797310697635800,7.7246357421875,0.5603261590003967,0.224226713180542,0.08460915833711624
1772797310707662000,7.734662109375,0.5647233128547668,0.18026112020015717,0.11656150221824646
1772797310717688000,7.74468798828125,0.5779738426208496,0.11944543570280075,0.12942349910736084
1772797310727715000,7.754715087890625,0.5632337927818298,0.06755746901035309,0.11091533303260803
1772797310737741000,7.764740966796875,0.5654338598251343,0.09171713888645172,0.05354098975658417
1772797310747767000,7.77476708984375,0.5446790456771851,0.0626860186457634,-0.022248048335313797
1772797310757793000,7.78479296875,0.5220293998718262,0.07998191565275192,-0.08304135501384735
1772797310767819000,7.794819091796875,0.4899790287017822,0.1100095883011818,-0.13014309108257294
1772797310777846000,7.804845947265625,0.4523773193359375,0.11706750094890594,-0.1502414345741272
1772797310787872000,7.8148720703125,0.4182494580745697,0.1159532368183136,-0.15197035670280457
1772797310797898000,7.82489794921875,0.37796592712402344,0.08063945174217224,-0.14594681560993195
1772797310807924000,7.834924072265625,0.34379786252975464,0.0581972599029541,-0.14583416283130646
1772797310817950000,7.844949951171875,0.3297869563102722,0.037093039602041245,-0.16884280741214752
1772797310827976000,7.854975830078125,0.32562416791915894,0.01176344882696867,-0.20255257189273834
1772797310838003000,7.8650029296875,0.32279935479164124,0.0015041533624753356,-0.22372576594352722
1772797310848029000,7.87502880859375,0.32240867614746094,0.0033601103350520134,-0.21309895813465118
1772797310858055200,7.88505517578125,0.31890207529067993,-0.00455666845664382,-0.19254174828529358
1772797310868081200,7.8950810546875,0.3113544285297394,-0.03483494743704796,-0.1591569036245346
1772797310878107100,7.905107177734375,0.3062949478626251,-0.04669266939163208,-0.12265800684690475
1772797310888133000,7.915133056640625,0.31484395265579224,-0.061350975185632706,-0.10014630854129791
1772797310898159900,7.925159912109375,0.3385287821292877,-0.0697881355881691,-0.09734173119068146
1772797310908185900,7.935185791015625,0.3659833073616028,-0.08490583300590515,-0.09977586567401886
1772797310918211800,7.9452119140625,0.4041549265384674,-0.0802956372499466,-0.0858139768242836
1772797310928237800,7.95523779296875,0.472511351108551,-0.030825823545455933,-0.08608242124319077
1772797310938263800,7.965263916015625,0.49960821866989136,-0.11500248312950134,-0.08442513644695282
1772797310948290000,7.9752900390625,0.5008490085601807,-0.13089969754219055,-0.07066484540700912
1772797310958317000,7.985317138671875,0.4709952175617218,-0.12557657063007355,-0.04581595957279205
1772797310968343000,7.995343017578125,0.4338281452655792,-0.14668424427509308,-0.020116187632083893
1772797310978369000,8.005369140625,0.39186203479766846,-0.12506604194641113,0.03067828342318535
1772797310988395000,8.01539501953125,0.36518436670303345,-0.04398716613650322,0.07726762443780899
1772797310998421000,8.0254208984375,0.34892576932907104,-0.01715182326734066,0.1220334991812706
1772797311008448000,8.035447998046875,0.3353756070137024,0.0011411645682528615,0.16634529829025269
1772797311018474000,8.045473876953125,0.3046294152736664,0.015905464068055153,0.22091640532016754
1772797311028500000,8.0555,0.2848149538040161,0.0031470574904233217,0.26919952034950256
1772797311038526000,8.06552587890625,0.2657131552696228,-0.0203915573656559,0.30438145995140076
1772797311048552000,8.075552001953126,0.2521616816520691,-0.04386066645383835,0.3386733829975128
1772797311058578000,8.085577880859375,0.2364969551563263,-0.06690899282693863,0.3719261586666107
1772797311068605000,8.09560498046875,0.22237315773963928,-0.07136712223291397,0.3907099664211273
1772797311078631000,8.105630859375,0.21618716418743134,-0.03755350038409233,0.3937065601348877
1772797311088657000,8.115656982421875,0.20908743143081665,-0.003967311233282089,0.387411892414093
1772797311098683100,8.12568310546875,0.20246335864067078,0.017133180052042007,0.3995721638202667
1772797311108709000,8.135709228515625,0.1858430951833725,0.030591998249292374,0.4243544638156891
1772797311118735000,8.145735107421874,0.1673772782087326,0.003739877138286829,0.4635777771472931
1772797311128762000,8.15576220703125,0.13871580362319946,-0.05698232725262642,0.5129192471504211
1772797311138788000,8.1657880859375,0.10517435520887375,-0.08004849404096603,0.5599796772003174
1772797311148814000,8.17581396484375,0.04490276053547859,-0.057561296969652176,0.506588339805603
1772797311158840000,8.185840087890625,0.005139900837093592,0.0185872670263052,0.321514368057251
1772797311168865800,8.19586572265625,-0.022303707897663116,0.12898780405521393,0.0668589249253273
1772797311178891800,8.205891845703125,-0.07980348914861679,0.17748503386974335,-0.14185912907123566
1772797311188919000,8.2159189453125,-0.15614859759807587,0.19241471588611603,-0.23398053646087646
1772797311198945000,8.225945068359374,-0.22411751747131348,0.19599133729934692,-0.21524333953857422
1772797311208971000,8.235970947265624,-0.27551305294036865,0.18516398966312408,-0.1012432649731636
1772797311218997000,8.2459970703125,-0.286690890789032,0.15645910799503326,0.09207107126712799
1772797311229023000,8.25602294921875,-0.2425929307937622,0.12436722218990326,0.3263714611530304
1772797311239049000,8.266049072265625,-0.18797948956489563,0.12073520570993423,0.5610654354095459
1772797311249076000,8.276075927734375,-0.08507441729307175,0.07783407717943192,0.7546173334121704
1772797311259102200,8.286102294921875,0.06598993390798569,0.0108284130692482,0.8842552304267883
1772797311269128200,8.296128173828125,0.2340569645166397,-0.04990444332361221,0.9570226669311523
1772797311279154200,8.306154296875,0.46672511100769043,-0.060317933559417725,0.9671897888183594
1772797311289180200,8.31618017578125,0.7010664939880371,-0.024339161813259125,0.8668038249015808
1772797311299206100,8.3262060546875,0.821820855140686,-0.10198122262954712,0.7115617394447327
1772797311309233000,8.33623291015625,0.8748947381973267,-0.12066569924354553,0.5437312126159668
1772797311319259000,8.3462587890625,0.9078617691993713,-0.08992403000593185,0.34320342540740967
1772797311329285600,8.35628564453125,0.9437659382820129,-0.0939645767211914,0.13243021070957184
1772797311339311600,8.3663115234375,0.9758658409118652,-0.12427534908056259,-0.032336100935935974
1772797311349337600,8.376337646484375,0.9470003843307495,-0.17833565175533295,-0.18561913073062897
1772797311359363600,8.386363525390625,0.8846429586410522,-0.21890544891357422,-0.2925756871700287
1772797311369390800,8.396390869140625,0.7960406541824341,-0.19992457330226898,-0.29983624815940857
1772797311379416800,8.406416748046874,0.7403968572616577,-0.29340577125549316,-0.24071593582630157
1772797311389442600,8.416442626953126,0.6853488087654114,-0.39548367261886597,-0.09549243748188019
1772797311399468500,8.426468505859376,0.6208390593528748,-0.45560958981513977,0.12641653418540955
1772797311409494500,8.43649462890625,0.5681590437889099,-0.47266528010368347,0.3413189649581909
1772797311419520500,8.4465205078125,0.5369558334350586,-0.449199378490448,0.5046303868293762
1772797311429547500,8.456547607421875,0.5031148195266724,-0.38417428731918335,0.6139084100723267
1772797311439573500,8.466573486328125,0.4635666012763977,-0.2846815288066864,0.6845093369483948
1772797311449599700,8.476599853515625,0.42491215467453003,-0.18340285122394562,0.6947694420814514
1772797311459625700,8.486625732421874,0.40828976035118103,-0.09578405320644379,0.6597355604171753
1772797311469651700,8.496651611328126,0.36295077204704285,-0.0013763216556981206,0.5974647402763367
1772797311479677700,8.506677734375,0.35263368487358093,0.04057832062244415,0.507034182548523
1772797311489704700,8.51670458984375,0.3554489016532898,0.06968560069799423,0.4041903614997864
1772797311499730700,8.526730712890625,0.36437076330184937,0.03695748373866081,0.304098904132843
1772797311509756700,8.536756591796875,0.38833150267601013,-0.008869391866028309,0.18094155192375183
1772797311519782700,8.54678271484375,0.4425143003463745,-0.024581775069236755,0.03142130747437477
1772797311529808600,8.55680859375,0.495787650346756,-0.019773704931139946,-0.12408439815044403
1772797311539835600,8.566835693359375,0.5539066195487976,-0.012709669768810272,-0.24794402718544006
1772797311549861600,8.576861572265624,0.5937680006027222,-0.015921708196401596,-0.3338701128959656
1772797311559887600,8.5868876953125,0.6156988739967346,-0.018008295446634293,-0.38163071870803833
1772797311569913600,8.59691357421875,0.6219780445098877,-0.022343387827277184,-0.3780679404735565
1772797311579939600,8.606939697265625,0.6257994174957275,-0.02136414498090744,-0.3512011766433716
1772797311589965600,8.616965576171875,0.6127368807792664,0.0036304211243987083,-0.2864381670951843
1772797311599992600,8.62699267578125,0.584880530834198,0.009191101416945457,-0.2023821324110031
1772797311610018800,8.637018798828125,0.5535401701927185,0.016404805704951286,-0.09361863136291504
1772797311620044800,8.647044921875,0.5190977454185486,0.02889343351125717,0.014740063808858395
1772797311630070800,8.65707080078125,0.48734304308891296,0.03321893885731697,0.10894566029310226
1772797311640096800,8.6670966796875,0.44928619265556335,0.030056701973080635,0.19247063994407654
1772797311650122800,8.677122802734376,0.4199807643890381,-0.0003171824791934341,0.24410293996334076
1772797311660149500,8.6871494140625,0.39667677879333496,-0.023318372666835785,0.2598171830177307
1772797311670175500,8.697175537109375,0.3865916430950165,-0.025064339861273766,0.23752734065055847
1772797311680201500,8.707201416015625,0.38284751772880554,-0.01020017359405756,0.19096197187900543
1772797311690227700,8.717227783203125,0.37789270281791687,0.0305123683065176,0.12870977818965912
1772797311700253700,8.727253662109375,0.37060657143592834,0.073091521859169,0.07350218296051025
1772797311710279700,8.73727978515625,0.3579370975494385,0.10019424557685852,0.03196752071380615
1772797311720306700,8.747306640625,0.3455834984779358,0.1009625643491745,0.00014061490946915
1772797311730332700,8.757332763671876,0.32741594314575195,0.07860000431537628,-0.03472442552447319
1772797311740358700,8.767358642578126,0.30691519379615784,0.09101486206054688,-0.061522215604782104
1772797311750384600,8.777384521484375,0.2945288419723511,0.12313178181648254,-0.10050077736377716
1772797311760410600,8.78741064453125,0.2965829372406006,0.1434711515903473,-0.13480734825134277
1772797311770436600,8.7974365234375,0.2897050380706787,0.18614962697029114,-0.15958832204341888
1772797311780463600,8.807463623046875,0.2746448814868927,0.1815897673368454,-0.1559712290763855
1772797311790489600,8.817489501953125,0.25342267751693726,0.1259789764881134,-0.11293693631887436
1772797311800515600,8.827515625,0.22920921444892883,0.038668032735586166,-0.02833816409111023
1772797311810541600,8.83754150390625,0.19557562470436096,-0.07662393897771835,0.07288246601819992
1772797311820567600,8.847567626953126,0.16483289003372192,-0.1517740786075592,0.1932125985622406
1772797311830593500,8.857593505859375,0.1389211267232895,-0.17182156443595886,0.3267168700695038
1772797311840620500,8.86762060546875,0.13237188756465912,-0.13245578110218048,0.48784610629081726
1772797311850646800,8.877646728515625,0.13599617779254913,-0.15296770632266998,0.6593483686447144
1772797311860672800,8.8876728515625,0.2709590494632721,-0.05866358056664467,0.7376194596290588
1772797311870698800,8.89769873046875,0.43253064155578613,-0.012236426584422588,0.5695862174034119
1772797311880724700,8.907724853515624,0.423420786857605,0.10144699364900589,0.2826482057571411
1772797311890750700,8.917750732421876,0.347621887922287,0.16604410111904144,-0.060976799577474594
1772797311900776700,8.927776611328126,0.295804500579834,0.2845289409160614,-0.3777640759944916
1772797311910803500,8.937803466796876,0.29597893357276917,0.40655311942100525,-0.5928881168365479
1772797311920829400,8.947829345703125,0.31927359104156494,0.5039848685264587,-0.6571099758148193
1772797311930855400,8.95785546875,0.33865928649902344,0.557623028755188,-0.5271647572517395
1772797311940881700,8.967881591796875,0.33339446783065796,0.46398496627807617,-0.2667592465877533
1772797311950907600,8.97790771484375,0.2990327775478363,0.31225112080574036,0.07030798494815826
1772797311960934700,8.9879345703125,0.24616530537605286,0.16075345873832703,0.40021586418151855
1772797311970960600,8.997960693359374,0.16050872206687927,-0.01967623271048069,0.697257399559021
1772797311980986600,9.007986572265626,0.09125294536352158,-0.03195766732096672,0.9169990420341492
1772797311991012600,9.0180126953125,0.02767051011323929,-0.030005834996700287,1.074218511581421
1772797312001038600,9.02803857421875,-0.017739050090312958,0.07592059671878815,1.188374638557434
1772797312011064600,9.038064697265625,-0.02931101620197296,0.22954051196575165,1.1885138750076294
1772797312021090800,9.0480908203125,-0.003964648116379976,0.3744380474090576,1.0763815641403198
1772797312031117600,9.05811767578125,0.026515496894717216,0.4143308699131012,0.8690296411514282
1772797312041143600,9.0681435546875,0.054791875183582306,0.5207987427711487,0.6386334896087646
1772797312051169500,9.07816943359375,0.10874192416667938,0.5889727473258972,0.41525977849960327
1772797312061195500,9.088195556640626,0.22194837033748627,0.6345284581184387,0.18660423159599304
1772797312071221500,9.098221435546876,0.3622215986251831,0.6634576320648193,-0.015140336938202381
1772797312081247500,9.10824755859375,0.4961692690849304,0.5952916145324707,-0.2067774087190628
1772797312091274800,9.118274658203125,0.6236100792884827,0.4445961117744446,-0.3634575605392456
1772797312101300700,9.12830078125,0.7152100205421448,0.3216201066970825,-0.48571982979774475
1772797312111326700,9.13832666015625,0.7969991564750671,0.1876295506954193,-0.5789227485656738
1772797312121352700,9.148352783203125,0.8555356860160828,0.06191236898303032,-0.6518068313598633
1772797312131378700,9.158378662109374,0.897802472114563,0.01329796202480793,-0.6887624263763428
1772797312141404700,9.16840478515625,0.9242359399795532,-0.01510118879377842,-0.6982927918434143
1772797312151431700,9.178431640625,0.9472842812538147,-0.060264404863119125,-0.6557781100273132
1772797312161457700,9.188457763671876,0.962810218334198,-0.05414073169231415,-0.5944151282310486
1772797312171483400,9.1984833984375,0.9663258790969849,-0.05716688185930252,-0.520628809928894
1772797312181509600,9.208509521484375,0.987472414970398,-0.03217418119311333,-0.42842671275138855
1772797312191535600,9.21853564453125,1.0064802169799805,-0.06066814064979553,-0.3415738344192505
1772797312201561600,9.2285615234375,1.0281585454940796,-0.07403135299682617,-0.2707481384277344
1772797312211588600,9.238588623046875,1.0088847875595093,-0.10025390237569809,-0.21247498691082
1772797312221614600,9.248614501953124,0.966697096824646,-0.13452212512493134,-0.1730990707874298
1772797312231640600,9.258640625,0.9035335779190063,-0.16728779673576355,-0.17487381398677826
1772797312241666600,9.26866650390625,0.8701316714286804,-0.0718022808432579,-0.21137988567352295
1772797312251692500,9.278692626953125,0.8298494815826416,-0.06953860074281693,-0.2573183476924896
1772797312261718800,9.28871875,0.7845256924629211,-0.08523286879062653,-0.2897242307662964
1772797312271744800,9.298744873046875,0.7496593594551086,0.009130647405982018,-0.3186812996864319
1772797312281771800,9.308771728515625,0.721027672290802,0.05794559046626091,-0.34210968017578125
1772797312291797800,9.3187978515625,0.6363993287086487,0.044386640191078186,-0.36102238297462463
1772797312301823700,9.32882373046875,0.5382354855537415,0.009443835355341434,-0.350650429725647
1772797312311849500,9.338849365234376,0.44565922021865845,-0.004173705819994211,-0.2957935631275177
1772797312321875500,9.34887548828125,0.3599427342414856,-0.0206309761852026,-0.2188660353422165
1772797312331901400,9.3589013671875,0.28912901878356934,-0.04608307406306267,-0.12958568334579468
1772797312341928400,9.368928466796875,0.24959252774715424,-0.0365457609295845,-0.05450904741883278
1772797312351954400,9.378954345703125,0.2365582138299942,-0.06530257314443588,-0.0065079666674137115
1772797312361980400,9.38898046875,0.24358229339122772,-0.10331173986196518,0.03549034893512726
1772797312372006400,9.39900634765625,0.2428094446659088,-0.12083001434803009,0.08521050214767456
1772797312382032400,9.409032470703124,0.2664508521556854,-0.1559070348739624,0.12225906550884247
1772797312392058600,9.41905859375,0.28897082805633545,-0.18860852718353271,0.1449396163225174
1772797312402085600,9.429085693359376,0.3174847662448883,-0.2027754783630371,0.13947694003582
1772797312412111600,9.439111572265626,0.3351377844810486,-0.18424972891807556,0.10238149762153625
1772797312422137600,9.4491376953125,0.3458420932292938,-0.15726551413536072,0.05609442666172981
1772797312432163600,9.45916357421875,0.3520563244819641,-0.11915595084428787,0.011699533089995384
1772797312442189600,9.469189453125,0.36321789026260376,-0.09315817058086395,-0.028366660699248314
1772797312452215600,9.479215576171875,0.39592283964157104,-0.06415022164583206,-0.07164089381694794
1772797312462242600,9.48924267578125,0.44269245862960815,-0.033422406762838364,-0.09884481877088547
1772797312472268500,9.4992685546875,0.4798499643802643,-0.03212837502360344,-0.11335345357656479
1772797312482294500,9.50929443359375,0.5126259922981262,-0.02412903867661953,-0.12206359207630157
1772797312492320500,9.519320556640626,0.5357632637023926,-0.009849701076745987,-0.13181449472904205
1772797312502346500,9.529346435546875,0.5735011100769043,0.012622318230569363,-0.14293985068798065
1772797312512372500,9.53937255859375,0.6296277642250061,0.0335819274187088,-0.16427363455295563
1772797312522398500,9.5493984375,0.6961183547973633,0.05854986235499382,-0.17681153118610382
1772797312532425500,9.559425537109375,0.7667874693870544,0.0628223717212677,-0.16609469056129456
1772797312542451700,9.56945166015625,0.8163318634033203,0.06386686116456985,-0.1083589643239975
1772797312552477700,9.579477783203124,0.8317608833312988,0.05359984561800957,0.017856229096651077
1772797312562503700,9.589503662109376,0.8097218871116638,0.006472546607255936,0.2139756679534912
1772797312572529700,9.59952978515625,0.7468528747558594,-0.062001585960388184,0.45026305317878723
1772797312582555600,9.6095556640625,0.68888920545578,-0.17377819120883942,0.6981894969940186
1772797312592582400,9.61958251953125,0.6102167367935181,-0.30635273456573486,0.9595299959182739
1772797312602608400,9.6296083984375,0.48378798365592957,-0.4194316267967224,1.1829159259796143
1772797312612634400,9.63963427734375,0.3762463331222534,-0.4337458610534668,1.2457258701324463
1772797312622660400,9.649660400390625,0.3332783579826355,-0.3786943256855011,1.055767297744751
1772797312632686600,9.6596865234375,0.2878967523574829,-0.2902621924877167,0.7269830703735352
1772797312642712600,9.669712646484374,0.19608056545257568,-0.2352583259344101,0.45383432507514954
1772797312652739600,9.679739501953126,0.09286282956600189,-0.22749626636505127,0.30043360590934753
1772797312662765600,9.689765625,0.020731642842292786,-0.21054579317569733,0.21255195140838623
1772797312672791600,9.69979150390625,-0.0194914098829031,-0.15999498963356018,0.1764482706785202
1772797312682817500,9.709817626953125,-0.019996611401438713,-0.10400816053152084,0.19835516810417175
1772797312692843500,9.719843505859375,0.007208378054201603,-0.05500439554452896,0.2832471430301666
1772797312702869500,9.729869384765625,0.08769389986991882,-0.026873160153627396,0.42872685194015503
1772797312712896500,9.739896484375,0.23658697307109833,0.019226158037781715,0.5677022933959961
1772797312722922500,9.749922607421874,0.4397408962249756,0.08015981316566467,0.6274013519287109
1772797312732948500,9.759948486328126,0.6702313423156738,0.148912250995636,0.6002687811851501
1772797312742974500,9.769974365234376,0.8436684012413025,0.15220125019550323,0.4846058189868927
1772797312753000400,9.78000048828125,0.9546425938606262,0.10281692445278168,0.34648603200912476
1772797312763026400,9.7900263671875,1.0290968418121338,0.046355780214071274,0.21677492558956146
1772797312773052400,9.800052490234375,1.0886198282241821,-0.019278356805443764,0.09526633471250534
1772797312783079700,9.81007958984375,1.129197597503662,-0.1115020290017128,-0.02448137477040291
1772797312793105700,9.820105712890625,1.147658109664917,-0.1876005232334137,-0.1253749579191208
1772797312803131600,9.830131591796874,1.1565991640090942,-0.22069935500621796,-0.19067168235778809
1772797312813157600,9.84015771484375,1.1272982358932495,-0.2698242962360382,-0.2453056275844574
1772797312823183600,9.85018359375,1.0784974098205566,-0.28856360912323,-0.2508937418460846
1772797312833209600,9.860209716796875,1.0157290697097778,-0.28302183747291565,-0.22974930703639984
1772797312843236400,9.870236328125,0.956969141960144,-0.2683955132961273,-0.1490347534418106
1772797312853262300,9.880262451171875,0.9253094792366028,-0.2350657731294632,-0.03918815031647682
1772797312863288300,9.890288330078125,0.9255038499832153,-0.17988455295562744,0.08987636119127274
1772797312873314600,9.900314453125,0.9526417255401611,-0.09572732448577881,0.23742400109767914
1772797312883340500,9.910340576171874,0.9857613444328308,-0.037210218608379364,0.37275201082229614
1772797312893366500,9.920366455078126,1.016965389251709,-0.03235341235995293,0.468705415725708
1772797312903392500,9.930392578125,1.0304532051086426,-0.015471368096768856,0.4989541471004486
1772797312913419500,9.94041943359375,1.0572896003723145,0.037944186478853226,0.4699920117855072
1772797312923445500,9.950445556640625,1.0752760171890259,0.06012911722064018,0.3750084936618805
1772797312933471500,9.960471435546875,1.0754129886627197,0.054908789694309235,0.26306653022766113
1772797312943497500,9.97049755859375,1.0852583646774292,0.082965187728405,0.15414056181907654
1772797312953523500,9.9805234375,1.0861427783966064,0.07110773026943207,0.04693049192428589
1772797312963549700,9.9905498046875,1.0879569053649902,0.07213278114795685,-0.04338102787733078
1772797312973576400,10.000576416015624,1.0920507907867432,0.07802049815654755,-0.12350516021251678
1772797312983602400,10.0106025390625,1.098798394203186,0.07278738915920258,-0.20493610203266144
1772797312993628400,10.02062841796875,1.1058690547943115,0.055208925157785416,-0.2810830771923065
1772797313003654400,10.030654296875,1.1117805242538452,0.008017180487513542,-0.33013689517974854
1772797313013680400,10.040680419921875,1.119403600692749,-0.06621470302343369,-0.3400196135044098
1772797313023706400,10.050706298828125,1.1159241199493408,-0.12098554521799088,-0.3234803378582001
1772797313033732400,10.060732421875,1.0973211526870728,-0.11533164978027344,-0.2600574195384979
1772797313043759600,10.070759521484375,1.0627479553222656,-0.0629347562789917,-0.16371037065982819
1772797313053785600,10.08078564453125,1.021933674812317,-0.00833542738109827,-0.059311527758836746
1772797313063811600,10.0908115234375,0.9939196705818176,0.02828436903655529,0.03020317666232586
1772797313073837600,10.100837646484376,0.9709424376487732,0.06305992603302002,0.1071925014257431
1772797313083863600,10.110863525390625,0.9500606060028076,0.08282164484262466,0.17350254952907562
1772797313093889500,10.1208896484375,0.9237695932388306,0.10439245402812958,0.23846343159675598
1772797313103916300,10.130916259765625,0.8953605890274048,0.0973057821393013,0.2716839611530304
1772797313113942500,10.140942626953125,0.8826965093612671,0.11915302276611328,0.2670564651489258
1772797313123968500,10.150968505859375,0.8853463530540466,0.16777755320072174,0.21889878809452057
1772797313133994500,10.160994384765624,0.9076060652732849,0.23924720287322998,0.14697320759296417
1772797313144020500,10.1710205078125,0.9588794112205505,0.3000277280807495,0.07083822041749954
1772797313154046500,10.18104638671875,1.027286171913147,0.3458748459815979,0.005242698825895786
1772797313164073500,10.191073486328126,1.1104178428649902,0.37696751952171326,-0.017293769866228104
1772797313174099500,10.201099365234375,1.1729605197906494,0.3852081298828125,-0.003305249148979783
1772797313184125400,10.21112548828125,1.2020654678344727,0.3298817574977875,0.018916167318820953
1772797313194151400,10.2211513671875,1.2040742635726929,0.2921735346317291,0.01756594330072403
1772797313204177700,10.231177734375,1.1813180446624756,0.25933435559272766,-0.022156966850161552
1772797313214203600,10.24120361328125,1.1544286012649536,0.20804907381534576,-0.08204879611730576
1772797313224229600,10.251229736328124,1.1018821001052856,0.16557404398918152,-0.12454086542129517
1772797313234256400,10.26125634765625,1.0345747470855713,0.1182938888669014,-0.11819934099912643
1772797313244282400,10.271282470703126,0.9801820516586304,0.048061802983284,-0.04812039062380791
1772797313254308400,10.281308349609375,0.9326685667037964,-0.03225061297416687,0.0507393442094326
1772797313264334300,10.291334228515625,0.8769773244857788,-0.1036374419927597,0.17080315947532654
1772797313274360300,10.3013603515625,0.8198592066764832,-0.175212562084198,0.27553170919418335
1772797313284386300,10.31138623046875,0.7742986083030701,-0.22008016705513,0.36105966567993164
1772797313294413600,10.32141357421875,0.7362353801727295,-0.24097773432731628,0.44041866064071655
1772797313304439600,10.331439453125,0.707281231880188,-0.23834173381328583,0.5134771466255188
1772797313314465500,10.341465576171874,0.7260935306549072,-0.2512072026729584,0.538416862487793
1772797313324491500,10.351491455078126,0.8281314969062805,-0.19656045734882355,0.39412519335746765
1772797313334516000,10.361515869140625,0.945107102394104,-0.048722267150878906,0.09419786930084229
1772797313344542000,10.3715419921875,0.9807271957397461,0.10584680736064911,-0.26837286353111267
1772797313354568200,10.381568115234375,0.9308893084526062,0.2030990570783615,-0.6187319159507751
1772797313364595200,10.39159521484375,0.9020835161209106,0.23140046000480652,-0.8802972435951233
1772797313374621200,10.40162109375,0.910722017288208,0.2551840841770172,-0.9420849680900574
1772797313384647200,10.411647216796876,0.9283428192138672,0.2263905256986618,-0.8165931105613708
1772797313394673200,10.421673095703126,0.9580612778663635,0.15321405231952667,-0.5709303617477417
1772797313404699100,10.43169921875,1.0028340816497803,0.12491157650947571,-0.2745383381843567
1772797313414725000,10.44172509765625,1.0642106533050537,0.10944739729166031,0.015253787860274315
1772797313424752000,10.451752197265625,1.139742374420166,0.08561157435178757,0.2859151065349579
1772797313434778000,10.461778076171875,1.203616976737976,0.06069956719875336,0.5329318046569824
1772797313444804000,10.47180419921875,1.2334201335906982,0.02623266912996769,0.7277849316596985
1772797313454830000,10.481830078125,1.235228419303894,0.0005960154230706394,0.8633975982666016
1772797313464856000,10.49185595703125,1.2073630094528198,0.002237587934359908,0.9070148468017578
1772797313474882000,10.501882080078126,1.1607704162597656,0.03485838323831558,0.8637643456459045
1772797313484908000,10.511907958984375,1.1139017343521118,0.10123047977685928,0.7489280104637146
1772797313494935000,10.52193505859375,1.0734091997146606,0.16945721209049225,0.6045482158660889
1772797313504961000,10.5319609375,1.0472502708435059,0.2264254093170166,0.4495471715927124
1772797313514987300,10.5419873046875,1.0328625440597534,0.23459891974925995,0.33224692940711975
1772797313525013200,10.55201318359375,1.0284384489059448,0.239524707198143,0.262671560049057
1772797313535039200,10.562039306640624,1.0385524034500122,0.20850233733654022,0.1871376633644104
1772797313545065200,10.572065185546874,1.0590747594833374,0.16554822027683258,0.1130562499165535
1772797313555092200,10.58209228515625,1.0668703317642212,0.13079822063446045,0.025363413617014885
1772797313565118000,10.592117919921876,1.0672636032104492,0.10609447956085205,-0.07067789882421494
1772797313575144000,10.60214404296875,1.0635792016983032,0.08484671264886856,-0.1583491563796997
1772797313585170000,10.612169921875,1.0488077402114868,0.08406081795692444,-0.21292585134506226
1772797313595196200,10.622196044921875,1.0391672849655151,0.08933547139167786,-0.2278270423412323
1772797313605222100,10.63222216796875,1.0475528240203857,0.08930165320634842,-0.20471026003360748
1772797313615248100,10.642248046875,1.0639193058013916,0.09239917248487473,-0.15281377732753754
1772797313625275100,10.652275146484374,1.0639094114303589,0.11187700182199478,-0.09133017808198929
1772797313635301000,10.662301025390626,1.0576530694961548,0.10891849547624588,-0.03869359940290451
1772797313645327000,10.6723271484375,1.0463844537734985,0.10747985541820526,-0.01883227750658989
1772797313655353000,10.68235302734375,1.050680160522461,0.11396811157464981,-0.032754749059677124
1772797313665379000,10.692379150390625,1.0740480422973633,0.11782330274581909,-0.0724603533744812
1772797313675405000,10.702405029296875,1.097731590270996,0.1359352022409439,-0.11471592634916306
1772797313685431300,10.712431396484375,1.1243804693222046,0.17097094655036926,-0.15456640720367432
1772797313695458000,10.7224580078125,1.1331534385681152,0.18373148143291473,-0.16114334762096405
1772797313705484000,10.732484130859374,1.128983736038208,0.1656225174665451,-0.12517017126083374
1772797313715510000,10.742510009765626,1.1136170625686646,0.17602190375328064,-0.07126033306121826
1772797313725536000,10.752535888671876,1.0988115072250366,0.20086678862571716,-0.03976019471883774
1772797313735562000,10.76256201171875,1.0701409578323364,0.19964680075645447,-0.03490924835205078
1772797313745588000,10.772587890625,1.03604257106781,0.16993364691734314,-0.04573925957083702
1772797313755615200,10.782615234375,0.9845080375671387,0.12059565633535385,-0.05644277110695839
1772797313765641200,10.79264111328125,0.9318174123764038,0.08090043812990189,-0.0693894624710083
1772797313775667200,10.802667236328125,0.8897693157196045,0.028055602684617043,-0.09585382789373398
1772797313785693200,10.812693115234374,0.8561202883720398,-0.005361475981771946,-0.12404977530241013
1772797313795719200,10.82271923828125,0.831081211566925,-0.04280472174286842,-0.15323562920093536
1772797313805745200,10.8327451171875,0.8156194686889648,-0.05588563531637192,-0.1863059550523758
1772797313815771100,10.842771240234375,0.8093780875205994,-0.0325760543346405,-0.21626625955104828
1772797313825798100,10.852798095703125,0.8253455758094788,0.03356994315981865,-0.22257527709007263
1772797313835824000,10.86282421875,0.8381937146186829,0.1118498370051384,-0.21448220312595367
1772797313845850000,10.87285009765625,0.7933314442634583,0.39389458298683167,-0.00535428524017334
1772797313855876000,10.8828759765625,0.5944457650184631,0.2325648069381714,0.04691797494888306
1772797313865902000,10.892902099609374,0.4812459945678711,0.08646431565284729,-0.03238989785313606
1772797313875928000,10.902927978515624,0.48921921849250793,0.01224308367818594,-0.15512540936470032
1772797313885955000,10.912955078125,0.5269759297370911,-0.005841644015163183,-0.22676204144954681
1772797313895981000,10.92298095703125,0.573084831237793,-0.043350934982299805,-0.26993295550346375
1772797313906007000,10.933007080078125,0.6114245057106018,-0.07904128730297089,-0.3158852458000183
1772797313916033000,10.943032958984375,0.6420140862464905,-0.08976690471172333,-0.3554483652114868
1772797313926059300,10.953059326171875,0.672520101070404,-0.09987013787031174,-0.37371712923049927
1772797313936085200,10.963085205078125,0.7028441429138184,-0.11777456849813461,-0.3431997001171112
1772797313946111200,10.973111328125,0.7298898696899414,-0.11879083514213562,-0.2590334415435791
1772797313956138200,10.98313818359375,0.7301951050758362,-0.127484992146492,-0.08768697828054428
