time,seconds_elapsed,z,y,x
1772789271597908200,0.074908203125,-0.1702519372433424,-0.0075122387936338774,-0.04329568249955773
1772789271607974400,0.084974365234375,-0.22998481367230414,0.004848901335895061,-0.07961202750578522
1772789271618040300,0.095040283203125,-0.3635504035532474,-0.022019962497800586,-0.020862243830040095
1772789271628106200,0.105106201171875,-0.48746378346979613,-0.0785783370764926,-0.02673310862481594
1772789271638172400,0.11517236328125,-0.549087588211894,-0.08688793679289519,-0.10478175927139818
1772789271648238000,0.125238037109375,-0.6548959871172905,-0.030600451577454803,-0.18433920704573392
1772789271658305300,0.13530517578125,-0.6063678107917309,0.0871587530909106,-0.22200265581198037
1772789271668371200,0.14537109375,-0.4370160372585058,0.10173475625831634,-0.21230068842172622
1772789271678437000,0.15543701171875,-0.34875264739394185,0.16046952502802014,-0.21963161583170293
1772789271688503300,0.16550341796875,-0.2948860326498747,0.17202325776480137,-0.1675881248615682
1772789271698569200,0.1755693359375,-0.16427520092129708,0.0825586388843134,-0.18492942802384493
1772789271708635400,0.185635498046875,-0.16179858167469502,0.05427329584881663,-0.23834544945619998
1772789271718701300,0.195701416015625,-0.20427578739821908,0.10112550178617238,-0.27343970532156525
1772789271728767500,0.205767578125,-0.21821254281401634,0.2620726542633027,-0.2204072033140808
1772789271738833200,0.215833251953125,-0.14393676176965237,0.4187275163739919,-0.1436002232916653
1772789271748899300,0.2258994140625,-0.06271393806636333,0.3048964084021747,-0.12135375856161117
1772789271758965200,0.23596533203125,0.08939210163354873,0.19786095191985367,-0.24846936858557164
1772789271769031200,0.24603125,0.28311551535725593,-0.02955992954857647,-0.2426142128165811
1772789271779097300,0.256097412109375,0.19570611197352408,-0.41995011697150764,-0.5308852843061089
1772789271789163300,0.266163330078125,0.19920330643951892,-0.354942807270959,-0.590199971855618
1772789271799229400,0.2762294921875,0.2070382378488779,-0.11851444348245858,-0.2628194905752316
1772789271809295400,0.28629541015625,0.11905600301325321,0.013857260438799857,-0.11498736533485353
1772789271819361300,0.296361328125,0.08339256895780563,-0.1421452752429992,0.001736943327821791
1772789271829427200,0.30642724609375,-0.012166823133826256,-0.17732041432484982,-0.0025191797466948625
1772789271839494100,0.316494140625,-0.04387596660554409,-0.05559942988604307,-0.08917619386054575
1772789271849560300,0.326560302734375,-0.01172434006333351,0.07493972484581173,-0.08846413660105318
1772789271859626200,0.336626220703125,-0.1436994458824396,0.1613866398729384,-0.10331661862228066
1772789271869692400,0.3466923828125,-0.22391864550113677,0.21191344266980885,-0.1013645347064361
1772789271879758300,0.35675830078125,-0.29935820962786674,0.16291699124537407,-0.07097904105391353
1772789271889824500,0.366824462890625,-0.3216244019716978,0.015635449092462658,-0.15748059061141684
1772789271899890200,0.37689013671875,-0.11233107867240905,-0.03673654317967594,-0.2875870347481221
1772789271909956000,0.3869560546875,0.030306875458359715,-0.0075440587040036915,-0.26357617242773995
1772789271920022300,0.397022216796875,0.025893735191226005,-0.03296016644611954,-0.16867772846287116
1772789271930088200,0.407088134765625,0.044294484278559684,-0.16821809332817791,-0.07716684457706287
1772789271940154400,0.417154296875,-0.02919569934606552,-0.3562434415407479,-0.011451094346214085
1772789271950220300,0.42722021484375,-0.11204466294646262,-0.488166232650727,0.027237642347160727
1772789271960286500,0.437286376953125,-0.23250761014819143,-0.3485916116133332,-0.16718920693816616
1772789271970352400,0.447352294921875,-0.3900912044763565,0.013089271740987896,-0.4196224924523383
1772789271980418300,0.457418212890625,-0.3332441126167774,0.15929916607439518,-0.32157099128402766
1772789271990484200,0.467484130859375,-0.15075228700339793,0.10242825494781135,-0.2726439701003022
1772789272000550100,0.477550048828125,-0.1527232948154211,0.03696012280248105,-0.3034995472162962
1772789272010616300,0.4876162109375,-0.19773264936506746,-0.008415361645817757,-0.27909595925128083
1772789272020682200,0.49768212890625,-0.23750001160800455,-0.09741787943989037,-0.26144590066708623
1772789272030749400,0.50774951171875,-0.2870247977554798,-0.14620171102695168,-0.15170516728144137
1772789272040815400,0.5178154296875,-0.31737317426800726,-0.16288177380152047,-0.24946418830920009
1772789272050877200,0.527877197265625,-0.2508013917297125,-0.12092355045080184,-0.26161599653698503
1772789272060943000,0.537943115234375,-0.02124620164632797,-0.07123020280338824,-0.25959643687549977
1772789272071009300,0.54800927734375,0.15819325065910816,-0.008114479003101588,-0.27600807623853907
1772789272081075200,0.5580751953125,0.22174071694016456,0.057350876663252705,-0.2782294055498205
1772789272091140900,0.568140869140625,0.17500176211893556,0.09611907180100679,-0.2631168295539915
1772789272101207000,0.57820703125,0.054635261029005046,0.09267207315228879,-0.2588623504472896
1772789272111273000,0.58827294921875,-0.03049976768195629,0.09534662612378597,-0.27596109529165547
1772789272121339100,0.598339111328125,-0.07325111417174339,0.05912723868601024,-0.2733844680029899
1772789272131405000,0.608405029296875,-0.08323708613514899,-0.008265943237766624,-0.25033653243063014
1772789272141471200,0.61847119140625,-0.0962736778408289,-0.0681461191829294,-0.21260849399557336
1772789272151537200,0.628537109375,-0.2785422160923481,-0.10394085146784782,-0.1692566243293695
1772789272161603000,0.63860302734375,-0.42912732983529567,-0.0050279842298477885,-0.07112157306345179
1772789272171669000,0.6486689453125,-0.3628080607533455,0.050237099135294554,-0.04807151859924197
1772789272181735000,0.65873486328125,-0.16720716271996497,0.05054156197458505,-0.1248283941359259
1772789272191801000,0.668801025390625,-0.04361117818951606,0.07624496222548187,-0.1849159657540731
1772789272201868000,0.678867919921875,-0.05132219095826149,0.013855945264548062,-0.15354334249403326
1772789272211934200,0.688934326171875,-0.04653846381306648,0.03239690654017031,-0.18269598814966156
1772789272222000000,0.699000244140625,-0.05794365492463111,0.004246405398100614,-0.23106754914140326
1772789272232066000,0.709066162109375,-0.06391688411533832,-0.020137509752064943,-0.26617751403255385
1772789272242132200,0.71913232421875,-0.06121230133175849,-0.02767681921571493,-0.23740866179643197
1772789272252198000,0.729197998046875,0.0067740241795778275,-0.029527269387990236,-0.20332765636052935
1772789272262264000,0.73926416015625,0.09720306764543056,-0.06208206990361213,-0.2188260350698605
1772789272272330000,0.749330078125,0.08695581439733505,-0.04823934944681823,-0.24006721348119897
1772789272282396200,0.759396240234375,-0.03212181592583656,-0.03667918696925044,-0.2317620524778962
1772789272292462000,0.769462158203125,-0.0909796630859375,-0.037434170055016876,-0.1819556911763735
1772789272302528300,0.7795283203125,-0.07925766111016273,-0.07197364158183336,-0.16807985390126703
1772789272312594200,0.78959423828125,-0.10573474914729594,-0.09627864627689123,-0.2091463343103416
1772789272322660000,0.79966015625,-0.15670681149363516,-0.05811776938252151,-0.20749279494965447
1772789272332726000,0.80972607421875,-0.1878542294293642,-0.020496698453277347,-0.17564294609930364
1772789272342792000,0.8197919921875,-0.14172025476396083,-0.031954642665386196,-0.1508493176370859
1772789272352858000,0.829858154296875,-0.10614975968897342,-0.04722491170726716,-0.16971837835591286
1772789272362924000,0.839924072265625,-0.1296218206912279,-0.023704481518641112,-0.184290362935327
1772789272372991000,0.849990966796875,-0.19389058698415756,-0.005463672233372926,-0.14624439939120784
1772789272383057200,0.86005712890625,-0.2438414895892143,-0.005348667551577091,-0.09938612903924658
1772789272393123000,0.870123046875,-0.2291074463158846,-0.016076324727758766,-0.13148640898671
1772789272403189200,0.880189208984375,-0.20573358499109745,0.02924450692385435,-0.14879684208668767
1772789272413255000,0.8902548828125,-0.1474164205789566,0.05218867159448564,-0.12630940820761025
1772789272423321000,0.900321044921875,-0.059596682828664774,0.018837971460819242,-0.12800760869393124
1772789272433387000,0.910386962890625,-0.04417699537873268,0.0007362783852964639,-0.1698947030371986
1772789272443453200,0.920453125,-0.049393853244185444,0.049433162341266865,-0.18559463220061734
1772789272453519000,0.93051904296875,-0.070148471981287,0.07079962936639786,-0.1755737167879939
1772789272463585000,0.9405849609375,-0.05480944855213165,0.03682553663738072,-0.17403134618420152
1772789272473651200,0.950651123046875,-0.08194938441216945,-0.0018058803781867026,-0.17508456329787148
1772789272483717000,0.960717041015625,-0.10708616375625132,-0.00791501090824604,-0.15219178175460546
1772789272493783000,0.970782958984375,-0.12857961816191674,-0.021846578692272304,-0.14370510843824594
1772789272503849000,0.980848876953125,-0.118032505184412,-0.028535774132609364,-0.13975697360066697
1772789272513915100,0.9909150390625,-0.10131576366126537,-0.027322525885328647,-0.16531371365617958
1772789272523981000,1.00098095703125,-0.10710837558805941,-0.010796338498219846,-0.15854730652747676
1772789272534047200,1.011047119140625,-0.05481470924913883,0.024432795793190597,-0.17416607847977428
1772789272544114200,1.0211142578125,-0.02741407662630081,0.06459025333225726,-0.18243030468448995
1772789272554180000,1.03118017578125,-0.07588730789422989,0.03253266174905002,-0.15111810637479647
1772789272564246300,1.041246337890625,-0.11822539740800857,0.0067304772987961765,-0.1660198891641572
1772789272574312200,1.051312255859375,-0.14367957213819027,-0.0040692952655255795,-0.15270822511045262
1772789272584378000,1.061378173828125,-0.15720014796853066,0.010149053570628166,-0.17225372378611936
1772789272594444000,1.071444091796875,-0.17137889544665813,0.014508856215327976,-0.16393309121904895
1772789272604510000,1.081510009765625,-0.16988661106228828,0.006247589152678847,-0.14391078707817942
1772789272614576000,1.091576171875,-0.1865425623089075,0.013771993308141826,-0.14374388781236483
1772789272624642000,1.10164208984375,-0.17063655264675617,-0.004349135120213032,-0.17233488099724054
1772789272634708200,1.111708251953125,-0.21128478937745093,-0.0326520503450185,-0.16651698849871754
1772789272644774100,1.121774169921875,-0.22075755112171172,-0.05663242619559169,-0.1618656372952275
1772789272654840000,1.131840087890625,-0.15083528911173344,-0.1004443876542151,-0.14928016862422228
1772789272664906000,1.141906005859375,-0.07339607560038566,-0.05232727634757757,-0.13614336794707924
1772789272674972200,1.15197216796875,-0.07122983747720718,-0.03742028766013682,-0.14129718877999112
1772789272685038000,1.1620380859375,-0.09475041379630565,-0.025252149352058766,-0.12293105434831231
1772789272695104000,1.17210400390625,-0.10826222179830074,-0.023377660717070103,-0.13417062483569606
1772789272705170200,1.182170166015625,-0.09810907657444476,-0.03865253286883235,-0.13497140155825763
1772789272715237000,1.192237060546875,-0.11822598192989825,-0.0380135773781687,-0.184855632135272
1772789272725303300,1.20230322265625,-0.12924538859426973,0.02057502438649535,-0.18095562902204693
1772789272735369200,1.212369140625,-0.11595920604169369,0.0624666122417897,-0.18082738126618786
1772789272745435000,1.222434814453125,-0.11621756471693515,0.037033918691053984,-0.13972802150081842
1772789272755501000,1.2325009765625,-0.1529056656450033,0.014181304761394857,-0.113498314087186
1772789272765567000,1.24256689453125,-0.16197452276349067,-0.005250139080546796,-0.038703824664652345
1772789272775633200,1.252633056640625,-0.10448387230336666,-0.014292802311852574,-0.05666176188793033
1772789272785699000,1.262698974609375,-0.09397007707357406,0.013867343441396951,-0.09568051598696038
1772789272795765200,1.27276513671875,-0.06952829425632953,0.04783222995065153,-0.1127232745940797
1772789272805831200,1.2828310546875,-0.09184124835133552,0.04219696401003748,-0.09917966494802385
1772789272815897000,1.29289697265625,-0.12270166603922843,0.015693572487868367,-0.12746102592814712
1772789272825963000,1.302962890625,-0.15747487325668333,0.03471343985423445,-0.14378767215516416
1772789272836029000,1.31302880859375,-0.1916524526685476,0.06447985176034271,-0.17251107781436292
1772789272846095000,1.32309521484375,-0.21832360197305678,0.07797112843096256,-0.1821982860269025
1772789272856161000,1.3331611328125,-0.23846797985732554,0.08138367682080716,-0.17250771681349725
1772789272866227200,1.343227294921875,-0.18837036225795745,0.056337279173918065,-0.13243070409949867
1772789272876293000,1.353293212890625,-0.11668518222868442,-0.0003666778879240155,-0.11019947347119449
1772789272886360000,1.363360107421875,-0.08688625629246234,0.01383271051943302,-0.1170684824578464
1772789272896426200,1.37342626953125,-0.03045651306211948,0.11699866862464696,-0.22498262147083878
1772789272906492000,1.383491943359375,0.07701309705376624,0.003149440474249422,-0.05558068865295499
1772789272916558000,1.39355810546875,-0.04362462219297886,-0.03813124894108623,-0.17109774041771889
1772789272926624000,1.4036240234375,-0.09919394920170306,0.05155819167122244,-0.146139788239263
1772789272936690200,1.413690185546875,-0.097793434754014,0.030226321035437285,-0.12228544992115348
1772789272946756000,1.423756103515625,-0.11964520107805728,0.006919898923672735,-0.1282399744113907
1772789272956822300,1.433822265625,-0.1370376499056816,0.01533336087334901,-0.09703158353604376
1772789272966888200,1.44388818359375,-0.1970166100502014,0.024709713038429615,-0.07676401766352355
1772789272976953900,1.453953857421875,-0.19177227965593338,-0.014483721774071454,-0.01949069974850863
1772789272987020000,1.46402001953125,-0.1768658024251461,-0.07864000413585454,-0.03335742213539779
1772789272997086000,1.4740859375,-0.15870879896581172,-0.06509509758185594,-0.10408603209219873
1772789273007152000,1.484152099609375,-0.16680851879119873,-0.021365736372768878,-0.13450736424308268
1772789273017218000,1.494218017578125,-0.1829208646804094,0.0422490595234558,-0.15519768557231872
1772789273027284200,1.5042841796875,-0.18470599453151226,0.06743439071699976,-0.16285024615209548
1772789273037351200,1.51435107421875,-0.17197160064280032,0.041038551222532985,-0.13451196735296397
1772789273047417000,1.5244169921875,-0.16642273434400556,0.019486863823607564,-0.09693385878261178
1772789273057484000,1.534484130859375,-0.10716624325513839,0.05169080507494509,-0.09662585227936506
1772789273067550000,1.544550048828125,-0.052824996736645695,0.07337035663723945,-0.11768760073687881
1772789273077615900,1.554615966796875,0.015524901390075682,0.08416355333030223,-0.14649908653832971
1772789273087682000,1.56468212890625,0.053124271944165226,0.06622801060192286,-0.1443954653225839
1772789273097748000,1.574748046875,0.031178397595882413,0.025735183628648517,-0.11876242689415811
1772789273107814100,1.584814208984375,0.027995675906538963,0.03396382706332952,-0.1035930244108662
1772789273117879800,1.5948798828125,-0.011853519400954245,0.02287088023871183,-0.07551704980973153
1772789273127946000,1.604946044921875,-0.12315583954751491,-0.008114479003101588,-0.059686881862767036
1772789273138012000,1.615011962890625,-0.2918856817901134,-0.04447827988024801,-0.06005940496958792
1772789273148078000,1.625078125,-0.43106735798716544,-0.09046068071313201,-0.02630633458010852
1772789273158144000,1.63514404296875,-0.40970249839723105,-0.10007591966800392,-0.07160626957416534
1772789273168210000,1.6452099609375,-0.28687516015172004,-0.029895079787075517,-0.08330993217565119
1772789273178276000,1.655276123046875,-0.1738198588579893,-0.004678732400760054,-0.07095332209076732
1772789273188343000,1.665343017578125,-0.0020791443616151807,0.01760258444696665,-0.054970228604413564
1772789273198409000,1.675408935546875,0.10827332771420478,0.01810702683776617,-0.05205032256972045
1772789273208475000,1.685474853515625,0.1088736316949129,0.027137451642006635,-0.12556436199396848
1772789273218540800,1.695540771484375,0.019537059640884397,0.07132884087227284,-0.1764730767805129
1772789273228607000,1.70560693359375,-0.10187632015347481,0.05418313334733248,-0.08992785247806459
1772789273238673000,1.7156728515625,-0.28781974752545353,-0.19515695365816355,-0.023616255245916543
1772789273248739000,1.725739013671875,-0.3152238872796297,-0.13813625879734753,-0.0977245342362672
1772789273258805000,1.735804931640625,-0.13358195649385451,-0.04796009411402046,-0.11508662445824593
1772789273268871200,1.74587109375,0.10753683013319969,0.05331358397118747,-0.11853793395590037
1772789273278936800,1.755936767578125,0.04226093262434005,0.03364946388453245,-0.1111932337488979
1772789273289003000,1.7660029296875,-0.1161105972111225,-0.06006503099277615,-0.16577088283915073
1772789273299069000,1.77606884765625,-0.12230828280746936,-0.06280238353479653,-0.196240145784989
1772789273309134800,1.786134765625,-0.09615735798478126,-0.00032590748611837625,-0.2414219342920929
1772789273319201000,1.796200927734375,-0.12825170138180256,0.19415636178087442,-0.14022281928043812
1772789273329267000,1.806266845703125,-0.13637772469222545,0.0931014775454998,-0.07420315419957041
1772789273339333000,1.8163330078125,-0.12881401143968105,-0.2795951957440004,-0.17059136179815976
1772789273349400000,1.826400146484375,-0.19498364291787146,-0.048553712625615295,-0.04202909662984311
1772789273359466000,1.836466064453125,-0.1820417437583208,0.0999908352004364,-0.16768899142015725
1772789273369532000,1.846531982421875,-0.08829787665605544,-0.015302308147959411,-0.1462100769964978
1772789273379597800,1.856597900390625,-0.14030746535658836,0.07962769999895244,-0.1094501529412344
1772789273389664000,1.8666640625,-0.15708265906870364,0.07279036479219794,-0.1615123851444572
1772789273399730000,1.87672998046875,-0.212528651958704,0.06900514716506004,-0.1784623509015888
1772789273409796000,1.886796142578125,-0.285621945220232,0.05905037405751645,-0.19299327281825243
1772789273419862000,1.896862060546875,-0.22907938926517962,-0.02390530132036656,-0.20656612682510167
1772789273429928200,1.90692822265625,-0.12484627685248852,-0.0026136165644973517,-0.07317245944496244
1772789273439993900,1.916993896484375,-0.07657762824594974,0.05385306114275008,-0.1441503314550966
1772789273450059800,1.927059814453125,-0.0736515116661787,0.05889258967991918,-0.15099851684942842
1772789273460126000,1.9371259765625,-0.06599076777994632,0.06977631420064717,-0.14412760816663503
1772789273470191900,1.94719189453125,-0.0604319646090269,0.0943497971061617,-0.1849061932787299
1772789273480258000,1.957258056640625,-0.07237550038099289,0.10524477367326616,-0.14637944221403448
1772789273490325000,1.967324951171875,-0.10735095217227936,-0.044300110301747915,-0.02682783770356327
1772789273500391000,1.977390869140625,-0.13776070348322392,-0.012002499417588113,-0.04170625788364559
1772789273510457000,1.98745703125,-0.21436989591121672,0.0936996261017397,0.03578990997932851
1772789273520523000,1.99752294921875,-0.20396365270912645,0.05006013513319194,0.022597287461720406
1772789273530589000,2.0075888671875,-0.26571663678884505,-0.007396065068058669,-0.02757562386356294
1772789273540654800,2.01765478515625,-0.23317571866810322,0.018754348297975957,-0.06286774038858711
1772789273550721000,2.027720947265625,-0.14097148222327233,-0.062736003767699,0.0008462415657937526
1772789273560787000,2.037786865234375,-0.10306932933032512,-0.15250015358403324,-0.08174808968640863
1772789273570853000,2.04785302734375,-0.03118248924911022,-0.02134326881263405,-0.03740819536354392
1772789273580919000,2.0579189453125,0.02444528994858265,0.013617314203083514,-0.08733549789730459
1772789273590985000,2.06798486328125,-0.008802899658679962,-0.02618135649356991,-0.14275719659626482
1772789273601051000,2.07805078125,-0.0717775344878435,0.0005744388870894909,-0.161203867184557
1772789273611116800,2.08811669921875,-0.0870575212061405,-0.015919453665614126,-0.1267087097235024
1772789273621183000,2.098182861328125,-0.1519429580926895,-0.03583893675282597,-0.08829550203587859
1772789273631249000,2.108248779296875,-0.21896599152982232,-0.01976443865597248,-0.0421761769503355
1772789273641315800,2.11831591796875,-0.20162147349715231,0.012643610332719981,-0.02626392021048814
1772789273651382000,2.128382080078125,-0.16810966451764106,0.05272672399394214,-0.09512111027222127
1772789273661448000,2.138447998046875,-0.17249240964651108,0.052745209498703476,-0.0904092793194577
1772789273671514000,2.14851416015625,-0.15968787313103674,0.042625345489941534,-0.13771821604836731
1772789273681580000,2.158580078125,-0.11772212406098842,0.04284026688225567,-0.1688754977909848
1772789273691646000,2.16864599609375,-0.1022860699981451,0.0476416758146137,-0.18439820722397415
1772789273701712000,2.1787119140625,-0.10300795453190803,0.06699409960359334,-0.06557166558504104
1772789273711778000,2.188778076171875,-0.08869359797537327,0.051462914603203534,-0.06138287212569266
1772789273721844000,2.198843994140625,-0.12253449277877806,0.037274668644368646,-0.048989364096522325
1772789273731910000,2.208909912109375,-0.13282500064671038,0.03443506130427122,-0.05118464565109461
1772789273741976000,2.21897607421875,-0.09354162252843379,0.03180551651827991,-0.06425035385340452
1772789273752042000,2.2290419921875,-0.0642097295820713,0.03120382429808378,-0.08305537289269269
1772789273762108000,2.23910791015625,-0.09512333876192569,0.01906060123555362,-0.07286459907218813
1772789273772173800,2.249173828125,-0.08252981464862823,0.03636588323637843,-0.043618959637172515
1772789273782240800,2.25924072265625,-0.07879647333920002,0.0017865911558270454,-0.02704305135682225
1772789273792307000,2.269306884765625,-0.06580722790658473,-0.033840894803404804,-0.009999927423521876
1772789273802372900,2.279372802734375,-0.10317863492369651,-0.017089228097349404,-0.004781242927163839
1772789273812439000,2.28943896484375,-0.140296943962574,-0.04432444102540612,-0.027137926566042005
1772789273822505000,2.2995048828125,-0.15343991865217685,-0.035965485741943116,-0.03242700941748917
1772789273832571100,2.309571044921875,-0.18193477625250815,-0.00930975320227444,-0.02189644571598619
1772789273842637000,2.319636962890625,-0.17164368386268614,-0.023011896144598722,-0.031289201026596124
1772789273852703000,2.329702880859375,-0.0891670607060194,-0.014592296715080737,-0.030765104087255895
1772789273862769000,2.339768798828125,-0.05419219343662262,-0.03256166864782572,-0.047240072743780906
1772789273872834800,2.349834716796875,-0.025568156498670575,-0.03989281525351107,-0.07949958010725676
1772789273882901000,2.35990087890625,-0.01624035618305206,-0.011411401656642556,-0.10300119599755853
1772789273892967000,2.369966796875,-0.028825112468004226,-0.02357186811491847,-0.10521375748049468
1772789273903033000,2.380033203125,-0.07539689402878284,0.0010982070328667758,-0.09218224380873143
1772789273913099000,2.39009912109375,-0.11920271800756453,0.007119476616382598,-0.03142893829084933
1772789273923166000,2.400166015625,-0.17140812154114246,-0.03053399874512106,-0.03855378520209342
1772789273933232000,2.410232177734375,-0.17787936338186264,-0.03731759447064251,-0.06534242340642958
1772789273943297800,2.4202978515625,-0.14909458292424677,-0.04019289417862892,-0.07794961071889847
1772789273953364000,2.430364013671875,-0.11896247951090336,-0.040433242273144425,-0.10379537858255207
1772789273963430000,2.440429931640625,-0.080723057487607,-0.010984700677171349,-0.11317227873690426
1772789273973496000,2.45049609375,-0.10453531022965908,-0.02185615023821592,-0.0799993463229388
1772789273983562000,2.46056201171875,-0.1679249556005001,-0.05585866534411907,-0.08837141681630165
1772789273993628000,2.4706279296875,-0.16521335855424404,-0.054253385571949184,-0.10204002281520515
1772789274003694000,2.480694091796875,-0.12441197708845138,-0.043271351775899525,-0.09364910149089992
1772789274013759700,2.490759765625,-0.12630933514237402,-0.03942841261215508,-0.07990067172143608
1772789274023826000,2.500825927734375,-0.11114625280201434,-0.052284423586539924,-0.0742354125013575
1772789274033891800,2.510891845703125,-0.11109481487572193,-0.04650277144517749,-0.10021039623524992
1772789274043958000,2.5209580078125,-0.07644727986454963,0.02100687646511942,-0.12844280350711196
1772789274054028000,2.531028076171875,-0.049103345865011215,0.04736271274276078,-0.08691288857106119
1772789274064095000,2.541094970703125,-0.0362812736928463,0.02271061164308339,-0.08104297362435608
1772789274074161200,2.5511611328125,-0.09422492861747742,0.026643822906166313,-0.07908274293467402
1772789274084227000,2.56122705078125,-0.11538871267735958,0.03161525464318692,-0.051860499086044724
1772789274094293000,2.57129296875,-0.07955635179579257,0.025758856765180825,-0.051904192097298796
1772789274104359200,2.581359130859375,-0.11263736814260482,0.04073032552357763,-0.007814180882275104
1772789274114425000,2.591425048828125,-0.122894558262825,0.024913017058186233,0.01186948415506631
1772789274124491000,2.601490966796875,-0.15117840346097947,0.0035401568248867987,0.003375504315085709
1772789274134557000,2.611556884765625,-0.15777882463932036,-0.0026406141692772505,-0.02642378694731742
1772789274144623000,2.621623046875,-0.14693769715130328,-0.006549823502264917,-0.05819090768396854
1772789274154689000,2.63168896484375,-0.12496318123042582,-0.017758030737005173,-0.062041701360605654
1772789274164755200,2.641755126953125,-0.12475859856903553,-0.02478445877507329,-0.07145944498199969
1772789274174821000,2.651821044921875,-0.14073533537983893,-0.0409319855755195,-0.07426164292115718
1772789274184887300,2.66188720703125,-0.16566168684363364,-0.0505405390612781,-0.09049421765655279
1772789274194953200,2.671953125,-0.1697930875599384,-0.05019377145022154,-0.07222330549396574
1772789274205020200,2.682020263671875,-0.16279986767172813,-0.053354719699174165,-0.057813525738939636
1772789274215086000,2.692086181640625,-0.15097674340903758,-0.011822649338655173,-0.03984335008859634
1772789274225152000,2.702152099609375,-0.15797463947236537,-0.011608970055356622,-0.05069010359980166
1772789274235218200,2.71221826171875,-0.1403355224072933,-0.014180391445942223,-0.06949526876956225
1772789274245284000,2.7222841796875,-0.09464403081238269,-0.011864625316858292,-0.07946958682779222
1772789274255350000,2.73235009765625,-0.06160568456351757,0.013054346558079123,-0.08792831269130111
1772789274265416200,2.742416259765625,-0.06481354069411754,0.025381146026588974,-0.09967807945683597
1772789274275482000,2.752482177734375,-0.11273089164495467,0.02151278016064316,-0.07161036122739314
1772789274285548300,2.76254833984375,-0.09726794957518577,0.024448468286357817,-0.04038202354256063
1772789274295614000,2.772614013671875,-0.08502981477081775,0.028895182029530404,-0.04283719814233482
1772789274305680100,2.78268017578125,-0.0709498514920473,0.030096045719273386,-0.06739581227228045
1772789274315746000,2.79274609375,-0.05053893162608147,0.03425528429057449,-0.06945091817118228
1772789274325812200,2.802812255859375,-0.08172200539708137,0.03407908747345209,-0.04139426932502538
1772789274335879200,2.812879150390625,-0.07550035440325736,0.01168612694479525,-0.04385704270936548
1772789274345945000,2.822945068359375,-0.10518588309288024,0.016022037257254124,-0.06601188363321125
1772789274356011300,2.83301123046875,-0.14326982229351998,0.01697159306704998,-0.04786847030781209
1772789274366077200,2.8430771484375,-0.15531389583051203,-0.01165898320954293,-0.04670070517007261
1772789274376143000,2.85314306640625,-0.1378776078611612,0.009281586553715169,-0.03797138220425695
1772789274386209000,2.863208984375,-0.12407704604566097,0.009436996311135589,-0.049734848701581354
1772789274396275000,2.87327490234375,-0.15222352859973906,0.00406092929597944,-0.042453824847936625
1772789274406341000,2.883341064453125,-0.12792203103601932,0.023591741859167813,-0.058944210269302126
1772789274416407000,2.893406982421875,-0.03410217608809471,0.03448010602239519,-0.0783346645137295
1772789274426473200,2.90347314453125,-0.031123452538251876,0.03715929863639176,-0.07384009304083883
1772789274436539100,2.9135390625,-0.05880524019002914,0.019663499032147227,-0.04015402347296476
1772789274446605300,2.923605224609375,-0.10115502014160156,-0.011233707002177833,-0.03126768331453204
1772789274456671000,2.9336708984375,-0.08659165726006031,-0.01079520598705858,-0.07615761273559182
1772789274466737200,2.943737060546875,-0.14974457126557827,0.018270291108079255,-0.05690364435240626
1772789274476804000,2.95380419921875,-0.14461130003035066,0.02483483725544065,-0.10869042061511426
1772789274486870000,2.9638701171875,-0.052260933113098144,0.02555785430036485,-0.14806505721341817
1772789274496936200,2.973936279296875,-0.1389724173605442,0.049250681913830335,-0.13067326597291976
1772789274507002000,2.984002197265625,-0.39238077671825883,0.001934109867736697,-0.053235586831532414
1772789274517068000,2.994068115234375,-0.5767728829950094,-0.07961633835472166,0.03897639452833682
1772789274527134200,3.00413427734375,-0.41777357665002346,-0.09383505251705646,0.03171250447258353
1772789274537199900,3.014199951171875,-0.2005804400116205,-0.03520557075273245,0.02455393795482814
1772789274547266000,3.02426611328125,-0.0851712690681219,0.010307239807024597,-0.015107662358693777
1772789274557332000,3.03433203125,-0.06857610809803008,0.02042082020547241,-0.08632076789680868
1772789274567398100,3.044398193359375,-0.008638064485788344,0.05835106668174266,-0.1282183836340904
1772789274577464000,3.054464111328125,-0.018912790262699125,0.08297547605689615,-0.11226521036196499
1772789274587530200,3.0645302734375,-0.05881751514971256,0.08881656676791608,-0.09134780227858573
1772789274597596200,3.07459619140625,-0.02131342166364193,0.07678348954897374,-0.12472955513764172
1772789274607663000,3.0846630859375,0.08569967685639858,0.06369648283030838,-0.12279752762913704
1772789274617729300,3.094729248046875,0.12782850753366948,0.07245642013009637,-0.10244210081007331
1772789274627795000,3.104794921875,0.044646950978040695,0.046039026390947396,-0.06205594908166676
1772789274637861000,3.114861083984375,-0.08568038763403892,-0.014581227331794797,-0.008458543200418353
1772789274647927000,3.124927001953125,-0.1680249088436365,-0.044929165452905,-0.018879180254042147
1772789274657993000,3.134992919921875,-0.19120996959805486,-0.018920754373446105,-0.02882142267357558
1772789274668059100,3.14505908203125,-0.20294600009918212,0.014642857858538626,-0.03345025151800364
1772789274678125000,3.155125,-0.22565292194783687,-0.003909391996078193,-0.0699107907678932
1772789274688191200,3.165191162109375,-0.18467501487135887,0.006854103678464889,-0.07981734081953763
1772789274698257200,3.175257080078125,-0.18399930756688118,0.019523688702657818,-0.07720829083230346
1772789274708323000,3.185322998046875,-0.17286650365591047,0.0024145868610590693,-0.04515924788173288
1772789274718389000,3.195388916015625,-0.151899118950963,-0.026060908451676367,-0.04837137832865119
1772789274728455200,3.205455078125,-0.14122341115772724,-0.05125752822421491,-0.041078371776267886
1772789274738522000,3.215522216796875,-0.16535130572021006,-0.041717875256203116,-0.02575370566602796
1772789274748588000,3.225588134765625,-0.14780921928882598,-0.025519896910153328,-0.010323898680880666
1772789274758654200,3.235654296875,-0.04184709112644195,0.003934599502570927,-0.030794439779594538
1772789274768720100,3.24572021484375,0.005257774397730827,0.03485244646612554,-0.05525752111319452
1772789274778786300,3.255786376953125,-0.005117489144206047,0.032647410702519114,-0.05914448208175599
1772789274788852000,3.26585205078125,-0.01296528003513813,0.04237418374046683,-0.06247110575381666
1772789274798918000,3.27591796875,-0.08215104446411133,0.05850450367778539,-0.043152547701820726
1772789274808984000,3.285984130859375,-0.16327508396804333,0.05555588300526142,-0.01615819432493299
1772789274819050000,3.296050048828125,-0.18722469935417174,0.03159410225730389,-0.013611980440840124
1772789274829116200,3.3061162109375,-0.15495558391213415,0.028271606771089135,-0.010899068220332264
1772789274839182000,3.31618212890625,-0.15784487561285496,0.02184445980042219,-0.048853974213823675
1772789274849248300,3.326248291015625,-0.17493161949217317,-0.0037268385034054516,-0.04614610349461436
1772789274859314200,3.336314208984375,-0.16852233697175978,-0.013949797560460865,-0.04747928832713514
1772789274869380000,3.346380126953125,-0.1421311736524105,-0.003149403941631317,-0.06521879702676087
1772789274879447000,3.356447021484375,-0.09416589190661907,-0.026806539187207816,-0.06827120686732233
1772789274889513000,3.366512939453125,-0.11222586473226547,-0.0324407456818968,-0.05054956261795014
1772789274899579100,3.3765791015625,-0.1516816768079996,-0.05261635895464569,-0.051035409906134005
1772789274909645000,3.38664501953125,-0.15998481025099753,-0.04994896637629717,-0.033352380634099246
1772789274919711200,3.396711181640625,-0.15374387003481388,-0.045480588790588077,-0.03390705537479371
1772789274929777200,3.406777099609375,-0.14046294817924498,-0.03752729169856757,-0.03827675835900009
1772789274939843000,3.416843017578125,-0.16294366005659103,-0.02838303125631064,-0.0594807282987982
1772789274949909200,3.4269091796875,-0.17119126392006873,-0.021264979412034153,-0.0627070334015414
1772789274959975000,3.436974853515625,-0.13380933550894258,-0.010780519874580204,-0.08312595391087234
1772789274970041000,3.447041015625,-0.06445055260062217,0.006138868081197142,-0.08415416444744914
1772789274980107000,3.45710693359375,-0.04432838654816151,0.006770809309184551,-0.10387147602606564
1772789274990173200,3.467173095703125,-0.07400807001888751,0.0026175255546346306,-0.06979867216292768
1772789275000239000,3.477239013671875,-0.10174246464073658,-0.002041442699730396,-0.023517361448705195
1772789275010306000,3.48730615234375,-0.09613046997785568,0.005309906443767249,-0.02309383880700916
1772789275020372200,3.497372314453125,-0.1092225912630558,0.01414473561067134,-0.02224262880515307
1772789275030438100,3.507438232421875,-0.13272270931601524,0.016873612585291266,-0.01840319677274674
1772789275040504000,3.517504150390625,-0.17366671412289142,0.0111025183705613,-0.022832703652791678
1772789275050570000,3.527570068359375,-0.14879413867294788,-0.00660385524444282,-0.017834055115282535
1772789275060631300,3.53763134765625,-0.13660861083865164,0.0028048648202791807,-0.014703209743648766
1772789275070697200,3.547697265625,-0.14862930350005626,0.0006174743112176656,-0.022045791058801112
1772789275080763400,3.557763427734375,-0.12761866417527198,0.009006897798180579,-0.06316124344244599
1772789275090829300,3.567829345703125,-0.11725976724624633,0.008789199926890432,-0.07528872094657271
1772789275100895500,3.5778955078125,-0.10317103613913059,-0.0029043431393802163,-0.05528137691281736
1772789275110961400,3.58796142578125,-0.1192997486412525,-0.006178871298022568,-0.04955806736256927
1772789275121027300,3.59802734375,-0.12491817304491996,0.001684920879639685,-0.030745339940860865
1772789275131093200,3.60809326171875,-0.0644230800718069,-0.008445756784081458,-0.050323608374968166
1772789275141159400,3.618159423828125,-0.046616205224394795,-0.033079299313761294,-0.045281011097878215
1772789275151226400,3.628226318359375,-0.08850245931744576,-0.046729091014340515,-0.03140972213372588
1772789275161292300,3.638292236328125,-0.05108662863671779,-0.023165077412314713,-0.04376286161988974
1772789275171358500,3.6483583984375,-0.03103694329857826,-0.012098982062004505,-0.05926573384124785
1772789275181424400,3.65842431640625,-0.039869069051742555,-0.03212448280695825,-0.05445475336294621
1772789275191490300,3.668490234375,-0.0913145941287279,-0.04066314203888178,-0.04336224492974579
1772789275201556500,3.678556396484375,-0.10890811848640441,-0.03446812332365662,-0.04309004039224237
1772789275211622100,3.6886220703125,-0.09370061248242854,-0.053234527385607355,-0.024959815341979264
1772789275221688300,3.698688232421875,-0.07101064176857472,-0.05043875918723643,-0.0012373597752302883
1772789275231754200,3.708754150390625,-0.03609481121003628,-0.0596576192356646,-0.0016512378057464956
1772789275241820400,3.7188203125,-0.07281915249526501,-0.04769442891515791,-0.0187661118010059
1772789275251886300,3.72888623046875,-0.11432488283812998,-0.062348648417927324,-0.03478029454536736
1772789275261952500,3.738952392578125,-0.1484001709192991,-0.07169891629368066,-0.03691712391097098
1772789275272018400,3.749018310546875,-0.20809739151298998,-0.04522171865869313,-0.05906071278844029
1772789275282085400,3.75908544921875,-0.21022154406011104,-0.07557162954118102,-0.005323021653667092
1772789275292151600,3.769151611328125,-0.285787949436903,-0.13027725239265708,-0.033483971124514934
1772789275302217200,3.77921728515625,-0.26601182034313675,-0.06075589933376759,-0.07257642978057265
1772789275312283400,3.789283447265625,-0.19760639263689517,-0.06064319620691239,-0.07283343674894421
1772789275322349300,3.799349365234375,-0.19680033695101737,-0.06507054766248911,-0.06375230467077345
1772789275332415200,3.809415283203125,-0.17154840679466724,-0.051706952492147684,-0.073935114380531
1772789275342481400,3.8194814453125,-0.13910568835139273,-0.03436897379811853,-0.03558803073167801
1772789275352547300,3.82954736328125,-0.1152262155920267,-0.03205631294157356,-0.07546769424267112
1772789275362613500,3.839613525390625,-0.09412029919922352,-0.00806994574163109,-0.09777666628230362
1772789275372679200,3.84967919921875,-0.08457330317497253,0.003762311675585806,-0.11240889314897358
1772789275382745300,3.859745361328125,-0.09985738154649734,0.0333757249770686,-0.09510803159493952
1772789275392811300,3.869811279296875,-0.09966975001990795,0.03344911900684237,-0.08733922422435134
1772789275402877400,3.87987744140625,-0.07191489713191986,0.04246832829732448,-0.06815254892371594
1772789275412944400,3.8899443359375,-0.07614975822269916,0.0628096169931814,-0.07401723970603197
1772789275423010300,3.90001025390625,-0.0964034417003393,0.033227914004214106,-0.08122958223763853
1772789275433076500,3.910076416015625,-0.1150216329306364,-0.003483385136350989,-0.05490030517335981
1772789275443142400,3.920142333984375,-0.10701835921704768,-0.014881233191676438,-0.06214592892006039
1772789275453208300,3.930208251953125,-0.07465045957565307,0.0002868541173636913,-0.07965042328741401
1772789275463274200,3.940274169921875,-0.058628714579343794,-0.013354462015815078,-0.07814798283521085
1772789275473340200,3.950340087890625,-0.0985825393050909,-0.016282624422200024,-0.12233126182425766
1772789275483406300,3.96040625,-0.11205109268724918,-0.022847864689305424,-0.04077347054556012
1772789275493472300,3.97047216796875,-0.16950725635588168,-0.050573162689246234,-0.06886566562913357
1772789275503538400,3.980538330078125,-0.16774784546792507,-0.038332141808047886,-0.05322429825253784
1772789275513604400,3.990604248046875,-0.16197861441671849,-0.033206652020476755,-0.03601977321244776
1772789275523670500,4.00067041015625,-0.1630664096534252,0.002872084837593138,-0.025067623098008335
1772789275533736200,4.010736083984375,-0.1769780306279659,0.008444222414121032,-0.006826485019177198
1772789275543802400,4.02080224609375,-0.16054185961186884,0.0018251330679282544,-0.019525478800944983
1772789275553868300,4.030868408203125,-0.1350561206996441,0.006434161233343183,-0.022347221690788864
1772789275563934200,4.040934326171875,-0.1389583888351917,0.027846074835397302,-0.042974524253793056
1772789275574000400,4.05100048828125,-0.10486790318489074,0.0400489556632936,-0.02235577032342553
1772789275584067300,4.0610673828125,-0.08767360727787017,0.035961394088715314,-0.02565777101088315
1772789275594133500,4.071133544921875,-0.07466156549155711,0.04927994454093277,-0.02579864078629762
1772789275604199400,4.081199462890625,-0.05100187296271324,0.04171875203903764,0.02288881775420159
1772789275614265300,4.091265380859375,-0.05437105713486671,0.012200908066518605,-0.003049523763731122
1772789275624331300,4.101331298828125,-0.017886369824409484,0.044576662220805884,-0.013297653794661163
1772789275634397200,4.111397216796875,-0.02775777549743652,0.059120918543078,-0.03664345806874335
1772789275644463400,4.12146337890625,-0.09380115024745464,0.04844221507515758,-0.041588147929310794
1772789275654529300,4.131529296875,-0.10067045149505138,0.0519595390137285,-0.03387183793094009
1772789275664595500,4.141595458984375,-0.1289291622519493,0.05203958197999745,-0.04423986801449209
1772789275674661400,4.151661376953125,-0.16510814461410045,0.04041786204092204,-0.05157850380688905
1772789275684727600,4.1617275390625,-0.14509060797989368,0.02850658457074314,-0.07012786758467554
1772789275694793200,4.171793212890625,-0.12406184847652911,0.029814671494625508,-0.027570838090591132
1772789275704859100,4.181859130859375,-0.13472060513496398,0.032319165128841996,-0.07377941236216574
1772789275714926300,4.19192626953125,-0.12319734060168265,0.018227073020860553,-0.07338409290164709
1772789275724992300,4.2019921875,-0.14616788182258605,0.004792312310449779,-0.0711867655204609
1772789275735058400,4.212058349609375,-0.135464701500535,0.01648454020246863,-0.08973174538407475
1772789275745124400,4.222124267578125,-0.1050789155870676,0.03540533110853284,-0.11529058606512844
1772789275755190300,4.232190185546875,-0.13344810098111629,0.026117168683558702,-0.12317648047674447
1772789275765256400,4.24225634765625,-0.13360299928188324,0.04638970299214124,-0.10901369775272905
1772789275775322400,4.252322265625,-0.12307459100484848,0.05089870484918356,-0.08617602566387504
1772789275785388300,4.26238818359375,-0.16287117934226988,0.04786934709064662,-0.059523142668418585
1772789275795454200,4.2724541015625,-0.18907178852558135,0.03096059012673795,-0.06086958884131163
1772789275805520400,4.282520263671875,-0.1654237864345312,0.03915485636778176,-0.04404533182308078
1772789275815586300,4.29258642578125,-0.14379004677534102,0.04024056924525648,-0.03230590378846973
1772789275825652500,4.302652587890625,-0.08020809370279312,-0.005533339936099946,-0.05793218368254602
1772789275835718400,4.312718505859375,-0.04455635008513927,-0.012669511958956717,-0.02064071003384888
1772789275845785300,4.322785400390625,-0.07064590010941028,-0.042774544702284034,-0.0484855427602306
1772789275855851500,4.3328515625,-0.06951601929664611,-0.05258026472795754,-0.06642152388002723
1772789275865917400,4.34291748046875,-0.08923194263577461,-0.02052183289453387,-0.050398171448521316
1772789275875983400,4.3529833984375,-0.1290554189801216,-0.026997312518954274,-0.04680573644712567
1772789275886049300,4.36304931640625,-0.1436515150874853,0.008028590817935765,-0.03697097299005836
1772789275896115200,4.373115234375,-0.17655483677983283,0.03393354152292013,-0.0040269539611414076
1772789275906181400,4.383181396484375,-0.1684650538265705,0.02532218238096684,0.013420586054585874
1772789275916247300,4.393247314453125,-0.11893851411342621,0.02366005785502493,0.02221793275531381
1772789275926313500,4.4033134765625,-0.06148410401046276,0.005821838021278381,0.004794650398008525
1772789275936379400,4.41337939453125,-0.07610708812475205,0.011556728411465883,-0.007056238654442131
1772789275946445300,4.4234453125,-0.07835106765925884,0.021677944127097726,-0.013010763144679367
1772789275956511200,4.43351123046875,-0.03202770790159702,0.03569715366195887,0.00010028203669935464
1772789275966577400,4.443577392578125,-0.0218330616235733,0.009646291680261493,0.016010967873968183
1772789275976644400,4.453644287109375,-0.02402209610044956,-0.004389576728455722,0.013922946086153387
1772789275986710300,4.463710205078125,-0.060464697834849354,-0.01405055452119559,0.04038618826102465
1772789275996776400,4.4737763671875,-0.12726093677878378,-0.03853529969733208,0.040355208600871266
1772789276006842400,4.48384228515625,-0.13869886111617089,-0.04590476901941001,0.04536627822853625
1772789276016908300,4.493908203125,-0.12098667881488799,-0.055635852906294164,0.039425161209143696
1772789276026974500,4.503974365234375,-0.11676643077135085,-0.07197477409299463,0.006783924519084394
1772789276037040000,4.5140400390625,-0.1290074881851673,-0.062369800803810355,0.006654051061719656
1772789276047106300,4.524106201171875,-0.13751403524577616,-0.08536923932563513,0.012761318428255617
1772789276057172700,4.5341728515625,-0.17207213840782642,-0.07593991486430168,-0.0077354896228760475
1772789276067239000,4.544239013671875,-0.16802724693119525,-0.045698505857586856,-0.0016328618988394735
1772789276077304600,4.5543046875,-0.12823358120322226,-0.03659307958837598,0.011837298918515444
1772789276087370800,4.564370849609375,-0.11973755553662777,-0.018422668658196924,0.004120477463491261
1772789276097436700,4.574436767578125,-0.10228840808570384,-0.013836765640042721,-0.01582867010962218
1772789276107502600,4.584502685546875,-0.12119301504194736,-0.002171206559240818,-0.016556436394900082
1772789276117569800,4.59456982421875,-0.13543956705927848,0.0011105915904045104,0.00048117111306637524
1772789276127635700,4.6046357421875,-0.06606091040670871,-0.008177205508388578,-0.0029043431393802163
1772789276137701600,4.61470166015625,-0.0658393766105175,0.00021904957816004753,0.00467526180204004
1772789276147767800,4.624767822265625,-0.10568097313344478,0.004737622981145977,-0.00920450272951275
1772789276157833700,4.634833740234375,-0.0792594146758318,-0.0006330006739124655,-0.006287190510705113
1772789276167899600,4.644899658203125,-0.04850479544997215,0.01101893174033612,0.01625423857793212
1772789276177965600,4.654965576171875,-0.08164134137630462,-0.0008686360606923699,0.025975750918872654
1772789276188031700,4.66503173828125,-0.15051730920374393,-0.03374682331178337,0.0413026089861989
1772789276198097700,4.67509765625,-0.16859306412041186,-0.05202073114905506,0.06503657232765107
1772789276208164600,4.68516455078125,-0.14518880765736103,-0.06741090024355799,0.03610423662550747
1772789276218230800,4.695230712890625,-0.1654723017513752,-0.05989756547138095,0.03957783102020621
1772789276228296700,4.705296630859375,-0.19519465532004832,-0.08331625231858343,0.037048495205678045
1772789276238363000,4.71536279296875,-0.15678513742685318,-0.07283000268284232,0.016957235748134552
1772789276248428800,4.7254287109375,-0.18268179522752762,-0.06027286505717784,-0.01600914124306291
1772789276258494700,4.73549462890625,-0.19935937378406524,-0.07879124917481094,-0.03263469735141843
1772789276268560600,4.745560546875,-0.19272972651123998,-0.04867701021172106,-0.017639043999835846
1772789276278626600,4.75562646484375,-0.15287410146296024,-0.03478950076512992,0.0029621742738410828
1772789276288692700,4.765692626953125,-0.1459486861139536,-0.04555186392851174,-0.0039018297441303727
1772789276298758700,4.775758544921875,-0.09371405648589133,-0.021900245108269153,-0.03817033884245902
1772789276308824800,4.785824951171875,-0.03879179520905018,0.0017971125498414038,-0.047690483392402526
1772789276318890800,4.795890869140625,-0.045021044987440105,0.014101079132035373,-0.07196874621100724
1772789276328956700,4.805956787109375,-0.03157061178386211,0.0405829894747585,-0.06406228393539785
1772789276339022600,4.816022705078125,-0.06683072573542595,0.03883070244733244,-0.050501631822995836
1772789276349089500,4.826089599609375,-0.1071264957666397,0.037771767978928984,-0.034299269562773405
1772789276359155700,4.83615576171875,-0.12091419810056686,0.017103147024847568,-0.04201631021350622
1772789276369221600,4.8462216796875,-0.11729776116907596,0.006314882235229015,-0.06216492588147521
1772789276379287800,4.856287841796875,-0.06500643291771412,0.011895714574865997,-0.058559996724687514
1772789276389353700,4.866353759765625,-0.07014964102506638,0.016970898947305975,-0.06530899606086313
1772789276399420000,4.876419921875,-0.07232464697659015,-0.0001289601419121027,-0.08953724572528153
1772789276409485800,4.88648583984375,-0.06466448761224747,-0.018275113413669167,-0.09037238137517124
1772789276419551500,4.896551513671875,-0.046565351819992065,-0.023658121626265346,-0.07396412127930671
1772789276429617700,4.90661767578125,0.03313070070743561,-0.019058336213231084,-0.05823905767463147
1772789276439683600,4.91668359375,0.045747021174430844,-0.05127754809893667,-0.0700809597030282
1772789276449749800,4.926749755859375,-0.04741290856003761,-0.042944238713383674,-0.050088995901495216
1772789276459815700,4.936815673828125,-0.03847089269161224,-0.029640191710554063,0.014107655003294348
1772789276469882600,4.946882568359375,-0.04088146096467971,0.0016688099950551987,0.0760926212079823
1772789276479948800,4.95694873046875,-0.058415948611497875,-0.00015983020421117544,0.093191311253421
1772789276490014700,4.9670146484375,-0.02869242599904537,0.009914989086426794,0.1230025486819446
1772789276500081000,4.977080810546875,-0.008961889612674712,-0.01182330692578107,0.17676190365925432
1772789276510146600,4.987146484375,-0.02878185784816742,-0.04668207353483885,0.17821005664095282
1772789276520212700,4.997212646484375,-0.021472996139526367,-0.049066557518579065,0.13433357857875525
1772789276530278700,5.007278564453125,-0.05943827739655971,-0.0608943944890052,0.07439695973861962
1772789276540344800,5.0173447265625,-0.0948182183355093,-0.08779628380946815,-0.0026170871632173656
1772789276550410800,5.02741064453125,-0.1874789663761854,-0.12672949678320436,-0.09753511261139064
1772789276560476700,5.0374765625,-0.27552783670723435,-0.15533965132627636,-0.19916498372312633
1772789276570542800,5.04754296875,-0.30621991209089755,-0.1531316198879853,-0.3291213335983455
1772789276580608500,5.0576083984375,-0.24623043055236338,-0.14314966651257127,-0.4034571377342567
1772789276590674700,5.0676748046875,-0.21400807686150072,-0.14710227659586816,-0.4987548466823995
1772789276600741600,5.07774169921875,-0.23205869733691215,-0.09018062166273594,-0.5656466549552976
1772789276610807600,5.0878076171875,-0.16412848592698573,-0.06498031209576875,-0.5430038113187998
1772789276620873700,5.097873779296875,-0.13559797249138356,-0.022092991201393304,-0.46066140900105235
1772789276630939600,5.107939697265625,-0.060358899372816084,0.036692813635803755,-0.36760570682603866
1772789276641005800,5.118005859375,-0.023456863433122633,0.08803064055461436,-0.2621471077390015
1772789276651071700,5.12807177734375,-0.005796119058132172,0.10112608630806207,-0.15242000101990996
1772789276661138000,5.138137939453125,-0.010445406168699264,0.13667568472549319,-0.08367642740048467
1772789276671203600,5.14820361328125,-0.04798281740248203,0.16156239829864352,0.022811953125707805
1772789276681269800,5.158269775390625,-0.0706149204492569,0.16014515191186218,0.11507876994535327
1772789276691335700,5.168335693359375,-0.026523849788308143,0.17416330200079827,0.1778172213984653
1772789276701401600,5.178401611328125,0.02611877611875534,0.1860282561112195,0.19750161708816885
1772789276711467800,5.1884677734375,0.02722410701215267,0.16345902570020407,0.22196089902948588
1772789276721533700,5.19853369140625,-0.03229074275195598,0.08320124763678759,0.1014396092366427
1772789276731600600,5.2086005859375,0.03192483204901218,0.11080942206308245,0.04602211178876459
1772789276741666800,5.218666748046875,0.053528176569938656,0.03208298175279051,-0.0161386859068647
1772789276751732700,5.228732666015625,-0.06067103406190872,-0.01630737527096644,-0.08955182223990558
1772789276761798700,5.238798583984375,-0.18687047908902168,-0.051075595786049956,-0.12563187427222727
1772789276771864600,5.248864501953125,-0.26838381017148494,-0.07413686576401815,-0.12132807613108307
1772789276781930800,5.2589306640625,-0.3132312521576881,-0.12929509122120217,-0.10935158793758601
1772789276791996700,5.26899658203125,-0.323196181333065,-0.18021277476549147,-0.11240717611592263
1772789276802062800,5.279062744140625,-0.28144144466519355,-0.17030717456191777,-0.11182360407430678
1772789276812128800,5.289128662109375,-0.2599094118148088,-0.15559536138670518,-0.08930690756812691
1772789276822194700,5.299194580078125,-0.2836404160141945,-0.17787649557134136,-0.02781662954520434
1772789276832260600,5.309260498046875,-0.2683329567670822,-0.17320474090063945,0.017434096012264488
1772789276842326500,5.319326416015625,-0.2594920631855726,-0.14084217502148821,0.01810081629268825
1772789276852392700,5.329392822265625,-0.25470073725581166,-0.12091107456171885,0.024459208876080808
1772789276862459600,5.339459716796875,-0.2710159122407436,-0.10266562563395128,0.06581917407270521
1772789276872525600,5.349525634765625,-0.29134850617349145,-0.08646468814583495,0.061737384651787575
1772789276882591700,5.359591796875,-0.26571780583262444,-0.017560023946873844,0.059057388320192694
1772789276892657700,5.36965771484375,-0.26351240474283694,0.0578564515652135,0.0694841993862763
1772789276902723800,5.379723876953125,-0.24002982234656808,0.04015502811996266,0.08142528747282922
1772789276912789800,5.389789794921875,-0.19637012884020805,0.044249549158290026,0.04751845129374414
1772789276922855700,5.399855712890625,-0.15665595808923244,0.0727050976615399,0.010137107404507696
1772789276932921600,5.409921630859375,-0.10172668254971504,0.05977401215694844,-0.012605214551091194
1772789276942987800,5.41998779296875,-0.030831191593408584,0.07304214759618044,-0.02859393406063318
1772789276953053700,5.4300537109375,-0.01084638818502426,0.08377068155519664,0.007985372730717063
1772789276963119900,5.440119873046875,-0.02241173829436302,0.043403088396787644,0.02596669082958251
1772789276973185800,5.450185791015625,0.010950433081388473,0.060121711349766696,0.03877433261759579
1772789276983251700,5.460251708984375,0.049532969453930854,0.024356479153968394,-0.011528854023851454
1772789276993319000,5.47031884765625,0.025859248399734497,0.029622601254936307,-0.06969627123437822
1772789277003384800,5.480384765625,0.028506548038125037,0.01572181220166385,-0.03413282695468515
1772789277013450500,5.490450439453125,-0.06771978352963924,0.00526778433509171,-0.006701981856673956
1772789277023516700,5.5005166015625,-0.16493746422231195,0.024239008520450443,0.01114241198953241
1772789277033582600,5.51058251953125,-0.20375556291639804,0.010271967564243823,0.03177917650062591
1772789277043648800,5.520648681640625,-0.2757563847661018,-0.027762360341008752,0.03909837694019079
1772789277053714700,5.530714599609375,-0.30329554907679557,-0.04330154598476365,0.008595723181404172
1772789277063780900,5.54078076171875,-0.22656886774897575,-0.04320994044486433,-0.0066731941536068914
1772789277073846800,5.5508466796875,-0.18445757272839544,-0.03921683395439759,-0.013243548987247049
1772789277083913000,5.560912841796875,-0.17831190958023072,-0.05114287060229107,-0.007739179417304694
1772789277093979000,5.570978759765625,-0.19688275453746318,-0.04680579124605283,0.002568316118046641
1772789277104044800,5.581044921875,-0.17196633994579313,-0.035221663371007884,0.006522350973449647
1772789277114111000,5.591111083984375,-0.18181962544023988,-0.021483334870450198,0.008478599607758224
1772789277124178000,5.601177978515625,-0.22384850287437438,-0.009051010934542863,0.02496160544026643
1772789277134243800,5.611243896484375,-0.23531331521868704,0.006937471112981438,0.03538564002737403
1772789277144309800,5.621309814453125,-0.19829028324782846,0.01469917288934812,0.017393216012604535
1772789277154375700,5.631375732421875,-0.19433190101087092,0.030515604571904987,0.015764628430083392
1772789277164441900,5.64144189453125,-0.1939496236950159,0.05263435126906261,-0.006497253064811229
1772789277174507800,5.6515078125,-0.17217735234797,0.07897376613486558,-0.03571742926500737
1772789277184574000,5.661573974609375,-0.16032207938134668,0.09644362758025526,-0.04892017131783068
1772789277194640000,5.671639892578125,-0.1474415550202131,0.1080463322916068,-0.060082457051612435
1772789277204706000,5.6817060546875,-0.09374035997092724,0.13929083565995096,-0.05724263051580637
1772789277214771700,5.691771728515625,-0.08585808228850364,0.11445037238132208,-0.0727104679564014
1772789277224838000,5.701837890625,-0.06032850423455238,0.14043686388991772,-0.08994250205792487
1772789277234903800,5.71190380859375,-0.028365093740820885,0.14921430031377822,-0.08308233396485447
1772789277244969700,5.7219697265625,-0.07848667673766613,0.14479030985906718,-0.06295574746560305
1772789277255037000,5.732036865234375,-0.09712707979977131,0.13547357892673462,-0.03473378852251917
1772789277265102800,5.742102783203125,-0.10867255616486073,0.13258552933502943,-0.04152684619612992
1772789277275168800,5.752168701171875,-0.09865385097563266,0.11922978867758065,-0.06304295082502066
1772789277285235000,5.76223486328125,-0.037820319828391076,0.12086148153264074,-0.1259418535368517
1772789277295300900,5.77230078125,-0.017037644040584565,0.11046795168165117,-0.13869517132174222
1772789277305366800,5.78236669921875,-0.040789106506109236,0.06602277035340666,-0.13181063597239553
1772789277315432700,5.7924326171875,-0.08119885830581187,0.05255074637252837,-0.10253799893260002
1772789277325499000,5.802498779296875,-0.09788929634392261,0.009123327252082526,-0.07529847515560686
1772789277335564800,5.812564697265625,-0.0890799669444561,0.00921476839520037,-0.06330467050112784
1772789277345631000,5.822630859375,-0.07477788534760475,0.011026859318464994,-0.028847178169339894
1772789277355697000,5.83269677734375,-0.11084990020394325,-0.020351663959398865,-0.03014960253741592
1772789277365763000,5.84276318359375,-0.12599661593139172,-0.020857129263505338,-0.03270483997818082
1772789277375828700,5.852828857421875,-0.14265432074367998,-0.027480018001981077,-0.006916830183751881
1772789277385895700,5.862895751953125,-0.1719546495079994,-0.04271178166437894,-0.023266309297084807
1772789277395961900,5.8729619140625,-0.1892833854496479,-0.01477404649015516,-0.05449095718748867
1772789277406027800,5.88302783203125,-0.1888122608065605,-0.01482913767825812,-0.0594071516059339
1772789277416094000,5.893093994140625,-0.1881938366472721,-0.007801577129028737,-0.054739817382022736
1772789277426159900,5.903159912109375,-0.17412673285007477,-0.0018763883311301468,-0.05951744357999414
1772789277436225800,5.913225830078125,-0.13585750021040438,-0.0075326970597729085,-0.04895864016469568
1772789277446292000,5.9232919921875,-0.07758125233054161,-0.001160531679354608,-0.04759085894282907
1772789277456358000,5.93335791015625,-0.04358429018259048,0.03359623585995287,-0.042070341955684126
1772789277466423800,5.943423828125,-0.0642015462756157,0.025905937085673212,-0.007166019171848893
1772789277476489700,5.95348974609375,-0.09751344876885414,0.010071823615953325,0.02262600209955126
1772789277486556000,5.963555908203125,-0.07006430082917213,0.002141980464756489,0.04273227646313608
1772789277496621800,5.973621826171875,-0.05469605130553245,0.011505180887319147,0.010914302322082221
1772789277506688800,5.983688720703125,-0.08502221598625183,0.005279913164302707,-0.004773899870924652
1772789277516755000,5.9937548828125,-0.12151976277828216,-0.012292641470581293,-0.012628668491914867
1772789277526820900,6.00382080078125,-0.11111001244485377,-0.032328554011695085,-0.024507979921251533
1772789277536887000,6.013886962890625,-0.09182137460708617,-0.054232233186066146,-0.021490458730980752
1772789277546952700,6.02395263671875,-0.12519348285496235,-0.027848668651282785,-0.04832574908863753
1772789277557019000,6.034018798828125,-0.11758826854825019,-0.03099778033196926,-0.033473888121917844
1772789277567084800,6.044084716796875,-0.10001227984726428,-0.06941876946724951,-0.01988353499099612
1772789277577150700,6.054150634765625,-0.11569149501621723,-0.0736386521846056,-0.006264101896062493
1772789277587217000,6.064216796875,-0.15963643520474433,-0.04447733003217727,-0.01578311393484473
1772789277597282800,6.07428271484375,-0.189208566647768,-0.03812759567927569,-0.03080985654443502
1772789277607349000,6.084348876953125,-0.1374082367837429,-0.03619575083386153,-0.027306159272417425
1772789277617415000,6.094414794921875,-0.20126257705688474,-0.035817345975525675,-0.004475866772420704
1772789277627480800,6.104480712890625,-0.1740074903845787,-0.025557160180620847,-0.01411320796124637
1772789277637547800,6.1145478515625,-0.1246288347095251,-0.001548909942433238,0.0014014277631416916
1772789277647613700,6.12461376953125,-0.12522796964645386,0.007508622064441442,0.0015764555364847182
1772789277657680000,6.134679931640625,-0.09577917232215404,0.0021714257549494504,-0.03367898223996162
1772789277667745800,6.144745849609375,-0.06026128421723842,0.011861556576937436,-0.06747424780335277
1772789277677812000,6.15481201171875,-0.1583610084414482,0.014491210960783063,-0.06549403377156704
1772789277687878000,6.1648779296875,-0.12161854697763919,-0.002719634222239256,-0.06543868685513735
1772789277697943800,6.17494384765625,-0.057951838231086725,-0.001841865007020533,-0.046907150994986296
1772789277708010000,6.185010009765625,-0.05804536173343658,-0.0284414834452793,-0.06284125424046069
1772789277718075600,6.19507568359375,-0.08703004867732525,-0.04744553218800574,-0.0703462595757097
1772789277728141800,6.205141845703125,-0.11888707618713379,-0.06858542391564697,-0.07520239436998963
1772789277738207700,6.215207763671875,-0.13464753989875317,-0.05786543858926743,-0.09736633191574365
1772789277748274000,6.22527392578125,-0.1471767666041851,-0.03818078717123717,-0.07143219164889306
1772789277758339800,6.23533984375,-0.15315116483867167,-0.05559804164655506,-0.033808198110200464
1772789277768406800,6.24540673828125,-0.17154723775088787,-0.06651902943775058,-0.015511457386612892
1772789277778473000,6.255472900390625,-0.21833353884518145,-0.04678991782348603,-0.01819554537143558
1772789277788539000,6.265538818359375,-0.24875498059391973,-0.005061557705886662,-0.001044321421161294
1772789277798604800,6.275604736328125,-0.19076047226488588,-0.022633052894845605,-0.012606748921051621
1772789277808670700,6.285670654296875,-0.2290449024736881,-0.002670351720415056,-0.04375160957351327
1772789277818737000,6.29573681640625,-0.20457564712762832,0.006427950688265263,-0.027802564487233755
1772789277828802800,6.305802734375,-0.1592588340640068,-0.000978453110717237,0.002928527732565999
1772789277838868700,6.31586865234375,-0.19465221900641916,0.020702596288919448,0.008033888047561048
1772789277848935000,6.325934814453125,-0.2604588623911142,0.024251667072623967,0.04896536216642707
1772789277859000800,6.336000732421875,-0.2697282105177641,0.016473068960383534,0.07156765459682791
1772789277869067000,6.34606689453125,-0.242678291028738,0.022942191909253597,0.07317684335913509
1772789277879132700,6.356132568359375,-0.16200608694553376,0.023822920266538858,0.05508990946132689
1772789277889198800,6.36619873046875,-0.11590893715918063,0.03777626149095595,0.045490014206059276
1772789277899265800,6.376265869140625,-0.06631342386305332,0.007188377134129405,0.03725318746492266
1772789277909331700,6.386331787109375,0.022962357914447784,0.016536051193997262,0.010364815213158726
1772789277919398000,6.39639794921875,-0.0019195698857307434,0.04175933977775276,-0.008951185555569827
1772789277929463800,6.4064638671875,-0.060497431060671805,0.05220080042369663,0.03632102118134498
1772789277939530000,6.416530029296875,-0.08816635923087596,0.04656279453672468,0.05224478569589555
1772789277949596000,6.426595947265625,-0.10394552764296532,0.034336057909205554,0.05382876695170998
1772789277959661800,6.436661865234375,-0.09640519526600837,0.0026174159567803144,0.052731984690949314
1772789277969727700,6.446727783203125,-0.06535305439829826,-0.002900762942805886,0.036933746252208945
1772789277979793700,6.456793701171875,-0.012875263664126396,0.01651449694931507,0.02315674797538668
1772789277989859800,6.46685986328125,-0.022509937971830367,0.004600114206597209,-0.015088921125605701
1772789277999925800,6.47692578125,-0.0007277297526597976,0.012099603116512299,-0.024336897670663892
1772789278009992000,6.486991943359375,0.029319617986679074,0.020294892270863056,-0.01847907502055168
1772789278020057900,6.497057861328125,0.017456746235489845,0.01641235174909234,-0.006491407845914363
1772789278030124000,6.5071240234375,-0.05073708454668521,0.03583827916570008,0.02407528759241104
1772789278040191000,6.51719091796875,-0.13008067037463186,0.019421616567671298,0.04756218083761632
1772789278050256600,6.527256591796875,-0.09902911402881145,0.010251783292740582,0.05969334813617169
1772789278060327000,6.537326904296875,-0.04468552942276001,0.029490882900357243,0.0708485830746591
1772789278070392800,6.547392822265625,-0.011963409516215323,0.0017109686363488434,0.04991721953116357
1772789278080458800,6.557458740234375,0.044350013858079906,0.015471782963350415,-0.0035210502656176684
1772789278090525000,6.56752490234375,0.07303659463822841,-0.0030896365784108637,-0.04755279195476323
1772789278100590600,6.577590576171875,0.03270224616229534,-0.04409874251075089,-0.09133589264508336
1772789278110656800,6.58765673828125,-0.03256780612766742,-0.05844006013944745,-0.09159717392977326
1772789278120722700,6.59772265625,-0.09127776924967765,-0.04162745702639222,-0.07873254125751554
1772789278130788900,6.607788818359375,-0.1106517472833395,-0.029114450803399083,-0.07742503885552286
1772789278140854800,6.617854736328125,-0.04225976358056068,-0.04924684598892927,-0.08431081631388515
1772789278150921000,6.6279208984375,-0.015486322945356368,-0.05074621770121157,-0.07329615888986736
1772789278160987000,6.63798681640625,-0.04772913490235805,-0.064020052228868,-0.04954535401146859
1772789278171053800,6.6480537109375,-0.0642138212352991,-0.06843063521273433,-0.055259822668135165
1772789278181120000,6.6581201171875,-0.12078969493806362,-0.053099429763853546,-0.04983421742282808
1772789278191185700,6.668185546875,-0.178076347258687,-0.03863835821300745,-0.03523925382662564
1772789278201251800,6.678251953125,-0.19297697927057741,-0.019545462143048642,-0.019267960375919938
1772789278211317800,6.68831787109375,-0.15429741226434707,-0.01537913624383509,-0.011282076188549399
1772789278221384000,6.698384033203125,-0.1710176609188318,0.005207578580453991,-0.02310936516970396
1772789278231449900,6.708449951171875,-0.18956687856614587,0.007833908496052026,-0.020858042578957972
1772789278241515800,6.718515869140625,-0.19277999539375304,0.010574293245375156,0.0031995997589081525
1772789278251582000,6.72858203125,-0.14639935249090194,0.011708923298493027,-0.007500402225367724
1772789278261647600,6.738647705078125,-0.1461000772833824,0.013025485789775847,0.0012460545383393765
1772789278271713800,6.7487138671875,-0.14338964928090572,0.018106369250640273,-0.005672273482754826
1772789278281779700,6.75877978515625,-0.13153788344562053,0.012898206148296594,0.001958952048048377
1772789278291846000,6.768845947265625,-0.12834697844982146,-0.008614026023074983,-0.011434563336521387
1772789278301911800,6.778911865234375,-0.13206804479956627,-0.021160349993780254,-0.00676985946111381
1772789278311978000,6.78897802734375,-0.13208674950003624,-0.037368630538135765,-0.010824614744633436
1772789278322045000,6.799044921875,-0.10657587614655493,-0.046499739237874746,-0.01999828394446522
1772789278332110800,6.80911083984375,-0.08454173899292945,-0.052346638635173436,-0.041410928198881446
1772789278342177000,6.819177001953125,-0.0925917744576931,-0.05337612781338393,-0.04679934323895722
1772789278352242700,6.82924267578125,-0.13455693900585175,-0.04172770253047347,-0.0332940380429849
1772789278362308900,6.839308837890625,-0.168225399851799,-0.037458427713438866,-0.03893818140979856
1772789278372374800,6.849374755859375,-0.14154080654382706,-0.03218742850795388,-0.05896675089467317
1772789278382440700,6.859440673828125,-0.09940905325710774,-0.015272460998967289,-0.09704411422405392
1772789278392507000,6.8695068359375,-0.024050153151154517,-0.01561433323919773,-0.12257336348444223
1772789278402572800,6.87957275390625,-0.050769817772507664,-0.027491744972392915,-0.14897745935060083
1772789278412639000,6.889638916015625,-0.1057844335079193,-0.027949937068670987,-0.13090214282535015
1772789278422704600,6.89970458984375,-0.10908230600953102,-0.005910977609455585,-0.10687920647468417
1772789278432770800,6.909770751953125,-0.11839140162467957,0.020508900347724554,-0.0610712488932535
1772789278442836700,6.919836669921875,-0.15371873559355734,0.006191328920796513,-0.039008908558450635
1772789278452903000,6.92990283203125,-0.16837269936800003,0.010602496426552534,-0.0335735125714913
1772789278462969900,6.939969970703125,-0.15263444748818875,0.011196735992655157,-0.04518124051783234
1772789278473035800,6.950035888671875,-0.14216916757524012,0.003286620455235243,-0.03682188337557018
1772789278483102000,6.96010205078125,-0.1377349845200777,-0.0037817835610359906,-0.026786519312486053
1772789278493167900,6.97016796875,-0.1375169578552246,0.0032350363984704014,-0.011638999867439269
1772789278503233800,6.98023388671875,-0.12397767732441424,-0.008124562005698681,-0.009032434098236262
1772789278513299700,6.9902998046875,-0.08066460529863834,-0.024144188110157845,-0.0037180706750601527
1772789278523365600,7.00036572265625,-0.07203355507552624,-0.035745632446184755,-0.017598164000175893
1772789278533431800,7.010431884765625,-0.09297463629543781,-0.04013612249009311,-0.03348568815756589
1772789278543497700,7.020497802734375,-0.06271978328526019,-0.05543130677752196,-0.01326320353578776
1772789278553564000,7.03056396484375,-0.06354162106215953,-0.06599617460742592,-0.009619622869044542
1772789278563629800,7.0406298828125,-0.05373334375321865,-0.049400867506861686,-0.01560461556278169
1772789278573696000,7.050696044921875,-0.08330547519624233,-0.05611439367085695,-0.0060765069020912044
1772789278583761700,7.06076171875,-0.12506196542978287,-0.043365240604430436,-0.003684606796875596
1772789278593827800,7.070827880859375,-0.11873159336447715,-0.01627308940887451,-0.021190562468953428
1772789278603893800,7.080893798828125,-0.1693096879571676,0.010465864434838294,-0.014085223975777625
1772789278613960700,7.090960693359375,-0.21608955931067467,-0.009527560671418904,-0.01719206741731614
1772789278624027000,7.10102685546875,-0.18526888911128042,-0.02305865789577365,-0.01785096971746534
1772789278634092800,7.1110927734375,-0.1267027183741331,0.00556252949796617,-0.02905541409254074
1772789278644158700,7.12115869140625,-0.07815057665109634,0.01705956361144781,-0.04607643579188734
1772789278654225000,7.131224853515625,-0.08202361869215964,-0.0005682283420115709,-0.03638557431753724
1772789278664290800,7.141290771484375,-0.10569091000556945,-0.00352342488579452,-0.038156346849724646
1772789278674356700,7.151356689453125,-0.06643968059122562,-0.010527093102782964,-0.029961751815117895
1772789278684422700,7.161422607421875,-0.07630114939212798,-0.018077143156155943,-0.035191067303344606
1772789278694488800,7.17148876953125,-0.11065817702412604,-0.027415245670080184,-0.03524038633778691
1772789278704554800,7.1815546875,-0.12457973487079142,-0.021226181771606206,-0.025607502128370103
1772789278714621000,7.191620849609375,-0.10807868192493915,-0.027314232981018722,-0.031736616000533104
1772789278724686800,7.201686767578125,-0.10891980892419814,-0.02152757587097585,0.002753901818022132
1772789278734752800,7.211752685546875,-0.09257774593234061,-0.03404924032445997,-0.029125995110720393
1772789278744818700,7.221818603515625,-0.10887304717302322,-0.02718136384896934,-0.03554346093758941
1772789278754884600,7.231884521484375,-0.11092471900582312,0.007573394396342336,-0.01920074035860598
1772789278764950800,7.24195068359375,-0.11404022067785262,-0.009747048640996217,-0.026692009429447352
1772789278775016700,7.2520166015625,-0.14457856680452824,-0.020778912928141654,-0.01815773411169648
1772789278785083600,7.262083740234375,-0.14823825835585594,-0.02135353447832167,-0.017658735080994664
1772789278795149800,7.27214990234375,-0.15762684894800186,-0.03752857034020125,-0.010317615070566534
1772789278805215700,7.2822158203125,-0.15882161169052122,-0.018441556021757424,-0.012529117107577621
1772789278815282000,7.292281982421875,-0.16577157695889472,-0.0052465223513543605,-0.014704561450518667
1772789278825347800,7.302347900390625,-0.17081892347633837,-0.01138652294371277,-0.017602840175293386
1772789278835413800,7.312413818359375,-0.13575287079215048,-0.014203553125821054,-0.0019186931028962134
1772789278845479700,7.322479736328125,-0.13852525811493396,-0.002788279011659324,0.004558393956720828
1772789278855545900,7.3325458984375,-0.1411205353051424,-0.007014372274093329,0.020147373558953404
1772789278865611800,7.34261181640625,-0.0859685569256544,-0.015315459890477359,-0.005427395343594253
1772789278875678000,7.352677978515625,-0.09489712879061699,0.00668641896136105,0.0002304112223908305
1772789278885743900,7.362743896484375,-0.1142068094164133,-0.02244582322705537,-0.002142820714972913
1772789278895809800,7.372809814453125,-0.12710603847801685,-0.019736125876940784,-0.054411023819074034
1772789278905875700,7.382875732421875,-0.09940846873521804,0.015042159374430774,-0.03185684484671801
1772789278915941600,7.392941650390625,-0.06444120025038719,-0.01327069272249937,-0.024349939815327525
1772789278926007800,7.4030078125,-0.04781564414203167,-0.013904972038045525,-0.01886226565185934
1772789278936073700,7.41307373046875,-0.09535480943024158,-0.02112385390829295,-0.039148024768196045
1772789278946140000,7.423139892578125,-0.10894728145301341,-0.021480704521946607,-0.04317289637010544
1772789278956205800,7.433205810546875,-0.1132920326590538,-0.00923953751027584,-0.03832056096810847
1772789278966272800,7.443272705078125,-0.1440127496153116,-0.004711977083235979,-0.008760412223823368
1772789278976339000,7.4533388671875,-0.14791092609763146,-0.01147266685720533,-0.0014683189868927
1772789278986404900,7.46340478515625,-0.1493587868183851,-0.02558357326351106,0.0037566491197794675
1772789278996470800,7.473470703125,-0.09302490517795085,-0.035228732432611286,-0.003088577132485807
1772789279006536700,7.48353662109375,-0.06405775389075279,0.0021341259518638253,-0.04195281652323901
1772789279016603000,7.493602783203125,-0.0787578948944807,0.0009056070702150463,-0.04342771138139069
1772789279026668800,7.503668701171875,-0.12261340323388575,-0.016302644296921787,-0.03041113955043256
1772789279036734700,7.513734619140625,-0.10588730936050414,-0.012705350457318127,-0.02598017136566341
1772789279046801000,7.52380078125,-0.09387596904933453,-0.01393606129605323,-0.025049064528010784
1772789279056862700,7.53386279296875,-0.11501461866796016,-0.020136121512576936,-0.03486271213181317
1772789279066929000,7.543928955078125,-0.15520459023714064,-0.020033574453555046,-0.03326773455794901
1772789279076994800,7.553994873046875,-0.17384791590869425,-0.029397103669680652,-0.0206523274064064
1772789279087061000,7.56406103515625,-0.19201310267448424,-0.01932685095630586,0.006975318905338645
1772789279097126700,7.574126708984375,-0.16497838075459004,-0.04114241345580667,0.01709350241366774
1772789279107192800,7.58419287109375,-0.15229250218272208,-0.03431464979499578,0.016477197146229444
1772789279117258800,7.5942587890625,-0.11384791297614574,-0.03021510552167892,-0.010685169741325079
1772789279127325000,7.604324951171875,-0.12563713496923445,-0.018737068369612097,0.0016691387886181473
1772789279137390800,7.614390869140625,-0.11105039121210575,-0.012280110782571137,-0.010470065685920417
1772789279147456800,7.624456787109375,-0.04798164835870266,-0.011092143107019364,-0.01824285511188209
1772789279157523000,7.63452294921875,-0.05223930580317974,-0.02558572868797928,-0.03756049984842538
1772789279167590000,7.64458984375,-0.07717033344209194,-0.03228453220687806,-0.04968063429631293
1772789279177655800,7.65465576171875,-0.10484510683119297,-0.03060779463369399,-0.051931080104224384
1772789279187721700,7.6647216796875,-0.11087269655764102,-0.018685703508555886,-0.03349675754085183
1772789279197787600,7.67478759765625,-0.13217910395860671,-0.0202377917887643,-0.0009347966320812701
1772789279207853800,7.684853759765625,-0.17182547017037866,-0.03384147932529449,-0.0008117182416841387
1772789279217919700,7.694919677734375,-0.14914835893809794,-0.022591807569004595,0.004659150917455554
1772789279227986000,7.70498583984375,-0.12704174107015132,-0.002352152616716921,-0.0024538959581404925
1772789279238051800,7.7150517578125,-0.11000468155145644,-0.014660722308792173,0.0035863705867901444
1772789279248118000,7.725117919921875,-0.11857786410748958,-0.009686587158031761,-0.006301036372967064
1772789279258184000,7.735183837890625,-0.1271907941520214,-0.0013977014360949396,-0.02525244161300361
1772789279268249900,7.745249755859375,-0.11953764905035495,-0.002702427359111607,-0.04020294064860791
1772789279278315800,7.755315673828125,-0.10565233156085013,0.0021295593746006487,-0.0308394114324823
1772789279288381700,7.765381591796875,-0.0917857187718153,-0.0030764848358929156,-0.030119718855805694
1772789279298448000,7.77544775390625,-0.08015081055760383,0.016816877429373562,-0.0030147081786766647
1772789279308513800,7.785513671875,-0.10366495713591575,0.007723981848172843,0.0177555099863559
1772789279318580000,7.795580078125,-0.16594108830690382,-0.007885565618053078,0.019914331988058982
1772789279328646000,7.80564599609375,-0.16103051991164682,-0.017292897443287075,0.011093348683416843
1772789279338711800,7.8157119140625,-0.14263386247754095,-0.02407561638597399,-0.00006060761343687772
1772789279348777700,7.82577783203125,-0.10896189450025558,-0.020871742310747503,-0.02125840354077518
1772789279358844000,7.835843994140625,-0.09862404035925865,-0.025885515352152288,-0.02792546021454036
1772789279368909800,7.845909912109375,-0.08066752790808678,-0.025521979269385337,-0.017568609112128614
1772789279378975700,7.855975830078125,-0.12318272755444049,-0.03138371090963483,-0.022776297290436922
1772789279389043000,7.86604296875,-0.1409896024018526,-0.030437991024740037,-0.019857450701668857
1772789279399108900,7.87610888671875,-0.13738836303949356,-0.018053725747950375,-0.01278915628325194
1772789279409175000,7.886175048828125,-0.12373042456507682,-0.024427242835238575,-0.020338146890699862
1772789279419241000,7.896240966796875,-0.11574819363951683,-0.007062924123555421,-0.03907251184657216
1772789279429306600,7.906306640625,-0.10448270325958728,0.004294664986617863,-0.029402364366687833
1772789279439372800,7.916372802734375,-0.08936872075796126,-0.0013348288003355263,-0.036632936674728986
1772789279449438700,7.926438720703125,-0.09031038552224635,0.021680647540837525,-0.05328030275609344
1772789279459505000,7.9365048828125,-0.09977262587249279,0.019301022395305335,-0.023011567351035773
1772789279469570800,7.94657080078125,-0.10728314763307571,0.010723675120808183,-0.01721058945469558
1772789279479637000,7.956636962890625,-0.09260814107060432,-0.00556428306363523,-0.024762502671591937
1772789279489703000,7.966702880859375,-0.09725158296227454,-0.013091171437129378,-0.03861494080480188
1772789279499768800,7.976768798828125,-0.12209843944907188,-0.020902721970900894,-0.029914113281108438
1772789279509834800,7.986834716796875,-0.11881459547281265,-0.013173515958338974,-0.04297459731902927
1772789279519900700,7.996900634765625,-0.0984825860619545,-0.0023210998913273215,-0.03586801671683788
1772789279529966800,8.006966796875,-0.126162035626173,-0.019681619210727513,-0.030346805609948933
1772789279540032800,8.01703271484375,-0.17309972788989542,-0.024781243904680013,-0.019689217995293436
1772789279550099000,8.027098876953126,-0.14852525860369203,-0.019616956476680932,-0.009959631945751607
1772789279560164900,8.037164794921875,-0.1218880115687847,-0.024637561117671427,-0.033221886122226714
1772789279570230800,8.047230712890626,-0.10705518409609795,-0.0057219213107600805,-0.037517391359061
1772789279580296700,8.057296630859375,-0.09313479529321193,-0.01158851178921759,-0.042889220590516926
1772789279590363000,8.06736279296875,-0.11227379552721976,-0.026029490400105715,-0.030100868024863302
1772789279600428800,8.0774287109375,-0.11406886225044727,-0.016369791248999534,-0.02214716907404363
1772789279610495000,8.087494873046875,-0.1013578492373228,0.0005410480741411447,-0.008647745629586279
1772789279620561000,8.097560791015624,-0.11988485505282878,-0.0007499781170859932,-0.008277231816761195
1772789279630626800,8.107626708984375,-0.10219722267091273,-0.014516016608476639,-0.021158413765020666
1772789279640693000,8.11769287109375,-0.10157938303351402,0.006570172170549631,-0.03732099200412631
1772789279650758700,8.127758544921875,-0.12249649885594845,-0.01670987339094281,-0.024168190040253102
1772789279660824800,8.137824951171876,-0.12231705063581466,-0.013471402926370502,-0.03375321651995182
1772789279670890800,8.147890869140625,-0.10074000959992409,-0.0063126537455245844,-0.04022434876281768
1772789279680957000,8.15795703125,-0.12269056012332438,-0.012355550638958811,-0.03157755298130214
1772789279691022800,8.16802294921875,-0.14250935931503772,-0.0327836773680523,-0.019918131380341948
1772789279701089000,8.178089111328125,-0.14374153145849705,-0.04215948154386133,-0.019370982358977197
1772789279711155000,8.188155029296874,-0.126855863109231,-0.03185932906474918,-0.02182568203471601
1772789279721220600,8.198220703125,-0.11390344255566597,-0.02439176966305822,-0.02171539006065577
1772789279731288000,8.2082880859375,-0.1289776775687933,-0.030166736335307358,-0.036872115725465116
1772789279741353700,8.218353759765625,-0.14767127212285994,-0.013020773082040249,-0.05601557293888181
1772789279751420000,8.228419921875,-0.14394669864177703,-0.02522686878032982,-0.03931823023594916
1772789279761485800,8.23848583984375,-0.12929331938922403,-0.024588863137736915,-0.024612755469977855
1772789279771551700,8.2485517578125,-0.13574936366081236,-0.0128374889370054,-0.021816804608516392
1772789279781618000,8.258617919921875,-0.12693594260811805,-0.01645779832601547,-0.010622004844620824
1772789279791683800,8.268683837890626,-0.09401742334663868,-0.013103702125139534,-0.014240560667961834
1772789279801750000,8.27875,-0.08532733641266822,-0.003085581457801163,-0.000932823870703578
1772789279811815700,8.288815673828125,-0.10252280136346817,-0.009604096506349741,0.0065692588550969955
1772789279821881900,8.2988818359375,-0.1256745443701744,0.0030456878388300536,0.0019276801269501446
1772789279831947800,8.30894775390625,-0.12623451634049415,0.0037159152505919337,0.0034397651903331277
1772789279842014000,8.319013916015624,-0.09686053781807422,-0.00001793751548975706,0.0049683629970997565
1772789279852079900,8.329079833984375,-0.10694821659028529,-0.0022126345481723545,0.014652027545683085
1772789279862145800,8.339145751953126,-0.1071264957666397,-0.002920015632547438,0.013809950698353349
1772789279872212000,8.3492119140625,-0.06764438020586967,-0.013171835457906126,0.006181355516053736
1772789279882277600,8.359277587890626,-0.0548334139496088,-0.01389656953588128,-0.007774689122103154
1772789279892343800,8.36934375,-0.07106558682620524,-0.017137560751102864,-0.02007478324677795
1772789279902409700,8.37940966796875,-0.07877016985416412,-0.017812866196781397,-0.0076829191854223605
1772789279912476000,8.389475830078124,-0.10562719711959362,-0.02299143787845969,-0.010225114481523632
1772789279922541800,8.399541748046875,-0.14934475829303265,-0.01622150535210967,0.007761683510057627
1772789279932608000,8.40960791015625,-0.173244104796648,-0.00953062941133976,0.01934102561213076
1772789279942674000,8.419673828125,-0.13307634505927562,-0.016350611624494193,-0.00265343711823225
1772789279952739800,8.42973974609375,-0.12063128950595856,-0.015216127701848745,-0.016643858950026333
1772789279962805800,8.4398056640625,-0.11284195080399513,-0.01830225714892149,-0.029717056339047847
1772789279972871700,8.44987158203125,-0.08672317468523978,-0.04220554917529225,-0.04161967557873577
1772789279982937900,8.459937744140625,-0.0950964507550001,-0.049258719089813524,-0.03813570592049509
1772789279993003800,8.470003662109375,-0.11320552341938019,-0.04253350248802453,-0.028643216562457382
1772789280003070000,8.480070068359375,-0.1570528484523296,-0.03077650226410478,0.007981609871052205
1772789280013136000,8.490135986328125,-0.20565116740465164,-0.025696459053456782,0.01222505612708628
1772789280023202000,8.5002021484375,-0.20649580153524874,-0.016072890661656857,0.014511267368122934
1772789280033267700,8.510267822265625,-0.16274901426732538,-0.025394443899579344,-0.008980448182672261
1772789280043334000,8.520333984375,-0.15206570768952368,-0.026478695472329852,-0.014497823364660142
1772789280053399800,8.53039990234375,-0.12417407667934893,-0.00743522803466767,-0.03305548004675656
1772789280063465500,8.540465576171876,-0.08408873452842235,-0.010705664540082215,-0.042426461916975675
1772789280073532700,8.55053271484375,-0.07981354142725468,-0.007979235250875353,-0.013010507416352629
1772789280083598600,8.5605986328125,-0.09394435811042785,-0.0002554725984111428,0.006308525559678674
1772789280093664800,8.570664794921875,-0.08637772224843501,-0.009431224157474934,-0.004779525894112885
1772789280103730700,8.580730712890626,-0.10124211390316486,-0.014899353370256722,-0.0017963088322430847
1772789280113796600,8.590796630859375,-0.12337561977803706,-0.004956709091924131,0.015360723804309964
1772789280123862800,8.60086279296875,-0.12840016994178294,-0.01654434409830719,0.0029486572051420808
1772789280133928700,8.6109287109375,-0.08017068430185317,-0.027067272482626137,-0.008073672068677842
1772789280143994600,8.62099462890625,-0.08687573489844798,-0.04896404699217528,-0.012059271106123924
1772789280154060500,8.631060546875,-0.08631810101568699,-0.03176810711733997,-0.025347243756987152
1772789280164126700,8.641126708984375,-0.06550093843638896,-0.0381161975024268,-0.02580061354767531
1772789280174192600,8.651192626953126,-0.08091127353608608,-0.03648841363750398,-0.016268303635902703
1772789280184258800,8.6612587890625,-0.1139542959600687,-0.047666992918960746,0.02874313327297568
1772789280194324700,8.67132470703125,-0.12972820367515087,0.009275339476019143,0.03910378376767039
1772789280204390700,8.681390625,-0.19764204847216604,-0.017377068595401942,0.014983341859281062
1772789280214456600,8.69145654296875,-0.25682839693427084,-0.022184213148802517,0.009453582119755447
1772789280224522500,8.7015224609375,-0.18973112921714783,-0.004026004113070666,-0.007878514822758734
1772789280234588700,8.711588623046875,-0.09620528877973555,0.008656951849348843,-0.021341076855547723
1772789280244654600,8.721654541015624,-0.08426350657343865,-0.006683971275947988,-0.047544572115689514
1772789280254720800,8.731720703125,-0.12935060253441333,0.014220759988948702,-0.04248783671539277
1772789280264786700,8.74178662109375,-0.10296002373695373,-0.0007884104313328862,-0.02453698682002723
1772789280274852900,8.751852783203125,-0.10904957278370857,0.002981536561436951,0.012169307351857422
1772789280284918800,8.761918701171876,-0.11526771664619445,-0.021967099799402055,0.005826952587813138
1772789280294984700,8.771984619140625,-0.12456862895488738,-0.02674257057290524,0.0002549976743757725
1772789280305050600,8.782050537109376,-0.11838730997145175,-0.04909636813495308,-0.01729961944501847
1772789280315116500,8.792116455078125,-0.11083119550347327,-0.06684365828223526,-0.02635021025445312
1772789280325182700,8.8021826171875,-0.09535656299591064,-0.06034227703157812,-0.04944587569236755
1772789280335248600,8.81224853515625,-0.09098492378294468,-0.04138871636707336,-0.04510426629148424
1772789280345314800,8.822314697265625,-0.12762977009117601,-0.018764212104864418,-0.0391416680926457
1772789280355380700,8.832380615234374,-0.12762392487227917,-0.022647519811615346,-0.011883585745655
1772789280365446700,8.84244677734375,-0.11399871962368488,-0.021953728861175477,0.01023063090685755
1772789280375512600,8.8525126953125,-0.09424071070849895,-0.004097608044557273,-0.004370141375623643
1772789280385578800,8.862578857421875,-0.08451485098600386,0.006589607523381709,-0.010963438693434
1772789280395644700,8.872644775390626,-0.11951602174043655,-0.00464636450111866,-0.010557999697700143
1772789280405710600,8.882710693359375,-0.10215396805107593,0.013204459085874259,-0.0035871012391522523
1772789280415776800,8.89277685546875,-0.10978139418959618,0.02016023304052651,0.006964359119907021
1772789280425842700,8.9028427734375,-0.13249649934470653,0.012267616627179085,-0.009088950058445334
1772789280435908600,8.91290869140625,-0.09760112705230713,0.0062438993582502,-0.0005266542226076126
1772789280445974500,8.922974609375,-0.12541910830438135,-0.01522635683491826,0.007280877723172307
1772789280456040700,8.933040771484375,-0.12494096939861773,0.00011515081226825714,0.003163688195310533
1772789280466106600,8.943106689453124,-0.1092395423978567,0.001005889106914401,-0.009956417075358331
1772789280476172800,8.9531728515625,-0.11705284649729727,-0.03562518440429121,-0.032320114976912735
1772789280486238700,8.96323876953125,-0.13171908523142337,-0.03602802958413958,-0.036222711906023324
1772789280496304600,8.9733046875,-0.11630641204416751,-0.023692827613465486,-0.035618535467796024
1772789280506370800,8.983370849609376,-0.1028524717092514,-0.038214872103929515,-0.02159176368098706
1772789280516437800,8.993437744140625,-0.13025135076642036,-0.032350217854231596,-0.014432539576105772
1772789280526503700,9.003503662109376,-0.12334464011788368,-0.02335497396122664,-0.008242270101234316
1772789280536569600,9.013569580078125,-0.09727028766274452,-0.019773096886463462,-0.006109751584567129
1772789280546635500,9.023635498046875,-0.09948036492764949,-0.0056650765569880605,-0.011356639262102544
1772789280556701700,9.03370166015625,-0.10842822601497172,-0.00021788053438067436,-0.01752780217770487
1772789280566767600,9.043767578125,-0.12486790416240691,0.002619754044339061,-0.008973251256905495
1772789280576833800,9.053833740234374,-0.1382961255341768,0.01642740318775177,0.010368066616170108
1772789280586899700,9.063899658203125,-0.12376081970334052,-0.0006440335245802998,0.007055909860879182
1772789280596966000,9.0739658203125,-0.11999006899297236,0.007299582423642277,-0.009419643317535519
1772789280607031600,9.084031494140625,-0.10694529398083687,0.0073255936477333305,-0.017228855763748288
1772789280617097700,9.09409765625,-0.08928221151828765,0.009300473917275667,-0.00736150521133095
1772789280627163600,9.10416357421875,-0.13565934728980064,-0.014783910297043621,-0.012071253804862498
1772789280637229600,9.1142294921875,-0.12696516870260238,-0.02242313647121191,-0.00857011381611228
1772789280647295700,9.124295654296875,-0.14473814128041265,-0.007408486158214509,0.005001096222922206
1772789280657361700,9.134361572265625,-0.1254348903954029,-0.02152823345810175,-0.01414776781797409
1772789280667427800,9.144427734375,-0.10243629212379456,-0.006510660535655915,-0.029255101383104918
1772789280677493500,9.154493408203125,-0.11338380259573459,-0.019189086453430353,-0.029832828205823895
1772789280687559700,9.1645595703125,-0.0725146165907383,-0.008882431168295443,-0.0035687253322452305
1772789280697625600,9.17462548828125,-0.07306172907948494,-0.0014775252066552638,0.005895158985815942
1772789280707691800,9.18469189453125,-0.06206394972503185,-0.012130327048338949,0.012066029640473425
1772789280717757700,9.1947578125,-0.07276771456897259,-0.019708726413361726,0.013120799390412866
1772789280727823600,9.20482373046875,-0.0902384893298149,-0.0008181845150887966,-0.0007507453020662069
1772789280737889800,9.214889892578125,-0.1071136362850666,-0.007073956974223256,0.01782579874359071
1772789280747955500,9.22495556640625,-0.09542962823212146,0.004243555853888392,0.00007481880187988281
1772789280758021600,9.235021728515624,-0.12787234667539596,0.017670279388315974,0.00008150427099317312
1772789280768087600,9.245087646484375,-0.19496552273929119,-0.012244016555882989,0.02579480486139655
1772789280778153700,9.25515380859375,-0.21114801125526428,-0.00670242024809122,0.01603577352166176
1772789280788219600,9.2652197265625,-0.16659283021390436,-0.004790814473107457,-0.019011464864201844
1772789280798285800,9.275285888671876,-0.1472206057459116,-0.008221044650115071,-0.032884763122349975
1772789280808351700,9.285351806640625,-0.13388240074515342,-0.003487367191724479,-0.03974862100984901
1772789280818417700,9.295417724609376,-0.10041559995114803,-0.029608189137093722,-0.050339426998607814
1772789280828483600,9.305483642578125,-0.08865501953065395,-0.04161752015426755,-0.043311720318906004
1772789280838549500,9.315549560546875,-0.07672142063081264,-0.042575259270519014,-0.01446424988862127
1772789280848615700,9.32561572265625,-0.05129530295133591,-0.027807934782095253,-0.029712343631312248
1772789280858681600,9.335681640625,-0.09059797029197215,-0.01817757132332772,-0.020433277828246353
1772789280868747800,9.345747802734374,-0.1308937403231859,-0.028167123483307657,-0.003566387244686484
1772789280878813700,9.355813720703125,-0.12253916895389556,-0.005394333324208855,-0.004228650545701385
1772789280888879900,9.3658798828125,-0.1279658701777458,-0.005958579610846937,-0.0012665493370965122
1772789280898945500,9.375945556640625,-0.16572598425149918,-0.0038940848290920254,-0.014002879454568028
1772789280909011700,9.38601171875,-0.14978957945108412,-0.007301774380728602,-0.00847878227084875
1772789280919077600,9.39607763671875,-0.12133680742681026,-0.00519460950102657,-0.007561777023784816
1772789280929143600,9.4061435546875,-0.12344283979535102,-0.0009612462475895881,-0.012405308064818382
1772789280939209700,9.416209716796875,-0.13618950864374638,0.00323401348516345,-0.013295790631137788
1772789280949275600,9.426275634765625,-0.1438701262742281,-0.0019797391077503563,-0.0004002878965809941
1772789280959341800,9.436341796875,-0.123138888412714,-0.004818944589048624,0.002323291848413646
1772789280969407500,9.446407470703125,-0.1103290912002325,0.0024761443225666878,-0.009773717452213167
1772789280979473700,9.4564736328125,-0.11349310818910598,0.0011747428677976132,-0.014219152553752064
1772789280989539600,9.46653955078125,-0.1130219835460186,-0.026508140762522815,-0.002952529662661254
1772789280999605800,9.476605712890626,-0.09264321238398551,-0.035064006857573986,-0.014323526243679224
1772789281009671700,9.486671630859375,-0.07197101123332977,-0.019390746505372224,-0.03306768194120377
1772789281019737600,9.496737548828126,-0.06452069522738456,-0.013619360029697417,-0.02025233177077025
1772789281029803800,9.5068037109375,-0.0968698901683092,-0.0222630870712921,-0.017560425805673
1772789281039869700,9.51686962890625,-0.10477847133576869,0.0009404591878876089,-0.00320423940140754
1772789281049935600,9.526935546875,-0.1051572415202856,0.006034055999852716,-0.0065166884176433085
1772789281060001500,9.53700146484375,-0.1218190379858017,0.016715791675075888,-0.010969868434220553
1772789281070067700,9.547067626953124,-0.13219371700584887,0.010896328273974359,-0.01991835057605058
1772789281080133600,9.557133544921875,-0.13480360724329948,0.03003934709597379,-0.0006619345074519514
1772789281090199800,9.56719970703125,-0.09166706082820891,0.005919416644237935,-0.016591544240899384
1772789281100265700,9.577265625,-0.11169804146587849,0.007961334268003701,-0.017721936510317025
1772789281110331600,9.58733154296875,-0.13399345990419387,0.01039535648189485,-0.023673757586814462
1772789281120397600,9.5973974609375,-0.12172785257101058,-0.002520641051419079,-0.024591347355768085
1772789281130463500,9.60746337890625,-0.10304127227962016,-0.019444887845404445,-0.014728380717523396
1772789281140529700,9.61752978515625,-0.11591770498752593,-0.019648374528251588,-0.014096622152626513
1772789281150595600,9.627595703125,-0.11636135710179805,-0.03308149127084762,-0.013548377152718602
1772789281160661800,9.637661865234374,-0.08986673340797424,-0.04727086974084377,-0.003036043227650225
1772789281170727700,9.647727783203125,-0.0771679953545332,-0.03244041688833386,-0.023078385509550572
1772789281180793900,9.6577939453125,-0.10381050308644771,-0.025371428350172934,-0.021724925073981285
1772789281190859500,9.667859619140625,-0.12607377282083035,-0.007925130443461239,-0.010609802950173617
1772789281200925700,9.67792578125,-0.13634732955396175,-0.01602181806154549,-0.013261705698445439
1772789281210991600,9.68799169921875,-0.13330197050869463,-0.015910941565595565,-0.012018354573845863
1772789281221057500,9.6980576171875,-0.12399813559055328,-0.0024900997826829553,-0.019725933276489378
1772789281231123700,9.708123779296875,-0.09903379020392894,0.0273221970917657,-0.0066308163166046135
1772789281241189600,9.718189697265625,-0.17487725895643233,0.0101121556263417,0.009264343157969415
1772789281251255800,9.728255859375,-0.1558347048342228,-0.004612681427225471,-0.00389006624110043
1772789281261321700,9.73832177734375,-0.06244914965033531,0.02979362870659679,-0.020547697988152504
1772789281271387600,9.7483876953125,-0.07501987740993499,0.010196217180602252,-0.012356610084883868
1772789281281453600,9.75845361328125,-0.10505319662392139,-0.0031026787230744955,0.016573862453736363
1772789281291519700,9.768519775390626,-0.08763619787693024,-0.00505783137883991,0.007360372700169682
1772789281301585700,9.778585693359375,-0.08547171331942081,-0.009178528038039802,-0.0006669029435142875
1772789281311651600,9.788651611328126,-0.11218670176565647,0.002543985394388437,-0.002687047126889229
1772789281321717800,9.7987177734375,-0.12349486224353312,-0.012758103557862341,0.005536956665292382
1772789281331783700,9.80878369140625,-0.128206108674407,-0.026958807139471172,-0.015969503352418542
1772789281341849600,9.818849609375,-0.11345452974438666,-0.007373159116506576,-0.02649765590112656
1772789281351915500,9.82891552734375,-0.14763620080947876,-0.011086918942630291,-0.007688472143374383
1772789281361981700,9.838981689453124,-0.15474223342239857,-0.031038258472830055,-0.0024547727409750223
1772789281372047600,9.849047607421875,-0.16889409289360047,-0.015633805124647914,0.013183525895699858
1772789281382113800,9.85911376953125,-0.15106500621438027,-0.006300999840348959,0.01419394504725933
1772789281392179700,9.8691796875,-0.13672317712903023,-0.022977007494308054,0.002996661065332591
1772789281402245600,9.87924560546875,-0.15112696553468705,-0.02164685486909002,-0.010124430586025118
1772789281412311800,9.889311767578125,-0.13696166206002233,-0.020549013162404296,-0.012224215876869856
1772789281422377500,9.89937744140625,-0.1032049384087324,-0.015595957332290708,-0.01728153579905629
1772789281432443600,9.909443603515625,-0.0962257470458746,-0.014749240842461585,-0.021341003790311515
1772789281442509600,9.919509521484375,-0.10354805275797843,-0.01107537463530898,-0.003351027460955083
1772789281452575700,9.92957568359375,-0.09183072695732117,-0.02748637467753142,-0.005418335254304111
1772789281462641700,9.9396416015625,-0.08699147023260594,-0.00883475610166788,-0.006281601020134985
1772789281472707800,9.949707763671874,-0.08709902226030826,-0.012084734340943395,-0.0027772096283733842
1772789281482773800,9.959773681640625,-0.09230477420985699,-0.0015409458316862582,-0.011137918477505445
1772789281492839700,9.969839599609376,-0.10186112258434295,-0.0022641090070828792,-0.01139503504373133
1772789281502905600,9.979905517578125,-0.10321078362762927,0.003306275003775954,-0.0048534313805401325
1772789281512971500,9.989971435546876,-0.11475216833949088,0.006831745716184378,-0.010748480768501758
1772789281523037700,10.00003759765625,-0.11907996841073036,-0.0029641835678368804,-0.02000814775135368
1772789281533103600,10.010103515625,-0.1266723232358694,0.008025595143251121,-0.010245024758391081
1772789281543168800,10.020168701171874,-0.15730360834300516,0.0034092969868332146,0.003778824418969452
1772789281553234700,10.030234619140625,-0.16834464231729507,-0.01303757808636874,0.00151712656468153
1772789281563300600,10.040300537109376,-0.13782500089108943,-0.006632862143218517,-0.011661577025428414
1772789281573366500,10.050366455078125,-0.1216834289073944,-0.017509207075089215,-0.01068436602372676
1772789281583432700,10.0604326171875,-0.1021112979531288,-0.019504582143388686,-0.024412848983705042
1772789281593498600,10.07049853515625,-0.0732680653065443,-0.02066880361717194,-0.017731434991024433
1772789281603564800,10.080564697265626,-0.0961684639006853,-0.014952617927454412,-0.005875979361310601
1772789281613630700,10.090630615234375,-0.08150573229789733,-0.005217515452578664,0.0002285115262493491
1772789281623696600,10.100696533203125,-0.06042495034635067,-0.013319829093851149,-0.010219853784516453
1772789281633762600,10.110762451171874,-0.0670201108276844,-0.008434395139850675,-0.005448620794713497
1772789281643828700,10.120828857421875,-0.10243570760190486,0.005447415218316019,0.016077895630337298
1772789281653894700,10.130894775390624,-0.12029752750694751,-0.0036347397731617092,0.027032274234481155
1772789281663960600,10.140960693359375,-0.12796470113396644,-0.0137913921283558,0.007266374273784459
1772789281674026800,10.15102685546875,-0.1029915879189968,-0.0030668036920949815,-0.014961276157945394
1772789281684092700,10.1610927734375,-0.10330606069564818,0.010071823615953325,-0.03875792947206646
1772789281694158800,10.171158935546876,-0.10917290690243243,0.013306056296825408,-0.041388497171364724
1772789281704224500,10.181224609375,-0.10190145459473132,-0.004745514026656746,-0.028117548720538614
1772789281714290700,10.191290771484375,-0.0719476303577423,-0.014720708867721258,-0.02195807624273002
1772789281724356600,10.201356689453124,-0.08216448846757411,-0.019318302323669195,-0.02751859644670039
1772789281734422800,10.2114228515625,-0.13384265325665473,-0.03096354926880449,-0.017480638567730782
1772789281744488700,10.22148876953125,-0.14017360984385013,-0.039817704190686344,-0.002982888268306851
1772789281754554600,10.2315546875,-0.14273381572067737,-0.026341880817525087,0.0018953487599268554
1772789281764620800,10.241620849609374,-0.14073942703306674,-0.02763590268343687,-0.0011321093024685978
1772789281774686500,10.2516865234375,-0.13630173684656618,-0.0138460814576596,0.015025098641775548
1772789281784752600,10.261752685546876,-0.13516133463978766,-0.021678492116369307,0.004666201712749898
1772789281794818600,10.271818603515625,-0.14842004466354847,-0.01633870199099183,-0.02366802196577191
1772789281804884700,10.281884765625,-0.12207681213915347,-0.011036942321062088,-0.02479384765792638
1772789281814950700,10.29195068359375,-0.1346586458146572,-0.005080883460864424,-0.00833093476537615
1772789281825016800,10.302016845703125,-0.13361702780723572,0.010942615101113915,0.0032168431546539065
1772789281835082800,10.312082763671874,-0.12061843002438545,0.005316811108589172,-0.002402384966611862
1772789281845148700,10.322148681640625,-0.12497136453688144,0.0023911329202353955,0.004699775188788772
1772789281855214600,10.332214599609374,-0.11105389834344387,-0.009875095467455684,0.014306538576260209
1772789281865280500,10.342280517578125,-0.11087152751386165,-0.01360405286271125,-0.010368103148788213
1772789281875346700,10.3523466796875,-0.10349369222223759,-0.026058314635790884,-0.019094649635627865
1772789281885412600,10.36241259765625,-0.08210136010348797,-0.033363121223822234,-0.01904412502478808
1772789281895478800,10.372478759765626,-0.07662965069413184,-0.02161371978446841,-0.023573110223934053
1772789281905544700,10.382544677734375,-0.08390753274261951,-0.01458941063825041,-0.025561653692647814
1772789281915611000,10.39261083984375,-0.12588029607534407,-0.023017266439460216,-0.006458930348418652
1772789281925676500,10.402676513671874,-0.154784318998456,-0.028555428681150078,0.0040967312617227435
1772789281935742700,10.41274267578125,-0.11540683285593986,-0.017550342803075908,0.0030554420478641985
1772789281945808600,10.42280859375,-0.13136194235682486,-0.0025945100052282215,-0.003147833039052784
1772789281955874600,10.43287451171875,-0.13636486521065233,-0.0038443639358505606,-0.006660444269888103
1772789281965940700,10.442940673828126,-0.11459376290738582,-0.003354571124911308,0.0003070566551759839
1772789281976006700,10.453006591796875,-0.09329670785665511,-0.008779774511419236,-0.012968641036003828
1772789281986072800,10.46307275390625,-0.09132979169785976,-0.004293532475456595,-0.032941534810885784
1772789281996138500,10.473138427734375,-0.1079541787624359,0.0025630919536575674,-0.024562742315791544
1772789282006204700,10.48320458984375,-0.10546060838103294,-0.008987316314876079,-0.01756999735161662
1772789282016270600,10.4932705078125,-0.10295943921506404,-0.007053352577611804,-0.003666157824732363
1772789282026336800,10.503336669921875,-0.13846096070706843,0.014005363672599195,0.014350633446313439
1772789282036402700,10.513402587890624,-0.1456733763039112,-0.011511026106216012,0.019487156084552405
1772789282046468600,10.523468505859375,-0.14463058925271033,-0.017987930502742527,0.015948204836063087
1772789282056534800,10.53353466796875,-0.11885726557075976,-0.013739369680173695,-0.013806005175597965
1772789282066601000,10.54360107421875,-0.10443769507408142,-0.02286828642282635,-0.027060879274457692
1772789282076667100,10.553667236328126,-0.09031564621925353,-0.020653825243748723,-0.022636852287128566
1772789282086733000,10.563733154296875,-0.1140495730280876,-0.02664663591776043,-0.013818499330990016
1772789282096799200,10.57379931640625,-0.10266542470455169,-0.03241338275093585,-0.02270750637054443
1772789282106865200,10.583865234375,-0.12585516163408755,-0.03259312323201448,-0.026486696115694937
1772789282116930000,10.593929931640625,-0.13107377306520937,-0.019193287704512476,-0.01049472520314157
1772789282126996000,10.603995849609374,-0.11756956384778022,-0.005456219579279422,-0.024276107394136485
1772789282137062100,10.614062255859375,-0.10798632746636867,0.001312251642346382,-0.018751535286381838
1772789282147128000,10.624128173828124,-0.09007833033204078,0.012824410259723662,-0.019313114691898225
1772789282157194200,10.6341943359375,-0.09320084626674652,0.023547464326024056,-0.015407156761921942
1772789282167260000,10.644260009765626,-0.12557809825837613,0.05291472084671259,-0.014755597518011927
1772789282177326000,10.654326171875,-0.16446049436032772,0.011422471039928495,-0.011149389719590544
1772789282187392000,10.66439208984375,-0.1994663412898779,-0.03408233887646347,-0.0019338176067918537
1772789282197458000,10.6744580078125,0.013003273957967758,-0.01945917209908366,0.03551281007099896
1772789282207524000,10.684524169921875,0.22149287965893744,0.04412537478934973,0.050441060742177066
1772789282217590000,10.694590087890624,-0.09799158767461776,-0.054968803832307456,0.023998094170354305
1772789282227656200,10.70465625,-0.29532734667658805,-0.014832535211741923,0.013017302483320236
1772789282237722000,10.71472216796875,-0.3498170617550611,-0.01116184734236449,0.024120295777916908
1772789282247788000,10.7247880859375,-0.1863543462604284,-0.023577092279307543,-0.02748031026292592
1772789282257854000,10.73485400390625,-0.215238495439291,0.011793678972497581,-0.024073753222450613
1772789282267920100,10.744920166015625,-0.20144085623323915,0.010816394905559717,-0.02603350898809731
1772789282277986000,10.754986083984376,-0.21201485721766947,0.02557864136006683,-0.030380634814314543
1772789282288052000,10.765052001953125,-0.2068336551874876,0.042477424919232724,-0.03534819409381598
1772789282298118100,10.7751181640625,-0.1671720914065838,0.050572687765210865,0.0006245251065120101
1772789282308184000,10.78518408203125,-0.03849778069853783,0.008455949384532868,0.02040617062561214
1772789282318250000,10.79525,0.16600947736799715,-0.04470098272021859,-0.022066468520648776
1772789282328316000,10.80531591796875,0.16980594704151153,0.08414557928219438,-0.07414338683634995
