time,seconds_elapsed,z,y,x
1772789271590359300,0.067359375,-0.19634607434272766,-0.32681992650032043,-0.2879668176174164
1772789271600425200,0.07742529296875,-0.19465656578540802,-0.26121243834495544,-0.23311448097229004
1772789271610491400,0.087491455078125,-0.1987208127975464,-0.20643892884254456,-0.14685788750648499
1772789271620557300,0.097557373046875,-0.20012430846691132,-0.19819937646389008,-0.048413604497909546
1772789271630623200,0.107623291015625,-0.19165518879890442,-0.18241748213768005,0.04544524475932121
1772789271640689400,0.117689453125,-0.17231211066246033,-0.16318225860595703,0.13128824532032013
1772789271650755300,0.12775537109375,-0.1493074595928192,-0.16988331079483032,0.2137916535139084
1772789271660822300,0.137822265625,-0.11222241073846817,-0.15869297087192535,0.2971760332584381
1772789271670888200,0.14788818359375,-0.09006784111261368,-0.13816745579242706,0.3551458418369293
1772789271680954000,0.1579541015625,-0.09699072688817978,-0.10140518099069595,0.38365551829338074
1772789271691020300,0.168020263671875,-0.10431282222270966,-0.05468321964144707,0.38879409432411194
1772789271701086200,0.178086181640625,-0.10381507873535156,-0.04423696920275688,0.38281503319740295
1772789271711152400,0.18815234375,-0.08641292154788971,-0.08721958845853806,0.35518231987953186
1772789271721218300,0.19821826171875,-0.06562507897615433,-0.12854360044002533,0.3195204734802246
1772789271731284500,0.208284423828125,-0.05047489330172539,-0.1915406733751297,0.30494287610054016
1772789271741350400,0.218350341796875,-0.044205278158187866,-0.2789892852306366,0.27565208077430725
1772789271751416300,0.228416259765625,-0.02966415137052536,-0.3301265239715576,0.22341817617416382
1772789271761482200,0.238482177734375,-0.02190583199262619,-0.33947527408599854,0.16115213930606842
1772789271771548200,0.248548095703125,-0.005579588934779167,-0.3150588870048523,0.07715630531311035
1772789271781614300,0.2586142578125,0.06719820946455002,-0.3003864586353302,0.03200000897049904
1772789271791680300,0.26868017578125,0.11874635517597198,-0.26554298400878906,0.01386841107159853
1772789271801746400,0.278746337890625,0.1350497007369995,-0.2535691559314728,0.012645221315324306
1772789271811812400,0.288812255859375,0.1340121328830719,-0.24861487746238708,0.045526739209890366
1772789271821878300,0.298878173828125,0.12656140327453613,-0.24160516262054443,0.07956007122993469
1772789271831945200,0.3089453125,0.12640906870365143,-0.23337706923484802,0.09842564165592194
1772789271842011100,0.31901123046875,0.13123925030231476,-0.21251758933067322,0.0878896415233612
1772789271852077300,0.329077392578125,0.11554151028394699,-0.2157517373561859,0.061651114374399185
1772789271862143200,0.339143310546875,0.10242863744497299,-0.23357094824314117,0.03614841774106026
1772789271872209400,0.34920947265625,0.08121868968009949,-0.26613980531692505,-0.00014620754518546164
1772789271882275300,0.359275390625,0.06285539269447327,-0.2945818305015564,-0.027282487601041794
1772789271892341200,0.36934130859375,0.07391443848609924,-0.3026469647884369,-0.03485465422272682
1772789271902407400,0.379407470703125,0.08737671375274658,-0.2552437484264374,-0.04216929152607918
1772789271912473000,0.38947314453125,0.08936050534248352,-0.20720592141151428,-0.07395145297050476
1772789271922539300,0.399539306640625,0.09689192473888397,-0.1556204855442047,-0.10188295692205429
1772789271932605200,0.409605224609375,0.10158894211053848,-0.11051585525274277,-0.1188369020819664
1772789271942671400,0.41967138671875,0.0930151641368866,-0.07200654596090317,-0.12444871664047241
1772789271952737300,0.4297373046875,0.08021920174360275,-0.050639208406209946,-0.12207956612110138
1772789271962803500,0.439803466796875,0.09610070288181305,-0.07324279099702835,-0.11992427706718445
1772789271972869400,0.449869384765625,0.08192043006420135,-0.08650879561901093,-0.10868813097476959
1772789271982935300,0.459935302734375,0.05910832807421684,-0.06219945847988129,-0.07364359498023987
1772789271993001200,0.470001220703125,0.04458983987569809,-0.03797774389386177,-0.023750070482492447
1772789272003067100,0.480067138671875,0.03371588513255119,-0.015361378900706768,0.020871194079518318
1772789272013134300,0.49013427734375,0.029042303562164307,-0.0021672805305570364,0.05639270320534706
1772789272023200300,0.5002001953125,0.016406670212745667,0.0013821806060150266,0.08050069957971573
1772789272033266400,0.510266357421875,0.007436610758304596,-0.010631871409714222,0.08914745599031448
1772789272043332400,0.520332275390625,0.0024578312877565622,-0.02329014241695404,0.09332275390625
1772789272053394200,0.530394287109375,-0.006095442920923233,-0.0020631509833037853,0.09153231233358383
1772789272063460000,0.540460205078125,-0.005397162400186062,0.037090644240379333,0.0814831405878067
1772789272073526300,0.5505263671875,-0.009614011272788048,0.0788751095533371,0.06508658826351166
1772789272083592200,0.56059228515625,-0.01691480167210102,0.09833136200904846,0.04133518785238266
1772789272093658000,0.570658203125,-0.026498185470700264,0.0940287634730339,0.01901283860206604
1772789272103724000,0.58072412109375,-0.03297126665711403,0.09471532702445984,-0.0016527577536180615
1772789272113790000,0.5907900390625,-0.026577549055218697,0.08119551837444305,0.00023702133330516517
1772789272123856100,0.600856201171875,-0.014108894392848015,0.08022985607385635,-0.0028961875941604376
1772789272133922000,0.610922119140625,0.002383262850344181,0.09785439074039459,0.0033334787003695965
1772789272143988200,0.62098828125,0.01721413992345333,0.09848955273628235,0.009076851420104504
1772789272154054100,0.63105419921875,0.02093351073563099,0.04134610667824745,0.013879862613976002
1772789272164120300,0.641120361328125,0.01197889819741249,-0.018306303769350052,0.014993064105510712
1772789272174186000,0.65118603515625,0.002826679265126586,-0.0262979157269001,0.01420530118048191
1772789272184252000,0.661251953125,-0.0005025385180488229,-0.002302302746102214,0.014462562277913094
1772789272194319000,0.671319091796875,-0.009876865893602371,0.011023889295756817,0.018438661471009254
1772789272204385000,0.681385009765625,-0.015516375191509724,0.023199595510959625,0.022554844617843628
1772789272214451200,0.691451171875,-0.011884622275829315,0.03838786855340004,0.01823439821600914
1772789272224517000,0.70151708984375,-0.009438775479793549,0.05106930807232857,0.010757839307188988
1772789272234583000,0.7115830078125,-0.008725580759346485,0.05769312381744385,-0.004564391914755106
1772789272244649200,0.721649169921875,-0.00965822022408247,0.057550378143787384,-0.011020692996680737
1772789272254715100,0.731715087890625,-0.010408432222902775,0.07187046110630035,-0.015634620562195778
1772789272264781000,0.741781005859375,-0.011390339583158493,0.09998145699501038,-0.017404289916157722
1772789272274847000,0.751846923828125,-0.004930043593049049,0.09917797893285751,-0.0329747274518013
1772789272284913200,0.7619130859375,0.004274639766663313,0.07603830844163895,-0.05264643207192421
1772789272294979000,0.77197900390625,-0.001543568097986281,0.06921982020139694,-0.0738007202744484
1772789272305045200,0.782045166015625,-0.0021201425697654486,0.07893103361129761,-0.07260043174028397
1772789272315111200,0.792111083984375,-0.001967277145013213,0.07714911550283432,-0.061834339052438736
1772789272325177000,0.802177001953125,0.0013797837309539318,0.07329392433166504,-0.054247792810201645
1772789272335243000,0.812242919921875,-0.000147272803587839,0.08083652704954147,-0.04963013529777527
1772789272345309000,0.822308837890625,-0.002823217073455453,0.09616115689277649,-0.03849572688341141
1772789272355375000,0.832375,0.004604871850460768,0.09111952036619186,-0.025058215484023094
1772789272365442000,0.842442138671875,0.0038163098506629467,0.0743517279624939,-0.011080347932875156
1772789272375508000,0.852508056640625,-0.0015182681381702423,0.06151502579450607,-0.0009321063989773393
1772789272385574100,0.86257421875,0.00006657902849838138,0.04987248405814171,-0.0012144014472141862
1772789272395640000,0.87264013671875,0.002284992253407836,0.038173750042915344,-0.008079498074948788
1772789272405706200,0.882706298828125,-0.002383795566856861,0.027289144694805145,-0.018143849447369576
1772789272415772200,0.892772216796875,-0.006603574380278587,0.03713112324476242,-0.021138841286301613
1772789272425838000,0.902838134765625,-0.00472551304847002,0.04006725922226906,-0.0263567715883255
1772789272435904000,0.912904052734375,-0.004495948553085327,0.040044356137514114,-0.030522223562002182
1772789272445970200,0.92297021484375,-0.003026682650670409,0.03225594013929367,-0.027781030163168907
1772789272456036000,0.9330361328125,-0.008953280746936798,0.03448553755879402,-0.030961111187934875
1772789272466102000,0.94310205078125,-0.008536496199667454,0.03778945654630661,-0.036130309104919434
1772789272476168200,0.953168212890625,-0.013701963238418102,0.02732003852725029,-0.04062465950846672
1772789272486234000,0.963234130859375,-0.01576378382742405,0.01966877654194832,-0.04422391951084137
1772789272496300000,0.973300048828125,-0.01937822438776493,0.016695888713002205,-0.04789908230304718
1772789272506366000,0.983365966796875,-0.02442038804292679,0.022283468395471573,-0.05788913369178772
1772789272516432100,0.99343212890625,-0.024264326319098473,0.02431252971291542,-0.06513239443302155
1772789272526498000,1.003498046875,-0.023860592395067215,0.031615182757377625,-0.07134927809238434
1772789272536565000,1.01356494140625,-0.023478960618376732,0.04699840024113655,-0.07176154106855392
1772789272546631200,1.023631103515625,-0.02420227602124214,0.039017438888549805,-0.0754910260438919
1772789272556697000,1.033697021484375,-0.022126074880361557,0.04014742001891136,-0.07447662949562073
1772789272566763300,1.04376318359375,-0.022553779184818268,0.043229229748249054,-0.07859068363904953
1772789272576829200,1.0538291015625,-0.02100967802107334,0.04560423642396927,-0.07034499943256378
1772789272586895000,1.06389501953125,-0.013500628992915154,0.033723074942827225,-0.06058105453848839
1772789272596961000,1.0739609375,-0.017053285613656044,0.03796975314617157,-0.054302118718624115
1772789272607027000,1.08402685546875,-0.018818162381649017,0.04397011920809746,-0.04915875568985939
1772789272617093000,1.094093017578125,-0.020982246845960617,0.049798715859651566,-0.04135116934776306
1772789272627159000,1.104158935546875,-0.01613609306514263,0.028870796784758568,-0.033245839178562164
1772789272637225200,1.11422509765625,-0.010149306617677212,0.008036887273192406,-0.03123302012681961
1772789272647291100,1.124291015625,-0.007626760751008987,0.0035776905715465546,-0.027965322136878967
1772789272657357000,1.134357177734375,-0.0065130265429615974,0.027952805161476135,-0.019053585827350616
1772789272667423000,1.144423095703125,-0.0113386744633317,0.0507473349571228,-0.005305016878992319
1772789272677489200,1.1544892578125,-0.011038003489375114,0.06695239990949631,0.004594485275447369
1772789272687555000,1.16455517578125,-0.007104514632374048,0.06941156834363937,0.008987636305391788
1772789272697621000,1.17462109375,-0.00088949577184394,0.07695470005273819,0.0046325684525072575
1772789272707688200,1.184688232421875,0.0031073763966560364,0.07060492783784866,-0.008387892507016659
1772789272717754000,1.194754150390625,0.012829245999455452,0.054547663778066635,-0.02539324015378952
1772789272727820000,1.204820068359375,0.012239621952176094,0.04284466803073883,-0.03225540742278099
1772789272737886200,1.21488623046875,0.013263873755931854,0.04153705760836601,-0.039391614496707916
1772789272747951900,1.224951904296875,0.01332858856767416,0.025175927206873894,-0.043252132833004
1772789272758018000,1.23501806640625,0.008404137566685677,0.012558136135339737,-0.051772650331258774
1772789272768084000,1.245083984375,0.003566771512851119,0.01565299555659294,-0.05941192805767059
1772789272778150100,1.255150146484375,0.003085272153839469,0.027415910735726357,-0.04584765061736107
1772789272788216000,1.265216064453125,0.001568069215863943,0.050983820110559464,-0.02972034551203251
1772789272798282200,1.2752822265625,-0.0027481159195303917,0.057068612426519394,-0.01757606491446495
1772789272808348200,1.28534814453125,-0.005034439731389284,0.0592779703438282,-0.011651329696178436
1772789272818414000,1.2954140625,-0.007689611054956913,0.06093472242355347,-0.009310144931077957
1772789272828480000,1.30547998046875,-0.010416155681014061,0.05283498391509056,-0.003693005535751581
1772789272838546000,1.3155458984375,-0.013166667893528938,0.03879266977310181,-0.0068267472088336945
1772789272848612000,1.325612060546875,-0.011803928762674332,0.010809504427015781,-0.0028186896815896034
1772789272858678000,1.335677978515625,-0.01290354784578085,0.002171008847653866,-0.008646485395729542
1772789272868744200,1.345744140625,-0.022424882277846336,0.009948504157364368,-0.0181659534573555
1772789272878811100,1.35581103515625,-0.027715783566236496,0.001701759872958064,-0.019875437021255493
1772789272888877000,1.365876953125,-0.01019671093672514,0.006970025133341551,-0.02738874778151512
1772789272898943200,1.375943115234375,-0.03322399780154228,0.0448116809129715,-0.022044848650693893
1772789272909009000,1.3860087890625,-0.045455098152160645,0.06753004342317581,-0.016113456338644028
1772789272919075000,1.396074951171875,-0.029226329177618027,0.0712779089808464,-0.014601047150790691
1772789272929141000,1.40614111328125,-0.03343678638339043,0.07376264035701752,-0.008435296826064587
1772789272939207200,1.416207275390625,-0.027107518166303635,0.07808494567871094,-0.006562827620655298
1772789272949273000,1.426273193359375,-0.026707511395215988,0.07858295738697052,0.0001680454588495195
1772789272959339300,1.43633935546875,-0.026070483028888702,0.05471544340252876,0.0030740867368876934
1772789272969405200,1.4464052734375,-0.017856761813163757,0.026193253695964813,0.0032056469935923815
1772789272979471000,1.45647119140625,-0.019878100603818893,0.017607755959033966,0.004090881906449795
1772789272989537000,1.466537109375,-0.012418853119015694,0.028690233826637268,0.007467770017683506
1772789272999603000,1.47660302734375,-0.005411809775978327,0.04298288747668266,0.017834125086665154
1772789273009669000,1.486669189453125,-0.0018572885310277343,0.04910815879702568,0.026043584570288658
1772789273019735000,1.496735107421875,-0.00307675008662045,0.04093065485358238,0.03538355603814125
1772789273029801200,1.50680126953125,-0.0008556736283935606,0.03015550598502159,0.04472539201378822
1772789273039868200,1.5168681640625,0.003885019337758422,0.021351361647248268,0.05071990191936493
1772789273049934800,1.526934814453125,-0.0029225528705865145,0.02539883367717266,0.04331924393773079
1772789273060001000,1.5370009765625,-0.006384129635989666,0.04163479432463646,0.031103590503335
1772789273070067000,1.54706689453125,-0.007632086984813213,0.05130632966756821,0.013283847831189632
1772789273080132900,1.5571328125,-0.011889416724443436,0.06040315702557564,-0.007736483123153448
1772789273090199000,1.567198974609375,-0.00971494521945715,0.06871195137500763,-0.011975436471402645
1772789273100265000,1.577264892578125,-0.010879279114305973,0.0796586126089096,-0.005093561951071024
1772789273110331100,1.5873310546875,-0.008076568134129047,0.09428628534078598,0.008350341580808163
1772789273120396800,1.597396728515625,-0.011121360585093498,0.12286093831062317,0.023504793643951416
1772789273130463000,1.607462890625,-0.011271297000348568,0.13536421954631805,0.04138951748609543
1772789273140529000,1.61752880859375,-0.00455666845664382,0.09963551163673401,0.0552842952311039
1772789273150595000,1.627594970703125,0.005314604379236698,0.07147551327943802,0.05506405234336853
1772789273160661000,1.637660888671875,0.015959525480866432,0.04681278020143509,0.04484310373663902
1772789273170727000,1.647726806640625,0.0191316157579422,0.02305551804602146,0.03717160224914551
1772789273180793000,1.65779296875,0.01528601162135601,0.03364824131131172,0.027815653011202812
1772789273190860000,1.667860107421875,0.009463010355830193,0.05927770584821701,0.006281598005443811
1772789273200926000,1.677926025390625,0.015929697081446648,0.09398242086172104,-0.0031614385079592466
1772789273210991900,1.687991943359375,0.02809608355164528,0.09499096125364304,-0.003556119045242667
1772789273221057800,1.698057861328125,0.04277516156435013,0.06318988651037216,0.004878911189734936
1772789273231124000,1.7081240234375,0.028561336919665337,0.020365726202726364,0.001222390914335847
1772789273241190000,1.71818994140625,0.045826878398656845,-0.024342624470591545,-0.012562929652631283
1772789273251256000,1.728256103515625,0.04602794721722603,-0.021917549893260002,-0.01991032436490059
1772789273261322000,1.738322021484375,0.0367731936275959,0.01601278781890869,-0.035896215587854385
1772789273271388200,1.74838818359375,0.036439232528209686,0.041858233511447906,-0.041548509150743484
1772789273281453800,1.758453857421875,0.03759371489286423,0.04266383871436119,-0.034574490040540695
1772789273291520000,1.76852001953125,0.04057485610246658,0.05774611979722977,-0.039212916046381
1772789273301586000,1.7785859375,0.04604099318385124,0.07220974564552307,-0.05474633723497391
1772789273311651800,1.78865185546875,0.023450730368494987,0.0714065358042717,-0.06386526674032211
1772789273321718000,1.798718017578125,0.003972903825342655,0.05158223584294319,-0.05164295434951782
1772789273331784000,1.808783935546875,0.039556730538606644,0.035721246153116226,-0.03297526016831398
1772789273341851000,1.818850830078125,0.03893035650253296,0.024696025997400284,-0.024921061471104622
1772789273351917000,1.8289169921875,0.0495624914765358,0.01901736669242382,-0.019235746935009956
1772789273361983000,1.83898291015625,0.041484858840703964,0.05014359578490257,-0.013822338543832302
1772789273372049000,1.849048828125,0.019339343532919884,0.06321332603693008,-0.01942669413983822
1772789273382114800,1.85911474609375,0.017310546711087227,0.05679776892066002,-0.02804867923259735
1772789273392181000,1.869180908203125,0.012369051575660706,0.05006130412220955,-0.02581215649843216
1772789273402247000,1.879246826171875,0.0067969197407364845,0.028173048049211502,-0.017560617998242378
1772789273412313000,1.88931298828125,0.009011871181428432,0.0019358517602086067,0.0015584818320348859
1772789273422379000,1.89937890625,0.004095941781997681,0.011567439883947372,0.028621258214116096
1772789273432445000,1.90944482421875,-0.003936418332159519,0.0403096042573452,0.04324893653392792
1772789273442511000,1.919510986328125,-0.010409231297671795,0.05824040248990059,0.05397162213921547
1772789273452576800,1.92957666015625,-0.015191469341516495,0.07464121282100677,0.05172497779130936
1772789273462643000,1.939642822265625,-0.01966691203415394,0.08493859320878983,0.04621303454041481
1772789273472708900,1.949708984375,-0.010615093633532524,0.08455482870340347,0.04849296808242798
1772789273482775000,1.959775146484375,-0.029773075133562088,0.08322564512491226,0.04074263572692871
1772789273492842000,1.969842041015625,-0.03592737391591072,0.08832400292158127,0.03678544610738754
1772789273502908000,1.979907958984375,-0.030340328812599182,0.06512121111154556,0.017230918630957603
1772789273512974000,1.98997412109375,-0.03819185867905617,0.058760784566402435,-0.007005711551755667
1772789273523040000,2.0000400390625,-0.03339817002415657,0.029799440875649452,-0.02750885672867298
1772789273533106000,2.01010595703125,-0.015023957006633282,0.006367351859807968,-0.04225397855043411
1772789273543171800,2.020171875,-0.007456318475306034,-0.002400839701294899,-0.040158871561288834
1772789273553238000,2.030238037109375,-0.0028575719334185123,-0.0044203149154782295,-0.01612117886543274
1772789273563304000,2.040303955078125,0.004589958116412163,0.013377857394516468,0.006172941066324711
1772789273573369900,2.050369873046875,-0.004674646537750959,0.04562367871403694,0.018322015181183815
1772789273583436000,2.06043603515625,-0.005402754992246628,0.07358314096927643,0.027766916900873184
1772789273593502000,2.070501953125,-0.0004463458026293665,0.08404643088579178,0.030830616131424904
1772789273603568000,2.080568115234375,0.002338788006454706,0.08793411403894424,0.04215757176280022
1772789273613633800,2.0906337890625,0.007488542702049017,0.06191902607679367,0.03990747034549713
1772789273623700000,2.100699951171875,0.008812665939331055,0.01835397258400917,0.026551449671387672
1772789273633767000,2.110766845703125,0.006731672212481499,-0.008828911930322647,0.011959457769989967
1772789273643832800,2.120832763671875,0.0071753547526896,-0.019530557096004486,-0.012545619159936905
1772789273653899000,2.13089892578125,0.003035204717889428,-0.02816585823893547,-0.022765500470995903
1772789273663965000,2.14096484375,0.007614510133862495,-0.046417299658060074,-0.013332316651940346
1772789273674031000,2.151031005859375,0.00538331363350153,-0.04285106062889099,0.008960737846791744
1772789273684097000,2.161096923828125,0.007720770314335823,-0.025742914527654648,0.023937290534377098
1772789273694163200,2.1711630859375,0.003599528456106782,-0.017302557826042175,0.039674706757068634
1772789273704228900,2.181228759765625,-0.006502107717096806,-0.006679740734398365,0.05193084105849266
1772789273714294800,2.191294677734375,-0.0065138256177306175,-0.0036581179592758417,0.04327210783958435
1772789273724361000,2.20136083984375,-0.013140303082764149,-0.0006817692192271352,0.03347806632518768
1772789273734427000,2.211427001953125,-0.021465344354510307,0.007447796408087015,0.022844862192869186
1772789273744493000,2.2214931640625,-0.02635464258491993,0.012060125358402729,0.01164600346237421
1772789273754559000,2.23155908203125,-0.022402776405215263,0.0031553131993860006,0.009030778892338276
1772789273764625200,2.241625244140625,-0.01738777942955494,-0.007796670310199261,0.005591839086264372
1772789273774692000,2.251692138671875,-0.01396029070019722,-0.020437896251678467,-0.0101977763697505
1772789273784757800,2.2617578125,-0.012768791988492012,-0.023080285638570786,-0.028488898649811745
1772789273794824000,2.271823974609375,-0.01258157193660736,-0.028656145557761192,-0.039571911096572876
1772789273804889900,2.281889892578125,-0.008274441584944725,-0.029924076050519943,-0.0320652574300766
1772789273814956000,2.2919560546875,-0.0006013417732901871,-0.024029435589909554,-0.02269093133509159
1772789273825022000,2.30202197265625,0.000972852751147002,-0.023243270814418793,-0.006280266214162111
1772789273835088100,2.312088134765625,0.0054245926439762115,-0.014387461356818676,-0.0001728391507640481
1772789273845154000,2.322154052734375,0.007616640534251928,-0.0008333030855283141,0.003882622579112649
1772789273855220000,2.332219970703125,0.01155545562505722,0.014576279558241367,0.004069576505571604
1772789273865286000,2.342285888671875,0.014978150837123394,0.02497858740389347,0.004760134033858776
1772789273875351800,2.352351806640625,0.021263210102915764,0.03235287964344025,0.003621100215241313
1772789273885418000,2.36241796875,0.02726917155086994,0.03573589399456978,-0.01131151057779789
1772789273895484000,2.37248388671875,0.02948199212551117,0.03287699073553085,-0.031432490795850754
1772789273905550000,2.382550048828125,0.03045005165040493,0.025257419794797897,-0.040413737297058105
1772789273915617000,2.392616943359375,0.024760739877820015,0.02485554851591587,-0.03768239915370941
1772789273925683000,2.402682861328125,0.024834243580698967,0.023266972973942757,-0.031142473220825195
1772789273935749000,2.4127490234375,0.01846236363053322,0.02486060932278633,-0.02070421352982521
1772789273945814800,2.422814697265625,0.01655074767768383,0.018821092322468758,-0.013050021603703499
1772789273955881000,2.432880859375,0.015807725489139557,0.015029815956950188,-0.011382350698113441
1772789273965947000,2.44294677734375,0.010150904767215252,0.0010133327450603247,-0.009608951397240162
1772789273976013000,2.453012939453125,0.006162022240459919,-0.010062221437692642,-0.010235860012471676
1772789273986079000,2.463078857421875,0.0037681066896766424,-0.01739923097193241,-0.004022704903036356
1772789273996145000,2.473144775390625,-0.0007443535141646862,-0.008407332934439182,0.0008681904873810709
1772789274006211000,2.483211181640625,-0.002772350562736392,-0.0034045851789414883,0.0028162929229438305
1772789274016277000,2.493277099609375,-0.007027016952633858,0.0041313618421554565,0.00250496924854815
1772789274026343000,2.503343017578125,-0.009501359425485134,0.00857271533459425,-0.0007371630053967237
1772789274036408800,2.513408935546875,-0.010113886557519436,0.006132993847131729,-0.0004500742070376873
1772789274046475000,2.52347509765625,-0.008216118440032005,0.0019688750617206097,-0.00869335699826479
1772789274056545000,2.533544921875,-0.014504906721413136,0.009193232282996178,-0.015187474898993969
1772789274066612000,2.543612060546875,-0.011602593585848808,0.010009757243096828,-0.014326740987598896
1772789274076678100,2.55367822265625,-0.012297412380576134,0.008083758875727654,-0.009339173324406147
1772789274086744000,2.563744140625,-0.01642797514796257,0.02328002266585827,-0.012494753114879131
1772789274096810000,2.57381005859375,-0.01606418751180172,0.020772656425833702,-0.024834776297211647
1772789274106876200,2.583876220703125,-0.02237508073449135,0.017253555357456207,-0.03600087761878967
1772789274116942000,2.593942138671875,-0.026642262935638428,0.010602310299873352,-0.04340526461601257
1772789274127008300,2.60400830078125,-0.029446305707097054,0.008320247754454613,-0.041360754519701004
1772789274137074000,2.614073974609375,-0.025904301553964615,0.006219546310603619,-0.029337115585803986
1772789274147140000,2.62414013671875,-0.0225636325776577,0.008225172758102417,-0.01691346988081932
1772789274157206000,2.6342060546875,-0.019283415749669075,0.015795474871993065,-0.006864031311124563
1772789274167272200,2.644272216796875,-0.01576431654393673,0.021582789719104767,-0.00820919405668974
1772789274177338000,2.654338134765625,-0.00951174646615982,0.02004534751176834,-0.013138704933226109
1772789274187404000,2.664404052734375,-0.006608634255826473,0.01210113801062107,-0.009839847683906555
1772789274197471200,2.67447119140625,-0.007456584833562374,-0.0007701861904934049,-0.005537777207791805
1772789274207537200,2.684537109375,-0.007759652566164732,-0.013961088843643665,-0.003459712490439415
1772789274217603300,2.694603271484375,-0.009953032247722149,-0.019414177164435387,-0.0038754320703446865
1772789274227669000,2.7046689453125,-0.00995995569974184,-0.01600826159119606,-0.00259418529458344
1772789274237735000,2.71473486328125,-0.011447331868112087,-0.00890854001045227,0.002043709857389331
1772789274247801000,2.724801025390625,-0.015450062230229378,0.007383613847196102,0.008919458836317062
1772789274257867000,2.734866943359375,-0.009819074533879757,0.01606445387005806,0.009642773307859898
1772789274267933200,2.74493310546875,-0.00977406743913889,0.01155785284936428,0.009153816848993301
1772789274277999000,2.7549990234375,-0.009287508204579353,0.005328186322003603,0.0010434264549985528
1772789274288065300,2.765065185546875,-0.008432366885244846,0.003674097126349807,-0.00815060455352068
1772789274298131000,2.775130859375,-0.00549303600564599,0.0035694348625838757,-0.019039204344153404
1772789274308197000,2.785197021484375,-0.009363674558699131,0.00998951680958271,-0.02930515818297863
1772789274318263000,2.795262939453125,-0.008423312567174435,0.0058080879971385,-0.031980570405721664
1772789274328329000,2.805328857421875,-0.009583917446434498,0.0022975089959800243,-0.03473773971199989
1772789274338396200,2.815396240234375,-0.007637146860361099,0.005512476898729801,-0.033492445945739746
1772789274348462000,2.825462158203125,-0.0046852994710206985,0.010186591185629368,-0.037518613040447235
1772789274358528300,2.8355283203125,-0.005962285213172436,0.014139787293970585,-0.04011279717087746
1772789274368594200,2.84559423828125,-0.0022836606949567795,0.016880180686712265,-0.04292003810405731
1772789274378660000,2.85566015625,-0.004339620936661959,0.017008811235427856,-0.03766908124089241
1772789274388726000,2.86572607421875,-0.0025385250337421894,0.017250891774892807,-0.026744529604911804
1772789274398792000,2.8757919921875,-0.008537028916180134,0.01997850090265274,-0.02177933044731617
1772789274408858000,2.885858154296875,-0.009074987843632698,0.03659342974424362,-0.019951604306697845
1772789274418924000,2.895924072265625,-0.012647085823118687,0.04129257798194885,-0.01739896461367607
1772789274428990200,2.905990234375,-0.012435098178684711,0.03985367342829704,-0.022580675780773163
1772789274439056100,2.91605615234375,-0.014879879541695118,0.03930479660630226,-0.02490135468542576
1772789274449122300,2.926122314453125,-0.01050190906971693,0.045286256819963455,-0.01489133108407259
1772789274459188000,2.93618798828125,-0.009236641228199005,0.046725425869226456,-0.00041332258842885494
1772789274469255200,2.946255126953125,-0.01074106153100729,0.04417012259364128,0.013303820975124836
1772789274479321000,2.956321044921875,-0.010280334390699863,0.058873970061540604,0.03177018091082573
1772789274489387000,2.966386962890625,-0.013541375286877155,0.06845761835575104,0.055215053260326385
1772789274499453200,2.976453125,-0.016581106930971146,0.03658704087138176,0.06621843576431274
1772789274509519000,2.98651904296875,-0.02130768448114395,-0.0006119944155216217,0.05602545291185379
1772789274519585000,2.9965849609375,-0.01829405315220356,-0.013823936693370342,0.0542168989777565
1772789274529651200,3.006651123046875,-0.02442491613328457,0.0021401161793619394,0.0735623687505722
1772789274539717000,3.016717041015625,-0.021644309163093567,0.015738749876618385,0.09651029109954834
1772789274549783000,3.026782958984375,-0.014458567835390568,0.027177292853593826,0.10105204582214355
1772789274559849000,3.036848876953125,-0.01215519942343235,0.036603815853595734,0.08620492368936539
1772789274569915100,3.0469150390625,-0.013471866957843304,0.01811801828444004,0.05680122971534729
1772789274579981000,3.05698095703125,-0.01792999729514122,-0.004815261345356703,0.023486150428652763
1772789274590047200,3.067047119140625,-0.01435497123748064,-0.013439642265439034,-0.012050537392497063
1772789274600113200,3.077113037109375,-0.013995977118611336,-0.00506799528375268,-0.03879906237125397
1772789274610180000,3.08718017578125,-0.020536966621875763,0.01088673621416092,-0.06018397957086563
1772789274620246300,3.097246337890625,-0.021692512556910515,0.006224073935300112,-0.07342255115509033
1772789274630312200,3.107312255859375,-0.021213941276073456,0.0018812569323927164,-0.07023368030786514
1772789274640378000,3.117378173828125,-0.023197198286652565,0.0017648768844082952,-0.06529218703508377
1772789274650444000,3.127444091796875,-0.02473783679306507,0.0018895127577707171,-0.04267316311597824
1772789274660510000,3.137510009765625,-0.031080421060323715,0.0057159424759447575,-0.03427727892994881
1772789274670576000,3.147576171875,-0.0331057570874691,0.0062855929136276245,-0.02756345085799694
1772789274680642000,3.15764208984375,-0.03068387694656849,0.011011372320353985,-0.018390191718935966
1772789274690708200,3.167708251953125,-0.03471164032816887,0.00720651401206851,-0.0071005201898515224
1772789274700774100,3.177774169921875,-0.033311352133750916,0.009259277954697609,-0.007279484532773495
1772789274710840000,3.187840087890625,-0.0329614132642746,0.01372113823890686,-0.007453655358403921
1772789274720906000,3.197906005859375,-0.028984779492020607,0.015022092498838902,-0.009850233793258667
1772789274730972200,3.20797216796875,-0.023914387449622154,0.006145243998616934,-0.011899802833795547
1772789274741039000,3.2180390625,-0.018311096355319023,-0.009750631637871265,-0.015667909756302834
1772789274751105000,3.22810498046875,-0.01278690155595541,0.002522812457755208,-0.01919606514275074
1772789274761171200,3.238171142578125,-0.012137089855968952,0.023807594552636147,-0.030497722327709198
1772789274771237000,3.248237060546875,-0.01606924831867218,0.039691753685474396,-0.03933621942996979
1772789274781303000,3.258302978515625,-0.01769563928246498,0.044326186180114746,-0.04291577637195587
1772789274791369200,3.268369140625,-0.020746823400259018,0.040521059185266495,-0.040133036673069
1772789274801435000,3.278434814453125,-0.019711120054125786,0.024143153801560402,-0.03797055035829544
1772789274811501000,3.2885009765625,-0.021103953942656517,0.017295898869633675,-0.03248204290866852
1772789274821567000,3.29856689453125,-0.02088797092437744,0.01888447441160679,-0.03098934143781662
1772789274831633200,3.308633056640625,-0.01629827916622162,0.018910573795437813,-0.02623080462217331
1772789274841699000,3.318698974609375,-0.02359294332563877,0.014213557355105877,-0.023150326684117317
1772789274851765200,3.32876513671875,-0.019240805879235268,0.010640926659107208,-0.02057691477239132
1772789274861831200,3.3388310546875,-0.01900458335876465,0.013827132061123848,-0.013217002153396606
1772789274871897000,3.34889697265625,-0.017122527584433556,0.02509470097720623,0.00041758365114219487
1772789274881964300,3.35896435546875,-0.015658056363463402,0.028067853301763535,0.006625678390264511
1772789274892030000,3.369030029296875,-0.012944027781486511,0.021994514390826225,0.01296346914023161
1772789274902096100,3.37909619140625,-0.007499727886170149,0.016269784420728683,0.012544287368655205
1772789274912162000,3.389162109375,-0.008994294330477715,0.005076251458376646,0.018146246671676636
1772789274922228200,3.399228271484375,-0.0038458709605038166,-0.007017962168902159,0.02647341974079609
1772789274932294100,3.409294189453125,-0.006490389816462994,-0.011473163962364197,0.030233003199100494
1772789274942360000,3.419360107421875,-0.0022383867762982845,-0.011714712716639042,0.033192574977874756
1772789274952426200,3.42942626953125,-0.0021880532149225473,-0.012795690447092056,0.030849259346723557
1772789274962492000,3.439491943359375,-0.001445830101147294,0.0020216056145727634,0.023987624794244766
1772789274972558000,3.44955810546875,-0.000059388490626588464,0.011094463057816029,0.016950221732258797
1772789274982624000,3.4596240234375,0.004250138532370329,0.01110431645065546,0.010774084366858006
1772789274992690200,3.469690185546875,0.0016378440195694566,0.01356534380465746,0.007395331747829914
1772789275002756000,3.479756103515625,0.0054365769028663635,0.013704893179237843,0.015062572434544563
1772789275012823000,3.489822998046875,0.0023411849979311228,0.015033544041216373,0.013979997485876083
1772789275022889200,3.49988916015625,0.003293264890089631,0.014905712567269802,0.0075995963998138905
1772789275032955100,3.509955078125,0.0015398397808894515,-0.00024527712957933545,0.0019105518003925681
1772789275043021300,3.520021240234375,-0.0037353497464209795,0.004186222795397043,0.001939846551977098
1772789275053082000,3.53008203125,-0.0026019082870334387,0.0030075078830122948,0.007287207525223494
1772789275063148300,3.540148193359375,-0.0026698189321905375,-0.0025395904667675495,-0.0017054883064702153
1772789275073214200,3.550214111328125,-0.0037465349305421114,0.005680788774043322,-0.007536213379353285
1772789275083280400,3.5602802734375,-0.0013315805699676275,0.007574296556413174,-0.0025009745731949806
1772789275093346300,3.57034619140625,0.00273693073540926,0.013520868495106697,-0.0036490634083747864
1772789275103412500,3.58041259765625,0.00236222380772233,0.012677978724241257,-0.004975850228220224
1772789275113478400,3.590478515625,-0.004496214911341667,0.0054458980448544025,-0.0023816649336367846
1772789275123544600,3.600544677734375,0.0027864654548466206,0.000577107013668865,0.0016820525052025914
1772789275133610200,3.6106103515625,-0.0023286680225282907,0.006901848129928112,0.003175020683556795
1772789275143677200,3.62067724609375,-0.003186205867677927,0.007166299968957901,0.0031609057914465666
1772789275153743400,3.630743408203125,-0.0007869640830904245,0.008112520910799503,0.0027798074297606945
1772789275163809300,3.640809326171875,-0.0029582392890006304,0.018122011795639992,0.00038962045800872147
1772789275173875500,3.65087548828125,-0.0036844832357019186,0.022220617160201073,-0.006250971462577581
1772789275183941400,3.66094140625,0.003960120491683483,0.021983062848448753,-0.007556186988949776
1772789275194007300,3.67100732421875,0.004199805203825235,0.025741316378116608,-0.020199544727802277
1772789275204073500,3.681073486328125,0.007760184817016125,0.02208080142736435,-0.0266523826867342
1772789275214139100,3.69113916015625,0.010321613401174545,0.02063763327896595,-0.02299346588551998
1772789275224205300,3.701205322265625,0.009601760655641556,0.028534971177577972,-0.023990288376808167
1772789275234271200,3.711271240234375,0.00860440731048584,0.026441194117069244,-0.026926688849925995
1772789275244337400,3.72133740234375,0.013128052465617657,0.018866099417209625,-0.025586852803826332
1772789275254403300,3.7314033203125,0.01549320574849844,0.023511717095971107,-0.018503110855817795
1772789275264469500,3.741469482421875,0.027187412604689598,0.017426127567887306,-0.005797967780381441
1772789275274535400,3.751535400390625,0.024687502533197403,0.02328641340136528,-0.0036448021419346333
1772789275284602400,3.761602294921875,0.018273545429110527,0.009762349538505077,0.002776611829176545
1772789275294668500,3.77166845703125,0.023538881912827492,-0.010545318946242332,0.013815147802233696
1772789275304734200,3.781734130859375,0.023078953847289085,-0.0220941174775362,0.02732802741229534
1772789275314800400,3.79180029296875,0.019632823765277863,-0.033913493156433105,0.03257205709815025
1772789275324866300,3.8018662109375,0.019815782085061073,-0.046962182968854904,0.03575719892978668
1772789275334932200,3.81193212890625,0.009735718369483948,-0.04861653968691826,0.03225380927324295
1772789275344998400,3.821998291015625,0.008051801472902298,-0.04627641662955284,0.032471124082803726
1772789275355064300,3.832064208984375,0.008346347138285637,-0.03633670136332512,0.03477955237030983
1772789275365130500,3.842130615234375,0.008165784180164337,-0.03435717523097992,0.041302431374788284
1772789275375196400,3.852196533203125,0.004323375876992941,-0.023252591490745544,0.03544187918305397
1772789275385262300,3.862262451171875,0.0004751079250127077,-0.022155102342367172,0.025893382728099823
1772789275395328300,3.872328369140625,-0.005537777207791805,-0.023497868329286575,0.020545488223433495
1772789275405394400,3.88239453125,-0.008023571223020554,-0.029652433469891548,0.016956079751253128
1772789275415461400,3.89246142578125,-0.008768191561102867,-0.03255661204457283,0.019632823765277863
1772789275425527300,3.90252734375,-0.015907859429717064,-0.0331672728061676,0.02214817889034748
1772789275435593500,3.912593505859375,-0.01930898241698742,-0.032596293836832047,0.020202206447720528
1772789275445659400,3.922659423828125,-0.023244602605700493,-0.028792764991521835,0.021335382014513016
1772789275455725300,3.932725341796875,-0.023017700761556625,-0.013102219440042973,0.021316740661859512
1772789275465791200,3.942791259765625,-0.0264209546148777,-0.003643736941739917,0.01546550914645195
1772789275475857200,3.952857177734375,-0.029466811567544937,0.005770271178334951,0.009816678240895271
1772789275485923300,3.96292333984375,-0.030468160286545753,0.0015763250412419438,0.012767992913722992
1772789275495989200,3.9729892578125,-0.03454785794019699,-0.00041811628034338355,0.01528974063694477
1772789275506055400,3.983055419921875,-0.03557636961340904,0.0062885223887860775,0.01888793706893921
1772789275516121300,3.993121337890625,-0.037641119211912155,-0.0020149475894868374,0.02069675549864769
1772789275526187500,4.0031875,-0.03797827288508415,-0.015976568683981895,0.02353861555457115
1772789275536253400,4.01325341796875,-0.03802008554339409,-0.02576288767158985,0.030769631266593933
1772789275546319400,4.0233193359375,-0.036911945790052414,-0.01702984981238842,0.04129497706890106
1772789275556385300,4.03338525390625,-0.03333558514714241,-0.012545352801680565,0.044251617044210434
1772789275566451200,4.043451171875,-0.029028987511992455,-0.009726396761834621,0.04965889826416969
1772789275576517400,4.053517333984375,-0.030428213998675346,-0.007480819243937731,0.044258542358875275
1772789275586583300,4.063583251953125,-0.028547221794724464,-0.002424541860818863,0.03759850934147835
1772789275596649500,4.0736494140625,-0.03208469972014427,0.0008860336965881288,0.032705750316381454
1772789275606715400,4.08371533203125,-0.03225194662809372,0.001440237509086728,0.0285916980355978
1772789275616781300,4.09378125,-0.03267538920044899,0.008688297122716904,0.01245240867137909
1772789275626847200,4.10384716796875,-0.032406941056251526,0.016582971438765526,0.00002157160452043172
1772789275636913400,4.113913330078125,-0.0280340313911438,0.006354035809636116,-0.00777643034234643
1772789275646980400,4.12398046875,-0.026548519730567932,0.005607285536825657,-0.018680477514863014
1772789275657046300,4.13404638671875,-0.029375998303294182,0.0027316042687743902,-0.019886355847120285
1772789275667112400,4.144112548828125,-0.02810860052704811,-0.001683916780166328,-0.01840377412736416
1772789275677178400,4.154178466796875,-0.028567729517817497,0.002374208066612482,-0.016692694276571274
1772789275687244300,4.164244384765625,-0.032707080245018005,0.004887699615210295,-0.009580455720424652
1772789275697310500,4.174310546875,-0.030829017981886864,-0.005107676610350609,-0.003683684393763542
1772789275707376000,4.184376220703125,-0.03389618173241615,-0.009525327943265438,-0.006058158818632364
1772789275717442300,4.1944423828125,-0.03373825550079346,-0.020291157066822052,-0.013514743186533451
1772789275727508200,4.20450830078125,-0.031383488327264786,-0.019461048766970634,-0.019042667001485825
1772789275737574400,4.214574462890625,-0.03501550853252411,-0.006487193983048201,-0.018864234909415245
1772789275747640300,4.224640380859375,-0.03695721924304962,0.0057260626927018166,-0.0032509206794202328
1772789275757706500,4.23470654296875,-0.04229206219315529,0.016937704756855965,-0.00017124126316048205
1772789275767772400,4.2447724609375,-0.048765141516923904,0.021990252658724785,0.004865062423050404
1772789275777839400,4.25483935546875,-0.05254390090703964,0.02311623841524124,0.021444305777549744
1772789275787905500,4.264905517578125,-0.053474944084882736,0.014506238512694836,0.02840793877840042
1772789275797971200,4.27497119140625,-0.05416310206055641,0.01074132788926363,0.030176011845469475
1772789275808037400,4.285037353515625,-0.05417215824127197,-0.00455640209838748,0.02647608146071434
1772789275818103300,4.295103271484375,-0.05615914240479469,-0.002959837205708027,0.016411198303103447
1772789275828169500,4.30516943359375,-0.06058505177497864,-0.002573678968474269,0.011801797896623611
1772789275838235400,4.3152353515625,-0.05738552659749985,-0.01194054912775755,0.006750314496457577
1772789275848301300,4.32530126953125,-0.05391915887594223,-0.0068243504501879215,-0.00026764770154841244
1772789275858367500,4.335367431640625,-0.050449591130018234,-0.0006522081675939262,0.005390504375100136
1772789275868433200,4.34543310546875,-0.049067143350839615,0.003706587478518486,0.00869309064000845
1772789275878499300,4.355499267578125,-0.043963730335235596,0.01113574206829071,0.01449638418853283
1772789275888565200,4.365565185546875,-0.04194425418972969,0.009865679778158665,0.029866818338632584
1772789275898631400,4.37563134765625,-0.045700374990701675,0.008466987870633602,0.028254806995391846
1772789275908697300,4.385697265625,-0.047696683555841446,0.0049100699834525585,0.029107552021741867
1772789275918764300,4.395764404296875,-0.05022455379366875,0.008531702682375908,0.031325433403253555
1772789275928830500,4.40583056640625,-0.04877925664186478,0.00794394314289093,0.02473810315132141
1772789275938896400,4.415896484375,-0.05185281112790108,0.0024810009635984898,0.015313442796468735
1772789275948962600,4.425962646484375,-0.04892999306321144,0.004013117402791977,-0.0059660132974386215
1772789275959028200,4.4360283203125,-0.04754301905632019,0.00926247425377369,-0.021146297454833984
1772789275969094400,4.446094482421875,-0.04243134707212448,0.012953615747392178,-0.03205833584070206
1772789275979160300,4.456160400390625,-0.04312323406338692,0.013923006132245064,-0.03642192482948303
1772789275989226200,4.466226318359375,-0.0426689013838768,0.010276606306433678,-0.03886590525507927
1772789275999292400,4.47629248046875,-0.039378829300403595,0.0006793724023737013,-0.04025740921497345
1772789276009358300,4.4863583984375,-0.041063811630010605,0.009808954782783985,-0.034087397158145905
1772789276019424500,4.496424560546875,-0.03814951702952385,0.015294800512492657,-0.03123461827635765
1772789276029490200,4.506490234375,-0.03671646863222122,0.0103756757453084,-0.029818881303071976
1772789276039556400,4.516556396484375,-0.03231959044933319,0.010524014011025429,-0.027598604559898376
1772789276049623300,4.526623291015625,-0.027098195627331734,0.005848035216331482,-0.02738342061638832
1772789276059689700,4.536689697265625,-0.021654162555933,0.0037297571543604136,-0.023936757817864418
1772789276069756000,4.546755859375,-0.017585385590791702,0.002269545802846551,-0.02388456091284752
1772789276079821800,4.55682177734375,-0.022336997091770172,-0.00418435875326395,-0.016218651086091995
1772789276089887700,4.5668876953125,-0.017796307802200317,-0.004607534967362881,-0.009088569320738316
1772789276099953700,4.57695361328125,-0.019115637987852097,-0.005892510060220957,-0.006106095854192972
1772789276110019600,4.58701953125,-0.018076205626130104,-0.016145680099725723,-0.006697317585349083
1772789276120085800,4.597085693359375,-0.013887586072087288,-0.010727745480835438,-0.009078982286155224
1772789276130151700,4.607151611328125,-0.014679876156151295,0.005880259443074465,-0.012378904968500137
1772789276140217900,4.6172177734375,-0.01739310473203659,0.016044747084379196,-0.02377350628376007
1772789276150283800,4.62728369140625,-0.01489585917443037,0.020724719390273094,-0.02726917155086994
1772789276160350700,4.637350830078125,-0.014458035118877888,0.03166471794247627,-0.0288766548037529
1772789276170417000,4.6474169921875,-0.005545766558498144,0.03362241014838219,-0.027586620301008224
1772789276180482600,4.657482666015625,-0.007330616936087608,0.034451983869075775,-0.030007166787981987
1772789276190548700,4.667548828125,-0.004973985720425844,0.021264275535941124,-0.03527117148041725
1772789276200615700,4.67761572265625,0.00019813918333966285,0.01799258217215538,-0.042685944586992264
1772789276210681600,4.687681640625,-0.0006998787284828722,0.011544270440936089,-0.03886483982205391
1772789276220747800,4.697747802734375,0.005090898834168911,0.0035167040769010782,-0.035350002348423004
1772789276230813700,4.707813720703125,0.006237655878067017,0.014301175251603127,-0.021519672125577927
1772789276240879900,4.7178798828125,0.006727677304297686,0.022059496492147446,-0.008707471191883087
1772789276250945800,4.72794580078125,0.012006595730781555,0.01967010833323002,0.007543936371803284
1772789276261011700,4.73801171875,0.0157651137560606,0.01926530711352825,0.012735236436128616
1772789276271077600,4.74807763671875,0.012917130254209042,0.018019480630755424,0.013141634874045849
1772789276281143600,4.7581435546875,0.01967170648276806,0.009080846793949604,0.018128670752048492
1772789276291209700,4.768209716796875,0.023022228851914406,0.01359463855624199,0.02339800074696541
1772789276301275600,4.778275634765625,0.02165895700454712,0.02327842451632023,0.02196894772350788
1772789276311341800,4.788341796875,0.027097929269075394,0.021989189088344574,0.013371465727686882
1772789276321407700,4.79840771484375,0.02539537101984024,0.02202966809272766,0.0002942793071269989
1772789276331474700,4.808474609375,0.02671310305595398,0.012546684592962265,-0.009269931353628635
1772789276341540900,4.818540771484375,0.026796726509928703,0.006046440917998552,-0.014726481400430202
1772789276351606500,4.8286064453125,0.019877567887306213,0.0012008192716166377,-0.018698053434491158
1772789276361672700,4.838672607421875,0.02015933021903038,-0.002659166231751442,-0.021762020885944366
1772789276371738600,4.848738525390625,0.01363138947635889,-0.002098038326948881,-0.02894642949104309
1772789276381804800,4.8588046875,0.012091283686459064,0.00041252365917898715,-0.03398246690630913
1772789276391870700,4.86887060546875,0.009718673303723335,-0.007480286993086338,-0.03038986399769783
1772789276401937000,4.87893701171875,0.004791825544089079,-0.003881557146087289,-0.023126890882849693
1772789276412002800,4.8890029296875,0.008040349930524826,0.0008423578692600131,-0.018015485256910324
1772789276422068700,4.89906884765625,0.004014449194073677,0.015996010974049568,-0.022839535027742386
1772789276432134700,4.909134765625,0.008419050835072994,0.04808097705245018,-0.02653786726295948
1772789276442200600,4.91920068359375,0.01013918686658144,0.05577830970287323,-0.0419333353638649
1772789276452266800,4.929266845703125,0.010575945489108562,0.052916478365659714,-0.04947913438081741
1772789276462333700,4.939333740234375,0.016439426690340042,0.04916594922542572,-0.049365684390068054
1772789276472399600,4.949399658203125,0.018625348806381226,0.053951915353536606,-0.05528828874230385
1772789276482465800,4.9594658203125,0.02924896590411663,0.07453841716051102,-0.06375980377197266
1772789276492531700,4.96953173828125,0.033854369074106216,0.0799398422241211,-0.07331150025129318
1772789276502598000,4.979597900390625,0.04475095868110657,0.06263168901205063,-0.0808948501944542
1772789276512663600,4.98966357421875,0.051296211779117584,0.0409836508333683,-0.10032953321933746
1772789276522729700,4.999729736328125,0.05924760922789574,-0.000401604687795043,-0.12368518859148026
1772789276532795600,5.009795654296875,0.058695271611213684,-0.03297233209013939,-0.1448325514793396
1772789276542861800,5.01986181640625,0.06209639459848404,-0.07327767461538315,-0.16003254055976868
1772789276552927700,5.029927734375,0.05849127471446991,-0.11088444292545319,-0.1697339117527008
1772789276562993700,5.03999365234375,0.05672985687851906,-0.14939801394939423,-0.1755920648574829
1772789276573059800,5.050059814453125,0.05245841294527054,-0.152552530169487,-0.16331754624843597
1772789276583125800,5.060125732421875,0.042095255106687546,-0.1192968338727951,-0.1376340240240097
1772789276593192700,5.070192626953125,0.03623576834797859,-0.06915882974863052,-0.10753684490919113
1772789276603258600,5.080258544921875,0.024882180616259575,0.0020130835473537445,-0.0678032785654068
1772789276613324500,5.090324462890625,0.015586682595312595,0.06561043858528137,-0.014829546213150024
1772789276623390700,5.100390625,0.004549211822450161,0.11881666630506516,0.027761057019233704
1772789276633456600,5.11045654296875,-0.0035689021460711956,0.1596091091632843,0.04832678660750389
1772789276643522800,5.120522705078125,-0.020807543769478798,0.17753218114376068,0.055326104164123535
1772789276653588700,5.130588623046875,-0.03296913579106331,0.18590009212493896,0.04597095400094986
1772789276663655000,5.140655029296875,-0.04018044099211693,0.19724808633327484,0.026459570974111557
1772789276673720600,5.150720458984375,-0.05826250836253166,0.18299219012260437,0.018504176288843155
1772789276683786800,5.160786865234375,-0.07588384300470352,0.15585005283355713,0.005568669643253088
1772789276693852700,5.170852783203125,-0.09048569202423096,0.1338169127702713,-0.019159313291311264
1772789276703918600,5.180918701171875,-0.10268749296665192,0.10720767825841904,-0.055084556341171265
1772789276713984800,5.19098486328125,-0.101877361536026,0.0645371824502945,-0.09452597051858902
1772789276724050700,5.20105078125,-0.09409773349761963,0.04927380755543709,-0.133464053273201
1772789276734117600,5.21111767578125,-0.07881838083267212,0.04399115964770317,-0.15144358575344086
1772789276744183800,5.221183837890625,-0.06197042763233185,0.037521008402109146,-0.16359904408454895
1772789276754249700,5.231249755859375,-0.049910303205251694,0.00999218039214611,-0.17442719638347626
1772789276764315600,5.241315673828125,-0.03828267380595207,-0.023625701665878296,-0.18854035437107086
1772789276774381600,5.251381591796875,-0.03135685622692108,-0.03701580688357353,-0.18730570375919342
1772789276784447700,5.26144775390625,-0.02624651789665222,-0.03310229256749153,-0.1777912974357605
1772789276794513700,5.271513671875,-0.021623536944389343,0.001484712352976203,-0.15282896161079407
1772789276804579800,5.281579833984375,-0.018672220408916473,0.024227308109402657,-0.11911600083112717
1772789276814645800,5.291645751953125,-0.02117506042122841,0.02967187575995922,-0.07442948967218399
1772789276824711700,5.301711669921875,-0.017196031287312508,0.016165386885404587,-0.037098366767168045
1772789276834777900,5.31177783203125,-0.018816031515598297,0.014539527706801891,-0.008176703006029129
1772789276844843500,5.321843505859375,-0.012536032125353813,0.010069145821034908,0.005942311137914658
1772789276854910700,5.33191064453125,-0.0060110208578407764,0.009605756029486656,0.01302445586770773
1772789276864976600,5.3419765625,0.002430933527648449,0.004825647920370102,0.015792012214660645
1772789276875042600,5.35204248046875,0.005621133837848902,-0.0035244273021817207,0.021991850808262825
1772789276885108700,5.362108642578125,0.013731258921325207,-0.022956181317567825,0.03201599046587944
1772789276895174700,5.372174560546875,0.021028585731983185,-0.03931038826704025,0.0369524247944355
1772789276905240800,5.38224072265625,0.02093910425901413,-0.03602218255400658,0.03702592849731445
1772789276915306800,5.392306640625,0.026971163228154182,-0.026751985773444176,0.03887283056974411
1772789276925372700,5.40237255859375,0.028435369953513145,-0.011228419840335846,0.03506317734718323
1772789276935438600,5.4124384765625,0.036253079771995544,0.0017632789677008986,0.036315131932497025
1772789276945504800,5.4225048828125,0.03708957880735397,0.010977284051477909,0.03099812939763069
1772789276955570700,5.43257080078125,0.036018189042806625,0.0035984632559120655,0.03567490726709366
1772789276965636600,5.44263671875,0.032946765422821045,0.0029033781029284,0.02706916816532612
1772789276975702800,5.452702880859375,0.0395178496837616,0.008580705150961876,0.014415690675377846
1772789276985769700,5.462769775390625,0.038723692297935486,0.021914353594183922,-0.00968804769217968
1772789276995836000,5.4728359375,0.041723743081092834,0.03931305184960365,-0.024049144238233566
1772789277005901800,5.48290185546875,0.043774910271167755,0.0364147312939167,-0.0329052209854126
1772789277015967500,5.492967529296875,0.04538053274154663,0.020306870341300964,-0.03621632605791092
1772789277026033700,5.50303369140625,0.04767883941531181,0.012401009909808636,-0.03395770117640495
1772789277036099600,5.513099609375,0.05002694949507713,-0.001532382913865149,-0.018873821943998337
1772789277046165800,5.523165771484375,0.05226666480302811,-0.02004481479525566,-0.008657670579850674
1772789277056231700,5.533231689453125,0.05462489649653435,-0.024686170741915703,0.01101749762892723
1772789277066297900,5.5432978515625,0.05771229788661003,-0.017162475734949112,0.0247303806245327
1772789277076363800,5.55336376953125,0.06036720424890518,-0.005875465925782919,0.03340962156653404
1772789277086430000,5.563429931640625,0.05897783115506172,-0.004290352575480938,0.0340554378926754
1772789277096495900,5.573495849609375,0.06108119711279869,0.007148723118007183,0.0318833626806736
1772789277106561800,5.583561767578125,0.06625598669052124,0.025916019454598427,0.03446796163916588
1772789277116629000,5.59362890625,0.07048667967319489,0.0172618106007576,0.04910416156053543
1772789277126695000,5.60369482421875,0.07294930517673492,-0.0033300165086984634,0.06941582262516022
1772789277136760800,5.6137607421875,0.07752488553524017,-0.013437777757644653,0.08145277947187424
1772789277146826800,5.62382666015625,0.07101824879646301,-0.018341457471251488,0.08445150405168533
1772789277156892700,5.633892578125,0.06548846513032913,-0.023135678842663765,0.08367039263248444
1772789277166958800,5.643958740234375,0.06300559639930725,-0.02154577150940895,0.07856245338916779
1772789277177024800,5.654024658203125,0.06417951732873917,-0.018399514257907867,0.08616498112678528
1772789277187091000,5.664091064453125,0.06042712554335594,-0.018630409613251686,0.09235230088233948
1772789277197156900,5.674156982421875,0.05210767686367035,-0.014034059830009937,0.09184310585260391
1772789277207223000,5.68422314453125,0.04500715434551239,-0.005417935084551573,0.09157119691371918
1772789277217288700,5.694288818359375,0.042876627296209335,-0.005510879214853048,0.0874539464712143
1772789277227355000,5.70435498046875,0.03214568644762039,0.005122323986142874,0.08001147955656052
1772789277237420800,5.7144208984375,0.022701850160956383,-0.0015046859625726938,0.07172399014234543
1772789277247486700,5.72448681640625,0.013041766360402107,-0.008244614116847515,0.05924814194440842
1772789277257554000,5.734553955078125,0.004188353195786476,-0.016475113108754158,0.04976063221693039
1772789277267619800,5.744619873046875,-0.005327919963747263,-0.028325647115707397,0.04993613436818123
1772789277277685800,5.754685791015625,-0.009854228235781193,-0.01461702585220337,0.04746685177087784
1772789277287752000,5.764751953125,-0.013141901232302189,0.014183996245265007,0.047451406717300415
1772789277297817900,5.77481787109375,-0.018883144482970238,0.0420430563390255,0.0467563197016716
1772789277307883800,5.7848837890625,-0.027591148391366005,0.05578869581222534,0.051359329372644424
1772789277317949700,5.79494970703125,-0.03478168323636055,0.06940890103578568,0.056051816791296005
1772789277328016000,5.805015869140625,-0.036378245800733566,0.07792489230632782,0.06547248363494873
1772789277338081800,5.815081787109375,-0.038722362369298935,0.08338011056184769,0.0767941102385521
1772789277348148000,5.82514794921875,-0.04261377453804016,0.07466039061546326,0.07366064190864563
1772789277358214000,5.8352138671875,-0.0455954484641552,0.06215311959385872,0.056775931268930435
1772789277368279800,5.84527978515625,-0.05155666917562485,0.04411419853568077,0.038775358349084854
1772789277378347000,5.855346923828125,-0.056706421077251434,0.031123830005526543,0.02809448540210724
1772789277388413000,5.865412841796875,-0.051292747259140015,0.019277824088931084,0.030711572617292404
1772789277398478800,5.875478759765625,-0.051247742027044296,0.014796522445976734,0.0385093092918396
1772789277408544800,5.885544677734375,-0.04887380078434944,0.009023056365549564,0.045333392918109894
1772789277418610700,5.895610595703125,-0.0401785783469677,0.0020623519085347652,0.04611210152506828
1772789277428676900,5.9056767578125,-0.03556731343269348,0.00487358495593071,0.05090951919555664
1772789277438742800,5.91574267578125,-0.032887108623981476,0.011867578141391277,0.05687713250517845
1772789277448809000,5.92580908203125,-0.031313713639974594,0.02178971841931343,0.0554286390542984
1772789277458875000,5.935875,-0.02991635352373123,0.029460687190294266,0.04740453511476517
1772789277468940800,5.94594091796875,-0.02796931564807892,0.025118669494986534,0.04820108413696289
1772789277479006700,5.9560068359375,-0.028002340346574783,0.027158649638295174,0.04466733708977699
1772789277489073000,5.966072998046875,-0.029589850455522537,0.026330407708883286,0.03786615654826164
1772789277499138800,5.976138916015625,-0.03002314642071724,0.021513015031814575,0.02436179853975773
1772789277509205800,5.986205810546875,-0.03081623651087284,0.00025060345069505274,0.019644541665911674
1772789277519272000,5.99627197265625,-0.030841801315546036,-0.02136148139834404,0.013545636087656021
1772789277529337900,6.006337890625,-0.030589867383241653,-0.024049676954746246,0.011049987748265266
1772789277539404000,6.016404052734375,-0.0288271214812994,-0.02369840443134308,0.004013383761048317
1772789277549470000,6.026469970703125,-0.024772191420197487,-0.017887653782963753,-0.002514024032279849
1772789277559535600,6.03653564453125,-0.022223813459277153,-0.01071176677942276,-0.001392566948197782
1772789277569601800,6.046601806640625,-0.014314756728708744,-0.00669465446844697,0.007815578952431679
1772789277579667700,6.056667724609375,-0.014727014116942883,-0.00965688843280077,0.013222062028944492
1772789277589734000,6.06673388671875,-0.007446730975061655,-0.01859685406088829,0.018314559012651443
1772789277599799800,6.0767998046875,-0.010220945812761784,-0.016475912183523178,0.01805010624229908
1772789277609866000,6.086865966796875,-0.007199855986982584,-0.019532687962055206,0.01756754145026207
1772789277619932000,6.096931884765625,-0.006056561134755611,-0.01961125247180462,0.019529227167367935
1772789277629997800,6.106997802734375,-0.009129050187766552,-0.0171480942517519,0.024592693895101547
1772789277640065000,6.11706494140625,-0.013016199693083763,-0.0263567715883255,0.03291693702340126
1772789277650130700,6.127130615234375,-0.014370949938893318,-0.027709659188985825,0.033963292837142944
1772789277660196900,6.13719677734375,-0.020202206447720528,-0.011780226603150368,0.03788932412862778
1772789277670262800,6.1472626953125,-0.01636192947626114,-0.008256864733994007,0.03580513596534729
1772789277680329000,6.157328857421875,-0.01841362752020359,-0.010998855344951153,0.03489193692803383
1772789277690395000,6.167394775390625,-0.0227990560233593,-0.005364671815186739,0.030413566157221794
1772789277700460800,6.177460693359375,-0.03067908249795437,0.004771585576236248,0.02822444774210453
1772789277710527000,6.18752685546875,-0.033120136708021164,0.014216220006346703,0.023632358759641647
1772789277720592600,6.197592529296875,-0.0325171984732151,0.02028157003223896,0.019449064508080482
1772789277730658800,6.207658935546875,-0.03196991607546806,0.038656849414110184,0.02106347307562828
1772789277740724700,6.217724853515625,-0.03145246580243111,0.03855910897254944,0.035475701093673706
1772789277750791000,6.227791015625,-0.03176858276128769,0.03220827132463455,0.04730839282274246
1772789277760856800,6.23785693359375,-0.03580620139837265,0.03074406459927559,0.0520581416785717
1772789277770923800,6.247923828125,-0.03682778775691986,0.01962430216372013,0.0508330874145031
1772789277780990000,6.257989990234375,-0.03530526161193848,-0.0007355650886893272,0.051842425018548965
1772789277791056000,6.268055908203125,-0.03568822145462036,-0.001728391507640481,0.056542638689279556
1772789277801122000,6.2781220703125,-0.030758444219827652,-0.008639294654130936,0.06725466996431351
1772789277811187700,6.288187744140625,-0.030169619247317314,-0.012470251880586147,0.08923640102148056
1772789277821254000,6.29825390625,-0.024809742346405983,-0.0069503178820014,0.10251332819461823
1772789277831319800,6.30831982421875,-0.02243633382022381,-0.0019797938875854015,0.10723350942134857
1772789277841385700,6.3183857421875,-0.01961311511695385,-0.004890895448625088,0.113494873046875
1772789277851452000,6.328451904296875,-0.021917017176747322,-0.01022733747959137,0.11676070094108582
1772789277861517800,6.338517822265625,-0.019931629300117493,-0.013115535490214825,0.12728577852249146
1772789277871584000,6.348583984375,-0.02299319952726364,-0.011379687115550041,0.1372033953666687
1772789277881649700,6.358649658203125,-0.01986771449446678,-0.014838334172964096,0.14866536855697632
1772789277891715800,6.3687158203125,-0.023058714345097542,-0.024642229080200195,0.13632827997207642
1772789277901782800,6.37878271484375,-0.023314910009503365,-0.0112222945317626,0.12272458523511887
1772789277911848700,6.3888486328125,-0.0179331935942173,0.003370496677234769,0.11033103615045547
1772789277921915000,6.398914794921875,-0.01655021496117115,0.019944412633776665,0.0997348502278328
1772789277931980800,6.408980712890625,-0.017063671723008156,0.03316274657845497,0.10385262966156006
1772789277942047000,6.419046875,-0.020008862018585205,0.03128388524055481,0.11149989813566208
1772789277952113000,6.42911279296875,-0.018992332741618156,0.025303492322564125,0.12155705690383911
1772789277962179000,6.439178955078125,-0.009545834735035896,0.004261590540409088,0.1308797150850296
1772789277972244700,6.44924462890625,-0.007501325570046902,-0.014783207327127457,0.13321611285209656
1772789277982310700,6.459310546875,-0.0021827267482876778,-0.018466891720891,0.1187218576669693
1772789277992376800,6.469376953125,-0.002222940558567643,-0.006141249556094408,0.08888725936412811
1772789278002442800,6.47944287109375,0.006873352453112602,0.020613133907318115,0.06671085208654404
1772789278012509000,6.489509033203125,0.010549846105277538,0.047622378915548325,0.055209990590810776
1772789278022574800,6.499574951171875,0.017375795170664787,0.05493062734603882,0.05774558708071709
1772789278032641800,6.509641845703125,0.020538032054901123,0.05012122541666031,0.06754282116889954
1772789278042708000,6.5197080078125,0.021862154826521873,0.03515292704105377,0.08164399862289429
1772789278052774000,6.52977392578125,0.019304456189274788,0.02148984558880329,0.08057020604610443
1772789278062844000,6.539843994140625,0.01619761250913143,0.009881126694381237,0.059543754905462265
1772789278072909800,6.549909912109375,0.01344363670796156,0.009927998296916485,0.02490774728357792
1772789278082975700,6.559975830078125,0.010935472324490547,0.01689775660634041,-0.009542372077703476
1772789278093042000,6.5700419921875,0.012072641402482986,0.02937226928770542,-0.027151726186275482
1772789278103107600,6.580107666015625,0.011518438346683979,0.030663637444376945,-0.03964434936642647
1772789278113173800,6.590173828125,0.01269741915166378,0.029589584097266197,-0.03912503272294998
1772789278123239700,6.60023974609375,0.012278770096600056,0.01998009905219078,-0.034028805792331696
1772789278133305900,6.610305908203125,0.012838566675782204,0.028425250202417374,-0.028731780126690865
1772789278143371800,6.620371826171875,0.009475527331233025,0.03791382536292076,-0.03160373121500015
1772789278153438000,6.63043798828125,0.0035598473623394966,0.03952663764357567,-0.04141375422477722
1772789278163503900,6.64050390625,-0.0007946872501634061,0.03984488546848297,-0.04830308258533478
1772789278173570800,6.65057080078125,0.0015433018561452627,0.02912219800055027,-0.047618117183446884
1772789278183637000,6.660636962890625,0.003285009181126952,0.015680426731705666,-0.04685672000050545
1772789278193702700,6.67070263671875,0.0065202172845602036,-0.0005629922379739583,-0.04476640745997429
1772789278203768800,6.680768798828125,0.009179383516311646,-0.011211109347641468,-0.038729552179574966
1772789278213834800,6.690834716796875,0.01194028276950121,-0.009306682273745537,-0.03888002038002014
1772789278223900700,6.700900634765625,0.016811205074191093,-0.008553008548915386,-0.03411083295941353
1772789278233966800,6.710966796875,0.019523100927472115,-0.011895275674760342,-0.025002822279930115
1772789278244032800,6.72103271484375,0.020261328667402267,0.001437308033928275,-0.01811135932803154
1772789278254099000,6.731098876953125,0.02046958915889263,0.0038333539851009846,-0.015677230432629585
1772789278264164600,6.74116455078125,0.019098326563835144,0.006770288106054068,-0.01853853091597557
1772789278274230800,6.751230712890625,0.015358716249465942,0.009862750768661499,-0.02419375255703926
1772789278284296700,6.761296630859375,0.015006380155682564,0.008579373359680176,-0.026916835457086563
1772789278294363000,6.77136279296875,0.010124805383384228,0.007287207525223494,-0.023448335006833076
1772789278304428800,6.7814287109375,0.009196694009006023,0.003492735791951418,-0.014119015075266361
1772789278314495700,6.791495849609375,0.008154066279530525,0.009696302935481071,-0.009384713135659695
1772789278324562000,6.80156201171875,0.009890181012451649,0.011377024464309216,-0.004840828012675047
1772789278334627800,6.8116279296875,0.010015616193413734,0.016706274822354317,-0.005110073368996382
1772789278344694000,6.821694091796875,0.010147974826395512,0.005625927820801735,-0.006928746122866869
1772789278354759700,6.831759765625,0.004811799619346857,-0.010364224202930927,-0.008219580166041851
1772789278364825600,6.84182568359375,-0.00016777914424892515,-0.011177021078765392,-0.013481720350682735
1772789278374891800,6.851891845703125,-0.00013848437811248004,-0.010357832536101341,-0.02161315083503723
1772789278384957700,6.861957763671875,-0.007702660746872425,0.005458415020257235,-0.034033067524433136
1772789278395024000,6.87202392578125,-0.00791491474956274,0.01890498213469982,-0.03478993847966194
1772789278405089800,6.88208984375,-0.008889631368219852,0.022535402327775955,-0.035949744284152985
1772789278415156000,6.892156005859375,-0.007434213999658823,0.02153272181749344,-0.0292377807199955
1772789278425221600,6.9022216796875,-0.009379919618368149,0.02142486535012722,-0.022789468988776207
1772789278435287800,6.912287841796875,-0.017010409384965897,0.02063390612602234,-0.022892799228429794
1772789278445353700,6.922353759765625,-0.017496967688202858,0.015426626428961754,-0.02443157322704792
1772789278455420700,6.932420654296875,-0.019773172214627266,0.014006363227963448,-0.025901105254888535
1772789278465486800,6.94248681640625,-0.01996625028550625,0.013953099958598614,-0.023865384981036186
1772789278475552800,6.952552734375,-0.021408353000879288,0.01270114816725254,-0.008733570575714111
1772789278485619000,6.962618896484375,-0.02034761570394039,0.010570352897047997,-0.007520766928792
1772789278495684900,6.972684814453125,-0.023430224508047104,0.013731524348258972,-0.008353803306818008
1772789278505750800,6.982750732421875,-0.020074907690286636,0.01673983223736286,-0.01073786523193121
1772789278515816700,6.992816650390625,-0.019811255857348442,0.020369453355669975,-0.013641243800520897
1772789278525882600,7.002882568359375,-0.014873487874865532,0.011169297620654106,-0.019047992303967476
1772789278535948800,7.01294873046875,-0.016756609082221985,0.013670272193849087,-0.023082949221134186
1772789278546014700,7.0230146484375,-0.013831393793225288,0.01606525294482708,-0.032819733023643494
1772789278556081000,7.033080810546875,-0.012341088615357876,0.01673557050526142,-0.03462295979261398
1772789278566146800,7.043146728515625,-0.009701096452772617,0.02466779574751854,-0.0400100015103817
1772789278576213000,7.053212890625,-0.0032871398143470287,0.020952953025698662,-0.029044967144727707
1772789278586279000,7.06327880859375,-0.0003866909828502685,0.023959660902619362,-0.014533668756484985
1772789278596344800,7.0733447265625,-0.0011968245962634683,0.019637349992990494,-0.003882089862599969
1772789278606410800,7.08341064453125,-0.0004902879591099918,0.010809770785272121,-0.006719687953591347
1772789278616477700,7.093477783203125,-0.0010764497565105557,0.009031844325363636,-0.01757313497364521
1772789278626543900,7.1035439453125,0.004076766781508923,0.007880560122430325,-0.02876506932079792
1772789278636609800,7.11360986328125,0.0005347627447918057,0.012028699740767479,-0.03597903996706009
1772789278646675700,7.12367578125,-0.003979029133915901,0.01984960399568081,-0.035105522722005844
1772789278656742000,7.133741943359375,-0.003591539105400443,0.01543488260358572,-0.026433737948536873
1772789278666807800,7.143807861328125,-0.00818149745464325,0.020716464146971703,-0.01738724671304226
1772789278676873700,7.153873779296875,-0.0076360818929970264,0.023262444883584976,-0.004397677723318338
1772789278686939600,7.163939697265625,-0.009726396761834621,0.026885943487286568,-0.010269681923091412
1772789278697005800,7.174005859375,-0.007454187609255314,0.023009445518255234,-0.026556774973869324
1772789278707071700,7.18407177734375,-0.007850732654333115,0.0242515429854393,-0.03248177841305733
1772789278717138000,7.194137939453125,-0.010296845808625221,0.01967223733663559,-0.03665601462125778
1772789278727203800,7.204203857421875,-0.01252005249261856,0.02418230101466179,-0.03779584914445877
1772789278737269800,7.214269775390625,-0.011349326930940151,0.022306105121970177,-0.03160053491592407
1772789278747336000,7.2243359375,-0.010458233766257763,0.015670571476221085,-0.033191241323947906
1772789278757401600,7.234401611328125,-0.013864416629076004,0.020067185163497925,-0.03492123261094093
1772789278767467800,7.2444677734375,-0.013148026540875435,0.019534552469849586,-0.02966521680355072
1772789278777534700,7.25453466796875,-0.013628194108605385,0.027419373393058777,-0.02111593820154667
1772789278787600600,7.2646005859375,-0.01360316015779972,0.027696343138813972,-0.015956595540046692
1772789278797666800,7.274666748046875,-0.012653477489948273,0.020065853372216225,-0.00809041690081358
1772789278807732700,7.284732666015625,-0.007001716643571854,0.02479296363890171,0.0018825886072590947
1772789278817799000,7.294798828125,-0.0032828785479068756,0.025975408032536507,0.00746271014213562
1772789278827864800,7.30486474609375,-0.005893575493246317,0.02382570505142212,0.012914999388158321
1772789278837931000,7.314930908203125,-0.002287122653797269,0.014788000844419003,0.014226606115698814
1772789278847996700,7.32499658203125,-0.0022072279825806618,0.00951014831662178,0.008133826777338982
1772789278858062800,7.335062744140625,-0.0008434231276623905,0.01570226438343525,0.010493653826415539
1772789278868128800,7.345128662109375,-0.0012977584265172482,0.01637018471956253,0.010006029158830643
1772789278878194700,7.355194580078125,-0.003434146288782358,0.021795310080051422,0.01877422071993351
1772789278888260900,7.3652607421875,0.005269596818834543,0.03039172850549221,0.01920192316174507
1772789278898326800,7.375326904296875,0.005201419815421104,0.03056376799941063,0.0139568280428648
1772789278908393000,7.38539306640625,0.006433132104575634,0.026012958958745003,0.00589703768491745
1772789278918458600,7.395458740234375,0.00039547940832562745,0.02598419599235058,-0.005181712564080954
1772789278928524800,7.40552490234375,0.0018005631864070892,0.02099396474659443,-0.010393785312771797
1772789278938590700,7.4155908203125,-0.0000327568814100232,0.016234630718827248,-0.011051852256059647
1772789278948657000,7.425656982421875,0.0006641923682764173,0.024449683725833893,-0.00797057431191206
1772789278958722800,7.435722900390625,0.002406432293355465,0.024350879713892937,0.002338788006454706
1772789278968789800,7.445789794921875,-0.0027720844373106956,0.019871709868311882,-0.00032623723382130265
1772789278978856000,7.45585595703125,-0.0014988270122557878,0.01660667359828949,-0.006128998938947916
1772789278988921900,7.465921875,-0.004739627707749605,0.017894843593239784,-0.011447331868112087
1772789278998988000,7.475988037109375,-0.0010317085543647408,0.017489511519670486,-0.016501745209097862
1772789279009053700,7.4860537109375,0.0002002697146963328,0.01593875326216221,-0.020846426486968994
1772789279019119600,7.49611962890625,-0.00321869645267725,0.014375477097928524,-0.021437380462884903
1772789279029185800,7.506185791015625,-0.005946572404354811,0.007311708759516478,-0.01593928597867489
1772789279039251700,7.516251708984375,-0.005395564250648022,0.018742794170975685,-0.013273993507027626
1772789279049318000,7.52631787109375,-0.0068270135670900345,0.028139492496848106,-0.0036791570018976927
1772789279059379700,7.536379638671875,-0.002121207769960165,0.028179174289107323,0.004218180663883686
1772789279069446000,7.54644580078125,0.0000010652644277797663,0.019519371911883354,0.01158475037664175
1772789279079511800,7.55651171875,-0.0023379891645163298,0.010544519871473312,0.01061855535954237
1772789279089578000,7.566577880859375,-0.002079662401229143,0.009074455127120018,0.011751997284591198
1772789279099644000,7.576643798828125,-0.0007358313887380064,0.010453173890709877,0.005489573813974857
1772789279109709800,7.586709716796875,-0.0020479708909988403,0.019296199083328247,0.0022743395529687405
1772789279119775700,7.596775634765625,-0.004727110732346773,0.009468336589634418,0.0007475492893718183
1772789279129842000,7.606842041015625,-0.006678142584860325,0.00022503710351884365,-0.001014131703414023
1772789279139907800,7.616907958984375,-0.006761499680578709,0.002438656520098448,-0.003516171593219042
1772789279149973800,7.626973876953125,-0.006509298458695412,0.003733751829713583,-0.009824667125940323
1772789279160041000,7.637041015625,-0.003745736088603735,0.014514493755996227,-0.017136909067630768
1772789279170107000,7.64710693359375,-0.002561428351327777,0.023420371115207672,-0.011003648862242699
1772789279180172800,7.6571728515625,-0.0006940197781659663,0.02863350883126259,-0.006717024836689234
1772789279190239000,7.667239013671875,-0.0028551749419420958,0.030592264607548714,0.0002311623829882592
1772789279200304600,7.6773046875,-0.0011523497523739934,0.019207250326871872,-0.0002956108655780554
1772789279210370800,7.687370849609375,0.0013720606220886111,0.01750868558883667,-0.009272327646613121
1772789279220436700,7.697436767578125,0.001142496126703918,0.006187854800373316,-0.01330169104039669
1772789279230503000,7.7075029296875,0.0013677994720637798,0.0007669904152862728,-0.012783173471689224
1772789279240568800,7.71756884765625,0.0023062974214553833,0.0015446334145963192,-0.010987936519086361
1772789279250635000,7.727635009765625,0.00040613205055706203,0.002785400254651904,-0.008745288476347923
1772789279260701000,7.737700927734375,0.0004093278548680246,0.010851316154003143,-0.0040972731076180935
1772789279270766800,7.747766845703125,0.004317516926676035,0.01762693002820015,-0.003596598980948329
1772789279280832800,7.757832763671875,0.0022357236593961716,0.0282747820019722,-0.002207760466262698
1772789279290898700,7.767898681640625,0.00025726135936565697,0.032887909561395645,-0.008712797425687313
1772789279300964900,7.77796484375,-0.0002921487612184137,0.03255314752459526,-0.009503756649792194
1772789279311030800,7.78803076171875,-0.0008165251929312944,0.025889387354254723,-0.005600893869996071
1772789279321097000,7.798096923828125,-0.004397944081574678,0.012869725935161114,0.0041002025827765465
1772789279331163000,7.808162841796875,-0.0037968687247484922,0.013776532374322414,0.0031851406674832106
1772789279341228800,7.818228759765625,-0.0033449302427470684,0.0191971305757761,-0.003296194365248084
1772789279351294700,7.828294677734375,0.000871652620844543,0.02207627333700657,-0.006247243378311396
1772789279361361000,7.83836083984375,0.002892459277063608,0.017908159643411636,-0.0033931334037333727
1772789279371426800,7.8484267578125,0.007522364612668753,0.020494090393185616,0.0022687469609081745
1772789279381493800,7.85849365234375,0.009163937531411648,0.012034825049340725,-0.0001246359315700829
1772789279391560000,7.868559814453125,0.0070680296048521996,0.011456652544438839,0.0009318400407209992
1772789279401625900,7.8786259765625,0.0046813045628368855,0.0057558901607990265,-0.0020157466642558575
1772789279411692000,7.888692138671875,0.008761267177760601,0.004194478504359722,0.00006657902849838138
1772789279421758000,7.898758056640625,0.007458182517439127,0.007721569389104843,-0.004177168011665344
1772789279431823600,7.90882373046875,0.003920971881598234,0.014926751144230366,-0.0023425165563821793
1772789279441889800,7.918889892578125,0.004472779110074043,0.020784907042980194,0.0006125270738266408
1772789279451955700,7.928955810546875,0.004895688965916634,0.022251775488257408,0.0017052220646291971
1772789279462022000,7.93902197265625,0.0007355650886893272,0.0186447910964489,-0.0025683525018393993
1772789279472087800,7.949087890625,0.002517486223950982,0.019643476232886314,-0.0020871192682534456
1772789279482154000,7.959154052734375,0.0007534082396887243,0.01870604418218136,-0.0037819549906998873
1772789279492220000,7.969219970703125,0.0007182545377872884,0.024775654077529907,-0.005094626918435097
1772789279502286000,7.9792861328125,0.002927612978965044,0.02190343476831913,-0.003778226673603058
1772789279512351700,7.989351806640625,-0.00023276027059182525,0.027962392196059227,-0.0068147629499435425
1772789279522417000,7.9994169921875,-0.003958788700401783,0.027516312897205353,-0.0073204971849918365
1772789279532482800,8.00948291015625,0.0026144252624362707,0.016744891181588173,-0.008984173648059368
1772789279542549000,8.019549072265624,-0.002897519152611494,0.008886968716979027,-0.003668770659714937
1772789279552615000,8.029614990234375,-0.0006245112745091319,0.011188206262886524,0.0003808320325333625
1772789279562680800,8.039680908203126,-0.0015108112711459398,0.014961904846131802,-0.00242134602740407
1772789279572748000,8.049748046875,-0.0023377228062599897,0.01961684413254261,-0.0046394928358495235
1772789279582813700,8.059813720703126,-0.0020692760590463877,0.018605908378958702,-0.004056260455399752
1772789279592879900,8.0698798828125,-0.0031342741567641497,0.01919393427670002,-0.003204581793397665
1772789279602945800,8.07994580078125,-0.002409628126770258,0.02160436101257801,-0.0012199940392747521
1772789279613011700,8.09001171875,-0.00227833422832191,0.013007943518459797,-0.0029350698459893465
1772789279623078000,8.100077880859375,-0.004573446698486805,0.015308382920920849,-0.008680573664605618
1772789279633143800,8.110143798828124,-0.003314570290967822,0.019897008314728737,-0.00774660287424922
1772789279643210000,8.1202099609375,-0.0023995081428438425,0.01944027654826641,-0.008325307630002499
1772789279653275600,8.130275634765624,-0.0005803027888759971,0.01829059049487114,-0.007394799496978521
1772789279663341800,8.140341796875,-0.001886317040771246,0.02208932302892208,-0.009354086592793465
1772789279673407700,8.15040771484375,-0.0031158984638750553,0.021379856392741203,-0.012926717288792133
1772789279683474000,8.160473876953125,-0.004833637271076441,0.014348845928907394,-0.013134177774190903
1772789279693539800,8.170539794921876,-0.007663512136787176,0.011562646366655827,-0.019535617902874947
1772789279703606000,8.18060595703125,-0.007023022044450045,0.014459366910159588,-0.022703448310494423
1772789279713672000,8.190671875,-0.0065284729935228825,0.010913101024925709,-0.01619521528482437
1772789279723737900,8.20073779296875,-0.008559399284422398,0.016812801361083984,-0.008354602381587029
1772789279733803800,8.2108037109375,-0.007588677573949099,0.017341705039143562,-0.005624862387776375
1772789279743869700,8.22086962890625,-0.008028898388147354,0.017580857500433922,-0.001272990950383246
1772789279753936000,8.230935791015625,-0.00920202024281025,0.013908358290791512,0.005638711154460907
1772789279764001800,8.241001708984374,-0.01056236308068037,0.006583333946764469,0.004477306269109249
1772789279774068000,8.25106787109375,-0.009680057875812054,0.007653925102204084,0.005469067487865686
1772789279784134000,8.2611337890625,-0.009755957871675491,0.01480557769536972,0.002772883279249072
1772789279794200000,8.271199951171875,-0.009466205723583698,0.018367022275924683,-0.003020024625584483
1772789279804265700,8.281265625,-0.013376259244978428,0.023733824491500854,-0.010764497332274914
1772789279814331600,8.29133154296875,-0.010143181309103966,0.017773404717445374,-0.00875274557620287
1772789279824397800,8.301397705078125,-0.009819340892136097,0.015497200191020966,-0.005092762876302004
1772789279834463700,8.311463623046874,-0.008356466889381409,0.011723501607775688,-0.009130913764238358
1772789279844530000,8.321530029296875,-0.00812104344367981,0.012917662970721722,-0.014148309826850891
1772789279854595800,8.331595947265624,-0.011218300089240074,0.012867328710854053,-0.021976405754685402
1772789279864662000,8.341662109375,-0.007424892857670784,0.01757819391787052,-0.028077973052859306
1772789279874727700,8.351727783203126,-0.010187123902142048,0.02472798340022564,-0.024882713332772255
1772789279884793900,8.3617939453125,-0.006250439211726189,0.019461847841739655,-0.02051432989537716
1772789279894860800,8.37186083984375,-0.0025659557431936264,0.017231451347470284,-0.02039741724729538
1772789279904926700,8.3819267578125,-0.003486077766865492,0.022763103246688843,-0.02153751626610756
1772789279914993000,8.391992919921876,-0.0025302693247795105,0.02448670007288456,-0.028897162526845932
1772789279925058800,8.402058837890625,-0.004788896068930626,0.011989018879830837,-0.033670611679553986
1772789279935125000,8.412125,-0.00532658863812685,0.004356931429356337,-0.032581113278865814
1772789279945191000,8.42219091796875,-0.007794806268066168,0.003308444982394576,-0.02966628223657608
1772789279955256800,8.4322568359375,-0.005000350996851921,0.005864813458174467,-0.028439629822969437
1772789279965322800,8.44232275390625,-0.006361759267747402,0.018441857770085335,-0.024599086493253708
1772789279975388700,8.452388671875,-0.005711948033422232,0.029137112200260162,-0.01648603193461895
1772789279985454800,8.462454833984374,-0.0014269216917455196,0.029471606016159058,-0.011935222893953323
1772789279995520800,8.472520751953125,0.0018793927738443017,0.023300528526306152,-0.009603092446923256
1772789280005587000,8.4825869140625,-0.00042450788896530867,0.01612597331404686,-0.010129067115485668
1772789280015652900,8.49265283203125,0.0035246936604380608,0.0033771544694900513,-0.0022631543688476086
1772789280025719000,8.502718994140626,0.003576092654839158,0.0001739044237183407,0.00007669904152862728
1772789280035785000,8.512784912109375,0.001955559244379401,-0.0015491608064621687,-0.00045087316539138556
1772789280045851000,8.522850830078125,0.003469033632427454,0.004096208140254021,-0.00624058535322547
1772789280055916800,8.532916748046874,0.004048803821206093,0.010970626026391983,-0.00373108871281147
1772789280065982500,8.542982421875,0.003457049373537302,0.02557193860411644,0.0025337315164506435
1772789280076048600,8.553048583984374,0.003200853243470192,0.028857747092843056,0.0000929443194763735
1772789280086114600,8.563114501953125,0.002001898130401969,0.032708678394556046,-0.0028972530271857977
1772789280096180700,8.5731806640625,-0.0017113472567871213,0.030106503516435623,-0.001383245806209743
1772789280106246700,8.58324658203125,-0.00046152580762282014,0.02063976414501667,-0.004975583869963884
1772789280116312800,8.593312744140626,-0.0024074974935501814,0.007149522192776203,-0.007964183576405048
1772789280126378800,8.603378662109375,-0.000999750685878098,0.014201573096215725,-0.009651562198996544
1772789280136444700,8.613444580078125,-0.002540922025218606,0.020228039473295212,-0.01113387756049633
1772789280146510600,8.623510498046874,0.0041281660087406635,0.02786811627447605,-0.012202071025967598
1772789280156577500,8.63357763671875,0.008499212563037872,0.04537653550505638,-0.0038093857001513243
1772789280166643700,8.643643798828125,0.0116750318557024,0.04691930487751961,0.0049617355689406395
1772789280176709600,8.653709716796875,0.008026234805583954,0.04036180302500725,0.003215766977518797
1772789280186775800,8.66377587890625,0.00800439715385437,0.03148655220866203,-0.0015544871566817164
1772789280196841700,8.673841796875,0.007041131611913443,0.010544253513216972,-0.0031382690649479628
1772789280206907600,8.68390771484375,0.004817658569663763,0.0032953955233097076,-0.004013383761048317
1772789280216973800,8.693973876953125,0.004846154246479273,0.003312173532322049,-0.0025121597573161125
1772789280227039500,8.70403955078125,0.009402822703123093,0.006369748618453741,-0.002403502818197012
1772789280237105700,8.714105712890625,0.005054146982729435,0.023563383147120476,-0.0007209177128970623
1772789280247171600,8.724171630859376,0.0023422501981258392,0.01877608522772789,-0.0010809770319610834
1772789280257237800,8.73423779296875,0.001172323478385806,0.023863786831498146,0.009590042755007744
1772789280267303700,8.7443037109375,-0.0003448793722782284,0.022171614691615105,0.00875940266996622
1772789280277369900,8.754369873046874,-0.001740109408274293,0.024513598531484604,0.009952765889465809
1772789280287435800,8.764435791015625,-0.003281813347712159,0.0156527291983366,0.0019710054621100426
1772789280297501400,8.77450146484375,-0.005077582783997059,0.012259862385690212,-0.0029822078067809343
1772789280307567600,8.784567626953125,-0.0012405004817992449,0.008188953623175621,-0.01065131276845932
1772789280317633500,8.794633544921876,-0.006533000618219376,0.0064893243834376335,-0.008851548656821251
1772789280327699700,8.80469970703125,-0.004324440844357014,0.016219183802604675,-0.008246478624641895
1772789280337765600,8.814765625,0.001362473238259554,0.007256315089762211,0.004519917070865631
1772789280347831800,8.824831787109375,-0.0011353056179359555,0.007714112289249897,0.0038927425630390644
1772789280357897700,8.834897705078125,-0.00490234699100256,0.012472115457057953,0.002403236459940672
1772789280367964000,8.8449638671875,-0.009807622991502285,0.01576937548816204,-0.004988899454474449
1772789280378029600,8.855029541015625,-0.01194081548601389,0.0200477447360754,-0.006455502472817898
1772789280388095700,8.865095703125,-0.008676312863826752,0.01525804866105318,-0.001683650421909988
1772789280398161700,8.87516162109375,-0.007354851812124252,0.013395966030657291,-0.0070334081538021564
1772789280408227600,8.8852275390625,-0.0062554990872740746,0.018700717017054558,-0.002846919232979417
1772789280418293800,8.895293701171875,-0.004328169394284487,0.014389858581125736,-0.009131979197263718
1772789280428359700,8.905359619140626,-0.0041057956404984,0.019340941682457924,-0.010409764014184475
1772789280438425900,8.91542578125,-0.00615243474021554,0.01341540738940239,-0.005703425966203213
1772789280448491500,8.925491455078125,-0.006988667417317629,0.012793026864528656,-0.002802710747346282
1772789280458557700,8.9355576171875,-0.00315930787473917,0.013163472525775433,0.00005166532355360687
1772789280468623600,8.94562353515625,-0.0035084483679383993,0.018806178122758865,0.0018405106384307146
1772789280478689800,8.955689697265624,-0.002867958042770624,0.01474618911743164,-0.0002580603177193552
1772789280488755700,8.965755615234375,-0.004554538056254387,0.012912603095173836,-0.0009257147903554142
1772789280498822700,8.97582275390625,-0.002698048483580351,0.01890258491039276,-0.0000577905957470648
1772789280508888800,8.985888916015625,-0.006027532275766134,0.0157731045037508,-0.0013401026371866465
1772789280518953500,8.995953369140626,0.0005880259559489787,0.012497948482632637,-0.001686846255324781
1772789280529019600,9.00601953125,-0.0010133327450603247,0.010032393969595432,-0.003910319413989782
1772789280539086600,9.016086669921876,-0.002662362065166235,0.006202502176165581,-0.004936701618134975
1772789280549152500,9.026152587890625,0.00016884441720321774,0.011855061165988445,-0.005623531062155962
1772789280559218700,9.03621875,-0.000830107310321182,0.009815879166126251,0.0013598100049421191
1772789280569284600,9.04628466796875,-0.0011299792677164078,0.001728924224153161,0.0033241575583815575
1772789280579350800,9.056350830078125,-0.0032615733798593283,0.008875783532857895,-0.0030032468494027853
1772789280589416700,9.066416748046874,-0.0047835698351264,0.01134080532938242,-0.005948702804744244
1772789280599483000,9.07648291015625,-0.0016413062112405896,0.009530654177069664,-0.0031212246976792812
1772789280609548500,9.086548583984374,-0.0035662390291690826,0.013551228679716587,-0.0018543590558692813
1772789280619614700,9.09661474609375,-0.0011653993278741837,0.010027866810560226,-0.0011094729416072369
1772789280629680600,9.1066806640625,-0.007389739155769348,0.010755974799394608,0.0017989652696996927
1772789280639746600,9.11674658203125,-0.007570301648229361,0.0034378746058791876,0.00003808320252574049
1772789280649812700,9.126812744140626,-0.00509808911010623,0.0035230957437306643,0.004277302883565426
1772789280659878700,9.136878662109375,-0.0027891285717487335,0.01582876406610012,0.00806378573179245
1772789280669944800,9.14694482421875,-0.0017512947088107467,0.012350942008197308,0.008115717209875584
1772789280680010500,9.157010498046875,-0.0020130835473537445,0.010930146090686321,0.002288188086822629
1772789280690076700,9.16707666015625,-0.003632019041106105,0.011565043590962887,-0.005876265000551939
1772789280700142600,9.177142578125,-0.002939064521342516,0.0158921480178833,-0.016283897683024406
1772789280710208800,9.187208740234375,-0.00364693277515471,0.021314077079296112,-0.020562533289194107
1772789280720274700,9.197274658203124,-0.0059870523400604725,0.021627530455589294,-0.020493824034929276
1772789280730340600,9.207340576171875,-0.0034794199746102095,0.02161208540201187,-0.012736568227410316
1772789280740406800,9.21740673828125,-0.0005781722720712423,0.02582414075732231,-0.015151255764067173
1772789280750472700,9.22747265625,0.003225354477763176,0.02484169974923134,-0.01176211703568697
1772789280760538600,9.23753857421875,0.0041364217177033424,0.013450561091303825,-0.019269036129117012
1772789280770604500,9.2476044921875,0.0016753945965319872,0.002910302486270666,-0.022668827325105667
1772789280780670700,9.257670654296875,0.0015052186790853739,0.001383245806209743,-0.018490061163902283
1772789280790736600,9.267736572265624,-0.0021851237397640944,0.00327275856398046,-0.005775863770395517
1772789280800802800,9.277802734375,-0.0010849718237295747,-0.0029055087361484766,0.0037646444980055094
1772789280810868700,9.28786865234375,-0.0008298410102725029,0.012888101860880852,0.009250223636627197
1772789280820934700,9.2979345703125,0.0008934905636124313,0.019958527758717537,0.0038011297583580017
1772789280831000600,9.30800048828125,-0.0027108315844088793,0.02094629406929016,0.003073287894949317
1772789280841066500,9.31806640625,-0.0010093380697071552,0.025433721020817757,-0.005313538946211338
1772789280851132700,9.328132568359376,0.000024767397917457856,0.019171297550201416,-0.010626012459397316
1772789280861198600,9.338198486328125,-0.0018993664998561144,0.013407684862613678,-0.02262009121477604
1772789280871264800,9.3482646484375,-0.0030541131272912025,0.006742591038346291,-0.024563133716583252
1772789280881330700,9.35833056640625,-0.0027145601343363523,0.006328203249722719,-0.015958992764353752
1772789280891396900,9.36839697265625,0.00013608753215521574,0.004250138532370329,-0.012049471959471703
1772789280901462800,9.378462890625,-0.0031702269334346056,0.004832039587199688,-0.014491857029497623
1772789280911528700,9.38852880859375,-0.003022421384230256,0.01113414391875267,-0.005649097263813019
1772789280921594600,9.3985947265625,-0.002258626976981759,0.012975187040865421,0.0013017531018704176
1772789280931660500,9.40866064453125,-0.0025443839840590954,0.016378173604607582,0.0017041567480191588
1772789280941726700,9.418726806640626,-0.004032292403280735,0.015571502968668938,0.005403819959610701
1772789280951792600,9.428792724609375,-0.003099386813119054,0.016088955104351044,0.009880327619612217
1772789280961858800,9.43885888671875,-0.0020804614759981632,0.023560186848044395,0.0076294238679111
1772789280971924700,9.4489248046875,-0.0033398703671991825,0.014764298684895039,0.006165483966469765
1772789280981990700,9.45899072265625,-0.002889529801905155,0.008073106408119202,-0.0008548747282475233
1772789280992056600,9.469056640625,-0.002228533150628209,0.007643005810678005,0.0002388855500612408
1772789281002122800,9.479122802734375,-0.002936934120953083,0.00923317950218916,-0.005665076430886984
1772789281012188700,9.489188720703124,-0.0016136092599481344,0.020854681730270386,-0.0035198999103158712
1772789281022254600,9.499254638671875,-0.0016040218761190772,0.021759090945124626,0.0003968109958805144
1772789281032320800,9.50932080078125,0.0004644552827812731,0.020130569115281105,-0.00672155199572444
1772789281042386700,9.51938671875,-0.00008255799184553325,0.01239515095949173,-0.012367187067866325
1772789281052452600,9.52945263671875,0.0012343751732259989,0.0075998627580702305,-0.015839150175452232
1772789281062518500,9.5395185546875,-0.001213602488860488,0.009332781657576561,-0.018250908702611923
1772789281072584700,9.549584716796875,-0.0005406216951087117,0.005947637837380171,-0.01577017456293106
1772789281082650600,9.559650634765624,-0.003960653208196163,0.015382152050733566,-0.00905661191791296
1772789281092716800,9.569716796875,-0.003584614722058177,0.016507869586348534,-0.006918093655258417
1772789281102782700,9.57978271484375,-0.005642705596983433,0.015411979518830776,-0.002412557601928711
1772789281112848600,9.5898486328125,-0.004656004719436169,0.016209330409765244,-0.0004213120846543461
1772789281122914800,9.599914794921874,-0.0025033713318407536,0.019408585503697395,-0.0030509172938764095
1772789281132980500,9.60998046875,-0.004286091309040785,0.02563292533159256,-0.0054397727362811565
1772789281143046700,9.620046630859376,-0.0019198728259652853,0.02046879008412361,-0.003952663857489824
1772789281153112600,9.630112548828125,-0.001454884884878993,0.01810390315949917,-0.005815810989588499
1772789281163178800,9.6401787109375,-0.0024522386956959963,0.020855480805039406,-0.0005989448982290924
1772789281173244700,9.65024462890625,-0.005662146955728531,0.017739316448569298,-0.002091913018375635
1772789281183310800,9.660310791015625,-0.003296727081760764,0.013234312646090984,-0.004578506574034691
1772789281193376800,9.670376708984374,-0.00472551304847002,0.009285643696784973,-0.006995591334998608
1772789281203442700,9.680442626953125,-0.003582217963412404,0.010153035633265972,-0.011028949171304703
1772789281213508600,9.690508544921874,-0.0009981527691707015,0.006993993651121855,-0.007283479440957308
1772789281223574500,9.700574462890625,-0.005461610853672028,0.013866281136870384,0.002228533150628209
1772789281233640700,9.710640625,-0.005123123060911894,0.0156527291983366,-0.00013608753215521574
1772789281243706600,9.72070654296875,-0.002299905987456441,0.011150921694934368,-0.01197011023759842
1772789281253772800,9.730772705078126,-0.004680239129811525,0.01161404512822628,-0.0018663433147594333
1772789281263838700,9.740838623046875,-0.004547880031168461,0.01395869255065918,0.0009006810723803937
1772789281273904600,9.750904541015625,-0.004029628820717335,0.013204751536250114,-0.003934287931770086
1772789281283970600,9.760970458984374,-0.0036107138730585575,0.01486683078110218,-0.015986690297722816
1772789281294036700,9.77103662109375,-0.009137838147580624,0.013746438547968864,-0.013700099661946297
1772789281304102700,9.7811025390625,-0.007938084192574024,0.014850584790110588,-0.013815946877002716
1772789281314168600,9.79116845703125,-0.008016381412744522,0.016874853521585464,-0.01200925838202238
1772789281324234800,9.80123486328125,-0.0057649449445307255,0.012123242020606995,-0.01738298498094082
1772789281334300700,9.81130078125,-0.004505536053329706,0.014163755811750889,-0.017783258110284805
1772789281344366800,9.821366943359376,-0.001139300293289125,0.008579906076192856,-0.013561348430812359
1772789281354432500,9.8314326171875,-0.0024138891603797674,0.00564137427136302,-0.009176986292004585
1772789281364498700,9.841498779296876,-0.0025031049735844135,0.0007765777409076691,-0.003926298581063747
1772789281374564600,9.851564697265625,-0.0008868326549418271,-0.0018551580142229795,0.0019414444686844945
1772789281384630800,9.861630859375,-0.00370126124471426,0.006911435630172491,0.010322412475943565
1772789281394696700,9.87169677734375,-0.001898301183246076,0.011864915490150452,0.010064085945487022
1772789281404762600,9.8817626953125,-0.0032887374982237816,0.011099522933363914,0.010839864611625671
1772789281414828800,9.891828857421874,-0.001457814360037446,0.011922972276806831,0.013558685779571533
1772789281424894500,9.90189453125,-0.0010151970200240612,0.010436128824949265,0.015029815956950188
1772789281434960600,9.911960693359376,0.0007155913626775146,0.005446430761367083,0.010391388088464737
1772789281445026600,9.922026611328125,0.0001994707708945498,0.003055711043998599,-0.000031425301131093875
1772789281455092700,9.9320927734375,0.0002596582053229213,0.0035449336282908916,-0.0025627599097788334
1772789281465158700,9.94215869140625,-0.002653307281434536,0.009762349538505077,-0.005554554983973503
1772789281475224800,9.952224853515625,0.0007747135823592544,0.011874502524733543,-0.004369981121271849
1772789281485290800,9.962290771484374,0.0004165183927398175,0.004516454879194498,-0.000355532014509663
1772789281495356700,9.972356689453125,-0.0044011399149894714,0.01453073974698782,-0.0010000169277191162
1772789281505422600,9.982422607421874,-0.005571599118411541,0.01938461698591709,-0.00256462418474257
1772789281515488500,9.992488525390625,-0.003254649229347706,0.016094280406832695,-0.004542820155620575
1772789281525553700,10.0025537109375,0.001580053474754095,0.013331517577171326,-0.00293267285451293
1772789281535620600,10.01262060546875,-0.0003552656853571534,0.00839454960078001,-0.007184942252933979
1772789281545685800,10.022685791015626,-0.00020453077740967274,0.009765811264514923,-0.0023784691002219915
1772789281555751700,10.032751708984375,0.00040027310024015605,0.009736782871186733,0.004391552414745092
1772789281565817600,10.042817626953125,-0.0015590144321322441,0.009613212198019028,0.007862983271479607
1772789281575883500,10.052883544921874,-0.0028298748657107353,0.012690494768321514,0.011424960568547249
1772789281585949700,10.06294970703125,-0.003912716172635555,0.02044934779405594,0.008527441881597042
1772789281596015600,10.073015625,-0.006630738265812397,0.018004033714532852,-0.002668221015483141
1772789281606081800,10.083081787109375,-0.004897020757198334,0.015120362862944603,0.0008442220860160887
1772789281616147700,10.093147705078126,-0.0015835155500099063,0.015693210065364838,0.0038685076870024204
1772789281626214000,10.1032138671875,-0.0007717840489931405,0.018974490463733673,-0.0004308994684834033
1772789281636279600,10.113279541015626,0.004394215997308493,0.012256133370101452,-0.007424094248563051
1772789281646345700,10.123345703125,0.000264718197286129,0.012454538606107235,-0.018384866416454315
1772789281656411600,10.13341162109375,-0.0011022823164239526,0.00968724861741066,-0.02261662855744362
1772789281666477600,10.1434775390625,-0.004145476501435041,0.0048946235328912735,-0.02388402819633484
1772789281676543700,10.153543701171875,-0.0028988507110625505,-0.00024714134633541107,-0.01944027654826641
1772789281686609700,10.163609619140624,-0.0036727653350681067,-0.005712480284273624,-0.015431953594088554
1772789281696675800,10.17367578125,-0.0015094797126948833,0.00196434766985476,-0.013286244124174118
1772789281706741500,10.183741455078126,-0.006050435826182365,0.017048224806785583,-0.013334181159734726
1772789281716807700,10.1938076171875,-0.007730624172836542,0.029533125460147858,-0.012418054044246674
1772789281726873600,10.20387353515625,-0.01124919205904007,0.032647423446178436,-0.006088785361498594
1772789281736939800,10.213939697265625,-0.008206796832382679,0.02803483046591282,-0.004510063212364912
1772789281747005700,10.224005615234375,-0.009783654473721981,0.026249714195728302,-0.0041092573665082455
1772789281757071600,10.234071533203124,-0.0049284459091722965,0.016290556639432907,-0.004506867378950119
1772789281767137800,10.2441376953125,-0.003938016481697559,0.007505320478230715,-0.010892062447965145
1772789281777203500,10.254203369140624,-0.005456816870719194,0.006894924212247133,-0.015075622126460075
1772789281787269600,10.26426953125,-0.002909237053245306,0.00896766223013401,-0.013335779309272766
1772789281797335600,10.27433544921875,-0.005634449888020754,0.013272928074002266,-0.007126352749764919
1772789281807401700,10.284401611328125,-0.005302087403833866,0.015843944624066353,-0.0034967304673045874
1772789281817467600,10.294467529296876,-0.004471713677048683,0.017407219856977463,-0.0007976167253218591
1772789281827533800,10.304533935546875,-0.0025031049735844135,0.019349729642271996,-0.0016042882343754172
1772789281837599700,10.314599853515626,-0.002561161993071437,0.01793292723596096,-0.0024828650057315826
1772789281847665700,10.324665771484375,-0.0029001825023442507,0.016586167737841606,-0.0016740630380809307
1772789281857731600,10.334731689453125,-0.005976133514195681,0.01079938467592001,-0.006431800313293934
1772789281867797500,10.344797607421874,-0.00902944803237915,0.01206811424344778,-0.006548180244863033
1772789281877863700,10.35486376953125,-0.0065282066352665424,0.009887784719467163,-0.0007816377910785377
1772789281887929600,10.3649296875,-0.005172924138605595,0.024593492969870567,0.0035451999865472317
1772789281897995800,10.374995849609375,-0.006728210020810366,0.03355929255485535,0.0015097459545359015
1772789281908061700,10.385061767578126,-0.006859504152089357,0.03521444648504257,-0.00015632755821570754
1772789281918127900,10.3951279296875,-0.0015534218400716782,0.022534336894750595,-0.0028186896815896034
1772789281928193500,10.405193603515626,-0.003703658003360033,0.012870791368186474,-0.0057340520434081554
1772789281938259700,10.415259765625,-0.002025866648182273,0.010688330978155136,-0.009578324854373932
1772789281948325600,10.42532568359375,-0.0015781891997903585,0.004041879437863827,-0.012344017624855042
1772789281958391600,10.4353916015625,-0.005259476602077484,0.00535375252366066,-0.01113281212747097
1772789281968457700,10.445457763671875,-0.005718073341995478,0.012805277481675148,-0.009255549870431423
1772789281978523600,10.455523681640624,-0.00884861871600151,0.016834907233715057,-0.008199607022106647
1772789281988589800,10.46558984375,-0.0033830134198069572,0.025041703134775162,-0.011516307480633259
1772789281998655500,10.475655517578126,-0.0060120862908661366,0.027169568464159966,-0.007381749805063009
1772789282008721700,10.4857216796875,-0.0025984463281929493,0.030315561220049858,-0.005191565956920385
1772789282018787600,10.49578759765625,-0.006552175153046846,0.02292395755648613,-0.006924485322088003
1772789282028853800,10.505853759765625,-0.005461610853672028,0.024349814280867577,-0.001877262257039547
1772789282038919700,10.515919677734376,-0.005268531385809183,0.02243846282362938,-0.008253934793174267
1772789282048985600,10.525985595703125,-0.00515747768804431,0.01895797811448574,-0.009331982582807541
1772789282059052000,10.536052001953125,-0.0019915117882192135,0.010773285292088985,-0.011473963037133217
1772789282069118000,10.546117919921874,-0.0007656587986275554,0.009956760331988335,-0.009970076382160187
1772789282079184100,10.55618408203125,0.00006151902198325843,0.00782676413655281,-0.012014850974082947
1772789282089250000,10.56625,-0.0017188041238114238,0.014283332042396069,-0.009340238757431507
1772789282099316200,10.576316162109375,-0.0027169568929821253,0.022225676104426384,-0.006755374372005463
1772789282109380900,10.586380859375,-0.004474643152207136,0.011720305308699608,-0.00634791050106287
1772789282119447000,10.596447021484375,-0.002956907730549574,0.015091334469616413,-0.014477210119366646
1772789282129513000,10.606512939453125,-0.0037649108562618494,0.018622953444719315,-0.014200774021446705
1772789282139579100,10.6165791015625,-0.008611598052084446,0.027580760419368744,-0.00944889523088932
1772789282149645000,10.62664501953125,-0.009001484140753746,0.028312331065535545,0.0070648337714374065
1772789282159711200,10.636711181640624,-0.005219263024628162,0.025253424420952797,0.027363447472453117
1772789282169777200,10.646777099609375,-0.004771319217979908,0.026448652148246765,0.04790147766470909
1772789282179843000,10.656843017578124,-0.0017542241839691997,0.03007614240050316,0.05216333642601967
1772789282189909000,10.666908935546875,-0.0028932581190019846,0.036677055060863495,0.054481882601976395
1772789282199975000,10.676974853515626,-0.013286510482430458,0.08279874175786972,0.09487324953079224
1772789282210041000,10.687041015625,-0.004328169394284487,0.07854408025741577,0.0861860141158104
1772789282220107000,10.69710693359375,-0.0015872439835220575,0.05079952999949455,0.046176549047231674
1772789282230173200,10.707173095703125,0.002930542454123497,0.009725064970552921,0.012528042308986187
1772789282240239000,10.717239013671875,0.0070611052215099335,0.004238953348249197,0.005279184319078922
1772789282250305000,10.727304931640624,0.007728226948529482,-0.005173190496861935,-0.0038775624707341194
1772789282260371000,10.737370849609375,-0.0002378202771069482,-0.011738947592675686,-0.00836765207350254
1772789282270437000,10.74743701171875,-0.005231513641774654,-0.016865000128746033,-0.009768741205334663
1772789282280503000,10.7575029296875,-0.011333880946040154,-0.019830962643027306,-0.017620539292693138
1772789282290569000,10.76756884765625,-0.021672537550330162,-0.023382287472486496,-0.027632959187030792
1772789282300635100,10.77763525390625,-0.02739114500582218,-0.02713654562830925,-0.03147110715508461
1772789282310701000,10.787701171875,-0.025790052488446236,0.003469299990683794,-0.024407338351011276
1772789282320767200,10.797767333984375,-0.0265935268253088,0.02960529550909996,-0.02177906408905983
1772789282330833000,10.8078330078125,-0.02430240996181965,0.014342454262077808,-0.05450372025370598
