time,seconds_elapsed,z,y,x
1772789515546946000,0.065946044921875,-0.002778209513053298,0.012941897846758366,-0.00035979304811917245
1772789515557011200,0.07601123046875,-0.003855458227917552,0.009576461277902126,0.003031742526218295
1772789515567076900,0.086076904296875,-0.0054549528285861015,0.012659070082008839,-0.001817873795516789
1772789515577143000,0.09614306640625,-0.003186738584190607,0.012949354015290737,-0.00001757686368364375
1772789515587209000,0.106208984375,-0.003914047963917255,0.010154632851481438,0.00026604978484101593
1772789515597274000,0.116274169921875,-0.005048021674156189,0.011766644194722176,0.0014777880860492587
1772789515607340000,0.126340087890625,-0.0028969866689294577,0.008696552366018295,0.0001752359967213124
1772789515617406200,0.13640625,-0.004513791762292385,0.012792760506272316,0.0023193468805402517
1772789515627472000,0.146471923828125,-0.0046482812613248825,0.011575163342058659,0.0010972223244607449
1772789515637537000,0.156537109375,-0.002240783767774701,0.012093680910766125,0.002817358123138547
1772789515647603000,0.16660302734375,-0.0027300063520669937,0.012811402790248394,0.0002002697146963328
1772789515657669000,0.176669189453125,-0.003483947366476059,0.011322163045406342,-0.0003246393462177366
1772789515667735000,0.186735107421875,-0.002566754585132003,0.012986638583242893,-0.0005821670056320727
1772789515677800000,0.196800048828125,-0.0020836573094129562,0.011608718894422054,0.0016468988033011556
1772789515687865900,0.206865966796875,-0.002436259761452675,0.012900885194540024,0.00267754215747118
1772789515697932000,0.21693212890625,-0.005644835997372866,0.013285178691148758,-0.00048602689639665186
1772789515707998000,0.226998046875,-0.001910019083879888,0.01321354042738676,-0.0032418658956885338
1772789515718063000,0.23706298828125,-0.00290364446118474,0.012342420406639576,-0.0019467707024887204
1772789515728129000,0.24712890625,-0.004063451196998358,0.012870791368186474,0.003950799349695444
1772789515738195000,0.25719482421875,-0.0041161817498505116,0.01369077805429697,-0.0001496696495451033
1772789515748260900,0.2672607421875,-0.004561462439596653,0.013639379292726517,0.0034197650384157896
1772789515758326000,0.277325927734375,-0.002162220422178507,0.01224308367818594,-0.0016740630380809307
1772789515768392200,0.28739208984375,-0.003913248889148235,0.012988503091037273,0.0013693973887711763
1772789515778458000,0.2974580078125,-0.0056954361498355865,0.011121094226837158,0.0023696806747466326
1772789515788524000,0.30752392578125,-0.005960420705378056,0.011908058077096939,0.0007291734800674021
1772789515798589000,0.3175888671875,-0.0024770060554146767,0.013618873432278633,0.001050617080181837
1772789515808655000,0.327655029296875,-0.002292981604114175,0.012739497236907482,-0.00026072346372529864
1772789515818721000,0.337720947265625,-0.0031915323343127966,0.014282532967627048,0.002886333968490362
1772789515828787200,0.347787109375,-0.005209675524383783,0.011122692376375198,0.0002516687090974301
1772789515838851800,0.357851806640625,-0.002569684060290456,0.012601013295352459,0.0005667206714861095
1772789515848918000,0.36791796875,-0.003543335711583495,0.011393003165721893,0.0007203850545920432
1772789515858984000,0.37798388671875,-0.0017662084428593516,0.01224627997726202,-0.002110022585839033
1772789515869049000,0.388049072265625,-0.004254133440554142,0.012271047569811344,0.002627741079777479
1772789515879115000,0.398114990234375,-0.0026756778825074434,0.011835088022053242,0.001234907773323357
1772789515889181000,0.408180908203125,-0.004224572330713272,0.01197863183915615,0.0008298410102725029
1772789515899246800,0.418246826171875,-0.0044136568903923035,0.012715795077383518,0.001874332781881094
1772789515909313000,0.42831298828125,-0.0026322684716433287,0.011108310893177986,0.0021044297609478235
1772789515919378000,0.4383779296875,-0.004584898240864277,0.01321327406913042,0.0008250473183579743
1772789515929444000,0.448444091796875,-0.006356965284794569,0.013712350279092789,-0.0014527543680742383
1772789515939510000,0.458510009765625,-0.004430967383086681,0.012122176587581635,-0.0001102548703784123
1772789515949576000,0.468575927734375,-0.0025651566684246063,0.01125318743288517,-0.0008791094878688455
1772789515959641000,0.47864111328125,-0.004803011193871498,0.011226288974285126,0.0025305356830358505
1772789515969707000,0.48870703125,-0.003890611929818988,0.011681423522531986,0.0006141249323263764
1772789515979773000,0.49877294921875,-0.002663427498191595,0.012211126275360584,-0.0005187837523408234
1772789515989838000,0.508838134765625,-0.0034474621061235666,0.01014078501611948,0.002132659312337637
1772789515999904000,0.518904052734375,-0.004355866461992264,0.012283829972147942,-0.0004916195175610483
1772789516009970000,0.528969970703125,-0.004099670331925154,0.010943993926048279,0.001460743835195899
1772789516020036000,0.5390361328125,-0.0038189729675650597,0.012356800958514214,0.0015153386630117893
1772789516030102000,0.54910205078125,-0.00788721814751625,0.011448396369814873,0.0018676748732104897
1772789516040167200,0.559167236328125,-0.001898034941405058,0.010553575120866299,0.0032559807877987623
1772789516050233000,0.569233154296875,-0.00395799009129405,0.013029782101511955,0.0021949773654341698
1772789516060299000,0.579299072265625,-0.005406749434769154,0.012112589552998543,-0.0009334379574283957
1772789516070364000,0.589364013671875,-0.0018809906905516982,0.012634568847715855,0.0026160231791436672
1772789516080430000,0.59943017578125,-0.0028506475500762463,0.013766412623226643,-0.0007776430575177073
1772789516090496000,0.60949609375,-0.0017981663113459945,0.011146927252411842,0.002189384773373604
1772789516100562200,0.619562255859375,-0.003772101365029812,0.014300109818577766,0.0013342436868697405
1772789516110626800,0.629626708984375,-0.003944940399378538,0.011298727244138718,-0.0004884237423539162
1772789516120693000,0.63969287109375,-0.005946572404354811,0.011539476923644543,0.0001685781026026234
1772789516130759000,0.649759033203125,-0.0054517569951713085,0.013325126841664314,-0.00063356600003317
1772789516140825000,0.6598251953125,-0.0037891454994678497,0.012121377512812614,-0.00012223910016473383
1772789516150890000,0.669889892578125,-0.004972654394805431,0.013042032718658447,0.0015337144723162055
1772789516160956000,0.679955810546875,-0.002153431996703148,0.010205499827861786,0.00021172130072955042
1772789516171021800,0.690021728515625,-0.0031364047899842262,0.012047608382999897,0.0001661812566453591
1772789516181088000,0.700087890625,-0.00310497940517962,0.01347319781780243,0.0006282397080212831
1772789516191153200,0.710153076171875,-0.002758768619969487,0.011112306267023087,0.001933987601660192
1772789516201219000,0.720218994140625,-0.001407480682246387,0.012044678442180157,-0.00031638352083973587
1772789516211285000,0.730284912109375,-0.002901514060795307,0.012695289216935635,0.0015880429418757558
1772789516221351000,0.740350830078125,-0.0031459920573979616,0.009610283188521862,0.0008101335843093693
1772789516231416800,0.750416748046875,-0.002907373011112213,0.013804495334625244,0.001261273049749434
1772789516241482000,0.76048193359375,-0.0021819279063493013,0.013201821595430374,-0.0012889700010418892
1772789516251548200,0.770548095703125,-0.0019217369845137,0.014085724949836731,0.0014282532501965761
1772789516261614000,0.780614013671875,-0.00501153664663434,0.01053200289607048,0.0014865765115246177
1772789516271680000,0.790679931640625,-0.003997404593974352,0.013099556788802147,0.0035228293854743242
1772789516281745000,0.800744873046875,-0.004968393128365278,0.014092649333178997,0.0008974852971732616
1772789516291811000,0.81081103515625,-0.0023342606145888567,0.012776515446603298,0.0006447513005696237
1772789516301877000,0.820876953125,-0.0028477180749177933,0.012496350333094597,-0.00012916330888401717
1772789516311943000,0.83094287109375,-0.0030682277865707874,0.011172492988407612,-0.001261805766262114
1772789516322007800,0.8410078125,-0.00424214918166399,0.012239355593919754,-0.0003968109958805144
1772789516332074000,0.851073974609375,-0.0032599754631519318,0.01411422062665224,0.003576891729608178
1772789516342140000,0.861139892578125,-0.003260241821408272,0.00974317453801632,-0.0037055222783237696
1772789516352206000,0.8712060546875,-0.002621615771204233,0.014012222178280354,0.0010804444318637252
1772789516362270700,0.881270751953125,-0.005270662251859903,0.011856126599013805,0.001844505313783884
1772789516372337000,0.8913369140625,-0.004198739770799875,0.013037504628300667,0.0031164311803877354
1772789516382402800,0.90140283203125,-0.00418382603675127,0.012340289540588856,-0.000925182132050395
1772789516392469000,0.911468994140625,-0.0036426717415452003,0.008519718423485756,0.00032676986302249134
1772789516402534000,0.921533935546875,-0.004879177547991276,0.01233176700770855,0.0008415589109063148
1772789516412600000,0.93160009765625,-0.0014335796004161239,0.011779427528381348,0.0014024205738678575
1772789516422665700,0.941665771484375,-0.003734018187969923,0.01245347410440445,0.004664793144911528
1772789516432732000,0.95173193359375,-0.004275438841432333,0.013832724653184414,-0.0006617955514229834
1772789516442797000,0.961797119140625,-0.002016811864450574,0.010814564302563667,0.0046813045628368855
1772789516452863000,0.971863037109375,-0.003180346917361021,0.01245081052184105,0.0007699198904447258
1772789516462929000,0.981928955078125,-0.004824049770832062,0.012715262360870838,0.001252484624274075
1772789516472995000,0.9919951171875,-0.0020873856265097857,0.009587646462023258,-0.0005099953268654644
1772789516483060000,1.00206005859375,-0.0031350732315331697,0.012087555602192879,0.0020181434229016304
1772789516493126000,1.0121259765625,-0.00492125516757369,0.010604441165924072,0.0022474415600299835
1772789516503192000,1.022192138671875,-0.0029696908313781023,0.008641957305371761,0.003591006388887763
1772789516513258000,1.032258056640625,-0.002237587934359908,0.012684103101491928,0.002555036684498191
1772789516523323000,1.042322998046875,-0.0029643645975738764,0.011827630922198296,-0.0012916331179440022
1772789516533388800,1.052388916015625,-0.0032141690608114004,0.012444418855011463,-0.0011763182701542974
1772789516543455000,1.062455078125,-0.003465837799012661,0.010434531606733799,0.0010607370641082525
1772789516553521000,1.07252099609375,-0.0031699605751782656,0.011481686495244503,0.001985120354220271
1772789516563587000,1.082587158203125,-0.0037886130157858133,0.012524314224720001,0.002435993403196335
1772789516573652000,1.09265185546875,0.00021598236344289035,0.010271811857819557,0.0014263890916481614
1772789516583718000,1.1027177734375,-0.004001399502158165,0.013130982406437397,0.0004897553008049726
1772789516593783800,1.11278369140625,-0.0035984632559120655,0.01058979332447052,0.00029055087361484766
1772789516603850000,1.12285009765625,-0.004347610287368298,0.012339224107563496,0.0011403656098991632
1772789516613915000,1.132914794921875,-0.0035028557758778334,0.011802596971392632,-0.0013851100811734796
1772789516623981000,1.14298095703125,-0.003525758860632777,0.011296862736344337,0.002429868094623089
1772789516634047000,1.153046875,-0.004244545940309763,0.014134461060166359,0.001954760169610381
1772789516644113000,1.16311279296875,-0.0030072415247559547,0.013560815714299679,0.000028495824153651483
1772789516654177800,1.173177734375,-0.004764395300298929,0.012431901879608631,0.000681236619129777
1772789516664244000,1.183243896484375,-0.004198473412543535,0.012881177477538586,-0.0004953479510731995
1772789516674310000,1.193309814453125,-0.0028370653744786978,0.011747736483812332,0.002389388158917427
1772789516684376000,1.2033759765625,-0.003299656556919217,0.013248694129288197,0.0033222935162484646
1772789516694441000,1.21344091796875,-0.00384400668554008,0.012318984605371952,-0.0015480954898521304
1772789516704507000,1.2235068359375,-0.004141215234994888,0.010219347663223743,0.0007584682898595929
1772789516714572800,1.23357275390625,-0.004898352082818747,0.013999705202877522,-0.0011518171522766352
1772789516724639000,1.243638916015625,-0.0008892294717952609,0.009012935683131218,-0.0004828310920856893
1772789516734705000,1.253704833984375,-0.004832572303712368,0.011195662431418896,-0.0013393036788329482
1772789516744770000,1.26377001953125,-0.002966495230793953,0.01188222598284483,0.00043036683928221464
1772789516754836000,1.2738359375,-0.0036738307680934668,0.01161431148648262,0.0012474246323108673
1772789516764902000,1.28390185546875,-0.0008335694437846541,0.012738431803882122,0.0004889564006589353
1772789516774967800,1.2939677734375,-0.002192580606788397,0.0116148442029953,0.0008410262526012957
1772789516785033000,1.304032958984375,-0.0027835359796881676,0.012824718840420246,-0.0012548814993351698
1772789516795099100,1.31409912109375,-0.0013100089272484183,0.010160491801798344,0.002965163439512253
1772789516805164800,1.324164794921875,-0.004196609370410442,0.009650763124227524,0.0023755396250635386
1772789516815230700,1.334230712890625,-0.00398568669334054,0.013581588864326477,0.0012397015234455466
1772789516825296000,1.3442958984375,-0.0035859462805092335,0.011565842665731907,0.003179814200848341
1772789516835362000,1.354362060546875,-0.0006769755273126066,0.01073759887367487,0.0007827030494809151
1772789516845428000,1.364427978515625,-0.0024205471854656935,0.01324256882071495,0.001434112200513482
1772789516855494100,1.374494140625,-0.0035084483679383993,0.012766129337251186,0.0012159993639215827
1772789516865559800,1.384559814453125,-0.002329200739040971,0.013205816969275475,0.0011459582019597292
1772789516875625000,1.394625,-0.004054130055010319,0.011448929086327553,0.0006207828409969807
1772789516885691000,1.40469091796875,-0.0031731564085930586,0.014082795940339565,0.0008673915872350335
1772789516895757000,1.414757080078125,-0.0033654365688562393,0.013233247213065624,-0.0014924354618415236
1772789516905823000,1.424822998046875,-0.0023425165563821793,0.012165320105850697,0.0016391756944358349
1772789516915887900,1.434887939453125,-0.004063451196998358,0.01410729717463255,0.0020591560751199722
1772789516925953800,1.444953857421875,-0.003631752682849765,0.009888583794236183,0.00047084689140319824
1772789516936020000,1.45502001953125,-0.00279099284671247,0.011173025704920292,-0.0004713795206043869
1772789516946086000,1.4650859375,-0.004647482186555862,0.01245054416358471,-0.0018112158868461847
1772789516956151000,1.475151123046875,-0.002463690238073468,0.011634019203484058,0.0007877630414441228
1772789516966217000,1.485217041015625,-0.005107676610350609,0.01404577773064375,-0.0008937568636611104
1772789516976283000,1.495282958984375,-0.003001915058121085,0.011286742985248566,-0.00014753911818843335
1772789516986348800,1.505348876953125,-0.0037345506716519594,0.011387943290174007,0.003147856332361698
1772789516996415000,1.5154150390625,-0.0018034926615655422,0.011865448206663132,0.003058107802644372
1772789517006480000,1.52547998046875,-0.003430417738854885,0.010908041149377823,0.0026224146131426096
1772789517016546000,1.535546142578125,-0.003341201925650239,0.01272884476929903,0.00047084689140319824
1772789517026612000,1.545612060546875,-0.0006857639527879655,0.009128517471253872,0.0013169331941753626
1772789517036678000,1.555677978515625,-0.005594236310571432,0.011650264263153076,0.002110288944095373
1772789517046743000,1.565742919921875,-0.0029060414526611567,0.01065291091799736,0.0021766014397144318
1772789517056809000,1.57580908203125,-0.00361817074008286,0.013888385146856308,0.001113201375119388
1772789517066875000,1.585875,-0.002924683503806591,0.012565859593451023,0.0013347762869670987
1772789517076941000,1.595941162109375,-0.0038892803713679314,0.013104350306093693,0.0007222492713481188
1772789517087007000,1.606007080078125,-0.005264270585030317,0.011596201919019222,0.003498328384011984
1772789517097071900,1.61607177734375,-0.004551608581095934,0.011071559973061085,-0.0012548814993351698
1772789517107137800,1.6261376953125,-0.00264771468937397,0.01059245690703392,0.0033787523861974478
1772789517117204000,1.636203857421875,-0.0033342777751386166,0.011789015494287014,-0.0029611687641590834
1772789517127270000,1.646269775390625,-0.002410160843282938,0.013115002773702145,0.000355532014509663
1772789517137334800,1.656334716796875,-0.004776645917445421,0.011998605914413929,0.002502838848158717
1772789517147401000,1.66640087890625,-0.0033715618774294853,0.012996225617825985,0.0014152037911117077
1772789517157467000,1.676466796875,-0.005294364411383867,0.010348510928452015,0.0005392901366576552
1772789517167532800,1.68653271484375,-0.004689293913543224,0.013129117898643017,-0.002734267385676503
1772789517177599000,1.696598876953125,-0.0030000510159879923,0.01227211207151413,-0.0006972155533730984
1772789517187664100,1.7066640625,-0.003349990351125598,0.01139832939952612,0.0013901700731366873
1772789517197729800,1.716729736328125,-0.0025720810517668724,0.01134080532938242,-0.0005723133217543364
1772789517207796000,1.7267958984375,-0.0029084382113069296,0.012984507717192173,0.0004902879591099918
1772789517217862000,1.73686181640625,-0.005782788153737783,0.011301123537123203,0.0033513219095766544
1772789517227927000,1.746927001953125,-0.0019302591681480408,0.012712333351373672,0.0005781722720712423
1772789517237993000,1.756992919921875,-0.0031992553267627954,0.01212537195533514,-0.0001525991247035563
1772789517248059100,1.76705908203125,-0.005844040773808956,0.01323830708861351,-0.00242134602740407
1772789517258124800,1.777124755859375,-0.004514324478805065,0.012112323194742203,0.002005360322073102
1772789517268191000,1.78719091796875,-0.00443922309204936,0.012624981813132763,0.00130947632715106
1772789517278255900,1.797255859375,-0.003552124137058854,0.011246795766055584,0.001169127761386335
1772789517288322000,1.807322021484375,-0.004475708585232496,0.011477159336209297,0.0010729875648394227
1772789517298388000,1.817387939453125,-0.0029622339643538,0.01296506728976965,0.0031614385079592466
1772789517308454400,1.827454345703125,-0.00481286458671093,0.012089685536921024,-0.0016919062472879887
1772789517318520300,1.837520263671875,-0.0021528995130211115,0.011515508405864239,0.003422162029892206
1772789517328585200,1.847585205078125,-0.004125769250094891,0.014789332635700703,0.0009978864109143615
1772789517338651100,1.857651123046875,-0.0043737092055380344,0.014194915071129799,0.0013102752855047584
1772789517348717300,1.86771728515625,-0.004085821565240622,0.012591958045959473,-0.0005371595616452396
1772789517358783200,1.877783203125,-0.004858404863625765,0.011128551326692104,0.000696150294970721
1772789517368848400,1.887848388671875,-0.0024058998096734285,0.009888051077723503,-0.00202267081476748
1772789517378914300,1.897914306640625,-0.005407814867794514,0.012514193542301655,0.003234142903238535
1772789517388980200,1.907980224609375,-0.003510312642902136,0.010394051671028137,-0.00021891183860134333
1772789517399046100,1.918046142578125,-0.00592606607824564,0.01167316734790802,0.0016847157385200262
1772789517409112300,1.9281123046875,-0.0016466324450448155,0.010239588096737862,0.0013523531379178166
1772789517419177200,1.93817724609375,-0.0021694109309464693,0.012864932417869568,0.0008135957177728415
1772789517429243400,1.948243408203125,-0.0044115264900028706,0.0127570740878582,0.0012724583502858877
1772789517439309300,1.958309326171875,-0.00484429020434618,0.011626029387116432,-0.0009137305896729231
1772789517449375200,1.968375244140625,-0.003320961957797408,0.01338744442909956,-0.0006548712844960392
1772789517459441200,1.978441162109375,-0.0027366643771529198,0.014021276496350765,0.004181695636361837
1772789517469506300,1.98850634765625,-0.0030128341168165207,0.012174640782177448,0.0012114719720557332
1772789517479572200,1.998572265625,-0.004677842371165752,0.013026053085923195,0.0016402408946305513
1772789517489638400,2.008638427734375,-0.003296194365248084,0.010150105692446232,0.0009752495680004358
1772789517499704300,2.018704345703125,-0.0036402747500687838,0.01275813952088356,0.0022248048335313797
1772789517509769200,2.028769287109375,-0.004995823837816715,0.01392833236604929,0.0025505092926323414
1772789517519835100,2.038835205078125,-0.004029362928122282,0.010656106285750866,0.0011456918437033892
1772789517529901300,2.0489013671875,-0.0035547874867916107,0.012324843555688858,-0.0013334447285160422
1772789517539967200,2.05896728515625,-0.0037111148703843355,0.010945059359073639,-0.0008484831196255982
1772789517550033400,2.069033447265625,-0.004532167688012123,0.012012721039354801,0.003215766977518797
1772789517560098000,2.07909814453125,-0.004652276169508696,0.013425527140498161,0.0009930927772074938
1772789517570164200,2.089164306640625,-0.0035595810040831566,0.011974903754889965,0.0008602010202594101
1772789517580230100,2.099230224609375,-0.005893042776733637,0.013063337653875351,-0.0006878945278003812
1772789517590296300,2.10929638671875,-0.004168645944446325,0.009309612214565277,-0.0002519350382499397
1772789517600362200,2.1193623046875,-0.001609348226338625,0.013085708022117615,0.0012924320762977004
1772789517610427400,2.129427490234375,-0.004484230652451515,0.014152037911117077,0.0014801849611103535
1772789517620493000,2.1394931640625,-0.004948419518768787,0.01386734563857317,0.0014500912511721253
1772789517630559200,2.149559326171875,-0.004748682491481304,0.014182131737470627,0.00008255799184553325
1772789517640625200,2.159625244140625,-0.0017185378819704056,0.010654241777956486,0.0023483755066990852
1772789517650691300,2.16969140625,-0.0010295780375599861,0.01173548586666584,0.0020034960471093655
1772789517660756200,2.179756103515625,-0.0030945930629968643,0.012673716992139816,0.001460477476939559
1772789517670822400,2.189822509765625,-0.002004827605560422,0.010161290876567364,0.0031009847298264503
1772789517680888000,2.19988818359375,-0.0017243968322873116,0.013914217241108418,0.0024490428622812033
1772789517690954200,2.209954345703125,-0.0014234596164897084,0.010537062771618366,0.001406947965733707
1772789517701019400,2.220019287109375,-0.007849667221307755,0.011607120744884014,-0.0006924218614585698
1772789517711085300,2.230085205078125,-0.004387557972222567,0.011799934320151806,0.002540389308705926
1772789517721151200,2.240151123046875,-0.0026136261876672506,0.01047501154243946,0.0011779161868616939
1772789517731217400,2.250217529296875,-0.005230714567005634,0.014620753936469555,0.00033688987605273724
1772789517741283000,2.260282958984375,-0.003171292133629322,0.01273097563534975,-0.0024117587599903345
1772789517751348200,2.27034814453125,-0.00390339526347816,0.010923754423856735,0.003460245206952095
1772789517761414400,2.280414306640625,-0.005629390012472868,0.012675581499934196,0.0017680726014077663
1772789517771480300,2.290480224609375,-0.004358263220638037,0.010386061854660511,-0.0008375641773454845
1772789517781546200,2.300546142578125,-0.004274373408406973,0.01480504497885704,-0.0004146541759837419
1772789517791612200,2.310612060546875,-0.004125769250094891,0.011023622937500477,0.0024671524297446012
1772789517801677300,2.32067724609375,-0.0026581010315567255,0.012661999091506004,-0.0016666061710566282
1772789517811743200,2.3307431640625,-0.0044051348231732845,0.014123542234301567,-0.00148151651956141
1772789517821809400,2.340809326171875,-0.0032599754631519318,0.01200845930725336,-0.0014676681021228433
1772789517831875300,2.350875244140625,-0.002811232814565301,0.013224725611507893,0.002226402750238776
1772789517841941200,2.360941162109375,-0.0018437063554301858,0.010999654419720173,0.004752943757921457
1772789517852006100,2.371006103515625,-0.00321896281093359,0.014260162599384785,-0.00011345066013745964
1772789517862072300,2.381072265625,-0.0037942056078463793,0.011263573542237282,0.004728176165372133
1772789517872138200,2.39113818359375,-0.0038048583082854748,0.01130831427872181,-0.0022354573011398315
1772789517882204400,2.401204345703125,-0.002177134156227112,0.013364541344344616,-0.00014753911818843335
1772789517892270300,2.411270263671875,-0.0029385320376604795,0.012059326283633709,0.00029401297797448933
1772789517902335200,2.421335205078125,-0.006638461723923683,0.010423612780869007,0.0014689996605738997
1772789517912401200,2.431401123046875,-0.0044048684649169445,0.012793559581041336,0.0013097425689920783
1772789517922467300,2.44146728515625,-0.003698598127812147,0.012514726258814335,-0.003163569141179323
1772789517932533200,2.451533203125,-0.004244279582053423,0.01065131276845932,0.002478870330378413
1772789517942599400,2.461599365234375,-0.005227785091847181,0.012440424412488937,0.00046631949953734875
1772789517952664300,2.471664306640625,-0.002757703186944127,0.010726680047810078,-0.0011795139871537685
1772789517962730200,2.481730224609375,-0.00418489146977663,0.011604990810155869,0.0012181298807263374
1772789517972796200,2.491796142578125,-0.0038898130878806114,0.011863850057125092,0.0017875137273222208
1772789517982862300,2.5018623046875,-0.002805107505992055,0.012224442325532436,0.0015664712991565466
1772789517992928300,2.51192822265625,-0.0032208270858973265,0.012592757120728493,-0.00005219795639277436
1772789518002993400,2.521993408203125,-0.003757187630981207,0.01119220070540905,-0.00019520970818120986
1772789518013059300,2.532059326171875,-0.003178216516971588,0.01324070431292057,-0.0015022892039269209
1772789518023125200,2.542125244140625,-0.0030927290208637714,0.010608169250190258,0.00020186760229989886
1772789518033191200,2.552191162109375,-0.0031318773981183767,0.0123030049726367,-0.0000577905957470648
1772789518043257300,2.56225732421875,-0.0016708672046661377,0.011921107769012451,0.003546531544998288
1772789518053322200,2.572322265625,-0.003079146845266223,0.0121251055970788,0.0018690064316615462
1772789518063388400,2.582388427734375,-0.003293264890089631,0.011287808418273926,0.0023105584550648928
1772789518073454300,2.592454345703125,-0.002907639369368553,0.012055330909788609,0.0011715245200321078
1772789518083520300,2.602520263671875,-0.004745486658066511,0.01130778156220913,0.0015779229579493403
1772789518093586200,2.612586181640625,-0.0038812910206615925,0.011812184937298298,0.0011536814272403717
1772789518103651300,2.6226513671875,-0.003421629313379526,0.008202269673347473,0.001845038030296564
1772789518113717200,2.63271728515625,-0.0025630262680351734,0.011902199126780033,0.0018136126454919577
1772789518123783400,2.642783447265625,-0.005796103738248348,0.011832690797746181,0.0012942962348461151
1772789518133849300,2.652849365234375,-0.006922088097780943,0.012170113623142242,0.0007688545738346875
1772789518143915300,2.662915283203125,-0.002374208066612482,0.014274010434746742,0.000969923275988549
1772789518153980200,2.672980224609375,-0.003888215171173215,0.011987687088549137,-0.000330231967382133
1772789518164046300,2.68304638671875,-0.004453870467841625,0.011107511818408966,-0.0004884237423539162
1772789518174112300,2.6931123046875,-0.0052413675002753735,0.011591408401727676,0.0007384945638477802
1772789518184178400,2.703178466796875,-0.0037321539130061865,0.013112606480717659,-0.001255680457688868
1772789518194244400,2.713244384765625,-0.004546015989035368,0.013013536110520363,0.0017907095607370138
1772789518204309200,2.723309326171875,-0.0009677927591837943,0.011806592345237732,0.000657534459605813
1772789518214375200,2.733375244140625,-0.0031726236920803785,0.011666509322822094,0.0008966863388195634
1772789518224441300,2.74344140625,-0.0028213527984917164,0.010945858433842659,0.0015632755821570754
1772789518234507300,2.75350732421875,-0.003894074121490121,0.010056895203888416,0.0013483584625646472
1772789518244573400,2.763573486328125,-0.0030831415206193924,0.014960573986172676,0.0006556702428497374
1772789518254639000,2.77363916015625,-0.00177899154368788,0.011478223837912083,-0.00040293627534992993
1772789518264704300,2.783704345703125,-0.003221892286092043,0.012623650021851063,-0.0013323795283213258
1772789518274770200,2.793770263671875,-0.0033398703671991825,0.014494254253804684,0.0030399984680116177
1772789518284836400,2.80383642578125,-0.000391218374716118,0.013944311067461967,0.0026676885318011045
1772789518294902300,2.81390234375,-0.006993194576352835,0.013922207057476044,-0.0002985403698403388
1772789518304968400,2.823968505859375,-0.002017344580963254,0.013161075301468372,-0.0010934938909485936
1772789518315033000,2.834033203125,-0.005625661462545395,0.012344550341367722,-0.0005459480453282595
1772789518325099300,2.844099365234375,-0.003186738584190607,0.01266945619136095,0.0019800602458417416
1772789518335165200,2.854165283203125,-0.002683401107788086,0.010460896417498589,0.0016823188634589314
1772789518345231400,2.8642314453125,-0.004319114610552788,0.015357917174696922,0.00039228363311849535
1772789518355297300,2.87429736328125,-0.0032754219137132168,0.006881341803818941,0.00344559783115983
1772789518365362200,2.884362060546875,-0.006475209724158049,0.013821805827319622,-0.0001424791116733104
1772789518375428000,2.894427978515625,-0.004510862287133932,0.012227104976773262,0.0009861685102805495
1772789518385494300,2.904494384765625,-0.0010130665032193065,0.011213505640625954,0.002398442942649126
1772789518395560200,2.914560302734375,-0.003448793664574623,0.012462262064218521,0.0009315737406723201
1772789518405626400,2.92462646484375,-0.004481833893805742,0.011500328779220581,0.0008239820599555969
1772789518415691300,2.934691162109375,-0.003996073268353939,0.011444934643805027,0.0015022892039269209
1772789518425757200,2.944757080078125,-0.004501274786889553,0.014287592843174934,-0.0006029396899975836
1772789518435823000,2.954822998046875,-0.003692206460982561,0.013588779605925083,0.0013459615875035524
1772789518445889300,2.96488916015625,-0.0044195158407092094,0.012469186447560787,0.0014591459184885025
1772789518455955200,2.974955078125,-0.004427771549671888,0.014336861670017242,0.0011060107499361038
1772789518466021400,2.985021484375,-0.004051200579851866,0.012882509268820286,0.0022687469609081745
1772789518476086300,2.995086181640625,-0.0033401367254555225,0.013522200286388397,0.0012996225850656629
1772789518486152200,3.005152099609375,-0.003093794221058488,0.012015916407108307,0.0009869674686342478
1772789518496218000,3.015218017578125,-0.005679723806679249,0.013194099068641663,-0.0001507349224993959
1772789518506284300,3.0252841796875,-0.003314570290967822,0.012024705298244953,-0.000054861116950633004
1772789518516350200,3.03535009765625,-0.004403536673635244,0.011827364563941956,0.003238936420530081
1772789518526415400,3.045415283203125,-0.005678392015397549,0.012587963603436947,-0.0008066715090535581
1772789518536481300,3.055481201171875,-0.0021638183388859034,0.01176211703568697,-0.001184041379019618
1772789518546547200,3.065547119140625,-0.0034876756835728884,0.014946192502975464,0.0014112089993432164
1772789518556613000,3.075613037109375,-0.00478330347687006,0.012777580879628658,0.0012066783383488655
1772789518566679300,3.08567919921875,-0.003501790575683117,0.013392504304647446,0.001927595934830606
1772789518576744200,3.095744140625,-0.00535561703145504,0.012976518832147121,0.0005736448802053928
1772789518586810400,3.105810302734375,-0.004732703324407339,0.009466738440096378,0.0010719223646447062
1772789518596876300,3.115876220703125,-0.004590490832924843,0.013383716344833374,0.0025039040483534336
1772789518606942200,3.125942138671875,-0.002237321576103568,0.01022920198738575,-0.00023702133330516517
1772789518617008000,3.136008056640625,-0.0032402679789811373,0.0114958006888628,0.0002234392159152776
1772789518627074300,3.14607421875,-0.0028796761762350798,0.012853747233748436,-0.00009827064059209079
1772789518637139200,3.15613916015625,-0.0009227853151969612,0.012412727810442448,0.000702009245287627
1772789518647205400,3.166205322265625,-0.0022096247412264347,0.01404817495495081,0.002502039773389697
1772789518657271000,3.17627099609375,-0.0029582392890006304,0.012679842300713062,-0.0017917747609317303
1772789518667337200,3.186337158203125,-0.0027944548055529594,0.013567207381129265,0.00010066748654935509
1772789518677403100,3.196403076171875,-0.004493551794439554,0.01227211207151413,-0.00024714134633541107
1772789518687468300,3.20646826171875,-0.004567321389913559,0.013863084837794304,-0.0009680590592324734
1772789518697534200,3.2165341796875,-0.005116198677569628,0.01242178212851286,0.00044794369023293257
1772789518707600400,3.226600341796875,-0.002130262553691864,0.010987936519086361,0.001782187377102673
1772789518717666000,3.236666015625,-0.004504470620304346,0.013676930218935013,0.003573429537937045
1772789518727732200,3.246732177734375,-0.002379800658673048,0.01278716791421175,-0.0010508833220228553
1772789518737797400,3.25679736328125,-0.004445881117135286,0.011111240833997726,-0.00027297402266412973
1772789518747863300,3.26686328125,-0.0035601137205958366,0.012940033338963985,0.002575543010607362
1772789518757929200,3.27692919921875,-0.006101568229496479,0.012704343535006046,0.00024527712957933545
1772789518767995400,3.286995361328125,-0.002448244020342827,0.011992480605840683,0.0002878876985050738
1772789518778061000,3.29706103515625,-0.0031260184478014708,0.0133261913433671,0.0014503574930131435
1772789518788127200,3.307127197265625,-0.0037563887890428305,0.012534167617559433,-0.0009643306257203221
1772789518798192400,3.3171923828125,-0.00355904852040112,0.01076982356607914,-0.0002814961189869791
1772789518808258300,3.32725830078125,-0.001106809708289802,0.011269432492554188,0.0011651329696178436
1772789518818324200,3.33732421875,-0.0027840686962008476,0.011325358413159847,0.002373941708356142
1772789518828390400,3.347390380859375,-0.002198972040787339,0.01245160959661007,-0.0003049319493584335
1772789518838456000,3.3574560546875,-0.0032477248460054398,0.012589827179908752,-0.00020346550445538014
1772789518848521200,3.367521240234375,-0.002582467393949628,0.010775149799883366,0.001374457380734384
1772789518858587400,3.37758740234375,-0.005573729984462261,0.015598134137690067,0.0023670175578445196
1772789518868653300,3.3876533203125,-0.0036016590893268585,0.011814847588539124,0.002680471632629633
1772789518878719200,3.39771923828125,-0.0023185480386018753,0.01258077286183834,-0.00038695731200277805
1772789518888785400,3.407785400390625,-0.0057564228773117065,0.010557036846876144,-0.0011922972043976188
1772789518898851000,3.41785107421875,-0.0034173682797700167,0.012911271303892136,-0.0024564997293055058
1772789518908916200,3.427916259765625,-0.003108974313363433,0.012223110534250736,0.00017869810108095407
1772789518918982100,3.437982177734375,-0.0030125677585601807,0.00948032084852457,0.0007478156476281583
1772789518929048300,3.44804833984375,-0.003719370812177658,0.015243933536112309,0.0024836640805006027
1772789518939114200,3.4581142578125,-0.003343332326039672,0.011141334660351276,0.0006985471700318158
1772789518949180400,3.468180419921875,-0.004096474498510361,0.011185542680323124,0.0035542547702789307
1772789518959245300,3.478245361328125,-0.004855209030210972,0.011232414282858372,0.0001584580895723775
1772789518969311200,3.488311279296875,-0.002779541304334998,0.01212830189615488,-0.00192200334277004
1772789518979377200,3.498377197265625,-0.003593403147533536,0.010604973882436752,0.000027696874894900247
1772789518989443300,3.508443359375,-0.00307621737010777,0.008008125238120556,0.000570981705095619
1772789518999509200,3.51850927734375,-0.003469566348940134,0.011239871382713318,-0.0015571502735838294
1772789519009575400,3.528575439453125,-0.00421418622136116,0.012830311432480812,0.0005744438385590911
1772789519019640300,3.538640380859375,-0.004822185728698969,0.011404454708099365,0.0015369103057309985
1772789519029706200,3.548706298828125,-0.004774515051394701,0.011484615504741669,0.0006420881254598498
1772789519039772200,3.558772216796875,-0.004846953321248293,0.009406817145645618,0.0012482235906645656
1772789519049838300,3.56883837890625,-0.0008024104172363877,0.011392470449209213,0.0029558425303548574
1772789519059904300,3.578904296875,-0.003171025775372982,0.01161324605345726,-0.0019837887957692146
1772789519069970400,3.588970458984375,-0.003010969841852784,0.012047608382999897,0.0004751079250127077
1772789519080035300,3.599035400390625,-0.005793973337858915,0.013214338570833206,0.0010338390711694956
1772789519090101200,3.609101318359375,-0.004596616141498089,0.014418886974453926,0.0022631543688476086
1772789519100167200,3.619167236328125,-0.003796336008235812,0.012720322236418724,0.00035206988104619086
1772789519110233300,3.6292333984375,-0.004384628497064114,0.014090253040194511,0.0012474246323108673
1772789519120299300,3.63929931640625,0.00038216362008824944,0.010477674193680286,-0.0019499665359035134
1772789519130364200,3.6493642578125,-0.004477572627365589,0.01318158209323883,0.0016919062472879887
1772789519140430300,3.659430419921875,-0.004437359049916267,0.013619139790534973,0.0032626385800540447
1772789519150496300,3.669496337890625,-0.003192597534507513,0.009987919591367245,-0.0013875069562345743
1772789519160562200,3.679562255859375,-0.002828809665516019,0.011430819518864155,0.0013757890556007624
1772789519170628400,3.68962841796875,-0.0032354744616895914,0.01088620349764824,0.003099120454862714
1772789519180694300,3.6996943359375,-0.0033744913525879383,0.012623383663594723,-0.0001102548703784123
1772789519190759200,3.70975927734375,-0.0036541232839226723,0.01350702065974474,-0.0002271676348755136
1772789519200825000,3.7198251953125,-0.003171025775372982,0.009221727959811687,0.003168629016727209
1772789519210891300,3.729891357421875,-0.004493019077926874,0.012555206194519997,0.0009033442474901676
1772789519220957200,3.739957275390625,-0.0026487798895686865,0.012285161763429642,-0.00047404266661033034
1772789519231023400,3.7500234375,-0.000681236619129777,0.012034558691084385,0.0012072109384462237
1772789519241089300,3.76008935546875,-0.00344479875639081,0.011724300682544708,-0.0014034858904778957
1772789519251154200,3.770154296875,-0.0029318740125745535,0.009376191534101963,0.000035686356568476185
1772789519261220000,3.78022021484375,-0.0023342606145888567,0.01314989011734724,-0.0009984191274270415
1772789519271286300,3.790286376953125,-0.0030123014003038406,0.011315238662064075,-0.00018615495355334133
1772789519281352200,3.800352294921875,-0.0031041805632412434,0.010555971413850784,-0.0013552826130762696
1772789519291418400,3.81041845703125,-0.00469435378909111,0.013951235450804234,-0.00108284130692482
1772789519301483300,3.820483154296875,-0.0041638524271547794,0.014818627387285233,0.0022066952660679817
1772789519311549000,3.830548828125,-0.002793389605358243,0.011921906843781471,0.0009890979854390025
1772789519321615000,3.840614990234375,-0.0017006946727633476,0.012918195687234402,0.0005874933558516204
1772789519331680800,3.8506806640625,-0.004081028047949076,0.010923221707344055,0.0010282464791089296
1772789519341746700,3.86074658203125,-0.005856025032699108,0.013862552121281624,0.0008111988427117467
1772789519351812900,3.870812744140625,-0.0027254789602011442,0.011535216122865677,0.0027060380671173334
1772789519361878000,3.8808779296875,-0.004631769843399525,0.011900868266820908,0.0008873652550391853
1772789519371944000,3.89094384765625,-0.005506884306669235,0.013675332069396973,-0.001341700553894043
1772789519382009900,3.901009765625,-0.002959304489195347,0.009137838147580624,0.0012713931500911713
1772789519392075800,3.91107568359375,-0.0031305458396673203,0.013225258328020573,-0.00006338323146337643
1772789519402141700,3.9211416015625,-0.005137237720191479,0.01019990723580122,0.001347559504210949
1772789519412207900,3.931207763671875,-0.003992611076682806,0.012546684592962265,0.002207760466262698
1772789519422273000,3.94127294921875,-0.002980609890073538,0.01210087165236473,0.0015430354978889227
1772789519432339000,3.9513388671875,-0.0021920478902757168,0.012911271303892136,-0.0005089300684630871
1772789519442404900,3.96140478515625,-0.005665608681738377,0.013903298415243626,0.0018354506464675069
1772789519452470800,3.971470703125,-0.0037015276029706,0.012796754948794842,0.0000399474156438373
1772789519462536700,3.98153662109375,-0.002028263406828046,0.012628709897398949,0.00044128578156232834
1772789519472603000,3.991602783203125,-0.005167065188288689,0.013058277778327465,0.001514806062914431
1772789519482668000,4.00166796875,-0.0036850159522145987,0.010883274488151073,0.0005483448621816933
1772789519492734000,4.01173388671875,-0.003469299990683794,0.014297978952527046,0.00009081379539566115
1772789519502798800,4.021798828125,-0.003870904678478837,0.011387943290174007,0.0018897791160270572
1772789519512864800,4.03186474609375,-0.0038192393258213997,0.012223376892507076,0.0031348068732768297
1772789519522931000,4.041930908203125,-0.003276220755651593,0.011622301302850246,0.0018413095967844129
1772789519532996900,4.051996826171875,-0.00321843009442091,0.014104100875556469,0.0004625910660251975
1772789519543063000,4.06206298828125,-0.0022945795208215714,0.012406868860125542,0.0006815029191784561
1772789519553129000,4.07212890625,-0.004761465825140476,0.011930429376661777,0.002083124592900276
1772789519563193900,4.08219384765625,-0.0009635316673666239,0.011175156570971012,0.0011313108261674643
1772789519573259800,4.092259765625,-0.004053064621984959,0.015051120892167091,-0.003650394966825843
1772789519583326000,4.102325927734375,-0.003168895374983549,0.011475028470158577,0.0004721784498542547
1772789519593391900,4.112391845703125,-0.002400306984782219,0.01028486154973507,0.0013829795643687248
1772789519603458000,4.1224580078125,-0.003233876544982195,0.011298993602395058,0.0009984191274270415
1772789519613524000,4.13252392578125,-0.003751861397176981,0.010365023277699947,-0.001116130850277841
1772789519623588900,4.1425888671875,-0.0057074204087257385,0.013769607990980148,0.000010652644050423987
1772789519633654800,4.15265478515625,-0.003397927153855562,0.01254881452769041,0.0034474621061235666
1772789519643721000,4.162720947265625,-0.0010343717876821756,0.013407950289547443,-0.0025063008069992065
1772789519653787000,4.172786865234375,-0.0018253305461257696,0.01164653617888689,-0.00009187905379803851
1772789519663853000,4.18285302734375,-0.0017531589837744832,0.012286759912967682,0.0006380933918990195
1772789519673919000,4.1929189453125,-0.004178233444690704,0.011272894218564034,0.0021616879384964705
1772789519683984000,4.20298388671875,-0.0037894118577241898,0.012514193542301655,0.0015962987672537565
1772789519694049800,4.2130498046875,-0.005593170877546072,0.011100055649876595,-0.00042983421008102596
1772789519704116000,4.223115966796875,-0.00538331363350153,0.010542122647166252,-0.0013584784464910626
1772789519714182000,4.233181884765625,-0.0011574097443372011,0.010497648268938065,0.0003755057114176452
1772789519724247800,4.243247802734375,-0.005742574110627174,0.013657488860189915,-0.0012828446924686432
1772789519734312700,4.253312744140625,-0.0023289343807846308,0.014418087899684906,0.0021435783710330725
1772789519744379000,4.26337890625,-0.0016306535108014941,0.013873737305402756,0.0008620652370154858
1772789519754444800,4.27344482421875,-0.0038136467337608337,0.01341673918068409,0.00028043086058460176
1772789519764511000,4.283510986328125,-0.0018362496048212051,0.01360342651605606,-0.0019259981345385313
1772789519774577000,4.293576904296875,-0.005042162723839283,0.014051103964447975,0.0010929612908512354
1772789519784642800,4.303642822265625,-0.0026458504144102335,0.011999138630926609,-0.00011398329661460593
1772789519794707700,4.313707763671875,-0.00669305631890893,0.01293683797121048,0.0007352987886406481
1772789519804774000,4.32377392578125,-0.0044322991743683815,0.009837983176112175,0.001919340225867927
1772789519814839800,4.33383984375,-0.005502357147634029,0.00806378573179245,0.0008735168376006186
1772789519824906000,4.343906005859375,-0.003979827743023634,0.012973322533071041,-0.0006625944515690207
1772789519834972000,4.353971923828125,-0.0030631679110229015,0.010162889026105404,0.00032570460462011397
1772789519845037800,4.364037841796875,-0.005590774118900299,0.012648417614400387,0.0016532903537154198
1772789519855104000,4.37410400390625,-0.00373135507106781,0.013859356753528118,-0.000330231967382133
1772789519865169000,4.3841689453125,-0.005167331546545029,0.010782074183225632,0.001654089312069118
1772789519875234800,4.39423486328125,-0.005478122271597385,0.01321167591959238,0.0009241168736480176
1772789519885301000,4.404301025390625,-0.0031814121175557375,0.01028352975845337,-0.000474575295811519
1772789519895367000,4.414366943359375,-0.0026290726382285357,0.013173592276871204,-0.0010295780375599861
1772789519905432800,4.424432861328125,-0.0029891319572925568,0.012387427501380444,-0.0010881676571443677
1772789519915499000,4.4344990234375,-0.003707919269800186,0.011438276618719101,0.00020053602929692715
1772789519925564000,4.44456396484375,-0.0028391960076987743,0.01242497842758894,0.002332396572455764
1772789519935629800,4.4546298828125,-0.002109489869326353,0.011716310866177082,-0.00021358551748562604
1772789519945696000,4.464696044921875,-0.0038282941095530987,0.013427391648292542,0.004333229269832373
1772789519955762000,4.474761962890625,-0.0029643645975738764,0.011297129094600677,0.002074069809168577
1772789519965827800,4.484827880859375,-0.003736947663128376,0.012463327497243881,0.0032109732273966074
1772789519975894000,4.49489404296875,-0.005272526293992996,0.012987704016268253,-0.001261273049749434
1772789519985959000,4.504958984375,-0.004291151650249958,0.012356001883745193,0.00043036683928221464
1772789519996024800,4.51502490234375,-0.005760150961577892,0.01013971958309412,0.00012916330888401717
1772789520006090800,4.5250908203125,-0.0030181603506207466,0.011924570426344872,0.0010993528412654996
1772789520016157000,4.535156982421875,-0.003951864782720804,0.012895824387669563,-0.00042583944741636515
1772789520026222800,4.545222900390625,-0.003579554846510291,0.01375069934874773,0.001127582392655313
1772789520036289000,4.5552890625,-0.002919090911746025,0.00950801745057106,0.0023438481148332357
1772789520046354000,4.56535400390625,-0.004732969682663679,0.011604458093643188,0.0008769789128564298
1772789520056419800,4.575419921875,-0.005607285536825657,0.01504259929060936,0.001222390914335847
1772789520066485800,4.58548583984375,-0.0027561055030673742,0.010903780348598957,0.0022208099253475666
1772789520076552000,4.595552001953125,-0.0032565132714807987,0.012862801551818848,0.0007440872141160071
1772789520086617900,4.605617919921875,-0.0002902845444623381,0.013205550611019135,-0.00010279801790602505
1772789520096684000,4.61568408203125,-0.00170815153978765,0.011651862412691116,0.0010902981739491224
1772789520106749000,4.6257490234375,-0.002232261700555682,0.014816230162978172,0.00025246766745112836
1772789520116816000,4.63581591796875,-0.0024466461036354303,0.012250274419784546,-0.00020053602929692715
1772789520126881800,4.6458818359375,-0.005423794034868479,0.013308880850672722,0.001148088718764484
1772789520136947000,4.655947021484375,-0.003977430984377861,0.01079778652638197,0.0004034689045511186
1772789520147012900,4.666012939453125,-0.006741526070982218,0.012150139547884464,0.0003057308786083013
1772789520157079000,4.6760791015625,-0.0019883159548044205,0.013076120987534523,0.002919357270002365
1772789520167144700,4.686144775390625,-0.0029814087320119143,0.012178635224699974,0.0012090750969946384
1772789520177211000,4.6962109375,-0.004756938200443983,0.011728827841579914,-0.0010982876410707831
1772789520187276800,4.70627685546875,-0.0010692591313272715,0.012707273475825787,0.00043223105603829026
1772789520197342000,4.716342041015625,-0.003837881376966834,0.011594071984291077,0.0003581951605156064
1772789520207407900,4.726407958984375,-0.005485845264047384,0.01293177716434002,-0.0006034722900949419
1772789520217474000,4.73647412109375,-0.0038128476589918137,0.0109474565833807,0.0009257147903554142
1772789520227539700,4.746539794921875,-0.003094326937571168,0.013726997189223766,0.0014229270163923502
1772789520237606000,4.75660595703125,-0.004283694550395012,0.011933891102671623,0.0010223875287920237
1772789520247671800,4.766671875,-0.0038714371621608734,0.015058045275509357,0.0015214639715850353
1772789520257738000,4.776738037109375,-0.0008482168195769191,0.011391937732696533,0.002317482838407159
1772789520267803000,4.786802978515625,-0.005044559482485056,0.010132795199751854,0.00027377295191399753
1772789520277869000,4.796869140625,-0.004914863966405392,0.012316587381064892,-0.00041305628838017583
1772789520287934700,4.806934814453125,-0.0025571673177182674,0.014771489426493645,-0.0009837717516347766
1772789520298001000,4.8170009765625,-0.001845038030296564,0.009666475467383862,0.00039281626231968403
1772789520308067300,4.8270673828125,-0.0034647725988179445,0.011416172608733177,-0.0012183962389826775
1772789520318133200,4.83713330078125,-0.0032581111881881952,0.010611365549266338,0.0007424892974086106
1772789520328198400,4.847198486328125,-0.0032493227627128363,0.012891297228634357,0.0020535634830594063
1772789520338264600,4.8572646484375,-0.0043713124468922615,0.012917396612465382,0.0014772554859519005
1772789520348330500,4.86733056640625,-0.0041425470262765884,0.009259012527763844,-0.0025814019609242678
1772789520358396400,4.877396484375,-0.004201402887701988,0.010112821124494076,0.0025331987999379635
1772789520368462300,4.88746240234375,-0.004276770167052746,0.010130664333701134,0.0009118663729168475
1772789520378528300,4.8975283203125,-0.005412076134234667,0.012824186123907566,0.0005022721597924829
1772789520388593400,4.907593505859375,-0.0028967203106731176,0.011080880649387836,0.000922252656891942
1772789520398659600,4.91765966796875,-0.003961452282965183,0.012856409884989262,0.00046312372433021665
1772789520408725500,4.9277255859375,-0.0056829191744327545,0.013035374693572521,0.0011952266795560718
1772789520418791200,4.937791259765625,-0.0028780782595276833,0.012369850650429726,-0.000618918624240905
1772789520428857300,4.947857421875,-0.005459746345877647,0.012011389248073101,0.00034914040588773787
1772789520438923300,4.95792333984375,-0.004814994987100363,0.01209687627851963,0.0005997438565827906
1772789520448989400,4.967989501953125,-0.002682602033019066,0.010281932540237904,0.0025443839840590954
1772789520459054600,4.9780546875,-0.0032754219137132168,0.012724051252007484,0.002293247962370515
1772789520469120500,4.98812060546875,-0.002403502818197012,0.01248196978121996,-0.0026754115242511034
1772789520479186200,4.998186279296875,-0.003643736941739917,0.01224335003644228,-0.0008945558220148087
1772789520489252400,5.00825244140625,-0.003546797903254628,0.012612464837729931,0.0007590008899569511
1772789520499318300,5.018318359375,-0.0023342606145888567,0.011020426638424397,-0.002026399364694953
1772789520509384400,5.028384521484375,-0.0037585191894322634,0.013010074384510517,0.00038056570338085294
1772789520519449600,5.03844970703125,-0.0033425334841012955,0.011959724128246307,0.002522812457755208
1772789520529515500,5.048515625,-0.004554804414510727,0.014194382354617119,0.0004540689697023481
1772789520539581200,5.058581298828125,-0.004636829718947411,0.015279886312782764,-0.001014131703414023
1772789520549647400,5.0686474609375,-0.004363323096185923,0.011069162748754025,0.002660231664776802
1772789520559713300,5.07871337890625,-0.0037204360123723745,0.012780509889125824,0.00213558878749609
1772789520569779500,5.088779541015625,-0.005393966566771269,0.011795406229794025,-0.00126766471657902
1772789520579845400,5.098845458984375,-0.003010969841852784,0.011651329696178436,0.0005688511882908642
1772789520589910500,5.10891064453125,-0.004607268609106541,0.012530705891549587,0.001478320686146617
1772789520599976200,5.11897607421875,-0.0028735508676618338,0.012752280570566654,-0.00005166532355360687
1772789520610042400,5.12904248046875,-0.0032613070216029882,0.010775682516396046,0.0010335728293284774
1772789520620108300,5.1391083984375,-0.002426938619464636,0.013047891668975353,0.0018122810870409012
1772789520630174500,5.149174560546875,-0.003346261801198125,0.011986888013780117,0.00041278995922766626
1772789520640240400,5.159240478515625,-0.00569969741627574,0.012356268242001534,-0.00002157160452043172
1772789520650305500,5.169305419921875,-0.003481017891317606,0.011855327524244785,0.000016245283404714428
1772789520660371200,5.17937109375,-0.004160656593739986,0.01357279997318983,-0.0015752597246319056
1772789520670437400,5.189437255859375,-0.004002731293439865,0.012732040137052536,0.0015297196805477142
1772789520680503300,5.19950341796875,-0.004983573220670223,0.011903797276318073,-0.00210602767765522
1772789520690569500,5.209569580078125,-0.003060770919546485,0.014027401804924011,0.002025067573413253
1772789520700635400,5.219635498046875,-0.003463441040366888,0.01110165286809206,0.0009456885163672268
1772789520710701600,5.22970166015625,-0.0037675739731639624,0.013005014508962631,0.00029294771957211196
1772789520720766200,5.23976611328125,-0.003955326974391937,0.013696637004613876,-0.00016165387933142483
1772789520730832400,5.249832275390625,-0.002782470779493451,0.011186341755092144,0.0010719223646447062
1772789520740898300,5.259898193359375,-0.0041492050513625145,0.012835637666285038,-0.00012117382721044123
1772789520750964500,5.269964599609375,-0.005654956214129925,0.01236479077488184,-0.001329982653260231
1772789520761030400,5.280030517578125,-0.001734783174470067,0.01113201305270195,-0.0016588830621913075
1772789520771096600,5.2900966796875,-0.005577458068728447,0.011807390488684177,0.001047154888510704
1772789520781162500,5.30016259765625,-0.0048799761570990086,0.012485964223742485,0.0005110605852678418
1772789520791227400,5.310227294921875,-0.0017299894243478775,0.013717942871153355,0.0013688647886738181
1772789520801293300,5.320293212890625,-0.00253532943315804,0.014133129268884659,-0.00024580975878052413
1772789520811359500,5.330359375,-0.0035518580116331577,0.012072907760739326,0.00210709311068058
1772789520821425400,5.34042529296875,-0.005884520709514618,0.014163223095238209,0.0015153386630117893
1772789520831491600,5.35049169921875,-0.0024557008873671293,0.012025769799947739,-0.00022929816623218358
1772789520841557500,5.3605576171875,-0.004233094397932291,0.010574613697826862,0.002511094557121396
1772789520851622400,5.370622314453125,-0.004019509069621563,0.011464642360806465,0.0012844426091760397
1772789520861688300,5.380688232421875,-0.0036421390250325203,0.011992480605840683,0.0037476003635674715
1772789520871754500,5.39075439453125,-0.0034961977507919073,0.013655624352395535,-0.0017800568602979183
1772789520881820400,5.4008203125,-0.0034610440488904715,0.013106214813888073,-0.0011270497925579548
1772789520891886600,5.410886474609375,-0.0036479979753494263,0.012353871949017048,-0.0004932174342684448
1772789520901952500,5.420952392578125,-0.0023342606145888567,0.012534167617559433,0.002261290093883872
1772789520912018200,5.43101806640625,-0.0029736857395619154,0.01203722134232521,0.0011262508342042565
1772789520922083300,5.441083251953125,-0.004403536673635244,0.011658520437777042,0.0018780612153932452
1772789520932149500,5.4511494140625,-0.0016495619202032685,0.011658786796033382,0.0009369000908918679
1772789520942215400,5.46121533203125,-0.0051593417301774025,0.013168266043066978,-0.00011904330312972888
1772789520952281600,5.471281494140625,-0.004642955027520657,0.01269715279340744,0.0008934905636124313
1772789520962347500,5.481347412109375,-0.0018841864075511694,0.011949603445827961,0.0006788397440686822
1772789520972413200,5.4914130859375,-0.00253532943315804,0.012001801282167435,-0.0011837751371785998
1772789520982479400,5.501479248046875,-0.004237622022628784,0.011271828785538673,0.0009941579774022102
1772789520992544500,5.51154443359375,-0.002558232517912984,0.009363141842186451,0.0021142836194485426
1772789521002610400,5.5216103515625,-0.0015140071045607328,0.01158847939223051,-0.0005105279851704836
1772789521012676400,5.53167626953125,-0.005851763766258955,0.011404454708099365,0.0017931063193827868
1772789521022742300,5.5417421875,-0.0059902481734752655,0.014399179257452488,-0.00019414443522691727
1772789521032808200,5.55180810546875,-0.003924434073269367,0.013489177450537682,0.0002687129599507898
1772789521042874400,5.561874267578125,-0.004351605195552111,0.011780492961406708,0.0024056334514170885
1772789521052939500,5.571939453125,-0.004177434369921684,0.011330684646964073,0.004530036821961403
1772789521063005400,5.58200537109375,-0.0007070692372508347,0.013070794753730297,0.0019084211671724916
1772789521073071400,5.5920712890625,-0.003022954100742936,0.013498764485120773,0.0014077469240874052
1772789521083137300,5.60213720703125,-0.005564675200730562,0.010184460319578648,-0.0004218447138555348
1772789521093203200,5.612203125,-0.0030189594253897667,0.011592740193009377,0.0026325348298996687
1772789521103269400,5.622269287109375,-0.004258394706994295,0.011112039908766747,-0.0011728560784831643
1772789521113335300,5.632335205078125,-0.0032900692895054817,0.011483018286526203,0.002323608146980405
1772789521123400400,5.642400390625,-0.002721750643104315,0.013532586395740509,0.00015339808305725455
1772789521133466400,5.65246630859375,-0.003471963107585907,0.010909372940659523,0.0030160299502313137
1772789521143532300,5.6625322265625,-0.0021433120127767324,0.01209687627851963,0.0026493126060813665
1772789521153598200,5.67259814453125,-0.0016365124611184,0.013260412029922009,0.001660214620642364
1772789521163664400,5.682664306640625,0.000031691615731688216,0.010200705379247665,0.0010298443958163261
1772789521173730300,5.692730224609375,-0.005856291390955448,0.012970393523573875,0.0020759340841323137
1772789521183796500,5.70279638671875,-0.001249821507371962,0.011112306267023087,-0.0007904262165538967
1772789521193861400,5.712861328125,-0.00418435875326395,0.010789530351758003,0.0036842171102762222
1772789521203927300,5.72292724609375,-0.0024626250378787518,0.01028619334101677,-0.0008572715451009572
1772789521213993200,5.7329931640625,-0.0036426717415452003,0.010397247038781643,-0.0013025520602241158
1772789521224059400,5.743059326171875,-0.004067978356033564,0.013125388883054256,0.00023382554354611784
1772789521234125300,5.753125244140625,-0.001838912721723318,0.01278663519769907,-0.0012479572324082255
1772789521244191500,5.76319140625,-0.00407463638111949,0.010924020782113075,-0.00027031084755435586
1772789521254257400,5.77325732421875,-0.0038301581516861916,0.013464409857988358,-0.0015952334506437182
1772789521264322300,5.783322265625,-0.00307648372836411,0.013096360489726067,-0.00011904330312972888
1772789521274388200,5.79338818359375,-0.0026016421616077423,0.011353055946528912,0.0018556906143203378
1772789521284454400,5.803454345703125,-0.0036458675749599934,0.013303820975124836,0.001303084660321474
1772789521294520300,5.813520263671875,-0.002986735198646784,0.010100836865603924,0.0007392935222014785
1772789521304586500,5.82358642578125,-0.005249356850981712,0.01260900218039751,-0.0007688545738346875
1772789521314652200,5.833652099609375,-0.0017188041238114238,0.011386611498892307,0.0018548916559666395
1772789521324718300,5.84371826171875,-0.003460777923464775,0.014054300263524055,0.0023545008152723312
1772789521334783200,5.853783203125,-0.004277835600078106,0.013934990391135216,0.002442385070025921
1772789521344849400,5.863849365234375,-0.0033185649663209915,0.01185053400695324,0.0006628608098253608
1772789521354915300,5.873915283203125,-0.002772883279249072,0.010161024518311024,0.0021811288315802813
1772789521364981500,5.8839814453125,-0.00224930583499372,0.011837217956781387,-0.00018322547839488834
1772789521375047200,5.894047119140625,-0.0029502499382942915,0.013028716668486595,0.0020240023732185364
1772789521385113300,5.90411328125,-0.0062823970802128315,0.011405786499381065,0.0034914042335003614
1772789521395179300,5.91417919921875,-0.0023039006628096104,0.007349791936576366,0.0034943337086588144
1772789521405244400,5.924244384765625,-0.004113518632948399,0.01122415903955698,0.002055960241705179
1772789521415310300,5.934310302734375,-0.0031073763966560364,0.011393535882234573,0.0018487664638087153
1772789521425376500,5.94437646484375,-0.00501047121360898,0.011991947889328003,-0.0025545042008161545
1772789521435442200,5.954442138671875,-0.0028884646017104387,0.010243848897516727,-0.00032623723382130265
1772789521445508400,5.96450830078125,-0.0037705034483224154,0.011784487403929234,0.0005930859479121864
1772789521455574300,5.97457421875,-0.003931624814867973,0.012536564841866493,0.0014223942998796701
1772789521465640200,5.98464013671875,-0.0008074704091995955,0.010217750445008278,-0.00022370553051587194
1772789521475705300,5.994705322265625,0.00007163903501350433,0.010640393942594528,-0.0015313175972551107
1772789521485771500,6.004771484375,-0.003510046284645796,0.012473180890083313,0.0008751147543080151
1772789521495837200,6.014837158203125,-0.004249073565006256,0.012692092917859554,0.0026200178544968367
1772789521505903400,6.0249033203125,-0.0034405377227813005,0.014283332042396069,-0.0006940197781659663
1772789521515969300,6.03496923828125,-0.004830707795917988,0.009333048015832901,0.0015707324491813779
1772789521526035200,6.04503515625,-0.0009890979854390025,0.012409797869622707,-0.0004689826746471226
1772789521536101400,6.055101318359375,-0.0046967510133981705,0.011468636803328991,0.0001960086519829929
1772789521546166500,6.06516650390625,-0.004344148561358452,0.011548264883458614,0.0015004249289631844
1772789521556232200,6.075232177734375,-0.0020010992884635925,0.012654010206460953,-0.0008274441352114081
1772789521566298400,6.08529833984375,-0.002151301596313715,0.011655856855213642,-0.0010040117194876075
1772789521576364300,6.0953642578125,-0.005790244787931442,0.011712849140167236,0.00001651159800530877
1772789521586430200,6.10543017578125,-0.0022825952619314194,0.011187939904630184,0.0013022858183830976
1772789521596496400,6.115496337890625,-0.0028125643730163574,0.010340522043406963,0.001969940261915326
1772789521606562300,6.125562255859375,-0.0038871499709784985,0.0108257494866848,-0.002122006844729185
1772789521616627200,6.135627197265625,-0.002779008587822318,0.01248303521424532,0.001210673013702035
1772789521626693400,6.145693359375,-0.003781422507017851,0.011324825696647167,0.0005081311101093888
1772789521636759300,6.15575927734375,-0.0015941682504490018,0.014278803952038288,0.0005909554311074317
1772789521646825200,6.1658251953125,-0.005367068573832512,0.012439092621207237,-0.0010013486025854945
1772789521656891400,6.175891357421875,-0.00469435378909111,0.01236532349139452,-0.0018748653819784522
1772789521666957300,6.185957275390625,-0.0025068335235118866,0.010154632851481438,0.0018410432385280728
1772789521677023500,6.1960234375,-0.0041675809770822525,0.010713630355894566,-0.0011643340112641454
1772789521687088000,6.206088134765625,-0.002478870330378413,0.012475045397877693,0.001499625970609486
1772789521697154300,6.216154296875,-0.00318913534283638,0.01158554945141077,0.0031822111923247576
1772789521707220200,6.22622021484375,-0.003439472522586584,0.012771455571055412,0.0012865731259807944
1772789521717286400,6.236286376953125,-0.00407490273937583,0.01332592498511076,0.0017904432024806738
1772789521727352300,6.246352294921875,-0.002877545543015003,0.008679241873323917,0.0025779400020837784
1772789521737418500,6.25641845703125,-0.00185089698061347,0.011562113650143147,0.0025686188600957394
1772789521747484200,6.266484130859375,-0.005497563164681196,0.010518953204154968,0.0003126551164314151
1772789521757550300,6.27655029296875,-0.0022770026698708534,0.012494753114879131,-0.00045673211570829153
1772789521767615200,6.286615234375,-0.0006644586683250964,0.01387027557939291,-0.00039760995423421264
1772789521777681400,6.296681396484375,-0.0022711437195539474,0.012020177207887173,0.0004665858286898583
1772789521787747300,6.306747314453125,-0.001975799212232232,0.014251373708248138,-0.0014080132823437452
1772789521797813500,6.3168134765625,-0.004768389742821455,0.013027917593717575,0.0003294330381322652
1772789521807879200,6.326879150390625,-0.0021933794487267733,0.012950685806572437,0.002954244613647461
1772789521817945300,6.3369453125,-0.0031582426745444536,0.01155625469982624,-0.00025726135936565697
1772789521828011300,6.34701123046875,-0.003037867834791541,0.011136540211737156,0.002433596644550562
1772789521838076400,6.357076416015625,-0.005534581374377012,0.011448929086327553,0.0010961571242660284
1772789521848142300,6.367142333984375,-0.00285011506639421,0.013610883615911007,0.0010207896120846272
1772789521858208500,6.37720849609375,-0.004275971557945013,0.012790363281965256,-0.0000351537273672875
1772789521868274200,6.387274169921875,-0.003982757218182087,0.010146111249923706,0.000019707391402334906
1772789521878340400,6.39734033203125,-0.004217648413032293,0.013205284252762794,-0.0002641855680849403
1772789521888406300,6.40740625,-0.006759635638445616,0.012860138900578022,0.00330338510684669
1772789521898472200,6.41747216796875,-0.0037819549906998873,0.012413525953888893,0.0014655375853180885
1772789521908537300,6.427537353515625,-0.002424808219075203,0.011418037116527557,0.0025648903101682663
1772789521918603500,6.437603515625,-0.0035691685043275356,0.011998073197901249,0.0010458233300596476
1772789521928669200,6.447669189453125,-0.0013965616235509515,0.011127219535410404,0.0008506136364303529
1772789521938735400,6.4577353515625,-0.0038043255917727947,0.012897688895463943,-0.0007275756215676665
1772789521948801300,6.46780126953125,-0.0047058057971298695,0.011146660894155502,0.0008841694798320532
1772789521958867200,6.4778671875,-0.006750847212970257,0.010536263696849346,0.001449025934562087
1772789521968933400,6.487933349609375,-0.004347610287368298,0.014595188200473785,-0.0001917476038215682
1772789521978998500,6.49799853515625,-0.002724946476519108,0.01164680253714323,0.0022511701099574566
1772789521989064200,6.508064208984375,-0.0028362665325403214,0.014569621533155441,0.0024796691723167896
1772789521999130400,6.51813037109375,-0.0034439999144524336,0.011865980923175812,0.0007725830073468387
1772789522009196300,6.5281962890625,-0.004518851637840271,0.011121094226837158,0.001814411603845656
1772789522019262200,6.53826220703125,-0.0052147358655929565,0.013866014778614044,0.001728391507640481
1772789522029328400,6.548328369140625,-0.005868807900696993,0.01170139666646719,0.002829342382028699
1772789522039394300,6.558394287109375,-0.0035236284602433443,0.01176078524440527,0.00010918960470007733
1772789522049459200,6.568459228515625,-0.003910319413989782,0.015297196805477142,0.0007882956997491419
1772789522059525400,6.578525390625,-0.003690076060593128,0.01094772294163704,0.001353152096271515
1772789522069591300,6.58859130859375,-0.0009241168736480176,0.012120045721530914,0.004522580187767744
1772789522079657200,6.5986572265625,-0.004274107050150633,0.012507003732025623,0.0001310275256400928
1772789522089723400,6.608723388671875,-0.007693872321397066,0.012556804344058037,0.0024407871533185244
1772789522099789300,6.618789306640625,-0.004388090688735247,0.012859339825809002,0.0037377465050667524
1772789522109855500,6.62885546875,-0.003022954100742936,0.00945022702217102,0.0011619371362030506
1772789522119920000,6.638920166015625,-0.0036751623265445232,0.011893144808709621,0.00038456046604551375
1772789522129986300,6.648986328125,-0.006127400789409876,0.011990882456302643,0.0020003002136945724
1772789522140052200,6.65905224609375,-0.003388606244698167,0.011142133735120296,0.0009004147723317146
1772789522150118400,6.669118408203125,-0.005051483865827322,0.014365357346832752,0.0012359730899333954
1772789522160184300,6.679184326171875,-0.0028551749419420958,0.011000187136232853,-0.0031214910559356213
1772789522170250500,6.68925048828125,-0.003869839245453477,0.01299436204135418,0.0012463594321161509
1772789522180316200,6.699316162109375,-0.0037846181076020002,0.011260110884904861,-0.0005121259018778801
1772789522190381300,6.70938134765625,-0.004050667863339186,0.010972755961120129,-0.0014692660188302398
1772789522200447200,6.719447265625,-0.004203000571578741,0.012840697541832924,-0.00028628981090150774
1772789522210513400,6.729513427734375,-0.003565173828974366,0.01164733525365591,0.0013909690314903855
1772789522220579300,6.739579345703125,-0.005404086317867041,0.014005031436681747,-0.00014620754518546164
1772789522230645500,6.7496455078125,-0.002112685702741146,0.015599465928971767,0.00009933590627042577
1772789522240711200,6.759711181640625,-0.0032719597220420837,0.010174340568482876,0.0010133327450603247
1772789522250777300,6.76977734375,-0.002373675350099802,0.01467827893793583,0.0012271846644580364
1772789522260843300,6.77984326171875,0.000330231967382133,0.011916846968233585,0.0002697782183531672
1772789522270908400,6.789908447265625,-0.003984355367720127,0.012057728134095669,-0.0014900385867804289
1772789522280974300,6.799974365234375,-0.003433080855756998,0.011513377539813519,0.003171824850142002
1772789522291040500,6.81004052734375,-0.004821653012186289,0.011035340838134289,0.0012871057260781527
1772789522301106200,6.820106201171875,-0.002685797866433859,0.011326690204441547,0.0007563377148471773
1772789522311172600,6.830172607421875,-0.004054396413266659,0.011934690177440643,0.0014141384745016694
1772789522321238800,6.84023876953125,-0.0026551715563982725,0.013636450283229351,-0.0022679478861391544
1772789522331304000,6.850303955078125,-0.0027803401462733746,0.011120827868580818,-0.0013915016315877438
1772789522341369900,6.860369873046875,-0.0029411951545625925,0.01053386740386486,0.003102849004790187
1772789522351435800,6.870435791015625,-0.003631486324593425,0.009187373332679272,0.0008080030675046146
1772789522361501700,6.880501708984375,-0.005498628597706556,0.012034558691084385,0.0001073253879440017
1772789522371567600,6.890567626953125,-0.00535588338971138,0.013701697811484337,-0.0003406183095648885
1772789522381633800,6.9006337890625,-0.00318913534283638,0.011988219805061817,0.0031995216850191355
1772789522391699700,6.91069970703125,-0.003051982494071126,0.013028183951973915,0.0021797972731292248
1772789522401764900,6.920764892578125,-0.0037856835406273603,0.013948040083050728,0.0018458369886502624
1772789522411830800,6.930830810546875,-0.0038013961166143417,0.012079832144081593,0.00227806787006557
1772789522421896700,6.940896728515625,-0.005458947736769915,0.011686749756336212,0.0020266654901206493
1772789522431962600,6.950962646484375,-0.004068244714289904,0.009731190279126167,0.0003635214816313237
1772789522442028800,6.96102880859375,-0.003020290983840823,0.011259845457971096,0.0011150655336678028
1772789522452094700,6.9710947265625,-0.0029284118209034204,0.01264122687280178,0.0010785802733153105
1772789522462161000,6.981160888671875,-0.003965446725487709,0.009858489967882633,-0.00027297402266412973
1772789522472225800,6.991225830078125,-0.0022333269007503986,0.012013785541057587,0.0022626216523349285
1772789522482291700,7.001291748046875,-0.0029499835800379515,0.012833506800234318,0.0007920240750536323
1772789522492357600,7.011357666015625,-0.005312473513185978,0.010441189631819725,0.00008681904728291556
1772789522502423800,7.021423828125,-0.004196875728666782,0.012687299400568008,0.0016314524691551924
1772789522512489700,7.03148974609375,-0.004325772635638714,0.011306717060506344,-0.0004444815858732909
1772789522522556000,7.041555908203125,-0.002813629573211074,0.010092048905789852,0.0007677893154323101
1772789522532621800,7.051621826171875,-0.004656536970287561,0.011783422902226448,0.00227806787006557
1772789522542686700,7.061686767578125,-0.0033776871860027313,0.01061962079256773,-0.0004141215467825532
1772789522552752600,7.071752685546875,-0.004006459377706051,0.012782640755176544,0.002561694709584117
1772789522562818800,7.08181884765625,-0.004435494542121887,0.011313107796013355,-0.00036458674003370106
1772789522572884700,7.091884765625,-0.005539374891668558,0.01200792659074068,0.0008404936525039375
1772789522582951000,7.101950927734375,-0.00455613574013114,0.014180267229676247,-0.001160072977654636
1772789522593016800,7.112016845703125,-0.00580728892236948,0.011774367652833462,-0.0014096111990511417
1772789522603082800,7.122082763671875,-0.0007997472421266139,0.014191718772053719,-0.00015206649550236762
1772789522613147600,7.132147705078125,-0.0019302591681480408,0.010656372644007206,0.0012152004055678844
1772789522623213800,7.1422138671875,-0.004624845460057259,0.013769341632723808,0.001210406655445695
1772789522633279700,7.15227978515625,-0.0035459990613162518,0.014562164433300495,0.003437075763940811
1772789522643346000,7.162345947265625,-0.002261822810396552,0.01152589451521635,0.0021342572290450335
1772789522653411800,7.172411865234375,-0.0043952809646725655,0.011825500056147575,-0.001945439144037664
1772789522663477800,7.182477783203125,-0.0054674698039889336,0.013530989177525043,0.00027563716867007315
1772789522673543700,7.192543701171875,-0.001871136948466301,0.013316870667040348,0.00003968110104324296
1772789522683608800,7.20260888671875,-0.004285558592528105,0.013567473739385605,0.002627741079777479
1772789522693674800,7.2126748046875,-0.004022172186523676,0.012260926887392998,0.0014676681021228433
1772789522703741000,7.222740966796875,-0.003117230022326112,0.0117325559258461,-0.0013523531379178166
1772789522713806800,7.232806884765625,-0.0021518340799957514,0.011334413662552834,0.0013574132462963462
1772789522723872800,7.242872802734375,-0.004211789462715387,0.011462245136499405,-0.0015848471084609628
1772789522733938700,7.252938720703125,-0.004098871257156134,0.011885421350598335,0.0013760552974417806
1772789522744004600,7.263004638671875,-0.004298608284443617,0.013040967285633087,0.0013100089272484183
1772789522754069800,7.27306982421875,-0.005910086911171675,0.012634036131203175,0.00011078749957960099
1772789522764136000,7.283135986328125,-0.0010910971323028207,0.010896323248744011,0.0015076154377311468
1772789522774201900,7.293201904296875,-0.0011297129094600677,0.013138704933226109,-0.0001984054979402572
1772789522784267800,7.303267822265625,-0.004393683280795813,0.012950952164828777,0.0029923277907073498
1772789522794333700,7.313333740234375,-0.004145476501435041,0.009368201717734337,0.0000977380113909021
1772789522804399600,7.323399658203125,-0.003055444685742259,0.011146128177642822,0.00008335694292327389
1772789522814464800,7.33346484375,-0.003085005795583129,0.011766111478209496,0.0014900385867804289
1772789522824531000,7.343531005859375,-0.004220045171678066,0.010811635293066502,0.0018218684708699584
1772789522834596900,7.353596923828125,-0.005290902219712734,0.014682806096971035,0.00035739620216190815
1772789522844662800,7.363662841796875,-0.002772616920992732,0.012628709897398949,0.001127582392655313
1772789522854728700,7.373728759765625,-0.003349457634612918,0.010523214936256409,0.0007547398563474417
1772789522864794600,7.383794677734375,-0.005842176266014576,0.012982910498976707,0.0013869742397218943
1772789522874860800,7.39386083984375,-0.0004945489927195013,0.011873969808220863,0.0009632653673179448
1772789522884926000,7.403926025390625,-0.003950799349695444,0.010185525752604008,0.0022743395529687405
1772789522894992000,7.413991943359375,-0.002267681760713458,0.0111607750877738,0.003500725142657757
1772789522905057800,7.424057861328125,-0.002016811864450574,0.011166367679834366,0.00038722361205145717
1772789522915123700,7.434123779296875,-0.0033129723742604256,0.014013021253049374,0.0013944311067461967
1772789522925189600,7.444189697265625,-0.004817658569663763,0.014122743159532547,-0.001284975209273398
1772789522935255800,7.454255859375,-0.00430260319262743,0.01278423797339201,0.0025350630749017
1772789522945321000,7.464321044921875,-0.0034229608718305826,0.011991148814558983,0.00242214510217309
1772789522955387000,7.474386962890625,-0.005015264730900526,0.012075038626790047,0.0007592672482132912
1772789522965452500,7.48445263671875,-0.003614974906668067,0.014521684497594833,0.0020604876335710287
1772789522975518700,7.494518798828125,-0.003594202222302556,0.010508034378290176,0.0013363742036744952
1772789522985584600,7.504584716796875,-0.003690076060593128,0.011195928789675236,0.0013877731980755925
1772789522995650800,7.51465087890625,-0.0037121803034096956,0.01296267006546259,0.0008274441352114081
1772789523005716700,7.524716796875,-0.0044235107488930225,0.009718673303723335,0.001564873498864472
1772789523015782000,7.534781982421875,-0.004773982334882021,0.011962919495999813,-0.0008471515611745417
1772789523025847600,7.54484765625,-0.005849633365869522,0.010792460292577744,-0.0009571401169523597
1772789523035913700,7.554913818359375,-0.006342850625514984,0.013077719137072563,-0.0012543488992378116
1772789523045979600,7.564979736328125,-0.003440005239099264,0.013528059236705303,0.0008641957538202405
1772789523056045800,7.5750458984375,-0.004493818152695894,0.012141617946326733,0.00020985709852539003
1772789523066111700,7.58511181640625,-0.004391818773001432,0.012329637072980404,0.00012303804396651685
1772789523076177000,7.595177001953125,-0.0028487835079431534,0.012570386752486229,-0.0015089471125975251
1772789523086242600,7.60524267578125,-0.0037228327710181475,0.014188523404300213,0.0007371630053967237
1772789523096308700,7.615308837890625,-0.004706604406237602,0.014025803655385971,0.0024975123815238476
1772789523106374700,7.625374755859375,-0.003491936717182398,0.011691276915371418,-0.0007843009079806507
1772789523116440800,7.63544091796875,-0.005305283237248659,0.015115036629140377,-0.000532365869730711
1772789523126506800,7.6455068359375,-0.003498062025755644,0.01263962872326374,0.002049036091193557
1772789523136573000,7.655572998046875,-0.003861583536490798,0.011936021968722343,0.0012980246683582664
1772789523146637600,7.665637451171875,-0.005317533854395151,0.013262009248137474,-0.00019121496006846428
1772789523156703700,7.675703857421875,-0.005564408842474222,0.01318211480975151,0.003698065411299467
1772789523166769700,7.685769775390625,-0.005942577496170998,0.012567456811666489,0.001555818715132773
1772789523176835800,7.6958359375,-0.0014799186028540134,0.012441223487257957,-0.0015275891637429595
1772789523186901800,7.70590185546875,-0.003855458227917552,0.012426309287548065,-0.0013614079216495156
1772789523196968000,7.715968017578125,-0.006785201840102673,0.012463327497243881,-0.00048709215479902923
1772789523207032600,7.726032470703125,-0.0038064562249928713,0.013855894096195698,0.0008625978953205049
1772789523217098800,7.7360986328125,-0.003945739474147558,0.01303164567798376,0.0016703346045687795
1772789523227164700,7.74616455078125,-0.0018168084789067507,0.013802630826830864,0.0014809839194640517
1772789523237230800,7.75623095703125,-0.0025361282750964165,0.011407117359340191,0.004087686073035002
1772789523247296800,7.766296875,-0.0046938215382397175,0.014179468154907227,-0.00035926041891798377
1772789523257363000,7.776363037109375,-0.003858387703076005,0.01145878341048956,0.002144909929484129
1772789523267427600,7.786427490234375,-0.0012484899489209056,0.01152509544044733,-0.00015872440417297184
1772789523277493800,7.79649365234375,-0.00452950457111001,0.011214571073651314,0.0031321437563747168
1772789523287559700,7.8065595703125,-0.0028240159153938293,0.01116024237126112,0.00119629199616611
1772789523297625900,7.8166259765625,-0.0040948763489723206,0.011807390488684177,0.000222373942960985
1772789523307691800,7.82669189453125,-0.0026160231791436672,0.012813267298042774,0.0007329019135795534
1772789523317756700,7.836756591796875,-0.0038903458043932915,0.01007793378084898,0.00040666470886208117
1772789523327821800,7.84682177734375,-0.002424275502562523,0.013291037641465664,0.002034388715401292
1772789523337887700,7.8568876953125,-0.002231728984043002,0.011362909339368343,0.0016783240716904402
1772789523347954000,7.866953857421875,-0.0025012409314513206,0.013562413863837719,0.0025931198615580797
1772789523358019800,7.877019775390625,-0.0033366745337843895,0.010396714322268963,0.0022535668686032295
1772789523368085800,7.887085693359375,-0.004071973264217377,0.014182930812239647,0.00009374327055411413
1772789523378151700,7.897151611328125,-0.003215234261006117,0.014063887298107147,0.0009930927772074938
1772789523388217600,7.907217529296875,-0.004605670925229788,0.01113068126142025,0.0008796420879662037
1772789523398282800,7.91728271484375,-0.005037901923060417,0.011212441138923168,0.0014626081101596355
1772789523408348700,7.9273486328125,-0.0051686628721654415,0.012061189860105515,0.0005824333056807518
1772789523418414800,7.937414794921875,-0.0017014936311170459,0.010933874174952507,-0.00123783724848181
1772789523428480800,7.947480712890625,-0.003937217406928539,0.012591691687703133,0.002043709857389331
1772789523438546700,7.957546630859375,-0.0018998990999534726,0.010483799502253532,0.0007984156836755574
1772789523448612600,7.967612548828125,-0.0011323761427775025,0.011649465188384056,0.001743038883432746
1772789523458677800,7.977677734375,-0.004316984210163355,0.012694223783910275,0.0026192190125584602
1772789523468743700,7.98774365234375,-0.0036224317736923695,0.013156548142433167,0.00012889699428342283
1772789523478809900,7.997809814453125,-0.004483165219426155,0.011597000993788242,0.002147306688129902
1772789523488874800,8.007874755859374,-0.004766525700688362,0.011682488955557346,0.0031135017052292824
1772789523498940700,8.017940673828125,-0.00285011506639421,0.01290274877101183,0.0015267902053892612
1772789523509006800,8.0280068359375,-0.0011560781858861446,0.012089153751730919,0.0018322548130527139
1772789523519072800,8.03807275390625,-0.0008695221040397882,0.010836401954293251,-0.000022903184799361043
1772789523529138700,8.048138671875,-0.003906324505805969,0.013650031760334969,0.0006735134520567954
1772789523539204900,8.058204833984375,-0.003884752979502082,0.012107528746128082,0.0008506136364303529
1772789523549269800,8.068269775390625,-0.0037169738207012415,0.011431618593633175,0.0010138654615730047
1772789523559335700,8.078335693359374,-0.004351338837295771,0.01170379389077425,-0.002287389012053609
1772789523569401900,8.08840185546875,-0.003602724289521575,0.012308863922953606,-0.00040080572944134474
1772789523579467800,8.0984677734375,-0.0040972731076180935,0.01173175685107708,0.00041731735109351575
1772789523589533700,8.10853369140625,-0.001799764228053391,0.011498996987938881,-0.00028762139845639467
1772789523599599900,8.118599853515626,-0.004311391618102789,0.01152589451521635,0.0014775217277929187
1772789523609664800,8.128664794921875,-0.0023909860756248236,0.011693141423165798,0.0010183927370235324
1772789523619730700,8.138730712890625,-0.0033318807836622,0.01134160440415144,-0.000005326322025211994
1772789523629796900,8.148796875,-0.0031380027066916227,0.013220463879406452,0.0010093380697071552
1772789523639862800,8.15886279296875,-0.002901514060795307,0.010408432222902775,-0.0013491574209183455
1772789523649928700,8.1689287109375,-0.0031348068732768297,0.013797570951282978,0.0008253136184066534
1772789523659995000,8.178994873046875,-0.0046658581122756,0.010597250424325466,0.0004223773430567235
1772789523670059800,8.189059814453126,-0.003364904085174203,0.012320581823587418,0.0024407871533185244
1772789523680125700,8.199125732421875,-0.0065447185188531876,0.013711817562580109,0.0028101676143705845
1772789523690192000,8.20919189453125,-0.004006992094218731,0.010187656618654728,0.0013930995482951403
1772789523700257800,8.2192578125,-0.004686897154897451,0.012095012702047825,0.0019893813878297806
1772789523710323700,8.22932373046875,-0.0041068606078624725,0.011639345437288284,0.0009068063227459788
1772789523720390000,8.239389892578124,-0.0037209687288850546,0.0116175077855587,0.0009784454014152288
1772789523730454800,8.249454833984375,-0.004435494542121887,0.012221512384712696,-0.00008681904728291556
1772789523740520700,8.259520751953126,-0.0030538467690348625,0.011803129687905312,0.0010849718237295747
1772789523750586600,8.269586669921875,-0.004314587451517582,0.011928831227123737,0.0019153454340994358
1772789523760652800,8.27965283203125,-0.004363323096185923,0.012798619456589222,0.00023169501218944788
1772789523770718700,8.28971875,-0.0015907060587778687,0.013016998767852783,0.0012889700010418892
1772789523780785000,8.299784912109375,-0.0025361282750964165,0.012427108362317085,0.0019228023011237383
1772789523790849800,8.309849853515624,-0.005250688176602125,0.009140768088400364,0.001657018787227571
1772789523800915700,8.319915771484375,-0.006061354652047157,0.011295530945062637,0.0017893778858706355
1772789523810981600,8.329981689453126,-0.0018852517241612077,0.010959440842270851,0.0007664577569812536
1772789523821047800,8.3400478515625,-0.002587793627753854,0.010159959085285664,0.0044019389897584915
1772789523831113700,8.35011376953125,-0.005132444202899933,0.012830577790737152,-0.0015560849569737911
1772789523841178600,8.3601787109375,-0.004282096866518259,0.010705907829105854,0.00045619948650710285
1772789523851244800,8.370244873046875,0.0003400856803636998,0.012497682124376297,-0.0030312100425362587
1772789523861310700,8.380310791015624,-0.004589159041643143,0.012230034917593002,0.0015219965716823936
1772789523871376600,8.390376708984375,-0.005597165785729885,0.010299775749444962,0.00035712990211322904
1772789523881442800,8.40044287109375,-0.003019758267328143,0.012560000643134117,0.0006250438746064901
1772789523891508700,8.4105087890625,-0.003322825999930501,0.011870508082211018,0.0014351775171235204
1772789523901573600,8.42057373046875,-0.004295678809285164,0.011856126599013805,0.0017259946325793862
1772789523911639800,8.430639892578125,-0.0022591594606637955,0.011986621655523777,-0.0013662016717717052
1772789523921705700,8.440705810546875,-0.003525492735207081,0.008854477666318417,-0.00008681904728291556
1772789523931771600,8.450771728515624,-0.004257595632225275,0.012585566379129887,0.0015270565636456013
1772789523941837800,8.460837890625,-0.00267727579921484,0.010210026986896992,0.0023782027419656515
1772789523951903700,8.47090380859375,-0.00526720006018877,0.010693657211959362,-0.0008492820779792964
1772789523961968600,8.48096875,-0.0033342777751386166,0.012251872569322586,0.0009928264189511538
1772789523972034800,8.491034912109376,-0.004004328977316618,0.011523231863975525,0.002254632068797946
1772789523982100700,8.501100830078125,-0.0034471957478672266,0.014919561333954334,-0.0011920308461412787
1772789523992166700,8.511166748046875,-0.003433080855756998,0.010324010625481606,0.0002247707889182493
1772789524002232800,8.52123291015625,-0.005530586466193199,0.012791961431503296,0.002419215627014637
1772789524012298800,8.531298828125,-0.0038490667939186096,0.013021792285144329,-0.0015286544803529978
1772789524022363600,8.54136376953125,-0.0046354979276657104,0.011393535882234573,0.001989913871511817
1772789524032429600,8.5514296875,-0.005764145869761705,0.01309103425592184,0.0011582087026908994
1772789524042495700,8.561495849609376,-0.003884752979502082,0.010958109050989151,0.0026112294290214777
1772789524052561700,8.571561767578125,-0.0030133668333292007,0.011668107472360134,0.0008455536444671452
1772789524062627800,8.5816279296875,-0.004027498420327902,0.010319216176867485,0.0011238539591431618
1772789524072693000,8.59169287109375,-0.00490208063274622,0.011361843906342983,0.0014945659786462784
1772789524082758700,8.601758544921875,-0.0019028285751119256,0.014719291590154171,0.001871136948466301
1772789524092824600,8.611824462890626,-0.0028248149901628494,0.011708853766322136,0.0023438481148332357
1772789524102890800,8.621890869140625,-0.004929777234792709,0.009212406352162361,0.0005070658517070115
1772789524112956700,8.631956787109376,-0.006162022240459919,0.013557087630033493,0.0015345134306699038
1772789524123022800,8.64202294921875,-0.00387383415363729,0.010112554766237736,-0.0003888215287588537
1772789524133088000,8.652087890625,-0.005938316695392132,0.011578891426324844,0.001981658162549138
1772789524143153700,8.662153564453124,-0.0028730181511491537,0.013194365426898003,0.0019923108629882336
1772789524153219600,8.672219482421875,-0.004565989598631859,0.014241520315408707,0.0005936186062172055
1772789524163285800,8.68228564453125,-0.0022213426418602467,0.011394334957003593,-0.0025180187076330185
1772789524173351700,8.6923515625,-0.003920173272490501,0.012439092621207237,0.00033635724685154855
1772789524183417900,8.70241796875,-0.0021819279063493013,0.013627128675580025,0.00047404266661033034
1772789524193482800,8.712482666015624,-0.0046599991619586945,0.012541092000901699,-0.0021939121652394533
1772789524203548700,8.722548583984375,-0.0048829056322574615,0.009005213156342506,-0.0003579288604669273
1772789524213614600,8.732614501953124,-0.0046908920630812645,0.011504323221743107,0.003537476761266589
1772789524223680800,8.7426806640625,-0.002516953507438302,0.012144280597567558,0.003230680711567402
1772789524233746700,8.75274658203125,-0.00341523764654994,0.012440957129001617,0.002246642718091607
1772789524243811800,8.762811767578125,-0.0026913906913250685,0.015084144659340382,0.00044314999831840396
1772789524253877800,8.772877685546876,-0.002457298804074526,0.01013971958309412,-0.0016772588714957237
1772789524263943700,8.782943603515625,-0.0022479742765426636,0.012357866391539574,0.0023912524338811636
1772789524274009600,8.793009521484375,-0.004959338344633579,0.010015349835157394,-0.00030306773260235786
1772789524284075800,8.80307568359375,-0.004151335451751947,0.013568006455898285,-0.0003374225052539259
1772789524294141700,8.8131416015625,-0.002357163932174444,0.014490259811282158,0.0008788431296125054
1772789524304206800,8.823206787109376,-0.004299407359212637,0.013980796560645103,0.0023222763556987047
1772789524314273000,8.83327294921875,-0.00350365461781621,0.013018596917390823,0.0017776599852368236
1772789524324339200,8.843339111328126,-0.003593935864046216,0.011292868293821812,-0.0014956312952563167
1772789524334405000,8.853405029296875,-0.004861600697040558,0.010480071417987347,-0.0004207794554531574
1772789524344471300,8.86347119140625,-0.003245061729103327,0.011353588663041592,0.00115394766908139
1772789524354536000,8.873535888671874,-0.003983556292951107,0.011798069812357426,0.0011688614031299949
1772789524364602000,8.88360205078125,-0.004996622912585735,0.013597567565739155,0.0008420915110036731
1772789524374668000,8.89366796875,-0.0030892668291926384,0.012850817292928696,-0.0013456953456625342
1772789524384734200,8.903734130859375,-0.003266633255407214,0.01013865415006876,-0.0005773733137175441
1772789524394800000,8.913800048828126,-0.004601409658789635,0.011921374127268791,0.0008058725506998599
1772789524404866300,8.9238662109375,-0.005004612263292074,0.012656140141189098,-0.00035366779775358737
1772789524414931000,8.933930908203125,-0.005008340813219547,0.013117666356265545,-0.0012149340473115444
1772789524424997000,8.9439970703125,-0.003471164032816887,0.010755442082881927,0.0009307747823186219
1772789524435063000,8.95406298828125,-0.003674895968288183,0.01056422758847475,0.0015030881622806191
1772789524445129200,8.964129150390624,-0.003885019337758422,0.011464642360806465,0.001904160133562982
1772789524455195100,8.974195068359375,-0.004787298385053873,0.011750399135053158,-0.0015901734586805105
1772789524465260000,8.984260009765626,-0.0035121769178658724,0.011290204711258411,-0.0005819007055833936
1772789524475326000,8.994325927734375,-0.0014080132823437452,0.012182630598545074,0.0011065434664487839
1772789524485392100,9.00439208984375,-0.0009928264189511538,0.012514992617070675,0.0006593986763618886
1772789524495458000,9.0144580078125,-0.0034735610242933035,0.013644971884787083,0.0016972325975075364
1772789524505524200,9.024524169921875,-0.004460528492927551,0.010059026069939137,0.0038607846945524216
1772789524515589000,9.034589111328126,-0.0039265644736588,0.012913667596876621,0.0005869606975466013
1772789524525655000,9.044655029296875,-0.005404352676123381,0.012643623165786266,0.0015725966077297926
1772789524535721000,9.054720947265626,-0.005655755288898945,0.011146394535899162,0.000696150294970721
1772789524545787100,9.064787109375,-0.004087419714778662,0.010299509391188622,0.0020868529099971056
1772789524555853000,9.07485302734375,-0.00381391285918653,0.012075038626790047,-0.00008468852320220321
1772789524565919200,9.084919189453124,-0.00287408335134387,0.013117133639752865,-0.001977929612621665
1772789524575984000,9.094984130859375,-0.004050934221595526,0.015275359153747559,0.0023068301379680634
1772789524586050000,9.105050048828126,-0.003465837799012661,0.008695220574736595,0.0011792477453127503
1772789524596116000,9.115115966796875,-0.004012584686279297,0.011651063337922096,0.0007219829712994397
1772789524606182100,9.12518212890625,-0.004306331276893616,0.013734720647335052,0.0027593011036515236
1772789524616248000,9.135248046875,-0.0025449167005717754,0.011241469532251358,0.0015965650090947747
1772789524626313200,9.145313232421875,-0.0029997846577316523,0.012320315465331078,-0.0006636597099713981
1772789524636379100,9.155379150390624,-0.005247492343187332,0.009166067466139793,-0.0000780306218075566
1772789524646445000,9.165445068359375,-0.002784867538139224,0.013116068206727505,0.0012426309986039996
1772789524656511000,9.175510986328124,-0.0009139968897216022,0.011421765200793743,0.0008735168376006186
1772789524666577200,9.1855771484375,-0.0017749968683347106,0.011905129067599773,-0.0008724515791982412
1772789524676643000,9.19564306640625,-0.001802693703211844,0.016411995515227318,-0.00027297402266412973
1772789524686708200,9.205708251953125,-0.002380866091698408,0.01014185044914484,-0.0007222492713481188
1772789524696774100,9.215774169921875,-0.004283694550395012,0.012229235842823982,0.000028762138754245825
1772789524706840000,9.225840087890624,-0.003709516953676939,0.016261793673038483,-0.0013638047967106104
1772789524716906000,9.235906005859375,-0.0026666230987757444,0.011445467360317707,0.0023457121569663286
1772789524726972200,9.24597216796875,-0.002008289797231555,0.012565593235194683,0.0013965616235509515
1772789524737037000,9.256037109375,-0.00239258399233222,0.013255883939564228,0.003138801548629999
1772789524747103200,9.266103271484376,-0.004767058417201042,0.011721104383468628,0.0011403656098991632
1772789524757169200,9.276169189453125,-0.0030426615849137306,0.013793043792247772,0.0017875137273222208
1772789524767235000,9.286235107421875,-0.0030399984680116177,0.013235644437372684,0.0011824434623122215
1772789524777301000,9.296301025390624,-0.00806431844830513,0.012945359572768211,0.0010064085945487022
1772789524787366100,9.3063662109375,-0.0019981698133051395,0.01248303521424532,0.002972087822854519
1772789524797432000,9.31643212890625,-0.004739094991236925,0.013228720054030418,0.001454884884878993
1772789524807498200,9.326498291015625,-0.0034940673504024744,0.013613280840218067,0.0036429380998015404
1772789524817564200,9.336564208984376,-0.0038874163292348385,0.009433981962502003,-0.0016969662392511964
1772789524827630000,9.346630126953125,-0.0073138391599059105,0.01315308641642332,0.00020506340661086142
1772789524837695200,9.3566953125,-0.0037204360123723745,0.011209511198103428,0.0005976133397780359
1772789524847761200,9.36676123046875,-0.004319114610552788,0.01287398673593998,0.0008980178972706199
1772789524857827000,9.3768271484375,-0.00624165078625083,0.013904363848268986,0.00026551715563982725
1772789524867893200,9.386893310546874,-0.003500991500914097,0.012220180593430996,-0.0015536881983280182
1772789524877959200,9.396959228515625,-0.0046813045628368855,0.009661149233579636,0.00017310546536464244
1772789524888024000,9.407024169921876,-0.0010764497565105557,0.012665728107094765,0.0033811493776738644
1772789524898090200,9.41709033203125,-0.004555603489279747,0.011157579720020294,-0.0005765743553638458
1772789524908156200,9.42715625,-0.0025776736438274384,0.01008219551295042,0.0032519858796149492
1772789524918222000,9.43722216796875,-0.005049087107181549,0.009074721485376358,0.0009387642494402826
1772789524928288300,9.447288330078125,-0.0030277478508651257,0.012486496940255165,0.0012876383261755109
1772789524938354200,9.457354248046874,-0.004303668159991503,0.011183944530785084,0.0029521139804273844
1772789524948419000,9.467419189453125,-0.004287423100322485,0.0120702451094985,0.003376089269295335
1772789524958485200,9.4774853515625,-0.0037830201908946037,0.01170219574123621,0.0007938882918097079
1772789524968551200,9.48755126953125,-0.005526858381927013,0.010691526345908642,0.0035563854034990072
1772789524978617000,9.4976171875,-0.0038871499709784985,0.01188355777412653,0.0022778017446398735
1772789524988683300,9.507683349609374,-0.002269279444590211,0.012879579328000546,0.00030839405371807516
1772789524998748200,9.517748046875,-0.006254167295992374,0.011062771081924438,-0.0015022892039269209
1772789525008814000,9.52781396484375,-0.004357996862381697,0.01317971758544445,0.0010133327450603247
1772789525018880300,9.53788037109375,-0.0036970002111047506,0.01098340842872858,-0.0007214503129944205
1772789525028946200,9.5479462890625,-0.005781722720712423,0.011638280004262924,0.002186455298215151
1772789525039012000,9.55801220703125,-0.005115665961056948,0.011664113029837608,0.00011398329661460593
1772789525049077000,9.568076904296875,-0.004761732183396816,0.012297678738832474,-0.0002772350562736392
1772789525059143200,9.57814306640625,-0.0040456079877913,0.01546684093773365,0.0031899344176054
1772789525069209000,9.588208984375,-0.003578489413484931,0.011508317664265633,0.0016863135388121009
1772789525079275000,9.59827490234375,-0.004688761197030544,0.013365340419113636,-0.00047643951256759465
1772789525089341200,9.608341064453125,-0.0024884575977921486,0.013140835799276829,0.0015417039394378662
1772789525099406300,9.61840625,-0.0018572885310277343,0.010982876643538475,0.0009944243356585503
1772789525109472000,9.628471923828124,-0.00424268189817667,0.012138688005506992,0.0014671353856101632
1772789525119538200,9.6385380859375,-0.0017686053179204464,0.015264973044395447,0.0035033884923905134
1772789525129604000,9.64860400390625,-0.0033364081755280495,0.01047154888510704,0.0011105381418019533
1772789525139670000,9.658669921875,-0.0049340385012328625,0.00971574429422617,-0.0026615632232278585
1772789525149735200,9.668735107421876,-0.002858637133613229,0.011983958072960377,-0.0014937670202925801
1772789525159801300,9.67880126953125,-0.0038336203433573246,0.014023407362401485,0.0008199872681871057
1772789525169867000,9.688866943359375,-0.0034320156555622816,0.00800279900431633,-0.002691923175007105
1772789525179933200,9.69893310546875,-0.0029023129027336836,0.011424960568547249,0.005219263024628162
1772789525189999000,9.7089990234375,-0.003433080855756998,0.012509133666753769,-0.0010391654213890433
1772789525200064300,9.719064208984374,-0.004292749334126711,0.011688081547617912,0.000815193576272577
1772789525210130200,9.729130126953125,-0.0026879284996539354,0.011261442676186562,-0.00025486451340839267
1772789525220196400,9.7391962890625,-0.0037031255196779966,0.012766394764184952,0.0002894856152124703
1772789525230262000,9.749261962890625,-0.002921754028648138,0.012839099392294884,-0.0005190501105971634
1772789525240328200,9.759328125,-0.00421365350484848,0.01455870270729065,-0.00034727618913166225
1772789525250394000,9.76939404296875,-0.002770752878859639,0.011295797303318977,0.0012234562309458852
1772789525260459300,9.779459228515625,-0.00440966198220849,0.011837750673294067,0.000026897927455138415
1772789525270525200,9.789525146484374,-0.002900714986026287,0.011992746964097023,0.004817392211407423
1772789525280591400,9.79959130859375,-0.003884752979502082,0.013105415739119053,0.00013688647595699877
1772789525290657000,9.809656982421876,-0.0027238810434937477,0.013980796560645103,0.000107858024421148
1772789525300722200,9.81972216796875,-0.003780623432248831,0.012440424412488937,0.0013574132462963462
1772789525310788000,9.8297880859375,-0.0029558425303548574,0.01122442539781332,0.00023089606838766485
1772789525320853500,9.839853515625,-0.0026413232553750277,0.011275291442871094,0.0004295678809285164
1772789525330919400,9.84991943359375,-0.004524710588157177,0.010822021402418613,0.002320145955309272
1772789525340985300,9.8599853515625,-0.004332696553319693,0.012374377809464931,0.0005773733137175441
1772789525351051300,9.87005126953125,-0.0036874127108603716,0.010889931581914425,-0.001284708851017058
1772789525361116400,9.880116455078126,-0.003350256709381938,0.013436446897685528,0.0008072041091509163
1772789525371182300,9.890182373046875,-0.0031883365008980036,0.010755442082881927,-0.000054328484111465514
1772789525381248500,9.90024853515625,-0.003103115363046527,0.013069995678961277,-0.00032330775866284966
1772789525391314400,9.910314453125,-0.003968109842389822,0.012537362985312939,-0.001585646066814661
1772789525401380400,9.92038037109375,-0.003625893732532859,0.011409514583647251,0.0014895059866830707
1772789525411445500,9.930445556640626,-0.003224555402994156,0.010068080388009548,-0.0002889529860112816
1772789525421511400,9.940511474609375,-0.0035217641852796078,0.01576405018568039,-0.0005446164286695421
1772789525431577300,9.950577392578126,-0.003912982530891895,0.013005280867218971,-0.00011371697473805398
1772789525441643500,9.9606435546875,-0.002004561247304082,0.013971209526062012,-0.0004676510870922357
1772789525451709400,9.97070947265625,-0.0034091125708073378,0.014163223095238209,-0.0008753810543566942
1772789525461774300,9.9807744140625,-0.00418302696198225,0.012576245702803135,0.0010516822803765535
1772789525471840300,9.99084033203125,-0.005507417023181915,0.010942928493022919,0.001663410454057157
1772789525481906400,10.000906494140626,-0.0024647556710988283,0.010264888405799866,-0.0015571502735838294
1772789525491972400,10.010972412109375,-0.005677592940628529,0.012286227196455002,0.00035926041891798377
1772789525502038500,10.02103857421875,-0.002954244613647461,0.011451326310634613,0.00032623723382130265
1772789525512103400,10.031103515625,-0.00694818701595068,0.01242151577025652,0.0014530207263305783
1772789525522169300,10.04116943359375,-0.0034991272259503603,0.012293417938053608,-0.00018695391190703958
1772789525532235300,10.0512353515625,-0.0033547841012477875,0.01242284756153822,-0.00028336033574305475
1772789525542301400,10.061301513671875,-0.004305266309529543,0.011739480309188366,0.0016413062112405896
1772789525552367400,10.071367431640626,-0.0033838124945759773,0.012031895108520985,0.002597647253423929
1772789525562432300,10.081432373046875,-0.003325755475088954,0.012531237676739693,-0.00130920996889472
1772789525572498400,10.09149853515625,-0.003703658003360033,0.012456136755645275,0.0006468818173743784
1772789525582564400,10.101564453125,-0.0032682311721146107,0.011836951598525047,-0.00088949577184394
1772789525592630300,10.11163037109375,-0.0036213663406670094,0.014089720323681831,0.002252768026664853
1772789525602696400,10.121696533203124,-0.0028820729348808527,0.011859855614602566,0.0025571673177182674
1772789525612761600,10.13176171875,-0.004622182343155146,0.013003150001168251,0.0007038734620437026
1772789525622827300,10.1418271484375,-0.004997155629098415,0.010263290256261826,0.0022916500456631184
1772789525632893400,10.1518935546875,-0.004006725735962391,0.012685434892773628,-0.000791491474956274
1772789525642959400,10.16195947265625,-0.003394465195015073,0.011651329696178436,-0.00039494677912443876
1772789525653025300,10.172025390625,-0.003451456781476736,0.010606837458908558,-0.0014809839194640517
1772789525663090400,10.18209033203125,-0.004516721237450838,0.012203669175505638,0.0013347762869670987
1772789525673156600,10.192156494140624,-0.006465089973062277,0.012766129337251186,0.0005001416429877281
1772789525683222300,10.20222216796875,-0.004984905011951923,0.011274758726358414,0.001395230065099895
1772789525693288400,10.212288330078126,-0.004150270018726587,0.01254987996071577,0.00006498113361885771
1772789525703354400,10.222354248046875,-0.004768389742821455,0.008289887569844723,0.0007062703371047974
1772789525713419500,10.23241943359375,-0.0034104441292583942,0.01206731516867876,-0.0005158542771823704
1772789525723485400,10.2424853515625,-0.0030623688362538815,0.012781575322151184,-0.00129695946816355
1772789525733551600,10.252551513671875,-0.004683701321482658,0.0121291009709239,0.0023100259713828564
1772789525743617300,10.2626171875,-0.004065581597387791,0.012063853442668915,-0.00037444045301526785
1772789525753683500,10.272683349609375,-0.0025861957110464573,0.008566856384277344,-0.0003025351034011692
1772789525763748400,10.282748291015626,-0.00392736354842782,0.012888634577393532,-0.00019627496658358723
1772789525773814500,10.292814453125,-0.004807804711163044,0.012278237380087376,0.0003510046226438135
1772789525783880400,10.30288037109375,-0.006771353539079428,0.00999431125819683,-0.0011017497163265944
1772789525793946600,10.312946533203124,-0.0031257520895451307,0.01347319781780243,-0.001198955113068223
1772789525804011300,10.32301123046875,-0.003988882526755333,0.012210593558847904,-0.00034168356796726584
1772789525814077400,10.333077392578126,-0.005548163317143917,0.01324256882071495,0.002031459240242839
1772789525824143400,10.343143310546875,-0.003850398352369666,0.013138172216713428,0.002651443239301443
1772789525834209500,10.35320947265625,-0.0032977922819554806,0.011785819195210934,0.002299373270943761
1772789525844275500,10.363275390625,-0.005909554194658995,0.014525413513183594,0.0022562299855053425
1772789525854340400,10.37334033203125,-0.0020719394087791443,0.01104652602225542,0.00079735042527318
1772789525864406300,10.38340625,-0.0021544971968978643,0.012913402169942856,0.0033135050907731056
1772789525874472400,10.393472412109375,-0.003960653208196163,0.01392993051558733,-0.00035499935620464385
1772789525884538400,10.403538330078124,-0.0038397456519305706,0.012263590469956398,0.004061853047460318
1772789525894604500,10.4136044921875,-0.003278883872553706,0.01278663519769907,-0.0004644552827812731
1772789525904669200,10.423669189453125,-0.004342816770076752,0.011681689880788326,-0.00034354778472334146
1772789525914735400,10.4337353515625,-0.0019923108629882336,0.011884355917572975,0.000934236915782094
1772789525924801300,10.44380126953125,-0.003716441337019205,0.013383449986577034,0.0005012069013901055
1772789525934867500,10.453867431640624,-0.0032554480712860823,0.010883274488151073,0.0001549959706608206
1772789525944933400,10.463933349609375,-0.003942277282476425,0.012812468223273754,-0.0014538196846842766
1772789525954998500,10.47399853515625,-0.0011238539591431618,0.01371980644762516,0.00011478224041638896
1772789525965064200,10.484064208984375,-0.003948668949306011,0.011268100701272488,0.002638926263898611
1772789525975130400,10.49413037109375,-0.0022913836874067783,0.011579424142837524,0.0007249124464578927
1772789525985196300,10.5041962890625,-0.0027680895291268826,0.010470750741660595,0.0010756507981568575
1772789525995262500,10.514262451171875,-0.004028563853353262,0.010668623261153698,0.00032730249222368
1772789526005327400,10.524327392578124,-0.005155347287654877,0.013345099985599518,-0.00039547940832562745
1772789526015393500,10.5343935546875,-0.00455613574013114,0.010546384379267693,-0.000041811628761934116
1772789526025459200,10.544459228515626,-0.0032117723021656275,0.012079565785825253,0.002239984693005681
1772789526035525400,10.554525390625,-0.005420598201453686,0.010390056297183037,0.0004617921367753297
1772789526045591300,10.56459130859375,-0.004543086513876915,0.011889416724443436,0.0003203782835043967
1772789526055656400,10.574656494140624,-0.003606186481192708,0.011126420460641384,0.0004569984448608011
1772789526065722400,10.584722412109375,-0.003605387406423688,0.013158945366740227,-0.00006578007742064074
1772789526075788500,10.59478857421875,-0.002258893335238099,0.01317891851067543,-0.00012410330236889422
1772789526085854200,10.604854248046875,-0.005392102058976889,0.010777280665934086,0.003382214577868581
1772789526095920400,10.61492041015625,-0.0032445292454212904,0.011470501311123371,0.00367170013487339
1772789526105985300,10.6249853515625,-0.0033457293175160885,0.010543454438447952,0.0024493092205375433
1772789526116051500,10.635051513671876,-0.004363323096185923,0.009897371754050255,0.0020072245970368385
1772789526126117400,10.645117431640625,-0.0020748688839375973,0.015845542773604393,-0.0003352919884491712
1772789526136183600,10.65518359375,-0.0007251787465065718,0.012552277185022831,0.0021672805305570364
1772789526146249200,10.665249267578124,-0.002210956299677491,0.013976269401609898,0.0018639464396983385
1772789526156314400,10.675314453125,-0.005673598498106003,0.011293933726847172,0.0013627394801005721
1772789526166380300,10.68538037109375,-0.0046120621263980865,0.010771953500807285,-0.00036432043998502195
1772789526176446500,10.695446533203125,-0.0028487835079431534,0.012384497560560703,0.0010452907299622893
1772789526186512400,10.705512451171876,-0.0041132522746920586,0.012116317637264729,-0.0011448930017650127
1772789526196577300,10.715577392578124,-0.002517752582207322,0.01161724142730236,0.00018508969515096396
1772789526206643500,10.7256435546875,-0.0031127026304602623,0.010381801053881645,-0.0014423680258914828
1772789526216709400,10.73570947265625,-0.005950300954282284,0.013003150001168251,0.0032826124224811792
1772789526226775300,10.745775390625,-0.0014793860027566552,0.013018330559134483,0.0015286544803529978
1772789526236841500,10.755841552734376,-0.005901032127439976,0.010657438077032566,0.0010396981379017234
1772789526246906400,10.76590625,-0.006149238906800747,0.012694223783910275,-0.0008010788587853312
1772789526256972300,10.77597216796875,-0.00571860559284687,0.01215946115553379,0.0026636936236172915
1772789526267038500,10.78603857421875,-0.0020061591640114784,0.009662214666604996,-0.001582716591656208
1772789526277104400,10.7961044921875,-0.00404507527127862,0.01326893363147974,-0.00012676646292675287
1772789526287170300,10.80617041015625,-0.005270129535347223,0.012338957749307156,0.001817607437260449
1772789526297235500,10.8162353515625,-0.0024170849937945604,0.011323494836688042,-0.0003563309437595308
1772789526307301400,10.82630126953125,-0.0035175031516700983,0.009346630424261093,0.0012724583502858877
1772789526317367800,10.836367919921875,-0.0019273296929895878,0.012599148787558079,0.0009661948424763978
1772789526327433700,10.846433837890626,-0.004232295788824558,0.012409797869622707,0.0015848471084609628
1772789526337500000,10.8565,-0.003226952161639929,0.013965883292257786,0.0018096179701387882
1772789526347564800,10.866564697265625,-0.0019859191961586475,0.011840147897601128,0.0000066579027588886674
1772789526357630700,10.876630615234374,-0.004863997455686331,0.011899536475539207,0.002457564929500222
1772789526367696600,10.886696533203125,-0.0043777041137218475,0.011414574459195137,0.0008290420519188046
1772789526377762800,10.8967626953125,-0.004228034522384405,0.013517406769096851,0.00213585514575243
1772789526387828700,10.906828857421875,-0.007413707673549652,0.013262808322906494,0.003049053018912673
1772789526397894000,10.916893798828125,-0.00227833422832191,0.013087572529911995,0.0046823699958622456
1772789526407959800,10.926959716796874,-0.003063700394704938,0.012828180566430092,-0.00213665422052145
1772789526418025700,10.937025634765625,-0.0057311225682497025,0.009245430119335651,-0.0033222935162484646
1772789526428091600,10.947091552734374,-0.0034112429711967707,0.012795955874025822,0.0009291769238188863
1772789526438157800,10.95715771484375,-0.005886384751647711,0.012151471339166164,-0.000461259507574141
1772789526448223000,10.967222900390626,-0.004347610287368298,0.010092315264046192,-0.001657551503740251
1772789526458289000,10.977288818359375,-0.004855209030210972,0.011800733394920826,-0.003486876841634512
1772789526468354800,10.987354736328125,-0.0021427792962640524,0.009161007590591908,-0.0026205505710095167
1772789526478420700,10.997420654296874,-0.0037638454232364893,0.013344034552574158,0.00025300029665231705
1772789526488486000,11.00748583984375,-0.00678307143971324,0.010249441489577293,0.005279450677335262
1772789526498551800,11.0175517578125,-0.004855475388467312,0.012986904941499233,0.0013598100049421191
1772789526508618000,11.027617919921875,-0.002112419344484806,0.011388742364943027,-0.0013281183782964945
