time,seconds_elapsed,z,y,x
1772797791728014600,0.1010146484375,0.061171384799480436,0.01510092209065333,-0.0021652517424896357
1772797791738041900,0.111041748046875,0.16441548617482185,-0.024033055885881185,0.032313612170889974
1772797791748067800,0.12106787109375,0.19614859504401683,-0.05307718139942735,0.06291636530328541
1772797791758093800,0.13109375,0.11634499048888683,-0.05314491287339478,0.06713679600991308
1772797791768119800,0.141119873046875,0.03765139300227165,-0.0170301365875639,0.018041852647066117
1772797791778146800,0.151146728515625,-0.02235854680240154,0.023698033511545508,-0.024571765872463583
1772797791788172800,0.1611728515625,-0.04620820894539356,0.03886970101715997,-0.04377466165553778
1772797791798198800,0.17119873046875,-0.0068026657521724695,0.030901809144206344,-0.02014930978771299
1772797791808224800,0.181224853515625,0.05838964512646198,-0.0012952091760002075,0.009084273883327842
1772797791818251800,0.191251708984375,0.12054478026628493,-0.027544936464354394,0.028805275256372987
1772797791828277800,0.20127783203125,0.13210370063483715,-0.03765064408360049,0.03963876742720604
1772797791838303700,0.2113037109375,0.10160802460610865,-0.03573516585109755,0.044622072265110904
1772797791848330800,0.221330810546875,0.044588498789072034,-0.014590250888466834,0.013777984657511115
1772797791858356700,0.231356689453125,-0.002602291452884674,0.014765753585845231,-0.02458762102872133
1772797791868383000,0.241383056640625,-0.006772270613908767,0.017625106806028634,-0.025023345564864574
1772797791878409000,0.251408935546875,0.013779519027471541,0.013652202853374183,-0.01278868135921657
1772797791888436000,0.26143603515625,0.04095569524466991,0.0067179283444769675,-0.006086845633015036
1772797791898461700,0.271461669921875,0.07725450459420681,-0.021975721497274933,0.02097290113028139
1772797791908487700,0.28148779296875,0.10938508834838867,-0.026221688503958285,0.029009857917763292
1772797791918514700,0.2915146484375,0.087590020647645,-0.02326722261253744,0.02542754245158285
1772797791928541000,0.301541015625,0.04690729712545871,-0.009431918277218938,0.01232658027280122
1772797791938567000,0.31156689453125,0.01987199068367481,0.010985376530606298,-0.002237695924192667
1772797791948593000,0.321593017578125,0.014245967495441436,0.008389898410998284,-0.012599771190993488
1772797791958620000,0.331619873046875,0.027254502150416374,-0.0010303659610450266,-0.009078209468722342
1772797791968646000,0.34164599609375,0.0679699588984251,-0.006772343679144978,0.015739128662645815
1772797791978671900,0.351671875,0.07946458185911179,-0.007795768442749976,0.02783493238687515
1772797791988697900,0.36169775390625,0.08448153323829173,-0.008212751745805144,0.023295462326332925
1772797791998724900,0.371724853515625,0.08432020519673823,-0.012602766865678131,0.0118876408662647
1772797792008750800,0.381750732421875,0.04762041383087635,-0.0046108547963202,0.009671535719372331
1772797792018776800,0.39177685546875,0.028055297139286995,0.0013725852611474693,-0.002326543251425028
1772797792028803800,0.401803955078125,0.026793314379453658,0.00004044160824269056,-0.01594824136868119
1772797792038829800,0.411829833984375,0.04882452892363071,-0.007871500560082494,-0.0040971331205219026
1772797792048855800,0.421855712890625,0.061602177432179446,0.0010922522161155939,0.011551321583986281
1772797792058881800,0.4318818359375,0.05170446827411651,0.0024941731696017087,0.017273133296892045
1772797792068909000,0.441908935546875,0.06463175438642502,-0.018833112622611222,0.011978205226548015
1772797792078934800,0.451934814453125,0.0690676910072565,-0.011228738566115498,0.012795512958802283
1772797792088960800,0.461960693359375,0.05149053326249122,-0.0049318851779215035,0.014166289855353533
1772797792098986800,0.47198681640625,0.028328853383660316,0.015609857993479817,0.011953509176708756
1772797792109013800,0.482013671875,0.03099953389763832,0.01175484479945153,0.0019218714406713843
1772797792119039700,0.492039794921875,0.05772504373788833,0.01152430571289733,-0.004315744307264686
1772797792129065700,0.502065673828125,0.08190729883611202,0.006520926201343536,0.005948021684214473
1772797792139093000,0.512093017578125,0.05539513948559761,-0.009556878097448497,0.01291924893632531
1772797792149119000,0.522118896484375,0.06169511641263961,-0.018102405461575835,0.01914133832156658
1772797792159145000,0.53214501953125,0.07010755544900894,-0.011445669252425432,0.012917130044475197
1772797792169171000,0.5421708984375,0.07283318102061748,-0.016588128441106527,0.000014868775568902492
1772797792179197700,0.55219775390625,0.04576864848434925,-0.004870729575213045,-0.004487703340686857
1772797792189223700,0.5622236328125,0.04919511580169201,-0.010263126670662313,0.00373114935234189
1772797792199249700,0.572249755859375,0.05126549233496189,0.000173018479347229,0.00014149082992225885
1772797792209277000,0.58227685546875,0.06290799933373928,-0.005003507375717163,0.010123407672718167
1772797792219303000,0.592302978515625,0.06648527329862117,-0.004391111098416149,0.005813946975767612
1772797792229329000,0.602328857421875,0.06005787059962749,-0.01615589276999235,0.012891155353002249
1772797792239355000,0.61235498046875,0.0693505996018648,-0.01511376330591738,0.00565258240159601
1772797792249382000,0.6223818359375,0.06892331410050392,0.00563577739726752,0.03529613511301577
1772797792259408000,0.632407958984375,0.05681260506808757,-0.013695694935228675,-0.006099339788407087
1772797792269433900,0.642433837890625,0.08119242856502533,-0.0036217341611161826,-0.007224434828199446
1772797792279460900,0.6524609375,0.07203706220686436,-0.017114106810279188,0.0091400226585567
1772797792289486800,0.66248681640625,0.04477379222810268,0.010399028010014444,0.012098287942260503
1772797792299512800,0.672512939453125,0.04790682955682277,-0.02116025866223499,0.025899215083941815
1772797792309538800,0.682538818359375,0.07005904013216495,-0.015537614741176367,-0.00013045797925442457
1772797792319565800,0.69256591796875,0.07367839967310429,-0.025044497950747608,0.0022185893649235367
1772797792329591800,0.702591796875,0.0448468574643135,-0.014984857962932436,0.01986271139867604
1772797792339617800,0.71261767578125,0.0466898549824953,0.005287055291142314,0.004839768181368709
1772797792349644800,0.722644775390625,0.057652563023567194,0.006895878727268427,0.0025923911133781076
1772797792359670800,0.7326708984375,0.06485621079206466,0.004786814151424915,-0.01742452446632087
1772797792369696800,0.74269677734375,0.047962359136343,0.008861534510739148,-0.02046999310944229
1772797792379722800,0.75272265625,0.04557283365130424,0.014493658646196126,-0.01740238569974899
1772797792389749800,0.762749755859375,0.05080547360777855,0.009616590661741793,-0.0008156637644395232
1772797792399775700,0.772775634765625,0.054391515401005744,0.007574928766302764,-0.0027786344004794954
1772797792409801700,0.7828017578125,0.0558878914386034,0.002611223678011447,0.005786328316479921
1772797792419829000,0.7928291015625,0.05424889205992221,0.010146130961179733,0.002802855526283383
1772797792429855000,0.80285498046875,0.055310383811593054,0.0043313437351956965,0.004746683070436119
1772797792439881000,0.812880859375,0.03332067032158375,-0.0036094226688146588,-0.0024678879508748647
1772797792449907000,0.822906982421875,0.04424830704927444,0.004351509740389883,0.008171287224255502
1772797792459933700,0.83293359375,0.046643677753210065,0.006581826075725257,0.009897782223299146
1772797792469959700,0.842959716796875,0.038108489120006556,-0.00015013079410418868,0.014099800490401684
1772797792479985700,0.852985595703125,0.04588321477472782,-0.00021110373372212052,0.00958586672991514
1772797792490013000,0.863012939453125,0.06547755756080151,-0.012328370371088386,0.0018245120134204626
1772797792500039000,0.873038818359375,0.052450318205356596,-0.007555201152525842,0.009848865047655999
1772797792510065000,0.88306494140625,0.04840659577250481,-0.0042054158005863426,0.019882219816744328
1772797792520091600,0.893091552734375,0.05737959130108356,-0.025082236145250496,0.017261442859098315
1772797792530117600,0.90311767578125,0.05288812510073185,-0.018547409282717853,0.003952719681151211
1772797792540143600,0.9131435546875,0.07397124513983726,-0.012380648547597229,0.010502871976979076
1772797792550169900,0.923169921875,0.05540682992339134,-0.026984361705835905,0.013018909918516874
1772797792560196900,0.93319677734375,0.05540624540150165,-0.019549718193057924,0.019265110831707715
1772797792570222800,0.943222900390625,0.08548457280099392,-0.019821064214035868,0.018615451283939183
1772797792580248800,0.953248779296875,0.06364040526151657,-0.006490092671662569,0.0272722204701975
1772797792590275800,0.96327587890625,0.055412675142288204,-0.010700257712602615,0.011747246014885604
1772797792600301800,0.9733017578125,0.06977963866889476,-0.01521305896192789,0.017168357748165726
1772797792610327800,0.983327880859375,0.06707856301665306,-0.013064794886857271,0.016179858167469502
1772797792620354800,0.993354736328125,0.05989478899240493,-0.013490619083493947,0.02080656812004745
1772797792630380800,1.003380859375,0.0646761780500412,0.0009261018689721822,0.034608152848854656
1772797792640406800,1.01340673828125,0.05060965877473354,-0.03440009958874434,-0.007014189611002803
1772797792650432800,1.023432861328125,0.10102993245720862,0.014645725669059901,-0.001166048104688525
1772797792660459800,1.033459716796875,0.023372692281007766,-0.020710651731211692,0.01752002073004842
1772797792670485800,1.04348583984375,0.039541152271628376,0.02033443882996216,0.010987257960438727
1772797792680511700,1.05351171875,0.06976210301220416,-0.0021353497945703565,-0.0026852570286020633
1772797792690539000,1.0635390625,0.04940145202875137,0.0026012502732686697,0.013757343728281557
1772797792700564700,1.073564697265625,0.03397884196937084,0.00511332442574203,0.006933050666190684
1772797792710590700,1.0835908203125,0.05132511356770992,0.0034107217589393257,0.008314166293665767
1772797792720616700,1.09361669921875,0.06672492727339267,-0.013586042281985282,0.0032141762735322117
1772797792730643700,1.103643798828125,0.03979541929364204,-0.002753207698278129,0.014803710976056754
1772797792740669700,1.113669677734375,0.02844108158648014,0.00625982757974416,0.025766309419274328
1772797792750696000,1.123696044921875,0.06093874508738517,0.013233319854177535,0.01022186307851225
1772797792760723000,1.133722900390625,0.06066577336490154,0.004979651576094329,-0.007632577237673103
1772797792770749000,1.1437490234375,0.04811550387144088,-0.004754738512728363,-0.016809315177425743
1772797792780775000,1.15377490234375,0.03241875304579735,-0.007042429324798286,-0.004170819411240517
1772797792790801700,1.1638017578125,0.0581534982830286,0.00547868713941425,-0.0045580286305397745
1772797792800827600,1.17382763671875,0.04361117818951606,-0.003932115284539759,0.008773015977069734
1772797792810853400,1.183853271484375,0.04074234475493431,-0.004181176408473402,0.013545819869451223
1772797792820880400,1.19388037109375,0.0441758263349533,-0.0003017776918597519,0.01120101030897349
1772797792830906400,1.20390625,0.05959960543811321,-0.008293160038255155,0.006428973601572215
1772797792840932400,1.213932373046875,0.05826864909529686,-0.013251092972885816,-0.002655300281755626
1772797792850958300,1.223958251953125,0.0602320581227541,-0.007646368301007896,-0.0022378420546650887
1772797792860985600,1.233985595703125,0.05575403592586517,-0.015321853098645805,-0.002458243339695036
1772797792871011600,1.244011474609375,0.05081482595801353,-0.019664339282363653,-0.002699504749663174
1772797792881037600,1.25403759765625,0.06187398011088371,-0.020566347889695316,0.0003615633213892579
1772797792891064300,1.264064208984375,0.049285716694593425,-0.018532924099639057,0.03051982408929616
1772797792901090300,1.27409033203125,0.031041034951806067,-0.01237080300701782,0.040603301610425115
1772797792911116300,1.2841162109375,0.05815525184869766,0.003294529767055064,-0.016899587276764213
1772797792921143600,1.2941435546875,0.08107786227464675,0.0044207938506267965,0.0034788185590878128
1772797792931169500,1.30416943359375,0.012411153283715247,-0.01857413289286196,0.02675517432615161
1772797792941195500,1.314195556640625,0.03876782981157303,0.01075774178719148,0.016890673317946494
1772797792951221500,1.324221435546875,0.06554594662189484,-0.033918745812587435,0.017914317277260124
1772797792961248500,1.33424853515625,0.0754074154227972,-0.016622268172726034,0.006266074657440186
1772797792971274500,1.3442744140625,0.048019642281532285,0.0014520802381448447,0.008549509419500827
1772797792981300500,1.354300537109375,0.03653203358352184,0.009437014577444643,0.0193453364610672
1772797792991327500,1.364327392578125,0.06395078638494014,0.01104094264274463,0.0001828822862356901
1772797793001353500,1.374353515625,0.05782791959047317,0.0017925459725782274,0.00045687692202627656
1772797793011379500,1.38437939453125,0.028792963764071464,0.0029444011551328,0.004792787234485149
1772797793021406500,1.394406494140625,0.031025837382674216,0.004844754883740097,0.01350859313160181
1772797793031432400,1.404432373046875,0.06302548823356628,0.0025059732052497563,0.008263057160936296
1772797793041458400,1.41445849609375,0.06509060406982899,0.002562617029622197,0.016552892730943857
1772797793051484400,1.424484375,0.04219546617269516,-0.009617193449940532,0.013809402709081767
1772797793061511400,1.434511474609375,0.0712374362617731,-0.0027568974927067755,0.010089213142171502
1772797793071537400,1.444537353515625,0.06705693570673465,-0.01357488156715408,-0.004331599463522434
1772797793081563400,1.4545634765625,0.04670505255162716,-0.012988569579180329,0.009004632775858045
1772797793091590400,1.46459033203125,0.04460778801143169,-0.009514737722463905,0.009486644139140844
1772797793101616400,1.474616455078125,0.05761632266640663,0.003666230889968574,0.007926445617713034
1772797793111642400,1.484642333984375,0.05416588995158672,-0.004475939837656915,0.00469835041668266
1772797793121669600,1.494669677734375,0.03111936088502407,-0.009675262046419084,0.00630425124336034
1772797793131695600,1.504695556640625,0.046671150282025335,-0.006751885413005948,0.0021404460947960615
1772797793141721600,1.5147216796875,0.06431202091276646,-0.01489913417454809,0.006660334672033787
1772797793151747600,1.52474755859375,0.061896776464581485,-0.008433299161307512,0.013595394632220268
1772797793161774300,1.5347744140625,0.044671500897407526,-0.022665274664014575,0.022386859581433237
1772797793171800300,1.54480029296875,0.04616787693500519,-0.0020004896348342297,0.01616926370821893
1772797793181826300,1.554826416015625,0.0648719928830862,-0.0017249971617013214,0.0075864365410059685
1772797793191853600,1.564853515625,0.05888707325458526,-0.009102339262980968,0.0015433935170993207
1772797793201879600,1.574879638671875,0.010403905114531516,0.011037599908187985,-0.04220021541304886
1772797793211905500,1.584905517578125,0.04865910922884941,-0.019236286596022546,0.029422165045700964
1772797793221932300,1.594932373046875,0.0580488688647747,0.011313037582393735,0.005478285280615091
1772797793231958300,1.604958251953125,0.03634264849126339,0.004658054938912391,0.017244637854769825
1772797793241984300,1.614984375,0.03486088550090789,-0.0031266441205516455,0.005510178256221116
1772797793252011500,1.625011474609375,0.07675532290041447,-0.00884056478794664,0.0185406324820593
1772797793262037500,1.63503759765625,0.06284837810099124,-0.008601531867682933,0.00048643181007355447
1772797793272063500,1.6450634765625,0.03277998757362365,0.0002633271113038063,0.0030147812439128754
1772797793282089500,1.65508935546875,0.04655307686030864,0.002065956086479127,-0.007410349321737885
1772797793292116500,1.665116455078125,0.05011807586550712,-0.002997135989367962,0.002641819745674729
1772797793302142500,1.675142578125,0.042594110101461406,0.010013407959602772,0.008298968724533916
1772797793312168400,1.68516845703125,0.029095161581039426,-0.007225421208888292,0.026767997275106606
1772797793322195500,1.695195556640625,0.027892215532064436,0.007714191106520593,0.04916026368401944
1772797793332221400,1.705221435546875,0.04123685027360916,-0.007360811091586947,0.005701609175093472
1772797793342247400,1.715247314453125,0.08480594288706779,0.006013086277060211,0.00032619974706321955
1772797793352274400,1.7252744140625,0.05414718525111675,-0.008666943520400672,0.02610745100714266
1772797793362300400,1.735300537109375,0.02514496265053749,-0.018116653182636944,0.0231123243117705
1772797793372326400,1.745326416015625,0.06271276902258396,-0.015086729168519377,0.013854776220768689
1772797793382352400,1.755352294921875,0.044297991409897805,-0.020298253271728753,0.009256232916750014
1772797793392379600,1.765379638671875,0.04698036236166954,-0.015924568232148884,0.010522124666720627
1772797793402405400,1.7754052734375,0.050593876683712,-0.0072525832104496655,0.0074879811352118845
1772797793412431400,1.785431396484375,0.057959437015652655,-0.009303451325651258,0.025077925296314058
1772797793422458400,1.795458251953125,0.05350596473813057,-0.012824446792341768,0.028355887521058318
1772797793432484400,1.805484375,0.0477051695048809,-0.01669184454390779,0.011984013912826776
1772797793442510300,1.81551025390625,0.07166296819746494,-0.0036409320519305765,-0.0163108276033774
1772797793452537600,1.82553759765625,0.06028232700526714,-0.010765413636993616,-0.033067937669530506
1772797793462563600,1.8355634765625,0.03914250834286213,-0.010043419505376369,-0.024708434396795927
1772797793472589600,1.845589599609375,0.031898528563976285,-0.0031310645673424003,0.0686214085444808
1772797793482616300,1.8556162109375,-0.011963409516215323,-0.024626984924729912,0.03956749228928238
1772797793492642300,1.865642333984375,0.08844283808469772,0.02071483471598476,0.012119586458615958
1772797793502668300,1.875668212890625,0.06375438703000545,-0.009730134038813412,0.009779233877547085
1772797793512694300,1.8856943359375,0.029354104778170582,0.011893540884088723,0.010466960413381457
1772797793522721500,1.895721435546875,0.02787467987537384,-0.008164674820378422,0.007038958726078272
1772797793532747500,1.90574755859375,0.05584229873120784,-0.022183044105023145,0.013809877633117138
1772797793542773500,1.9157734375,0.05237316131591797,-0.018828801773674787,0.005477700758725405
1772797793552800500,1.925800537109375,0.03334638928472996,-0.0015529467967338858,0.0007529007265344262
1772797793562826500,1.935826416015625,0.04771569089889526,-0.0054618456024676555,0.003224186210893094
1772797793572852500,1.9458525390625,0.06360708751380444,0.004872446608263999,0.01574880980644375
1772797793582879500,1.95587939453125,0.041485856598615645,0.0033334187390282747,0.020005480870231986
1772797793592905500,1.965905517578125,0.028789456632733343,-0.0011971373626962303,0.009183350343629717
1772797793602931500,1.975931396484375,0.044210313126444814,-0.005068462370708585,0.009673910339549183
1772797793612957400,1.98595751953125,0.05438274757266044,-0.0006430654102005064,-0.008898395922407508
1772797793622984400,1.995984375,0.042996845683455465,-0.00247676537707448,-0.0036470512654632327
1772797793633010400,2.006010498046875,0.049722354546189305,-0.010078143758885562,-0.004777808861061931
1772797793643036400,2.016036376953125,0.058849079331755635,-0.0017713205214589833,0.003177278329245746
1772797793653063400,2.0260634765625,0.05303016391992569,-0.0024871771732345224,0.009983670408464967
1772797793663089400,2.03608935546875,0.040461189725995064,-0.000510926930513233,0.02144230874031782
1772797793673115400,2.046115478515625,0.03386544472277164,0.003015110037475824,0.02766973188780248
1772797793683142400,2.056142333984375,0.03580488835275173,-0.0020744499201886353,0.02372822772040963
1772797793693168400,2.06616845703125,0.05135375514030456,-0.005270195487886667,0.024772439543716607
1772797793703194400,2.0761943359375,0.044914077481627464,-0.02087671074680984,0.011696867534518242
1772797793713221600,2.0862216796875,0.053882981356978416,-0.030157530115544794,0.01223820786960423
1772797793723247600,2.09624755859375,0.05327274050414562,-0.023610282162856308,0.00566237314324826
1772797793733273600,2.106273681640625,0.05027765034139156,-0.0070152307906188064,0.009101846072636545
1772797793743299600,2.116299560546875,0.0477314729899168,0.006628733957372605,0.003979790351167321
1772797793753326300,2.126326416015625,0.03305354381799697,0.01408593636183068,0.005760134429298341
1772797793763352300,2.136352294921875,0.03915887495577335,-0.007334471073932945,-0.0042681788384914396
1772797793773378300,2.14637841796875,0.06170563780665397,-0.002664871827699244,-0.0007476400295272469
1772797793783405600,2.156405517578125,0.052523383441567414,-0.019448668971378355,0.029023301921226083
1772797793793431600,2.166431640625,0.03931494230031967,-0.01223565058633685,0.04188201630935073
1772797793803457500,2.17645751953125,0.05231587817072868,-0.009540420152992009,0.022068477814644574
1772797793813485000,2.186485107421875,0.038107904598116873,-0.009946334072761237,0.013339885501191018
1772797793823511000,2.196510986328125,0.029451135411858557,0.006896207520831376,0.002180120518058538
1772797793833537000,2.206537109375,0.040543022790551185,0.008226451477594673,0.019262699678912757
1772797793843563000,2.21656298828125,0.03053717708289623,-0.002008490278199315,0.019377777425944803
1772797793853590300,2.22659033203125,0.020540099203586577,-0.018047113344073294,0.00009622691608965396
1772797793863616300,2.2366162109375,0.04151216008365154,-0.02886902467496693,0.003327938846312463
1772797793873642200,2.246642333984375,0.035703181543946264,-0.021813078281469642,0.02038384919594973
1772797793883669200,2.256669189453125,0.04832651627361774,-0.002432871436420828,0.023301453675702213
1772797793893695200,2.2666953125,0.056463060978054994,0.0031052908052690326,0.02091865019239485
1772797793903721200,2.27672119140625,0.07549976988136768,0.0038739188238978385,0.005988463292457163
1772797793913748200,2.286748291015625,0.053370940181612966,0.012564846008084714,-0.016438436038419605
1772797793923774200,2.296774169921875,0.041377135527133936,0.03489381965612993,-0.05153510305657982
1772797793933800200,2.30680029296875,0.04624795643389225,0.0005390387801453471,0.015971877972595392
1772797793943826200,2.316826171875,0.039601942548155786,-0.021233579626772553,0.01371726744621992
1772797793953853200,2.326853271484375,0.04826514147520065,-0.026297365822363642,0.007222900458239019
1772797793963879200,2.336879150390625,0.04919336223602295,-0.011229122158605605,0.024850655879080294
1772797793973905200,2.3469052734375,0.048050621941685676,-0.011628368875570595,0.035226284747198224
1772797793983932200,2.35693212890625,0.042433951103687285,-0.004867880031000822,0.01950502053480595
1772797793993958100,2.366958251953125,0.03424596847295761,-0.01663114559892565,0.019630802338942883
1772797794003984100,2.376984130859375,0.028868367087841032,-0.004027903809212148,0.03296513488218188
1772797794014011100,2.38701123046875,0.035141456007957456,-0.0023858904895372687,0.0018507059006020426
1772797794024037000,2.397037109375,0.07806465193331241,0.012413710566982625,-0.003937266383692622
1772797794034063000,2.40706298828125,0.058005029723048204,-0.020553762402758,0.012395188529603182
1772797794044089000,2.417089111328125,0.04679974509775638,-0.01738501443983987,0.011975355682335794
1772797794054116400,2.427116455078125,0.049833998227119446,-0.019865889736451207,0.012444544096663594
1772797794064142300,2.437142333984375,0.04868716627955436,-0.006358136855065822,0.0039590032914653414
1772797794074168300,2.447168212890625,0.03674246146380901,0.0037084443301893767,-0.012065116325020789
1772797794084195000,2.457195068359375,0.0246259072124958,0.005353343726694584,0.005152231664024293
1772797794094221000,2.467220947265625,0.03988192853331566,-0.00062229661680758,0.027837672333233057
1772797794104247000,2.4772470703125,0.027315292426943777,0.014410090282279997,0.036408918660506606
1772797794114274300,2.4872744140625,0.0382417601108551,0.00846245219055563,0.012201346457935868
1772797794124300300,2.49730029296875,0.06444587642550469,0.01266392246838659,-0.00633793431725353
1772797794134326300,2.507326171875,0.04217676147222519,0.006833736743871122,0.002472235332429409
1772797794144352300,2.517352294921875,0.021691022804379463,-0.0065802186405286185,0.019215024612285195
1772797794154379000,2.52737890625,0.03305763547122478,-0.015933957115001975,0.044299160453677176
1772797794164405000,2.537405029296875,0.04951484927535057,-0.011247187538258731,0.0233439045779407
1772797794174431000,2.547430908203125,0.06613222207725047,0.0010738580428995192,-0.019854455026984213
1772797794184458200,2.557458251953125,0.07795768442749977,-0.01145882099494338,-0.03607786007523536
1772797794194484200,2.567484130859375,0.06791384479701519,-0.02089861205136403,-0.024615531948953866
1772797794204510200,2.57751025390625,0.035115737044811246,-0.03750876966118812,0.018096797704696653
1772797794214537200,2.587537109375,0.018635726886987686,-0.031368568139430134,0.04685805115625262
1772797794224563200,2.597563232421875,0.018780688315629956,-0.02633358791321516,0.0404627971611917
1772797794234589200,2.607589111328125,0.039589083066582674,-0.010800046558957546,0.026782244996167718
1772797794244615200,2.617615234375,0.03633563422858715,0.015922431073989718,0.029601174874417484
1772797794254642200,2.62764208984375,0.029966099196672438,0.0002988002834841609,0.03816109609007835
1772797794264668200,2.637668212890625,0.041402854490280146,-0.01590800068983808,0.01434402104243636
1772797794274694100,2.647694091796875,0.054146600729227064,-0.002414239801187068,-0.01923241413850337
1772797794284721200,2.65772119140625,0.05218962144255638,-0.009345938760507851,-0.0344970571571961
1772797794294747100,2.6677470703125,0.03763970256447792,0.004225746202562004,-0.026098902374505996
1772797794304773000,2.677773193359375,0.029530630388855932,0.02112697744714096,0.012775273888371885
1772797794314800400,2.68780029296875,0.031904373782873155,-0.0010027107691392301,0.027010281598381695
1772797794324826400,2.697826416015625,0.03594166647493839,-0.003954308850038796,0.02382799830045551
1772797794334852000,2.70785205078125,0.04343815971016884,0.007885620416980236,0.014957695961371063
1772797794344878000,2.717878173828125,0.042863574692606925,0.0021794994635507465,0.0018413535503670573
1772797794354905000,2.727905029296875,0.055587447187304496,-0.007631773520074784,0.005787680023349821
1772797794364931000,2.73793115234375,0.04583820658922195,-0.018118936471268533,0.014031959418579935
1772797794374957000,2.74795703125,0.047754853865504265,-0.011637173236533998,0.015535276653617619
1772797794384984300,2.757984375,0.04444704449176788,0.0019927447197958825,0.014372224223613738
1772797794395010300,2.76801025390625,0.04189619096517563,0.007927724259346723,0.002752257850207388
1772797794405036300,2.778036376953125,0.04938917706906795,0.008014142167475074,0.004373063985072076
1772797794415062300,2.788062255859375,0.04311082745194435,-0.013147157674375921,0.022194771075434983
1772797794425089000,2.798089111328125,0.048210196417570114,-0.021366722753457724,0.031146943011693656
1772797794435115000,2.808114990234375,0.051960488861799235,-0.017121522931754587,0.024962189962156114
1772797794445141000,2.81814111328125,0.061249710732698436,-0.016138210982829332,0.002743709217570722
1772797794455168300,2.828168212890625,0.0694774408519268,-0.006972578958980739,-0.01616648722924292
1772797794465194200,2.8381943359375,0.06348258435130119,0.0020940862024202943,-0.013734510841965674
1772797794475220200,2.84822021484375,0.042807460591197014,-0.011771631537470966,0.0051739320391789075
1772797794485247200,2.858247314453125,0.037977556216716765,-0.0117900805096142,0.031422216289117934
1772797794495273200,2.868273193359375,0.04406827430725097,-0.01191268397597596,0.02665763223581016
1772797794505299200,2.87829931640625,0.05570201347768306,-0.009120148914307355,0.011587854202091694
1772797794515325200,2.8883251953125,0.06870470291376113,-0.011053400265518576,0.008238872567750513
1772797794525352200,2.898352294921875,0.05807575687170028,-0.008983626520447433,0.010419066151045262
1772797794535378200,2.908378173828125,0.03740238667726516,-0.007878259094431996,0.02175776789765805
1772797794545404200,2.918404052734375,0.02824117510020733,-0.016046696774475275,0.026821663691103458
1772797794555431200,2.92843115234375,0.028051790007948874,-0.011542882549203931,0.02424859833270311
1772797794565457200,2.93845703125,0.04732289218902588,-0.010412143219914287,0.026052396351657806
1772797794575483100,2.948483154296875,0.05388765753209591,-0.0043949104906991126,0.02444718964472413
1772797794585510100,2.95851025390625,0.03877367503046989,-0.002521700497344136,0.030823227482661603
1772797794595536100,2.9685361328125,0.041644846552610394,-0.005485865798871964,0.019681363482400772
1772797794605562000,2.97856201171875,0.03390343864560127,-0.011615052736271171,0.02001961899343878
1772797794615588000,2.988588134765625,0.04052139548063278,0.004836662908829749,0.01581234002932906
1772797794625615000,2.998614990234375,0.038158758002519604,0.004792421908304095,-0.000502104303240776
1772797794635641000,3.00864111328125,0.0405640655785799,0.0134568812106736,0.0027930282520130276
1772797794645667000,3.0186669921875,0.06569675326943397,-0.003757562435232103,0.005723309550248086
1772797794655694300,3.0286943359375,0.044887189474701876,0.004700651971623301,0.01146678510569036
1772797794665720300,3.03872021484375,0.03919862244427204,-0.005402023440320044,-0.009698277595825493
1772797794675746300,3.048746337890625,0.05745850175619125,-0.0050860345600172874,-0.007950666743516922
1772797794685772300,3.058772216796875,0.060902504730224606,-0.015566164982225746,-0.012980221875943243
1772797794695799000,3.068799072265625,0.050122752040624614,-0.013947459472902119,0.006559212385118007
1772797794705825000,3.078824951171875,0.02602642166018486,-0.009450805640779434,0.011181574956141412
1772797794715851000,3.08885107421875,0.0361807359278202,-0.015020678194984793,0.023076887672208248
1772797794725878300,3.098878173828125,0.05756020856499672,-0.01384918673019856,0.021776289935037493
1772797794735904300,3.108904296875,0.05680617532730102,-0.014255064117349683,0.013142426700331269
1772797794745930200,3.11893017578125,0.05021569102108478,-0.006411803271062672,0.01886405575014651
1772797794755957200,3.128957275390625,0.03855097219049931,-0.004229289866518229,0.023624950009025633
1772797794765983200,3.138983154296875,0.0421498734652996,0.0004161613191477954,0.019224559625610708
1772797794776009000,3.149009033203125,0.0601052168726921,-0.01314290162436664,0.006877484554052352
1772797794786035000,3.159034912109375,0.0421282461553812,-0.005586056504026055,-0.0020687325654551387
1772797794796062200,3.169062255859375,0.022808628657460212,-0.0027320553123950956,0.008433372226543724
1772797794806088200,3.179088134765625,0.02623509597480297,0.003366078899614513,-0.0050778147209435695
1772797794816114400,3.189114501953125,0.059575640040636056,-0.003617989567760378,0.0092088866436854
1772797794826141400,3.199141357421875,0.044887773996591565,-0.014683299466781317,0.03062547642085701
1772797794836167400,3.20916748046875,0.03636135319173336,-0.011560746999457477,0.0535709927983582
1772797794846193400,3.219193359375,0.04432955559194088,-0.009990849067922681,-0.0007862915394827723
1772797794856219600,3.2292197265625,0.05648176567852497,-0.006311557766981423,-0.0021730331901460885
1772797794866246400,3.239246337890625,0.05245850151181221,-0.008138115607015788,0.0016594211122021077
1772797794876272400,3.2492724609375,0.030609657797217367,-0.01146442875182256,0.01072824169807136
1772797794886298400,3.25929833984375,0.029110943672060966,-0.00977298679985106,0.035332485068030654
1772797794896325400,3.269325439453125,0.04959785138368606,-0.015053155692480504,0.023656441125832497
1772797794906351400,3.279351318359375,0.05289923101663589,0.015638481299765406,0.011227715652808546
1772797794916377300,3.28937744140625,0.03407821069061756,-0.002464417352154851,-0.0028042802983894942
1772797794926404400,3.299404296875,0.043542789128422736,-0.00392402330962941,0.011253251952864229
1772797794936430300,3.309430419921875,0.03593932838737964,-0.027014318452682345,0.027240144831500945
1772797794946456300,3.319456298828125,0.04404021725654602,-0.01348004289055243,0.027864962198957798
1772797794956482300,3.329482421875,0.0261117618560791,0.006295519947633147,0.0016435294233262537
1772797794966509300,3.33950927734375,0.03391279099583626,0.007689549855608492,0.017441292938031254
1772797794976535300,3.349535400390625,0.04694236843883991,0.009571929536107927,0.007638422456569969
1772797794986561300,3.359561279296875,0.050692076361179346,-0.0006985036581754684,0.007713606584630906
1772797794996588500,3.369588623046875,0.05549041655361652,-0.012200579272955656,0.012956073815375566
1772797795006614500,3.379614501953125,0.045774493703246114,-0.011411748716514557,0.0020494798757135866
1772797795016640500,3.389640625,0.04099193560183048,-0.006943772989604621,0.0009727905549108981
1772797795026666500,3.39966650390625,0.04189560644328594,-0.010760810527112334,0.005560410606116056
1772797795036693200,3.409693359375,0.03741349259316921,-0.015434391828719526,0.01915982382632792
1772797795046719200,3.41971923828125,0.016489947029948233,-0.012756496122665703,0.04434153829067945
1772797795056745500,3.429745361328125,0.03956979384422302,-0.0005685206029564142,0.014041786692850292
1772797795066772500,3.4397724609375,0.08657704421281814,-0.0038429391637444495,-0.008902414510399102
1772797795076798500,3.449798583984375,0.04767302080094814,-0.019493037836067376,-0.008025522078014909
1772797795086824400,3.459824462890625,0.01009177042543888,-0.020291312074288723,0.012272877324186264
1772797795096850400,3.469850341796875,0.03191606422066688,-0.020610680221766233,0.03385357162188738
1772797795106877400,3.47987744140625,0.06705810475051403,-0.01684650538265705,0.02335712938569486
1772797795116903400,3.4899033203125,0.058682490593194955,-0.010167429477535187,0.01174256983976811
1772797795126929400,3.499929443359375,0.0398497798293829,0.005296791233867407,0.016783961540460586
1772797795136956400,3.509956298828125,0.038545711493492125,0.01018122054086998,0.02044204565659165
1772797795146982400,3.519982421875,0.052499418044090265,0.0010293978466652334,0.007643792751431465
1772797795157008400,3.53000830078125,0.04081950164437294,-0.014693236338905988,-0.007665748854912817
1772797795167034400,3.540034423828125,0.022362638455629347,0.00499747949372977,-0.0006694236941635609
1772797795177061400,3.550061279296875,0.03547814061641693,-0.010485774711705744,0.024872538917325434
1772797795187087400,3.56008740234375,0.0459188706099987,-0.0070156691820360715,0.02139207639042288
1772797795197113600,3.570113525390625,0.06282324365973473,-0.007798672785889357,0.02341558157466352
1772797795207140400,3.580140380859375,0.06942015770673751,-0.014647442702110856,0.016135653699561953
1772797795217166300,3.590166259765625,0.04282265816032886,-0.011880900598224251,0.01593392058238387
1772797795227192300,3.6001923828125,0.056769934970140455,-0.008422284576948732,-0.007475925371237099
1772797795237219300,3.61021923828125,0.048829789620637894,-0.01901307229939848,-0.0203883427079767
1772797795247245300,3.620245361328125,0.039356443354487416,-0.0072996920214965936,-0.007462627498246729
1772797795257271600,3.630271484375,0.035865094107389445,0.0004965513452887535,0.015260368702374398
1772797795267297500,3.640297607421875,0.03164718415141105,-0.005416015433054417,0.019127528991922736
1772797795277324500,3.650324462890625,0.062461424610018725,-0.009865596986748278,0.012713460698537528
1772797795287350500,3.6603505859375,0.057522799164056775,-0.00823850724156946,0.009354140333272516
1772797795297376500,3.67037646484375,0.04048164799213409,0.003900204042624682,0.010988828863017261
1772797795307403300,3.6804033203125,0.03539689207375049,-0.010089578468352556,0.013564232308976352
1772797795317429200,3.69042919921875,0.03029284693300724,-0.00119976771119982,0.013826134648174046
1772797795327455500,3.70045556640625,0.041785716328024865,-0.00521830090386793,0.026430107090249656
1772797795337481500,3.7104814453125,0.047754853865504265,-0.007301445587165653,0.024515944031998513
1772797795347508500,3.720508544921875,0.029362872606515884,-0.005881733248662203,0.027012838881649074
1772797795357534500,3.730534423828125,0.03658113342225552,-0.014917309152055531,0.028656222174502907
1772797795367560400,3.740560546875,0.06296002178192138,-0.01647124232947826,0.009724909874424337
1772797795377587200,3.750587158203125,0.06269172623455524,-0.01630724740680307,-0.0025485154390335082
1772797795387613200,3.76061328125,0.045351884377002716,-0.009100786626711488,0.006970861925929784
1772797795397639400,3.770639404296875,0.037426936596632,-0.003811374981701374,0.02314717642944306
1772797795407665400,3.78066552734375,0.042374914392828936,-0.0026887276273220777,0.023114443203620612
1772797795417692400,3.7906923828125,0.038350481182336804,-0.0029371128978207704,0.0018167305657640098
1772797795427718400,3.800718505859375,0.06798574098944664,-0.00031938641378656025,-0.013183781624026596
1772797795437744400,3.810744384765625,0.06096095691919327,-0.017229915209673343,-0.007106032612919807
1772797795447771400,3.820771484375,0.03641805181503296,-0.022845307406038046,0.01060220416560769
1772797795457797600,3.830797607421875,0.032812136277556414,-0.014970281448308377,0.027472236554324625
1772797795467823600,3.84082373046875,0.033412440258264536,-0.010009900828264653,0.04057345446143299
1772797795477849600,3.850849609375,0.05840425817370414,0.018322569284588096,-0.00878499867580831
1772797795487876400,3.86087646484375,0.06424012472033501,0.0055438247974961994,0.03412595882248133
1772797795497902300,3.87090234375,0.018471476235985756,-0.0214826772833243,0.01313891956899315
1772797795507928300,3.88092822265625,0.055008770516514774,-0.027342399629577994,0.01910250414852053
1772797795517955300,3.890955322265625,0.06279752469658852,-0.034015922576747834,0.018323701795749364
1772797795527981600,3.900981689453125,0.047535658156871795,-0.023462434657383707,0.025779570759646594
1772797795538007600,3.911007568359375,0.04365151019990444,-0.012506686080060898,0.028046419713087377
1772797795548033500,3.921033447265625,0.048155251359939574,0.00551722905151546,0.00957234966121614
1772797795558060300,3.931060302734375,0.06131926883757114,-0.0010692914656363426,-0.007735526155494153
1772797795568086300,3.941086181640625,0.0571118802756071,-0.004539159533288329,-0.015483619531616567
1772797795578112300,3.9511123046875,0.040168344259262086,-0.020766711033694443,-0.0018277999490499495
1772797795588139300,3.96113916015625,0.029344167906045913,-0.014923172637261449,0.01954495068639517
1772797795598165500,3.97116552734375,0.04306465022265911,-0.020214757973048836,0.0198617980832234
1772797795608191500,3.98119140625,0.03092880674898624,-0.00020264643263071775,0.02707045082040131
1772797795618217500,3.991217529296875,0.032892800298333164,0.001910400198586285,0.035401970107667144
1772797795628244500,4.001244384765625,0.03667173431515693,0.004273476068116724,0.04415134948082268
1772797795638270500,4.0112705078125,0.04884148005843162,0.014469948977045713,0.02601695971209556
1772797795648296400,4.02129638671875,0.05529577076435089,-0.012615261021070181,-0.0020601839328184724
1772797795658323500,4.031323486328125,0.03914776903986931,-0.01422364606577903,-0.015962708285450933
1772797795668349400,4.041349365234375,0.03434416815042496,0.006330225934833288,-0.012531637858226894
1772797795678375400,4.05137548828125,0.04583528397977352,0.0020130568554624913,0.004760675063170492
1772797795688401400,4.0614013671875,0.0419277551472187,-0.0032637145036831495,0.020840543454885483
1772797795698428400,4.071428466796875,0.04251519964635372,0.009015446430817246,0.01895144177265465
1772797795708454400,4.081454345703125,0.046097734308242794,0.011668426891323178,0.016683496840670702
1772797795718480400,4.09148046875,0.05072890124022961,0.0026102555636316536,0.020720935663208363
1772797795728507400,4.10150732421875,0.04966331783533096,-0.006863163767755031,0.01872384356185794
1772797795738533400,4.111533447265625,0.049038463935256,-0.025442192031443118,0.010894501643069088
1772797795748559400,4.121559326171875,0.047206572332978244,-0.018601568889059124,0.010311733319051563
1772797795758585300,4.13158544921875,0.0531821396112442,-0.015458503356669097,0.013537380834668874
1772797795768612400,4.1416123046875,0.05154723188579082,-0.015758527482859788,-0.003363704279437661
1772797795778638300,4.151638427734375,0.047075054907798765,-0.006346610814053565,0.004524601284973323
1772797795788664300,4.161664306640625,0.056201195171475406,-0.018734291890636086,0.014501732354797422
1772797795798690300,4.171690185546875,0.04016951330304146,-0.007874003044422715,0.02239639459475875
1772797795808717600,4.181717529296875,0.045533086162805554,-0.003339556218869984,0.02627235924527049
1772797795818742500,4.191742431640625,0.040130350336432453,-0.011818137560319155,0.016150120616331694
1772797795828768500,4.2017685546875,0.0393745635330677,0.0034882805071771144,0.01576656465884298
1772797795838795500,4.21179541015625,0.049558688417077064,0.0058905741422437125,0.015341142321005462
1772797795848821500,4.221821533203125,0.049282209563255304,-0.013658486463688313,0.015628544427640736
1772797795858847500,4.231847412109375,0.050504444834589955,-0.01437898275796324,0.014084968247450888
1772797795868873500,4.24187353515625,0.03480243331193924,-0.013069087469484656,0.00440758730918169
1772797795878900500,4.251900390625,0.05605389565527439,-0.008772504520416259,0.009934789765439926
1772797795888926500,4.261926513671875,0.04709025247693061,-0.007698390749190002,0.02030007990263402
1772797795898952400,4.271952392578125,0.0400759898006916,0.0009517295005731284,0.010534509224258363
1772797795908979500,4.2819794921875,0.04368716603517532,-0.016204956076107918,0.0051586248721927404
1772797795919005400,4.29200537109375,0.04311667267084122,0.00015535495849326253,0.022158494185656307
1772797795929031400,4.302031494140625,0.03879647138416767,0.010638736783713102,0.027008856826275584
1772797795939057400,4.312057373046875,0.029672084686160085,-0.00015802183961495755,0.03518748710677028
1772797795949084400,4.32208447265625,0.042075639185309405,-0.003072721976228058,0.033636787066049875
1772797795959110400,4.3321103515625,0.0523673160970211,-0.012583094050828367,0.03821819657217711
1772797795969136400,4.342136474609375,0.06640753188729286,-0.017618549201078713,0.04436926654782146
1772797795979163400,4.352163330078125,0.05099719678759575,-0.01846703752288595,0.03188007959183305
1772797795989189400,4.362189453125,0.050123336562514303,-0.016723792318440973,0.021679113170877097
1772797795999215400,4.37221533203125,0.05329787494540214,-0.02353690639939159,0.011026493992283939
1772797796009241300,4.382241455078125,0.0415051458209753,-0.012134893625602125,0.022590127068571744
1772797796019268600,4.3922685546875,0.022221184158325195,-0.002197948435693979,0.012951689901202917
1772797796029294600,4.402294677734375,0.026559505623579022,0.00882010652180761,0.01821194851696491
1772797796039320600,4.412320556640625,0.039410219368338585,0.012855243789404629,0.016690109244547783
1772797796049347300,4.422347412109375,0.03162380327582359,0.01365103380959481,0.012943104735948145
1772797796059373300,4.432373291015625,0.024310849913954734,0.00545289511103183,0.014306684706732629
1772797796069399300,4.4423994140625,0.05065408243834972,-0.025068317217752337,0.006247296891734004
1772797796079425300,4.45242529296875,0.06773088944554329,-0.032252328704018146,0.006822576029039919
1772797796089452500,4.46245263671875,0.04649988536834716,-0.012922683002427219,0.006073913086205721
1772797796099478500,4.472478515625,0.029019173735380172,0.0069862238918431095,0.00965363473650068
1772797796109504500,4.48250439453125,0.029204467174410817,0.006350885130371898,-0.024440029251575467
1772797796119530500,4.492530517578125,0.0808230107307434,0.012855700447130948,0.006087320557050407
1772797796129557200,4.50255712890625,0.03830956465005875,-0.011261015134211629,-0.000037957390211522575
1772797796139583200,4.512583251953125,0.039950317594408986,-0.008250727402325719,0.003076411770656705
1772797796149609200,4.522609130859375,0.044425417181849475,-0.012752605398837475,-0.009881817469187081
1772797796159636500,4.532636474609375,0.05488309831023216,-0.009593940438516437,-0.0027687340609729287
1772797796169662500,4.542662353515625,0.056369537475705146,-0.02238667691834271,0.004074592495150864
1772797796179688400,4.5526884765625,0.03750175539851188,-0.0423128637409769,0.016858561146631836
1772797796189714400,4.56271435546875,0.04048047894835472,-0.02307893349882215,0.024013364804722367
1772797796199741400,4.572741455078125,0.04287000443339348,-0.00494246137086302,0.029463154643215236
1772797796209767400,4.582767333984375,0.036894437155127524,-0.010321469261776656,0.033594153500720855
1772797796219793400,4.59279345703125,0.06251169349253177,0.006782444948051124,0.059988860484026366
1772797796229820400,4.6028203125,0.03517477375566959,0.030316903662029653,0.04039948613401502
1772797796239846400,4.612846435546875,0.04389993200302124,0.0055310018485412,-0.006414250956475734
1772797796249872400,4.622872314453125,0.040485739645361896,-0.019215097677521407,-0.006353204951621592
1772797796259898400,4.6328984375,0.03450140453875065,-0.011985584815405308,0.013206249184161424
1772797796269925400,4.64292529296875,0.028508301603794098,-0.03512357329139486,0.03525098079703748
1772797796279951400,4.652951416015625,0.04318038555681705,-0.03593892652858049,0.03610664777830243
1772797796289977300,4.662977294921875,0.04873158994317055,-0.006880900353845209,0.006591543752141296
1772797796300003600,4.673003662109375,0.06132803666591644,0.018736922239139676,0.006117861825786531
1772797796310030300,4.6830302734375,0.03323649916946888,0.012712583915702997,0.021409356318786738
1772797796320056300,4.693056396484375,0.024416648375988004,-0.012267287833616136,0.03993464510124176
1772797796330082300,4.703082275390625,0.06269055719077586,-0.02905570635348558,0.0346988633396104
1772797796340109300,4.713109375,0.061302902224659915,-0.011306699173152445,0.013541582085750997
1772797796350135300,4.72313525390625,0.05065642052590847,0.01592372798193246,0.012223887083306908
1772797796360161300,4.733161376953125,0.050368835756182666,0.017255579373892396,-0.010651121341250836
1772797796370187500,4.7431875,0.060250178301334376,-0.010728972350433469,-0.02020184369254857
1772797796380214500,4.753214599609375,0.04287584965229034,-0.0377465787387453,0.0013125439032912255
1772797796390240500,4.763240478515625,0.028938509714603423,-0.04463546146964654,0.002802490200102329
1772797796400266500,4.7732666015625,0.03490764725208282,-0.033658816234767436,0.016050130840577184
1772797796410293200,4.783293212890625,0.04342062405347824,-0.024623587391246107,-0.0008773308238014579
1772797796420319200,4.7933193359375,0.05583411542475223,-0.0068293345633894205,0.012794855371676385
1772797796430345200,4.80334521484375,0.029359365475177764,0.0007469824424013495,0.047643502445518966
1772797796440371500,4.813371337890625,0.02533493226468563,0.009699428373295814,0.0608612594043836
1772797796450398500,4.8233984375,0.03867138369977474,-0.0044336715985089535,0.048766588191315526
1772797796460424400,4.833424560546875,0.0534872600376606,-0.0060987552665174,0.03698006961196661
1772797796470450400,4.843450439453125,0.04197451689839363,-0.010031783866509795,0.03946731985043734
1772797796480476400,4.853476318359375,0.03796177412569523,-0.002625836725253612,0.02544895056579262
1772797796490503400,4.86350341796875,0.046835400933027266,0.012476948528923093,0.0048177390126511455
1772797796500529400,4.873529296875,0.04626081591546535,0.019468670579791066,-0.000772153416275978
1772797796510555400,4.883555419921875,0.025773908203840255,0.021759302267618477,-0.01631926663815975
1772797796520582400,4.89358251953125,0.01799509089589119,0.005971676554437726,-0.007300824532657861
1772797796530608400,4.9036083984375,0.03366846084594726,-0.025045831391308455,-0.007469459097832441
1772797796540634400,4.91363427734375,0.04542378056943416,-0.038064138521626587,0.007297974988445639
1772797796550660400,4.923660400390625,0.04941021985709667,-0.03246204419825226,0.03471398784350604
1772797796560687400,4.933687255859375,0.05897065988481044,-0.014872026971913874,0.0384220120485872
1772797796570713600,4.943713623046875,0.06182721835970878,0.002107566738501191,0.03320953809730708
1772797796580739600,4.953739501953125,0.05991290917098522,-0.0070576268939301365,0.018656842740252613
1772797796590765600,4.963765625,0.044354105511307716,-0.010744937104545533,0.032510486449860036
1772797796600792300,4.973792236328125,0.0281768776923418,-0.016704338699299843,0.03142762311659753
1772797796610818300,4.983818359375,0.05672141965329647,-0.020748262061551212,0.010670374030992387
1772797796620844300,4.99384423828125,0.06386603071093559,-0.023534897105395792,-0.01512921660337597
1772797796630871300,5.003871337890625,0.052016602963209146,-0.006197557732183486,-0.005611519738845527
1772797796640897500,5.0138974609375,0.02687690100967884,0.008249686222709714,0.01130315550919622
1772797796650923500,5.023923583984375,0.017157471027970314,0.005092500833421945,0.030911892146803437
1772797796660949500,5.033949462890625,0.037649054914712904,-0.0057487179861404,0.04481978679429739
1772797796670976500,5.0439765625,0.029107436540722845,0.006442673333361745,0.03944229500703513
1772797796681002500,5.05400244140625,0.03553074758648872,-0.0031801096071489153,0.021032778091356157
1772797796691028500,5.064028564453125,0.03972469214498996,-0.02188658190909773,0.008196239002421498
1772797796701054200,5.07405419921875,0.07144903318583964,-0.023669191009551286,-0.009375767643190919
1772797796711081500,5.08408154296875,0.057687049815058705,-0.03298126403307542,0.003705649584904313
1772797796721107500,5.094107421875,0.02208674412369728,-0.018873846491798758,0.025696678249165415
1772797796731133400,5.104133544921875,0.03003916443288326,-0.00796341662723571,0.04255757748335599
1772797796741160400,5.114160400390625,0.043377953955531116,0.0013795629912056028,0.03191500477474183
1772797796751186400,5.1241865234375,0.05940963582396507,0.0062401182322762904,0.021530352349951862
1772797796761212400,5.13421240234375,0.048510640668869016,0.00021282076677307484,-0.0010078618682920933
1772797796771238400,5.14423828125,0.05989888064563274,-0.007999218592979014,-0.0022241788554936645
1772797796781265400,5.154265380859375,0.05376724602282047,-0.009666275022365152,0.011613317436911165
1772797796791291400,5.16429150390625,0.04163081802725792,-0.004860226447507739,0.03163837979044765
1772797796801317400,5.1743173828125,0.03190320473909378,-0.0013836729107424616,0.030379648433625697
1772797796811344400,5.184344482421875,0.049121466043591494,-0.0023327537965029477,0.022292897687666118
1772797796821371600,5.19437158203125,0.05422726475000381,0.002853215740341693,-0.0000703252898529172
1772797796831398000,5.20439794921875,0.037628596648573875,-0.011983173662610352,-0.0030638810826465485
1772797796841424000,5.214423828125,0.03956979384422302,-0.02611539685158059,0.02278418833594769
1772797796851450600,5.22445068359375,0.040298108118772505,-0.01640789476968348,0.02383881195541471
1772797796861476600,5.2344765625,0.04940788176953792,-0.005950944293662905,0.021204919787868856
1772797796871502600,5.244502685546875,0.060765142086148256,0.014667334712669252,0.021222601575031877
1772797796881528600,5.254528564453125,0.042512277036905285,0.01585062621310353,0.01978098793197423
1772797796891555600,5.2645556640625,0.02008767926096916,-0.0019231500823050736,0.022541465621255335
1772797796901581800,5.274581787109375,0.03730827865302563,-0.03054667556360364,0.01845131023079157
1772797796911607800,5.28460791015625,0.05795066918730735,-0.03361044704839587,0.013087591240555047
1772797796921633800,5.2946337890625,0.06153554193675518,-0.034130561932362614,0.005658171892166137
1772797796931660500,5.30466064453125,0.04403904821276664,-0.016473543884418903,0.00396506770607084
1772797796941686500,5.3146865234375,0.025203999361395835,-0.007210022710356861,0.0007756240149959921
1772797796951712500,5.32471240234375,0.038080432069301604,0.01206506152609363,0.015653715401515365
1772797796961739800,5.33473974609375,0.035839959666132924,0.018147979902662335,0.02724018136411905
1772797796971765800,5.344765869140625,0.03852291513979435,-0.0027625600485131144,0.03250018425155431
1772797796981791700,5.354791748046875,0.047933717563748354,-0.017734686394035814,0.03694371965695172
1772797796991817700,5.364817626953125,0.04539396995306015,-0.0018777217716909945,0.02469900898132473
1772797797001844700,5.3748447265625,0.059331309890747065,-0.01574585066437721,0.033959918073192236
1772797797011870700,5.38487060546875,0.0541407555103302,-0.011146211381815374,0.021210801539383827
1772797797021896700,5.394896728515625,0.06420739149451256,0.0017865911558270454,-0.029793592173978686
1772797797031922700,5.404922607421875,0.06318740079700946,-0.012076624099723994,0.02716455884464085
1772797797041949700,5.41494970703125,-0.014900632011890411,-0.017865966357197612,-0.02505037970226258
1772797797051975700,5.4249755859375,0.05437982496321201,-0.0081037749459967,-0.02072415053360164
1772797797062001700,5.435001708984375,0.06540858397781849,-0.02377634117845446,0.01418598093651235
1772797797072028700,5.445028564453125,0.027820319339632988,0.00487670265827328,0.036095834123343225
1772797797082054700,5.4550546875,0.033957799181342126,0.005700257468223571,0.02631988818142563
1772797797092080600,5.46508056640625,0.06687690296471119,-0.00222090918617323,0.024860592751204967
1772797797102106600,5.475106689453125,0.06088263098597526,0.0016036723369732499,0.028259587539732456
1772797797112133600,5.485133544921875,0.0373790058016777,-0.012616941521503031,0.023532339822128413
1772797797122159600,5.49515966796875,0.042593525579571724,-0.029303835895657538,0.025475948170572516
1772797797132185600,5.505185546875,0.06454758323431015,-0.02730100817326456,0.018573804099299013
1772797797142211600,5.515211669921875,0.05986673194169998,-0.017546269416157154,0.01770710426736623
1772797797152238600,5.525238525390625,0.02244096438884735,0.00260017256103456,0.026822284745611248
1772797797162264600,5.5352646484375,0.017064532047510145,0.01514331819396466,0.025307569333724675
1772797797172290600,5.54529052734375,0.02860533223748207,0.007787201543804257,0.012019231356680392
1772797797182317800,5.55531787109375,0.03594692717194557,-0.020473116648290306,-0.002214789972640574
1772797797192343800,5.56534375,0.03744154964387417,-0.027387097287829964,-0.006370484879985452
1772797797202369800,5.575369873046875,0.046110009267926216,-0.027361542721465227,-0.009645013038627803
1772797797212395800,5.585395751953125,0.03054769847691059,-0.027530414748657493,0.01692165297809988
1772797797222422500,5.595422607421875,0.03745791625678539,-0.008938691400177777,0.04341072371397167
1772797797232448500,5.605448486328125,0.05426525867283344,0.009606270197127014,0.03382832758277655
1772797797242474500,5.615474609375,0.045779754400253295,0.02700538622755557,0.03764036015160382
1772797797252500700,5.625500732421875,0.023965981999039647,0.034967067555431275,0.023331191226840017
1772797797262527700,5.63552783203125,0.017990414720773697,0.0034605705163441598,0.005945610531419516
1772797797272553700,5.6455537109375,0.05282791934609413,-0.017058832959085703,-0.0025698870206251737
1772797797282579700,5.655579833984375,0.06026362230479717,-0.03297096183476969,0.001035005603544414
1772797797292605700,5.665605712890625,0.03448503792583942,-0.038231275249458845,0.026833390661515293
1772797797302632400,5.675632568359375,0.03687865506410599,-0.014230185404419898,0.03673073449339717
1772797797312658400,5.685658447265625,0.0674509034603834,-0.0102755294945091,0.0371150576358661
1772797797322684700,5.6956845703125,0.05643266583979129,0.0029973369187675414,0.028117877514101563
1772797797332711700,5.705711669921875,0.03223521317243576,-0.008831285502947867,0.024812004369124768
1772797797342737700,5.715737548828125,0.03493336621522903,-0.035603885887935754,0.030703875419311223
1772797797352763600,5.725763671875,0.05256897614896297,-0.05372627469161525,0.02971274549011141
1772797797362789600,5.73578955078125,0.07110182718336581,-0.03608776041474193,0.011962496200762689
1772797797372816600,5.745816650390625,0.054338323909044264,-0.019892193221487105,0.003900441504642367
1772797797382843000,5.7558427734375,0.059440030962228774,0.005249097900930792,0.013699549126438795
1772797797392868900,5.765868896484375,0.05289513936340808,0.009114906483609228,0.006837408271990716
1772797797402894800,5.775894775390625,0.04678571657240391,0.0012997940195724367,0.003348725906014442
1772797797412921600,5.785921630859375,0.028818682727217673,-0.0011140987217426299,-0.010971183608472346
1772797797422947600,5.795947509765625,0.027724457749724388,-0.0014891060465946793,0.003431801079586148
1772797797432973600,5.8059736328125,0.02871346878707409,-0.004782576367724687,0.005375445960648357
1772797797442999600,5.81599951171875,0.03539689207375049,-0.01156845538187772,0.011137808879651129
1772797797453026800,5.82602685546875,0.027887539356946944,0.0032376484806649385,0.02100567088872194
1772797797463052800,5.836052734375,0.04225391836166382,0.009101517279073596,0.024999855091422794
1772797797473078800,5.846078857421875,0.04766133036315441,-0.014930479160882531,0.025027327620238064
1772797797483105500,5.85610546875,0.03212240044772625,-0.01724701247494668,0.04099434675462544
1772797797493131500,5.866131591796875,0.034082302343845364,-0.010699673190712928,0.022668927925825116
1772797797503157500,5.876157470703125,0.052940147548913956,0.00533664832022041,0.018263897899910807
1772797797513183500,5.88618359375,0.05309972202479839,-0.009002751346025616,0.015378807450272142
1772797797523210800,5.896210693359375,0.04712006309330463,-0.012666260555945335,0.0033426249587908386
1772797797533236700,5.90623681640625,0.04279109397828579,-0.012698500591423361,0.00916493790410459
1772797797543262700,5.9162626953125,0.039669747087359424,-0.008679602072574198,0.017173837640881536
1772797797553288700,5.926288818359375,0.04103168309032917,-0.010589162020944058,0.033463512858375906
1772797797563315700,5.936315673828125,0.029086978274583813,-0.014835329957026987,0.040375191942974925
1772797797573341700,5.946341796875,0.0407949517250061,-0.007207739421725273,0.014317096502892672
1772797797583367700,5.95636767578125,0.06401742188036441,0.00983732074033469,-0.009395166463404893
1772797797593393700,5.9663935546875,0.04876490769088268,0.00956445861570537,0.02015869867056608
1772797797603420700,5.976420654296875,0.0212362647742033,0.011720431073196232,0.025037410622835158
1772797797613446700,5.98644677734375,0.039625907945632935,-0.0022331476132385433,0.010650792547687887
1772797797623472600,5.99647265625,0.08163958781063556,-0.015620434186421334,-0.00024217472542077301
1772797797633499600,6.006499755859375,0.062163902968168254,-0.01200260901544243,-0.0004617722928524017
1772797797643525600,6.016525634765625,0.03405073816180229,-0.0015398133205249906,0.035848690961860115
1772797797653551600,6.026551513671875,0.034840427234768864,-0.017053170403279364,0.019357465290278195
1772797797663577600,6.03657763671875,0.07752747631669044,-0.016928831637557595,0.007942848763242364
1772797797673604600,6.0466044921875,0.05075754281282425,-0.0044301462008617815,0.008276172370836138
1772797797683630600,6.056630615234375,0.013497779476642607,0.010386259859986603,0.013426358208246529
1772797797693656600,6.066656494140625,0.02979483428299427,0.008804160034004598,0.02925133852344006
1772797797703682600,6.0766826171875,0.04951484927535057,-0.01715820168033242,0.013718071163818239
1772797797713709600,6.08670947265625,0.058012043985724446,-0.032753483159188176,0.00399970062803477
1772797797723735600,6.096735595703125,0.04258358870744705,-0.022623517881520092,0.03173964820783585
1772797797733761500,6.106761474609375,0.041861704173684115,-0.015023655603360385,0.03912168475054204
1772797797743787800,6.116787841796875,0.05222644632160663,-0.00950673707909882,0.028244645698927342
1772797797753814800,6.126814697265625,0.051211716321110726,-0.006565404663886875,0.013278583768010138
1772797797763840800,6.1368408203125,0.041489363729953765,0.004363364574965089,0.021130247116461394
1772797797773866800,6.14686669921875,0.029366379737854,0.015051566523592918,0.022319274237938225
1772797797783892700,6.156892822265625,0.024421909072995185,0.0006628660892136394,0.01469378432817757
1772797797793919500,6.16691943359375,0.04819032267332077,-0.00727989134248346,0.01417125829141587
1772797797803945700,6.17694580078125,0.05056932676434517,-0.007262227821629494,0.013161679390072822
1772797797813971700,6.1869716796875,0.03696282621622085,0.0009279284998774528,0.028502821711078284
1772797797823998200,6.196998291015625,0.032199557337164876,-0.006246310511045157,0.03169990071933716
1772797797834024200,6.207024169921875,0.050773909425735474,-0.008182849797885864,0.0292988674595952
1772797797844050200,6.21705029296875,0.06215104348659515,-0.007709441866166889,0.0207461431697011
1772797797854076200,6.227076171875,0.04943243168890476,-0.010110913517326115,0.032525209094956514
1772797797864103200,6.237103271484375,0.03476853104233742,-0.015671342389751226,0.025431451441720127
1772797797874129200,6.247129150390625,0.04061725707054138,-0.015594751755893229,0.013505633989535271
1772797797884155400,6.2571552734375,0.058441083052754396,-0.021693068630993365,0.003503149282746017
1772797797894181400,6.267181396484375,0.05037409645318985,-0.01651444215038791,0.012904197497665882
1772797797904208100,6.2772080078125,0.041402269968390464,-0.007280950788408518,0.016121807837300002
1772797797914234000,6.287234130859375,0.040652328383922576,-0.01203751593204215,0.017077428061701358
1772797797924260000,6.297260009765625,0.05619418090879917,-0.02573945794496685,0.025269538878276942
1772797797934286000,6.3072861328125,0.0539402645021677,-0.00013590133935213088,0.023506986185163257
1772797797944313000,6.31731298828125,0.0350958633005619,0.014494809423666447,0.02127455095797777
1772797797954339300,6.32733935546875,0.05038286428153515,0.0035654921955429017,0.018978329779580236
1772797797964365300,6.337365234375,0.05100128844082355,-0.004095343022234738,0.010598550903797148
1772797797974392000,6.34739208984375,0.038891748452186584,-0.015232750043086706,0.018747918557189405
1772797797984418000,6.35741796875,0.028275661891698837,-0.00017579495832324027,0.030671763247996565
1772797797994444000,6.367444091796875,0.03890869958698749,-0.007845763330627233,0.03566869475245476
1772797798004470000,6.377469970703125,0.04819207623898983,0.0005018485749140382,0.016884060914069413
1772797798014497300,6.387497314453125,0.0453653283804655,0.011147124697268009,0.0045629240013659
1772797798024523300,6.397523193359375,0.027879940572381016,0.00410447617676109,0.029761406937427817
1772797798034549200,6.40754931640625,0.022663082706928253,0.012426825776882469,0.03862736189495772
1772797798044575200,6.4175751953125,0.04721826277077198,-0.006416150652617216,0.025493739555589853
1772797798054602200,6.427602294921875,0.07757832972109317,-0.012998342054523528,0.00886540696825832
1772797798064628200,6.437628173828125,0.054209729093313216,-0.016142887157946824,0.014776201914623378
1772797798074654200,6.447654296875,0.026067922714352605,-0.0312829539489001,0.03786094409972429
1772797798084680200,6.45768017578125,0.04163958585560321,-0.025323278359510003,0.03292169759925455
1772797798094707200,6.467707275390625,0.059624155357480044,-0.012839169437438248,0.021262349063530563
1772797798104733200,6.477733154296875,0.04573825334608555,-0.009326247679349035,0.010316153765842318
1772797798114759200,6.48775927734375,0.029896541091799733,-0.02341033914396539,0.03066639295313507
1772797798124785200,6.49778515625,0.03782967217862606,-0.007333539492171257,0.01499722425416112
1772797798134812200,6.507812255859375,0.03871697640717029,-0.026970461044646798,0.04135156269446015
1772797798144838100,6.517838134765625,0.02463993573784828,-0.013983973824698476,0.008028700415790081
1772797798154864000,6.527864013671875,0.06459376046359538,-0.011106865752115846,0.018545381722413
1772797798164891100,6.53789111328125,0.051423897767066955,-0.0018488427370786666,0.011761274540238082
1772797798174917000,6.547917236328125,0.015536007305979729,0.011366941460408269,0.01184592061638832
1772797798184943000,6.557943115234375,0.048474400311708445,0.010886190472450107,0.00407112189643085
1772797798194969000,6.567968994140625,0.04608545934855938,-0.011601718330662697,0.01510389949902892
1772797798204996000,6.57799609375,0.02856266213953495,0.005262121779285371,-0.00036262276731431484
1772797798215022000,6.58802197265625,0.02779576942026615,0.011374540244974196,-0.001474785260297358
1772797798225048000,6.598048095703125,0.042291327762603755,0.015024221858941018,-0.006888773133046925
1772797798235074000,6.608073974609375,0.03000993833839893,-0.01089559762161225,0.011027955297008157
1772797798245101300,6.618101318359375,0.030009353816509245,-0.001716704257391393,0.015680932202003894
1772797798255127300,6.628127197265625,0.05559621501564979,-0.013227438102662562,0.018200367677025497
1772797798265153300,6.6381533203125,0.0554302107989788,-0.015660583533719182,0.026268632918223737
1772797798275179300,6.64817919921875,0.03850771757066249,-0.01169747032271698,0.024592151073366403
1772797798285206000,6.6582060546875,0.02773088749051094,-0.025751440643705426,0.02492313659340143
1772797798295232000,6.66823193359375,0.05348433742821216,-0.0008941540944389999,0.028199052991531786
1772797798305258200,6.67825830078125,0.033004443979263304,-0.014713438876718282,0.040333617823570964
1772797798315284200,6.6882841796875,0.055025137129426,0.016447569192945957,-0.0009244579011574387
1772797798325311200,6.698311279296875,0.059055415558815,-0.031312143510766326,0.0203741680521518
1772797798335337200,6.708337158203125,0.03912847981750965,-0.024234040084388106,0.0017893676348030565
1772797798345363200,6.71836328125,0.055395724007487296,-0.01232247035326436,0.017863683068566023
1772797798355389200,6.72838916015625,0.041138650596141815,-0.014331691283825785,0.022009294973313807
1772797798365416000,6.738416015625,0.040212183400988574,-0.03092803956400603,0.01450198808312416
1772797798375442200,6.748442138671875,0.031221652215719223,-0.01378976642685011,0.01357124657165259
1772797798385468200,6.75846826171875,0.04200374299287796,-0.002782616455852985,0.030236586701124904
1772797798395495200,6.7684951171875,0.04921615858972073,-0.03425241648005321,0.04223846506420523
1772797798405521200,6.778521240234375,0.04309504536092281,0.0054128370952792465,0.021082791245542465
1772797798415547100,6.788547119140625,0.048483168140053746,-0.015425678799301385,0.011662453808262944
1772797798425573000,6.798572998046875,0.05206278019249439,-0.008970493044238538,0.02037676186803728
1772797798435600400,6.808600341796875,0.04217266981899738,-0.001520158771984279,0.0019293606273829936
1772797798445626400,6.81862646484375,0.037678281009197234,-0.02096975932512432,0.035174737223051485
1772797798455652400,6.82865234375,0.06177578043341636,-0.00028930180277675387,0.008893938942998647
1772797798465678300,6.83867822265625,0.05115969387292862,-0.0032521153974346814,0.015660218207538126
1772797798475705000,6.848705078125,0.032011925810575485,0.012559567044768481,-0.0005007160637527704
1772797798485731000,6.85873095703125,0.02678396202921867,-0.014843147937301545,0.021707754743471742
1772797798495757000,6.868757080078125,0.05041793559491634,0.005575516843702644,0.0034357466023415325
1772797798505783000,6.878782958984375,0.05772270565032959,-0.01456937249721959,0.02461260933950543
1772797798515810300,6.888810302734375,0.032713352078199386,-0.010758801233116537,0.032069976140744985
1772797798525836300,6.898836181640625,0.03629764030575752,-0.009087196492776273,0.011813771912455558
1772797798535862300,6.9088623046875,0.05560848997533321,-0.00540523831071332,0.010172032587416469
1772797798545888300,6.91888818359375,0.06264847161471844,0.0037217422031797466,0.014863843665458261
1772797798555915000,6.9289150390625,0.032413492348790165,-0.01260492229014635,0.014016615718975662
1772797798565941000,6.93894091796875,0.02866144633889198,-0.0028192221391946074,0.013591449109464884
1772797798575967000,6.948967041015625,0.03478489765524864,-0.011354849163815378,0.012454882827587424
1772797798585993000,6.958992919921875,0.05242752185165882,-0.012576207652315497,0.01273406509514898
1772797798596020200,6.969020263671875,0.04285714495182037,-0.022187318421341477,0.027675832835026084
1772797798606046200,6.979046142578125,0.04212415450215339,-0.01282514091208577,0.03472955073881894
1772797798616072200,6.989072265625,0.042889293655753134,-0.007120937921106815,0.018286621188372373
1772797798626098200,6.99909814453125,0.053075172105431556,-0.005211140510719269,0.018698672587983307
1772797798636125200,7.009125244140625,0.0455921228736639,-0.009663991733733564,0.00896963452771306
1772797798646151200,7.019151123046875,0.04169511543512344,-0.006779065680876373,0.009993351552262901
1772797798656177200,7.02917724609375,0.04782032031714916,-0.009011299978662282,0.02721917510870844
1772797798666204200,7.0392041015625,0.03568973754048347,-0.0074083217614330345,0.03348550549447536
1772797798676230100,7.049230224609375,0.026115268987417218,-0.00812010502628982,0.020546273216046393
1772797798686256000,7.059256103515625,0.0535001195192337,-0.0012406477108597754,0.02939966095294803
1772797798696282000,7.0692822265625,0.05230009607970714,-0.011457085695583373,0.02137676922343671
1772797798706309000,7.07930908203125,0.04840834933817386,-0.009301679493673146,0.004180025631003082
1772797798716335000,7.089335205078125,0.04286415921449661,0.0016493381096050143,0.020934614946506915
1772797798726361300,7.099361328125,0.032360885378718375,-0.017919888501521198,0.036618067899160084
1772797798736387300,7.10938720703125,0.04386544521152973,0.004977532684244215,0.022190679422207177
1772797798746414000,7.1194140625,0.03683072426915168,-0.016344145351089537,0.021001031246222556
1772797798756440000,7.129440185546875,0.037730303457379336,-0.011493673112615942,0.020530381527170537
1772797798766466000,7.139466064453125,0.04342413118481636,-0.009976436950080096,0.021678090257570146
1772797798776492000,7.149491943359375,0.05107961437404156,-0.006584913081955164,0.021280724970437585
1772797798786519000,7.15951904296875,0.04960369660258293,0.0059392721221782265,0.002930317830853164
1772797798796545300,7.169545166015625,0.04031622829735279,-0.00847702870517969,0.014488763275370001
1772797798806571300,7.1795712890625,0.03460954108834267,0.0002430880408734083,0.013976356773823499
1772797798816597200,7.18959716796875,0.031439678880572315,-0.004632043714821338,0.017600940479151905
1772797798826624500,7.19962451171875,0.04757423660159111,-0.009773498256504535,0.02515420540291816
1772797798836650500,7.209650390625,0.05549217011928558,-0.014605448457598685,0.04452131530437618
1772797798846676500,7.219676513671875,0.0433569111675024,-0.009528382655326276,0.035735732106678186
1772797798856702500,7.229702392578125,0.05907178217172623,-0.003051076400000602,0.021821882642433045
1772797798866729500,7.2397294921875,0.049342999839782714,-0.003350607335846871,0.010158734714426099
1772797798876755500,7.24975537109375,0.03527238891124725,0.0023767938676290215,0.00682805592175573
1772797798886781400,7.259781494140625,0.02178571535050869,-0.0005442994771525263,0.0184960626879707
1772797798896807400,7.269807373046875,0.03822948515117168,-0.014615220932941883,0.017545739693194628
1772797798906834700,7.279834716796875,0.044808863541483876,-0.005416545156016946,0.03409022992197424
1772797798916860700,7.289860595703125,0.047663668450713154,-0.012974413189664483,0.03212404441554099
1772797798926886700,7.29988671875,0.052315293648838995,-0.01377444099355489,0.021230711816251278
1772797798936912600,7.30991259765625,0.06160919169485569,0.0025769926148466763,0.014868446775339543
1772797798946939400,7.319939453125,0.048750294643640515,0.004849741586111486,0.013978439133055508
1772797798956965400,7.32996533203125,0.04126081567108631,-0.004958882782701402,0.015936733593977986
1772797798966991400,7.339991455078125,0.03704115214943886,-0.00774036672739312,0.01755070812925696
1772797798977017600,7.350017578125,0.04254734835028648,-0.01023589160386473,0.026044614904001354
1772797798987044600,7.360044677734375,0.043728667089343067,-0.010281648708041756,0.024630875648558138
1772797798997070600,7.370070556640625,0.04791618190705776,-0.005890026152972132,0.025113179272785783
1772797799007096600,7.3800966796875,0.04223229105174541,-0.009787946906965226,0.020728644045628606
1772797799017122600,7.39012255859375,0.04672843342721462,-0.005464512483589351,0.02782682214565575
1772797799027149300,7.4001494140625,0.035494507229328155,-0.0027551987259648737,0.027068989515677093
1772797799037175600,7.410175537109375,0.031132220366597175,-0.011738624317012726,0.027388503793627023
1772797799047201500,7.420201416015625,0.04308393944501877,-0.016289693483803422,0.016157609803043305
1772797799057227500,7.4302275390625,0.04531038332283496,-0.002294942536763847,0.017224508382193745
1772797799067254500,7.440254638671875,0.05279050994515419,0.0022202698653563855,0.01336560446433723
1772797799077280500,7.450280517578125,0.04530629166960716,-0.004713182659633457,0.02195760131869465
1772797799087306500,7.460306396484375,0.046366029855608934,-0.004671663339156657,0.030013956926390528
1772797799097332500,7.47033251953125,0.05834346789717674,-0.008517744308058172,0.024716252377070484
1772797799107359700,7.48035986328125,0.046506899631023405,-0.008319134729728101,0.018497268264368174
1772797799117385700,7.4903857421875,0.03093114483654499,-0.00740457716807723,0.019789901890791953
1772797799127411700,7.50041162109375,0.03539923016130924,-0.006709964233729988,0.01989343533050269
1772797799137438500,7.5104384765625,0.05424129327535629,-0.005076170753128826,0.031074498829990624
1772797799147464400,7.52046435546875,0.04930383687317371,-0.012151570765767245,0.02358308362867683
1772797799157490400,7.530490478515625,0.05469137513041496,-0.015224932062812148,0.022795623045414683
1772797799167516400,7.540516357421875,0.049454058998823165,-0.0062393510472960765,0.016667495553940533
1772797799177543700,7.550543701171875,0.02925415153503418,0.0015490012739785015,0.010759915477968751
1772797799187569700,7.560569580078125,0.024601357293128966,0.0036900318906642493,0.009209471165575087
1772797799197595600,7.570595703125,0.04208966771066189,0.001282641955371946,0.014531798699498175
1772797799207621600,7.58062158203125,0.054337739387154575,-0.008207271853089332,0.02680230140350759
1772797799217648400,7.5906484375,0.03860708629190922,-0.018673136287927626,0.03454484182167798
1772797799227674400,7.60067431640625,0.04907821142375469,-0.014227792517933994,0.037369215060025454
1772797799237700400,7.610700439453125,0.04773264203369617,-0.015498871899675576,0.03016710166148841
1772797799247726300,7.620726318359375,0.04923369424641132,-0.011063647664897144,0.024859496772661804
1772797799257753600,7.630753662109375,0.04609364265501499,-0.007266465605329722,0.022405162423104048
1772797799267779600,7.640779541015625,0.047882279637455935,-0.013282328361365944,0.012893310777470468
1772797799277805600,7.6508056640625,0.05790566100180149,-0.009176025553699582,0.017360884645581245
1772797799287831600,7.66083154296875,0.036943536993861194,-0.0007538505746051669,0.014945895925723015
1772797799297858600,7.670858642578125,0.04845744917690754,-0.008330076248850673,0.013983809427917002
1772797799307884500,7.680884521484375,0.03901683613657951,-0.005530709587596357,0.015830387142673135
1772797799317910500,7.69091064453125,0.03660860595107078,-0.019255977677181364,0.01913081692755222
1772797799327936800,7.700936767578125,0.041243864536285396,-0.012209328834991902,0.035212219689227636
1772797799337963500,7.710963623046875,0.051423897767066955,-0.008802242071554065,0.03065671180933714
1772797799347989500,7.720989501953125,0.04724047460258007,-0.010539788187574594,0.011897468140535055
1772797799358015500,7.731015380859375,0.041107670935988425,-0.007119403551146388,0.00491181050427258
1772797799368041500,7.74104150390625,0.054573886230587954,-0.0071105991901829835,0.020802878325618803
1772797799378068500,7.751068359375,0.036762335208058355,-0.009361903514619916,0.036342575426027174
1772797799388094500,7.761094482421875,0.032732056778669354,0.0046886510065756734,0.012771072637289762
1772797799398120700,7.77112060546875,0.051885670059919356,0.004729019549582153,0.016590557860210537
1772797799408146700,7.781146728515625,0.0479839864462614,-0.0037560645978897806,0.013878595487773418
1772797799418173400,7.79117333984375,0.037192543318867684,-0.007498849589098244,0.02090049348119646
1772797799428199400,7.801199462890625,0.041805590072274204,-0.020085669966973363,0.02692632964197546
1772797799438225400,7.811225341796875,0.04597966088652611,-0.019492014922760426,0.02380808802358806
1772797799448251400,7.82125146484375,0.047020109850168225,-0.01325914841517806,0.026096783482655882
1772797799458278700,7.831278564453125,0.038646249258518214,0.0037560645978897806,0.02082216754797846
1772797799468304600,7.8413046875,0.04943418525457382,-0.008045980344153941,0.011782755719684063
1772797799478330600,7.85133056640625,0.04884440266788006,-0.004943045892752707,0.009772036951780319
1772797799488356600,7.861356689453125,0.04001169239282608,-0.0042469351210631424,0.02664320185165852
1772797799498383600,7.871383544921875,0.04553367068469524,-0.004805902444384992,0.026131051078438758
1772797799508409600,7.88140966796875,0.04402092803418636,-0.010900584323983638,0.02536675217505544
1772797799518435600,7.891435546875,0.05063070156276226,-0.007751363045442849,0.008252572299540042
1772797799528461600,7.901461669921875,0.14823708931207655,0.044335126816201956,-0.04851104252766818
1772797799538488600,7.911488525390625,-0.1280097093194723,0.05744290232826024,-0.05544076872561127
1772797799548514600,7.9215146484375,-0.2845405797243118,0.01688133923402056,0.037533757971972226
1772797799558540500,7.93154052734375,0.2089724207818508,-0.0480858759181574,0.044215646888688204
1772797799568566500,7.94156640625,0.4059937070071697,-0.08295609550299123,0.08001392283756285
1772797799578593500,7.951593505859375,0.09061901308000087,-0.07257390902992338,0.10170238835867494
1772797799588619500,7.96161962890625,-0.07035948438346386,-0.04303476654104888,0.06893321444001048
1772797799598645500,7.9716455078125,0.022676526710391044,-0.006529767094925046,0.006167801914736628
1772797799608671500,7.98167138671875,0.06174246268570423,0.001019424441922456,0.00035129765570163723
1772797799618698500,7.991698486328125,-0.028207857352495192,0.0001223660043440759,0.007708345887623727
1772797799628724500,8.001724365234375,0.009392097723484039,0.021904921283386645,-0.0034442587023600932
