time,seconds_elapsed,z,y,x
1772790420849280500,0.077280517578125,1.3519254810869692,-0.7717220391213894,0.7213499154295772
1772790420859346700,0.0873466796875,1.1154074662536382,-0.7577291696041822,0.5957972438734025
1772790420869412600,0.09741259765625,0.8775549879461526,-0.5843555932089686,0.5793029859945178
1772790420879477500,0.1074775390625,0.5898217496603727,-0.45246465854197737,0.5544252959780395
1772790420889543400,0.11754345703125,0.3836123638510704,-0.3118567489340901,0.5111273484561593
1772790420899609600,0.127609619140625,0.19715455721616743,-0.20087825391441583,0.33428339253664013
1772790420909675500,0.137675537109375,-0.005690905117988586,-0.031274551446735854,0.1943532725924626
1772790420919740400,0.147740478515625,-0.1312339320629835,0.16147680237442255,0.027584816383593714
1772790420929806600,0.157806640625,-0.14732348159849643,0.19857728349566459,-0.3197490000212565
1772790420939872500,0.16787255859375,-0.21147066733837128,0.09970628263801336,-0.6697732382535934
1772790420949938400,0.1779384765625,-0.3913905966371298,0.06207359433621168,-0.8954312017027288
1772790420960003600,0.188003662109375,-0.6577589753329753,0.16388152542859316,-1.0461182414501904
1772790420970069800,0.19806982421875,-0.9344698843449354,0.2873740495845675,-1.1422940118744969
1772790420980135400,0.208135498046875,-1.2096890934944151,0.34872634390890594,-1.1990436347089708
1772790420990201600,0.21820166015625,-1.4789467638909817,0.4674997305884957,-1.274095514692366
1772790421000266500,0.2282666015625,-1.6324065562874077,0.729577426353097,-1.2487810406938193
1772790421010332700,0.238332763671875,-1.7537860338121651,0.8870461621299386,-1.2128047412969172
1772790421020398600,0.248398681640625,-2.0000684868127108,0.8686632409602403,-1.220887071596086
1772790421030464800,0.25846484375,-2.162146469950676,0.8878156851977109,-1.2959921430714427
1772790421040529400,0.268529296875,-2.214519631266594,0.9656979663014411,-1.3393772574201226
1772790421050595600,0.278595703125,-2.1736147894263267,1.0274924514353274,-1.422742061588168
1772790421060661500,0.28866162109375,-1.902962449800968,1.1463739746645092,-1.5487608893513678
1772790421070727700,0.298727783203125,-1.5153572169214486,1.2548676671311259,-1.6714448736034333
1772790421080792600,0.30879248046875,-1.2319435954004525,1.2186498140633106,-1.8516547257594762
1772790421090858500,0.3188583984375,-1.0505272900640963,1.153506310762465,-1.946553169724345
1772790421100924400,0.32892431640625,-0.9816986685097217,1.1140174731999635,-1.9546449985042214
1772790421110990600,0.338990478515625,-0.9555670329093933,1.0454358121439813,-1.9229997140489516
1772790421121055500,0.349055419921875,-0.9944161112636327,0.8633066823631524,-1.8564003128513693
1772790421131121700,0.35912158203125,-1.0038836123108863,0.6955854326412081,-1.6999837164759635
1772790421141187600,0.3691875,-0.9487971003830432,0.6884869988128542,-1.6265765349596737
1772790421151253500,0.37925341796875,-0.6863789206176996,0.7874617523059249,-1.554406932414323
1772790421161318700,0.389318603515625,-0.21183190186619758,0.875579303959012,-1.5746799051143228
1772790421171384600,0.399384521484375,0.26119419092833995,0.937877939222753,-1.722222728551924
1772790421181451800,0.40945166015625,0.5605412946403027,0.9513996840968727,-1.836766222576797
1772790421191516700,0.4195166015625,0.6798644241571425,0.8994882950738072,-1.8200024270415305
1772790421201582600,0.42958251953125,0.6748848821789026,0.8361749298095703,-1.6535492975592612
1772790421211648800,0.439648681640625,0.530353661647439,0.7701128503590822,-1.4466726800128817
1772790421221714700,0.449714599609375,0.3477256424337625,0.6727580992832779,-1.2221722891010343
1772790421231779800,0.45977978515625,0.15774433784782885,0.5656207898616791,-1.0516107013866305
1772790421241845500,0.469845458984375,0.045971477580070495,0.4720101937502622,-0.8833296258248389
1772790421251911700,0.47991162109375,-0.017937223228812218,0.3465723807454109,-0.8773677948109805
1772790421261977600,0.4899775390625,-0.11806933006346225,0.19314999774992464,-0.8574572256825864
1772790421272042800,0.500042724609375,-0.24403029015958308,0.06571691927462815,-0.6947773311287164
1772790421282108700,0.510108642578125,-0.4062894750833511,-0.06987623091116547,-0.4894404903702438
1772790421292174800,0.5201748046875,-0.5646762024879455,-0.29199060346931216,-0.3720912912748754
1772790421302240500,0.530240478515625,-0.7002379346221685,-0.6096477092452347,-0.3561696456521749
1772790421312305700,0.5403056640625,-0.696850045749545,-0.877903070731461,-0.4073452677465975
1772790421322371800,0.550371826171875,-0.5626783066689968,-1.0454016176134346,-0.42477950988933444
1772790421332437800,0.560437744140625,-0.3781488377481699,-1.1806864325024187,-0.48877223571985956
1772790421342503700,0.570503662109375,-0.2700292392909527,-1.2941755951687692,-0.5468268767382949
1772790421352568600,0.580568603515625,-0.2108598419636488,-1.4090052126586436,-0.5814597987022251
1772790421362634800,0.590634765625,-0.23855916527211665,-1.5534659983024,-0.6629744449589401
1772790421372700700,0.60070068359375,-0.3073778499543667,-1.673620902468264,-0.7529187736477703
1772790421382766800,0.610766845703125,-0.3009925328314304,-1.6579413950383661,-0.8058432121708988
1772790421392831700,0.620831787109375,-0.2405436170876026,-1.5626609660185873,-0.7972657918311655
1772790421402898000,0.63089794921875,-0.2119353622406721,-1.4834011129513383,-0.7942365071378648
1772790421412963600,0.640963623046875,-0.27231764248907564,-1.450323895996809,-0.8189750809445977
1772790421423029800,0.65102978515625,-0.3678822952777147,-1.460795897911489,-0.7972552704371512
1772790421433094700,0.6610947265625,-0.4817576807826757,-1.5196530144192277,-0.7792901362881064
1772790421443160800,0.671160888671875,-0.6138502755016089,-1.5656241997383533,-0.708832379161939
1772790421453226800,0.681226806640625,-0.6284077931642532,-1.522099530788511,-0.6318810222327709
1772790421463293000,0.69129296875,-0.4943628953337669,-1.4608847452387212,-0.6228329887066036
1772790421473357600,0.701357666015625,-0.3180371911346912,-1.4331092879541218,-0.6046903790988027
1772790421483423700,0.711423828125,-0.13618249438107013,-1.4160491398207842,-0.6093672848686575
1772790421493489700,0.72148974609375,-0.0045329672545194625,-1.4071185221292077,-0.6911906317483634
1772790421503554800,0.731554931640625,0.04846621700525283,-1.4500732822366058,-0.7276149671737104
1772790421513620700,0.741620849609375,0.009810030874609946,-1.520789178842306,-0.7879946170736104
1772790421523686700,0.751686767578125,-0.07875029610991477,-1.53428462023139,-0.8682860782109201
1772790421533752600,0.761752685546875,-0.1884597941070795,-1.4293679094687104,-0.8465859953172504
1772790421543817700,0.771817626953125,-0.27185587019622326,-1.2621695145770906,-0.7872931177407503
1772790421553884000,0.7818837890625,-0.262712194275856,-1.0879197398692368,-0.8187905181579291
1772790421563949800,0.79194970703125,-0.21798867093026636,-1.0286756698705255,-0.9960303415272385
1772790421574015700,0.802015625,-0.18589198944568633,-1.081254144500196,-1.255269672060758
1772790421584080600,0.81208056640625,-0.18188626093566418,-1.1624763836815952,-1.509976839057356
1772790421594146800,0.822146728515625,-0.20071780265569686,-1.1567729113429783,-1.6916534027650951
1772790421604212700,0.832212646484375,-0.15416647936105726,-1.0001340505190193,-1.736180819016695
1772790421614279000,0.84227880859375,-0.06908113501071929,-0.7613358157940209,-1.7575307732984422
1772790421624343600,0.852343505859375,0.04014963955879211,-0.5364686373963952,-1.799413081868738
1772790421634409700,0.86240966796875,0.17483400433659552,-0.38330972764268517,-1.8481006865397094
1772790421644475600,0.8724755859375,0.3582300853133201,-0.31540333549976346,-1.9661470741190015
1772790421654541800,0.882541748046875,0.5521744483113289,-0.28493030969426036,-2.0926795504927633
1772790421664606700,0.892606689453125,0.6902350115239619,-0.31951559312418104,-2.243466470418125
1772790421674673000,0.9026728515625,0.7578484120696782,-0.35013708748966454,-2.339414715696871
1772790421684738600,0.912738525390625,0.7109656648635864,-0.36054917591065166,-2.3384574149720367
1772790421694803700,0.9228037109375,0.5388309826135635,-0.3579387011513114,-2.3331623773038386
1772790421704869600,0.93286962890625,0.34282384186685083,-0.3148443864427507,-2.2144166092835365
1772790421714935800,0.942935791015625,0.2110065569579601,-0.2180665584720671,-2.0727659126244484
1772790421725001700,0.953001708984375,0.12286533216834068,-0.11424231912121176,-2.0080749753966924
1772790421735066600,0.963066650390625,0.01952478468120098,0.03351078606620431,-1.887410075882077
1772790421745132800,0.9731328125,-0.24935002387762067,0.15083996528685092,-1.776132890176773
1772790421755198700,0.98319873046875,-0.5945932018458843,0.24563567952960727,-1.6634126660563051
1772790421765264600,0.9932646484375,-0.9080243604898453,0.33007717301845546,-1.5405758293300866
1772790421775329800,1.003329833984375,-1.0979857913315296,0.4076280302107334,-1.3875399614341557
1772790421785395700,1.013395751953125,-1.2129670922517777,0.40872532392814753,-1.2823330355532467
1772790421795461600,1.023461669921875,-1.3074912960767746,0.29023864523544907,-1.1882901855044066
1772790421805527800,1.03352783203125,-1.4123095149010418,0.10693345741257071,-1.0770705752052365
1772790421815592700,1.0435927734375,-1.6002005692094563,-0.0698062344148755,-0.8561280229054391
1772790421825659000,1.053658935546875,-1.816034692454338,-0.1869653177656233,-0.4862983198869973
1772790421835724800,1.063724853515625,-2.0256834050625563,-0.23852131747975944,-0.1510255418536719
1772790421845790700,1.073790771484375,-2.18539524359107,-0.25411329275667666,0.14526627507405354
1772790421855855600,1.083855712890625,-2.3074907604306936,-0.23267639084383843,0.41587738763988014
1772790421865921800,1.093921875,-2.3601228649437425,-0.1545109088845551,0.6012366949809714
1772790421875987700,1.10398779296875,-2.2381366536974907,0.012236088977754115,0.7742195550255477
1772790421886054000,1.114053955078125,-1.9282564655333756,0.24332681806534529,0.8760830887626856
1772790421896118500,1.124118408203125,-1.4657628726691008,0.48000849902778864,0.8500548404715955
1772790421906184700,1.134184814453125,-0.8255062362790108,0.7661731728225946,0.8644611130952835
1772790421916250600,1.144250732421875,-0.1024251862078905,1.0073498271167278,0.8528240129239857
1772790421926315800,1.154315673828125,0.6262602597415446,1.1341403699047863,0.7812858401499688
1772790421936381700,1.164381591796875,1.2674492085456848,1.1281829228051006,0.688498323924467
1772790421946447600,1.174447509765625,1.7221324199199675,1.0109957824036477,0.6199070913225412
1772790421956513500,1.184513427734375,1.9293734868645667,0.8059843742072582,0.5977707359034568
1772790421966578700,1.19457861328125,1.964049078926444,0.5868647995509206,0.5738528308298438
1772790421976644900,1.204644775390625,1.9618921931535005,0.410280882807076,0.5615383428536355
1772790421986710800,1.214710693359375,1.9605197357565163,0.3157980339057743,0.6407568409971892
1772790421996776700,1.224776611328125,1.9228093060433864,0.3029243776768446,0.8414188948776572
1772790422006841600,1.234841552734375,1.7816501922935246,0.28670038810670373,1.0392319890677928
1772790422016907800,1.24490771484375,1.51265029605031,0.1400964529544115,1.1281900831982492
1772790422026973700,1.2549736328125,1.2317325829982757,-0.0859974907591939,1.1912458935048431
1772790422037039900,1.265039794921875,0.9630570964038372,-0.27947628207206726,1.288388828460872
1772790422047104800,1.275104736328125,0.7498334479182959,-0.425542164824903,1.3925380619823933
1772790422057170700,1.285170654296875,0.5860176812022924,-0.5422551118433475,1.4510279526129364
1772790422067236600,1.295236572265625,0.44504035376012324,-0.6179805071741342,1.518680223864317
1772790422077301800,1.3053017578125,0.3452139518737793,-0.6785869515672326,1.5024986121311783
1772790422087367700,1.31536767578125,0.28584289449453354,-0.7104308273345231,1.47333593827188
1772790422097433900,1.325433837890625,0.22019524106383323,-0.7475108501896262,1.462559984974563
1772790422107499800,1.335499755859375,0.07497720731198787,-0.833003021775186,1.4041137873552738
1772790422117564700,1.345564697265625,-0.006949965268373489,-0.8892337353020906,1.3704749909952283
1772790422127630600,1.355630615234375,0.002927285623550415,-0.9204302530765532,1.371477884427458
1772790422137696800,1.36569677734375,0.03855506384372711,-1.0374927441850303,1.280710548917949
1772790422147762700,1.3757626953125,0.16429624370932577,-1.1073219210840761,1.1748953549455852
1772790422157827600,1.38582763671875,0.43707975014448164,-1.077114414346963,1.0824912120144814
1772790422167893800,1.395893798828125,0.7242179451465606,-1.0971760823838412,0.9459382038205861
1772790422177958100,1.405958251953125,0.9006880262523889,-1.1586243844285606,0.801479244807735
1772790422188023300,1.416023193359375,0.8954963028281927,-1.245969490404427,0.6432583754893392
1772790422198089200,1.426089111328125,0.8147954571723938,-1.270444006447494,0.5361038957372307
1772790422208155100,1.436155029296875,0.7115098547428846,-1.1763071945048869,0.5627309867043048
1772790422218221300,1.44622119140625,0.5712210940867662,-1.0631436105310916,0.5723646380987018
1772790422228286200,1.4562861328125,0.3986994583457708,-0.9273850406505167,0.612640095994249
1772790422238352400,1.466352294921875,0.28065292463600633,-0.7443364579372107,0.6984401644852012
1772790422248418300,1.476418212890625,0.17043313902914523,-0.5936491989940405,0.7279879652045667
1772790422258484200,1.486484130859375,0.11063362710475921,-0.49824163646325464,0.702669984074682
1772790422268549000,1.496549072265625,0.12008826867043972,-0.4108895162247121,0.6793664115071296
1772790422278615300,1.506615234375,0.2234732398211956,-0.2561608729362488,0.6688380032300949
1772790422288681200,1.51668115234375,0.37615386453866956,-0.16310937201231718,0.6103448977291583
1772790422298747400,1.526747314453125,0.5542570998042822,-0.09766440154686569,0.5354201512567699
1772790422308812000,1.53681201171875,0.7125374442249536,-0.06982406233251094,0.4510053265791386
1772790422318878200,1.546878173828125,0.889031490728259,-0.06478183038160204,0.380186371457763
1772790422328944000,1.556944091796875,1.046167341288924,-0.1389056357346475,0.33507264321818947
1772790422339010300,1.56701025390625,1.1350012245178223,-0.27075229286849495,0.26720537750925866
1772790422349075200,1.5770751953125,1.141657759797573,-0.4323350398354232,0.21658505121003835
1772790422359141000,1.58714111328125,1.113964281708002,-0.6128010587096214,0.17176066130585968
1772790422369207000,1.59720703125,1.0391332048684359,-0.7946786979474126,0.13575774789666756
1772790422379272200,1.607272216796875,0.941404652044177,-0.8959643587313592,0.13235641502058132
1772790422389338400,1.61733837890625,0.9061509678333998,-0.9427432071715592,0.11397130189379677
1772790422399404300,1.627404296875,0.8776917660683393,-0.9843000831797718,0.07255214472268708
1772790422409470200,1.63747021484375,0.8001227886974811,-1.0162541413232684,0.03264968485799618
1772790422419535000,1.64753515625,0.691574151173234,-1.0429108237110079,-0.03697384080057964
1772790422429601300,1.657601318359375,0.5538257226496934,-1.112372482471913,-0.15622887351727113
1772790422439667200,1.667667236328125,0.38067747944295405,-1.1681566212750971,-0.3178864575523883
1772790422449733400,1.6777333984375,0.1274181731671095,-1.2274752178147434,-0.46831696525551375
1772790422459798300,1.68779833984375,-0.15897475642561912,-1.2001502807766198,-0.5901461227765307
1772790422469864200,1.6978642578125,-0.4590794005066156,-1.1274702444911002,-0.7069359709560871
1772790422479930000,1.70793017578125,-0.7586515451461077,-0.9831216870501637,-0.7494995397888123
1772790422489996300,1.717996337890625,-1.0906085405617951,-0.8468038758516311,-0.7533114992924034
1772790422500061200,1.728061279296875,-1.4173136067986487,-0.7088315754443406,-0.7922090929634868
1772790422510127400,1.73812744140625,-1.7745353918522595,-0.6309478330358862,-0.8272519109025597
1772790422520193300,1.748193359375,-2.1371055521965028,-0.6255538650378585,-0.9084195703525095
1772790422530258200,1.758258056640625,-2.508891869175434,-0.5589090172633528,-0.9605140608575194
1772790422540324000,1.768323974609375,-2.7556033612430095,-0.42179041107594967,-0.9430071188047527
1772790422550390300,1.778390380859375,-2.9251848518788814,-0.3357946738824248,-0.9623279784116894
1772790422560456200,1.788456298828125,-3.0480367400437594,-0.35149960801452396,-1.0334180420920251
1772790422570521000,1.79852099609375,-3.0667969700932503,-0.42265784156024455,-1.1678080270331352
1772790422580587300,1.808587158203125,-2.918840451288223,-0.4570931951254606,-1.3304904788702725
1772790422590653200,1.818653076171875,-2.6870640780240294,-0.4274225717440247,-1.5104524937450885
1772790422600719000,1.828718994140625,-2.4176596926331517,-0.3504392853066325,-1.5924414795152841
1772790422610784300,1.8387841796875,-2.151315863856673,-0.2085477656289935,-1.575535645160824
1772790422620850400,1.848850341796875,-1.9300696524351835,-0.06499591152369975,-1.5468777059532701
1772790422630916000,1.858916015625,-1.699126807385683,0.034715047289431096,-1.5588907998301087
1772790422640982300,1.868982177734375,-1.3424486276894807,0.1400721952959895,-1.6428594151102005
1772790422651047200,1.879047119140625,-0.9257505713164805,0.31149376084059477,-1.7923615559220314
1772790422661113300,1.88911328125,-0.5955167464315891,0.44515170518010855,-1.9747128040209412
1772790422671179300,1.89917919921875,-0.4178840512871742,0.5502902419999242,-2.199380806584656
1772790422681244200,1.909244140625,-0.2641682383030653,0.8219102576136589,-2.322323880164325
1772790422691310000,1.91931005859375,-0.073455112311244,1.190045358608663,-2.380049508424103
1772790422701376300,1.929376220703125,0.12114625329077243,1.5160925454586744,-2.519330261081457
1772790422711442200,1.939442138671875,0.34070202740728855,1.7678396936058998,-2.6672169295206665
1772790422721507300,1.94950732421875,0.5142465764552354,1.9341890704527496,-2.814476405972242
1772790422731573000,1.959572998046875,0.5583014067590236,2.012156984013319,-2.9631632848784326
1772790422741639200,1.96963916015625,0.5102542919486761,2.0689906318694353,-3.033970805290341
1772790422751705000,1.979705078125,0.4270967007905245,2.1002309887856243,-3.0996544068172573
1772790422761770200,1.989770263671875,0.35545769799053667,2.0930705956369637,-3.1520959571942684
1772790422771836200,1.999836181640625,0.24723697724640367,2.068726427975297,-3.2213290678963062
1772790422781902300,2.00990234375,0.09831891993284225,2.130994668100774,-3.2507281808599826
1772790422791967200,2.01996728515625,-0.0967874725818634,2.212939960859716,-3.249633079099655
1772790422802033200,2.030033203125,-0.30501228986680506,2.2958698807418343,-3.1854031835123893
1772790422812099300,2.040099365234375,-0.5731155295312405,2.3185224420547486,-3.119460054266453
1772790422822165200,2.050165283203125,-0.9384949020773172,2.2934449916824695,-3.0410534570276737
1772790422832230400,2.06023046875,-1.2994494439184665,2.3086098275884983,-2.869543336416781
1772790422842296000,2.070296142578125,-1.6299860511422157,2.342481409791112,-2.731899829572439
1772790422852362200,2.0803623046875,-1.9364257434636354,2.3833172780483958,-2.563914668217301
1772790422862428200,2.09042822265625,-2.16956171464324,2.462800564607978,-2.3764162664882837
1772790422872493300,2.100493408203125,-2.2773154023975133,2.5898922822996973,-2.181652988322824
1772790422882559200,2.110559326171875,-2.327002685630321,2.6804920061573383,-2.0067368586607275
1772790422892625400,2.12062548828125,-2.3786983860760924,2.7795860021159053,-1.82361214197129
1772790422902691000,2.130691162109375,-2.420285364961624,2.8423554697617885,-1.6568883788540958
1772790422912756200,2.140756103515625,-2.3969623570412395,2.8578052600890396,-1.5302636941522358
1772790422922822100,2.150822265625,-2.2454759105443953,2.906941631440818,-1.3999718652449546
1772790422932888300,2.160888427734375,-1.9737299304634333,2.959626342923939,-1.2978745958171785
1772790422942953200,2.170953125,-1.6540286055088043,2.9518513250082727,-1.2043988781318067
1772790422953019100,2.18101904296875,-1.362060506132245,2.893758032479882,-1.0927617730729282
1772790422963085000,2.1910849609375,-1.1479109749734402,2.7495345627233383,-1.0258134123072027
1772790422973151200,2.201151123046875,-0.9776157831102609,2.580966340783238,-0.9466194640830159
1772790422983216400,2.21121630859375,-0.8126274654835463,2.3880033900380133,-0.8818678827092051
1772790422993282300,2.2212822265625,-0.6411375108778476,2.2193989277407526,-0.8494733873218298
1772790423003348200,2.23134814453125,-0.3589414484530687,2.1446932308465243,-0.7833682724472135
1772790423013414100,2.2414140625,-0.05688683934807777,2.1013336893305183,-0.7773143792357295
1772790423023479300,2.251479248046875,0.2538759768694639,2.1107164347037672,-0.7671673714917153
1772790423033545200,2.261545166015625,0.535529018458724,2.114782953490317,-0.7350718590509147
1772790423043611400,2.271611328125,0.7776578589111566,2.0999793521121144,-0.7209113778818398
1772790423053677300,2.28167724609375,0.9126981975197791,2.052376181676984,-0.7166908375773579
1772790423063742200,2.2917421875,0.9216717775702475,1.9678297665089368,-0.6861996185280382
1772790423073808100,2.30180810546875,0.8628951789528131,1.9159666005417704,-0.5592841341860592
1772790423083874300,2.311874267578125,0.632268560245633,1.7962986031100152,-0.44058951183110473
1772790423093939200,2.321939208984375,0.3166682408690452,1.6234665862455964,-0.3379817355979234
1772790423104005400,2.33200537109375,0.0850409206867218,1.4711755453675985,-0.21514928278587758
1772790423114071000,2.342071044921875,-0.08535539346337317,1.3303072312578559,-0.09180204885210841
1772790423124137200,2.35213720703125,-0.20901801348924637,1.1987892215564846,0.10495704277306794
1772790423134202400,2.362202392578125,-0.34834289754927156,1.0261740623131395,0.23197529336977749
1772790423144268300,2.372268310546875,-0.5174129315316677,0.8143442062735557,0.3505509655201807
1772790423154334200,2.382334228515625,-0.7316337743610143,0.6169631468251348,0.4920466908132657
1772790423164400400,2.392400390625,-0.9529688331097363,0.4543786754697561,0.7032249145437032
1772790423174465800,2.4024658203125,-1.0744622924029827,0.3898647022441029,1.0032888612881303
1772790423184532000,2.412531982421875,-1.1286878035873174,0.2767646850258112,1.2806930132612586
1772790423194598000,2.422597900390625,-1.076791027611494,0.14027780087068675,1.4813447649434208
1772790423204663000,2.4326630859375,-0.9636328504651784,-0.01855798547565937,1.6119411297552286
1772790423214729000,2.44272900390625,-0.8229238185703754,-0.2239505019441247,1.6699952593170106
1772790423224795000,2.452794921875,-0.6818582283228636,-0.40779593412354587,1.6934459852702914
1772790423234860800,2.46286083984375,-0.6504460219711065,-0.6012802783943713,1.663647643855959
1772790423244926000,2.472926025390625,-0.6607827070683241,-0.7833322512857616,1.6133824146047233
1772790423254992100,2.4829921875,-0.7580489030778408,-0.9392007122591137,1.5784816354848443
1772790423265058000,2.49305810546875,-0.8871873241662979,-1.0547153894037007,1.5439698556825519
1772790423275123700,2.503123779296875,-0.9710825819492339,-1.2130429339669644,1.4462619072549043
1772790423285188900,2.51318896484375,-1.0305652830094099,-1.333738374750316,1.3413396435342728
1772790423295255000,2.523255126953125,-1.1235381657391785,-1.380556386157125,1.219296003012359
1772790423305321000,2.533321044921875,-1.1972615735977887,-1.3272478436872361,1.1139441157028078
1772790423315385900,2.5433857421875,-1.2308885333895683,-1.2745980573870241,0.9453973749421536
1772790423325451800,2.55345166015625,-1.2845885593950748,-1.2242520179845393,0.7403778565045446
1772790423335518000,2.56351806640625,-1.336744863089919,-1.0647070604555309,0.5621890618473291
1772790423345583900,2.573583984375,-1.304071843022108,-0.7082458845108747,0.6050810223842039
1772790423355649000,2.58364892578125,-1.1586205850362776,-0.3210601922176778,0.7594739674448967
1772790423365715000,2.59371484375,-0.9034095601707697,0.004900339262187481,0.8009206610769033
1772790423375780900,2.60378076171875,-0.5231073437809944,0.28203619568794963,0.7138990149017423
1772790423385846800,2.6138466796875,-0.06445581329762935,0.46137890962064265,0.5426748716253786
1772790423395912000,2.623911865234375,0.4798877952575683,0.5718243206769228,0.34775220164712517
1772790423405977900,2.633977783203125,0.9768073893368243,0.5765319138459861,0.03228928144723177
1772790423416044000,2.6440439453125,1.3644015163004397,0.509746196296066,-0.27821641820408405
1772790423426110000,2.65410986328125,1.617726873549819,0.4279435268782079,-0.49981166225895285
1772790423436174800,2.6641748046875,1.6820704586446285,0.27817455182373524,-0.7172178571261465
1772790423446241000,2.674240966796875,1.582185604569316,0.22245646399408578,-0.8689357012260704
1772790423456307000,2.684306884765625,1.3935586372017859,0.2276265601083636,-0.9487449318043887
1772790423466372000,2.6943720703125,1.1708254020929336,0.23366613253355026,-1.0562701445650309
1772790423476438000,2.70443798828125,0.8810182801425457,0.2377048865303397,-1.1421611792750657
1772790423486504000,2.71450390625,0.5450245765566826,0.34910891348570583,-1.0917690357085317
1772790423496569900,2.72456982421875,0.1085427923053503,0.5263412111356854,-0.9461259084124117
1772790423506635000,2.734635009765625,-0.3691898707449436,0.6778183052822947,-0.7783591390483081
1772790423516701000,2.744700927734375,-0.8130471522003412,0.8159446272075176,-0.626971184489876
1772790423526767000,2.75476708984375,-1.2408581387400626,0.9140180479466915,-0.5103473770596086
1772790423536833000,2.7648330078125,-1.5983815370887517,1.0200868513539434,-0.3621831337880343
1772790423546898000,2.77489794921875,-1.8319067998468874,1.138627013799548,-0.24534385697618125
1772790423556963800,2.7849638671875,-1.853886576464772,1.2623466247096657,-0.1394854814492166
1772790423567030000,2.795030029296875,-1.6553034477502107,1.4061033537372947,-0.06752586839273572
1772790423577095000,2.805094970703125,-1.2882009046733378,1.498800634396076,-0.08684844503272324
1772790423587160800,2.815160888671875,-0.8043693402260541,1.4625772283703087,-0.24331311833355573
1772790423597226800,2.825226806640625,-0.25125731880366803,1.357367964401841,-0.43720885641686613
1772790423607293000,2.83529296875,0.26535364869534966,1.2449109212622045,-0.570827674322389
1772790423617358000,2.845358154296875,0.6763619689941406,1.085619938494265,-0.6201062671564519
1772790423627424000,2.855424072265625,1.0008353306561708,0.9260174055591225,-0.6262875130746514
1772790423637490000,2.865489990234375,1.2794319072842597,0.7857076021149754,-0.5846337890958413
1772790423647555800,2.875555908203125,1.5067384416580198,0.6100654962658881,-0.5459810004986823
1772790423657621000,2.88562109375,1.6861299631685018,0.4106681285589933,-0.4835555970501154
1772790423667687000,2.89568701171875,1.7633365369677543,0.1950169606655836,-0.4276721625909209
1772790423677753000,2.905753173828125,1.7798323292165994,0.037655192394554615,-0.40600864884797483
1772790423687818000,2.91581787109375,1.7573808434337377,-0.01660129844993353,-0.3477089835599065
1772790423697884000,2.9258837890625,1.676612193238735,-0.03444295234978199,-0.2662615938531235
1772790423707949800,2.93594970703125,1.5195757113993167,-0.06460252829194069,-0.23999045845055952
1772790423718016000,2.94601611328125,1.3273650403261184,-0.0814487414136529,-0.1816322679082863
1772790423728081000,2.956080810546875,1.1556149734795094,-0.053421501325070855,-0.09250564881050959
1772790423738147000,2.96614697265625,0.9979115521639584,0.0004664484679698944,-0.04536238750470802
1772790423748212700,2.976212646484375,0.8694067528039217,0.09933949515223503,0.02961122134439647
1772790423758279000,2.98627880859375,0.7391413735121488,0.13636223486214874,0.0777212635894306
1772790423768343800,2.99634375,0.6446294446468352,0.12244403801634907,0.09842385987835005
1772790423778410000,3.006409912109375,0.5488876817256212,0.09753639125302434,0.14791845181696117
1772790423788476000,3.016475830078125,0.4262269322186708,-0.01419672152623534,0.1470147444428876
1772790423798540800,3.026540771484375,0.27880875807404515,-0.20493308226317167,0.1309784046656452
1772790423808607000,3.03660693359375,0.09307926571369171,-0.35184096879810095,0.18408815489411354
1772790423818673000,3.0466728515625,-0.05396715250909328,-0.4484278042413294,0.31358437644429504
1772790423828738800,3.05673876953125,-0.1505623173892498,-0.5202113300785423,0.4235319209810346
1772790423838804000,3.066803955078125,-0.16277765583992004,-0.5882677982166409,0.5243082440033555
1772790423848870100,3.0768701171875,-0.15086626877188683,-0.6661756521530449,0.5991504267588258
1772790423858935800,3.086935791015625,-0.19945465085208414,-0.7953199184603988,0.615790449783951
1772790423869002000,3.097001953125,-0.29662089361846444,-0.8797920993484556,0.6337308878831565
1772790423879067000,3.10706689453125,-0.3886819222003221,-0.9250054520376026,0.6714666712332517
1772790423889133000,3.117133056640625,-0.4561696505397558,-0.9082600689418613,0.6793510678075254
1772790423899199000,3.127198974609375,-0.43931320828497405,-0.8908636745914816,0.6416427569862455
1772790423909264000,3.137263916015625,-0.37000060260593887,-0.8757325948245823,0.53794462823309
1772790423919329800,3.147329833984375,-0.3037450464099645,-0.8641203368335961,0.3934594388004392
1772790423929396000,3.15739599609375,-0.27568507309556006,-0.8947408082857727,0.2541762567239813
1772790423939462000,3.1674619140625,-0.28295710992515083,-0.9244549785479903,0.09388033469719811
1772790423949527000,3.177527099609375,-0.34580431898236275,-0.9163372846744954,-0.015031199588999152
1772790423959592700,3.1875927734375,-0.43076866730153557,-0.9288286635875701,-0.10822327802740037
1772790423969659000,3.197658935546875,-0.5027139595717192,-0.9158356187626719,-0.18240279562305659
1772790423979724800,3.207724853515625,-0.5754857657939195,-0.8866856582544743,-0.28101689911019057
1772790423989790000,3.2177900390625,-0.6821908212780952,-0.8810404919743537,-0.39832507207542656
1772790423999855900,3.22785595703125,-0.8111012788295745,-0.8491384562790393,-0.5462929159920662
1772790424009922000,3.237922119140625,-0.9144938487648964,-0.7739912992276251,-0.7028440985325723
1772790424019987700,3.24798779296875,-0.9466811311423778,-0.6700256055794656,-0.8445641341008245
1772790424030052900,3.258052978515625,-0.99697631714046,-0.5768016706980764,-1.0341246559914201
1772790424040119000,3.268119140625,-1.0755658697307109,-0.5598217481940985,-1.228913287793845
1772790424050185000,3.27818505859375,-1.1801818439811467,-0.5761893840186297,-1.446457868218422
1772790424060250000,3.28825,-1.3386410521000622,-0.5579992089420557,-1.6757424246668815
1772790424070315800,3.298315673828125,-1.526664208355546,-0.5019210556283593,-1.7948928279653191
1772790424080382000,3.3083818359375,-1.7091075186520814,-0.3256258926980197,-1.8411375695288181
1772790424090448000,3.31844775390625,-1.8346020302802324,-0.07454816824495791,-1.843328942093253
1772790424100513000,3.328512939453125,-1.9460639249026774,0.172294841247797,-1.8480682455748318
1772790424110579000,3.338578857421875,-2.1144342861831187,0.37513080510124563,-1.8622610215783117
1772790424120645000,3.34864501953125,-2.2799504270762205,0.5771443466559052,-1.8484844251602888
1772790424130709800,3.358709716796875,-2.325146244108677,0.870255624718219,-1.7310026857264338
1772790424140776000,3.36877587890625,-2.248977781185508,1.1426097998254001,-1.682533692242205
1772790424150841900,3.378841796875,-2.0410820497244595,1.4014943986371158,-1.6901463592030106
1772790424160908000,3.388907958984375,-1.7171142994970081,1.5317472107082604,-1.8043451314434409
1772790424170973000,3.398972900390625,-1.3360153797715901,1.4701286666631699,-2.038122469266504
1772790424181038300,3.409038330078125,-0.9462345564186573,1.3728914044871925,-2.2506378233522177
1772790424191104500,3.4191044921875,-0.6020376726329326,1.2699195441819726,-2.363708029954135
1772790424201170400,3.42917041015625,-0.29113924733698365,1.1563478177987039,-2.3997223232738674
1772790424211235600,3.439235595703125,-0.11320493889749049,0.985887790762633,-2.433256197954714
1772790424221301500,3.449301513671875,0.0007335749715566634,0.8511242232687771,-2.4096222243890164
1772790424231367700,3.45936767578125,0.01570025795698166,0.7058066746652126,-2.4460309238538143
1772790424241432300,3.469432373046875,0.01724339574575424,0.6737402421884239,-2.4134300922393797
1772790424251498500,3.47949853515625,-0.03988192853331566,0.6817964151330291,-2.345260665246099
1772790424261564400,3.489564453125,-0.20402502750754356,0.7131549916014075,-2.2653470244452354
1772790424271630600,3.499630615234375,-0.46197979812324047,0.7633259666979313,-2.172786229647696
1772790424281695500,3.509695556640625,-0.7374836694329977,0.8855573848769068,-1.9952491038322449
1772790424291761400,3.519761474609375,-0.9639671969860791,1.1175463779784738,-1.7445681236118078
1772790424301827300,3.529827392578125,-1.201246843841672,1.351538235335052,-1.529985461732745
1772790424311893500,3.5398935546875,-1.4821248094052075,1.6074414802484214,-1.3286809452302752
1772790424321958700,3.549958740234375,-1.7969775252848863,1.8240680690452455,-1.1443301208119838
1772790424332024600,3.560024658203125,-2.12036309171021,2.002513249616325,-0.9624490475080907
1772790424342090500,3.570090576171875,-2.370819615525007,2.167899042128026,-0.7908243606068194
1772790424352155400,3.5801552734375,-2.4667320588380095,2.384243891374022,-0.5440290261806919
1772790424362221600,3.5902216796875,-2.444970308884978,2.6119939317315817,-0.2727059476869181
1772790424372287500,3.60028759765625,-2.3040946882516145,2.759888491216302,-0.02063457255400717
1772790424382353700,3.610353759765625,-2.0318425122141837,2.8971681331843135,0.22029091999065128
1772790424392418300,3.620418212890625,-1.6418541835904121,2.9451524118915198,0.3687503833491355
1772790424402484500,3.630484375,-1.1526859342902898,2.8268665164679287,0.3886845890814438
1772790424412550400,3.64055029296875,-0.6611112083703279,2.6334718963071704,0.38960495532937345
1772790424422616600,3.650616455078125,-0.24181144506633281,2.457153498631716,0.5178019308492541
1772790424432681500,3.660681396484375,0.09821779764592647,2.233273723836243,0.7001853276520967
1772790424442747400,3.670747314453125,0.4550584744274616,1.959597067953646,0.8953175852604209
1772790424452813300,3.680813232421875,0.8233283077180386,1.6856559159159659,1.074917123498395
1772790424462878500,3.69087841796875,1.1794786641478539,1.3827660250306129,1.2403792691819369
1772790424472944400,3.7009443359375,1.4887684852033853,1.0562363153606653,1.3741525104641914
1772790424483010600,3.711010498046875,1.7279828995138407,0.6593637801811099,1.4513469554342329
1772790424493076500,3.721076416015625,1.8581342970371246,0.18432722434699533,1.4121423416405916
1772790424503141400,3.731141357421875,1.9530793566226958,-0.1582198464050889,1.4525452253080904
1772790424513207600,3.74120751953125,2.023561006081104,-0.29028321502953763,1.5865896847471594
1772790424523273500,3.7512734375,2.110196502482891,-0.37339930513352154,1.6974185421630739
1772790424533339400,3.76133935546875,2.1118501149088145,-0.5420438071802258,1.7442710403613746
1772790424543404500,3.771404541015625,2.059367647999525,-0.7407482241868972,1.72274324529469
1772790424553470500,3.781470458984375,1.9934943691194056,-0.8957078997522592,1.6045163865819572
1772790424563536400,3.791536376953125,1.932843793323636,-0.9398609297335148,1.5327636942744254
1772790424573601500,3.8016015625,1.8099813837647436,-0.9348550842702388,1.5855793386608361
1772790424583667500,3.81166748046875,1.5429606786400079,-0.9575950316056608,1.6786092122748493
1772790424593733600,3.821733642578125,1.2089648708730936,-0.9959534038335084,1.7938801437914371
1772790424603799600,3.831799560546875,0.9568103109687566,-0.9891875629603862,1.9335610016822813
1772790424613864400,3.841864501953125,0.895359524706006,-0.9336796107500791,2.028657744698226
1772790424623930400,3.851930419921875,0.970360697415471,-0.8700541107967495,2.0768629726797343
1772790424633996500,3.86199658203125,1.0552648399800062,-0.916083456043899,2.0244236142598093
1772790424644061400,3.8720615234375,1.0706517942041158,-1.0826420917272568,1.859649962297082
1772790424654127400,3.88212744140625,1.0477443813472986,-1.2388953142344952,1.731364943167567
1772790424664193300,3.892193359375,0.9693068044483661,-1.2765341400161385,1.736693736974895
1772790424674259500,3.902259521484375,0.8381155424833298,-1.2868550430223344,1.750967030868679
1772790424684324600,3.91232470703125,0.7405635152697563,-1.2871063874348998,1.6905097856879234
1772790424694390500,3.922390625,0.6290384922832251,-1.2528618802666662,1.5996353365421294
1772790424704456400,3.93245654296875,0.4853133274376392,-1.2313929757803679,1.4623570097483694
1772790424714522400,3.9425224609375,0.24992343985140322,-1.226998540213704,1.27694155177325
1772790424724587500,3.95258740234375,-0.044487376502156256,-1.2047682959660888,1.076809001659602
1772790424734653400,3.9626533203125,-0.3356324690580368,-1.232300738275051,0.8496456020835786
1772790424744719600,3.9727197265625,-0.644464024952054,-1.3352648536652325,0.5890786031428724
1772790424754784500,3.982784423828125,-1.0025912344127892,-1.464755449192226,0.3568983983181417
1772790424764850400,3.992850341796875,-1.4189672192245721,-1.5685288351386784,0.20743556660339235
1772790424774915600,4.00291552734375,-1.8576380379527806,-1.5755156252861022,0.21011154434699564
1772790424784981500,4.0129814453125,-2.2672744853764772,-1.526585590161383,0.305952164532803
1772790424795047400,4.02304736328125,-2.6223335394382477,-1.4878449406176804,0.3806797809978947
1772790424805113600,4.033113525390625,-2.84178409961462,-1.3947183286309242,0.43014859917443243
1772790424815178500,4.043178466796875,-2.8938205763220783,-1.1367252718314529,0.5140644248213618
1772790424825244400,4.053244384765625,-2.785626743584871,-0.7165966564878821,0.663689388295263
1772790424835310300,4.063310302734375,-2.6065496948510405,-0.30507746405750513,0.769508016333729
1772790424845376500,4.07337646484375,-2.443799511539936,-0.023146920701116323,0.7954597653225064
1772790424855441700,4.083441650390625,-2.2391607360482215,0.21821239668354392,0.8496476479101925
1772790424865507300,4.09350732421875,-1.9386165315061807,0.49843116768598555,0.9647649232350289
1772790424875573500,4.103573486328125,-1.5005080228358507,0.7321718267604709,1.0144297023750841
1772790424885638400,4.113638427734375,-0.9435673830360174,0.909025500356406,0.988170275676623
1772790424895704600,4.12370458984375,-0.3144692695200443,0.9401851932518184,0.8474690617620945
1772790424905770500,4.1337705078125,0.3481049971401691,0.9264346080578864,0.698147245953232
1772790424915836700,4.143836669921875,0.9667997900635004,0.9212152659744024,0.5815151456186548
1772790424925901300,4.1539013671875,1.4430156188100576,0.8573787536188959,0.46697567018177355
1772790424935967500,4.163967529296875,1.7457646399199962,0.7666735235601663,0.38031489320825784
1772790424946033400,4.174033447265625,1.8180793500244616,0.6755149967759847,0.38799218637049193
1772790424956099600,4.184099609375,1.737847875446081,0.5323290533736348,0.3756275025770068
1772790424966164500,4.19416455078125,1.5558412030011415,0.4246969461724162,0.38631373176425693
1772790424976230400,4.20423046875,1.3149170621633528,0.41279198884516954,0.4857946081485599
1772790424986296300,4.21429638671875,0.9908382527768611,0.4915513450443744,0.5782179307041689
1772790424996361500,4.224361572265625,0.6052683251172304,0.6158627843677997,0.6616700112968683
1772790425006427600,4.234427734375,0.2145703869193792,0.748396985374391,0.719609355372563
1772790425016493600,4.24449365234375,-0.12515022823512553,0.9089914519563317,0.7940389387391508
1772790425026559500,4.2545595703125,-0.4682867893129587,1.0604042486950755,0.8587276840098201
1772790425036624400,4.264624267578125,-0.6598427958697081,1.2185378781214355,0.9260486044149845
1772790425046690600,4.274690673828125,-0.6859703398168087,1.344673025740683,0.886299800742045
1772790425056756500,4.284756591796875,-0.5271037199407815,1.46723762139678,0.8313248594298959
1772790425066821600,4.294821533203125,-0.2853203319251537,1.541854470963776,0.7257835139628499
1772790425076887300,4.30488720703125,-0.03882043678164482,1.5618156012356281,0.6791526226259768
1772790425086953500,4.314953369140625,0.2114782661229372,1.465075767187774,0.5884375652929767
1772790425097019400,4.325019287109375,0.39794893223941324,1.1949936286658047,0.490353440496698
1772790425107084500,4.33508447265625,0.6389870548456907,0.9094356885924935,0.46538865671865637
1772790425117150500,4.345150390625,0.9020663288682699,0.6909861221522092,0.4501923296958208
1772790425127216600,4.355216552734375,1.1281482898831368,0.5257070048853755,0.4279975951530039
1772790425137281500,4.365281494140625,1.2664771486431359,0.39397885956466194,0.44290728725418443
1772790425147347500,4.375347412109375,1.3069248943656682,0.2576420514047146,0.44348589085973794
1772790425157413400,4.385413330078125,1.2109680273890495,0.09743921448886395,0.46180619512200355
1772790425167479600,4.3954794921875,1.0688415299117564,-0.019852116939425467,0.5307400306165218
1772790425177544400,4.40554443359375,0.9456190548688173,-0.08784107279926538,0.5711932562317699
1772790425187611000,4.41561083984375,0.9181967949360609,-0.13232523443102837,0.5731872795931995
1772790425197676800,4.4256767578125,0.9693015437513589,-0.21277298210859297,0.4838937429632991
1772790425207743000,4.435742919921875,1.05798052867949,-0.28371611159890886,0.38339769818708297
1772790425217808000,4.445807861328125,1.0924883629590272,-0.3732657418817282,0.30029309759149325
1772790425227873800,4.455873779296875,1.0145265868782996,-0.47390667502135037,0.2558587116518989
1772790425237939700,4.465939697265625,0.8652613235622644,-0.55987493968606,0.25139537556748837
1772790425248004900,4.4760048828125,0.7388765850961208,-0.5077241889491677,0.3535826978988945
1772790425258071000,4.486071044921875,0.6574678834319114,-0.4107300878793001,0.4865677844781428
1772790425268136700,4.49613671875,0.5189952322870492,-0.5178574604287743,0.4473814369935542
1772790425278203000,4.506202880859375,0.27982699520587917,-0.7606219684362411,0.3180027774084359
1772790425288267800,4.516267822265625,0.006019990941882133,-1.016728480836749,0.232097458444722
1772790425298334000,4.526333984375,-0.24545710809230803,-1.146504907567799,0.25111400134284045
1772790425308399900,4.53639990234375,-0.4720364972352981,-1.1395125644624233,0.2918347187878564
1772790425318464800,4.54646484375,-0.6329957054764032,-1.0298732090920208,0.353103536079824
1772790425328530700,4.55653076171875,-0.6921358767092227,-0.9352543127208948,0.4026464789384976
1772790425338596900,4.566596923828125,-0.7198200024485588,-0.8873898610010743,0.4680978060794994
1772790425348662800,4.576662841796875,-0.7843494655042886,-0.8794450394764542,0.49772992408145217
1772790425358728000,4.58672802734375,-0.9325766179442405,-0.9635761518418788,0.5014437569728121
1772790425368793900,4.5967939453125,-1.1351871024787425,-1.0749699496641754,0.5243165734402835
1772790425378859800,4.60685986328125,-1.275748250335455,-1.084463754196465,0.5750264777190983
1772790425388925000,4.616925048828125,-1.3131670036256313,-0.9722828976497053,0.6200021491948515
1772790425398990800,4.626990966796875,-1.2577256869107485,-0.7943450820788741,0.6703992611974477
1772790425409057800,4.637057861328125,-1.182464401960373,-0.6402794327437877,0.6929724736638366
1772790425419123000,4.647123046875,-1.2109557524293662,-0.5529013012811541,0.6891599296383559
1772790425429188900,4.65718896484375,-1.3634025683909654,-0.5457707187488675,0.6062368413558229
1772790425439254800,4.6672548828125,-1.5479115790456532,-0.5667255362331867,0.5254987689621746
1772790425449320000,4.67731982421875,-1.6096043573707342,-0.5806570309519767,0.44210861115716393
1772790425459385900,4.6873857421875,-1.589493881756067,-0.5943471181303263,0.29687600089069455
1772790425469452000,4.6974521484375,-1.438654500991106,-0.6782254247784614,0.10035504713663831
1772790425479518000,4.70751806640625,-1.2141443193376062,-0.7365197928369045,-0.051252614587079734
1772790425489582800,4.717582763671875,-1.0137427430242298,-0.7068079606622457,-0.10937343444321304
1772790425499648800,4.727648681640625,-0.8932043924987315,-0.6419271999508143,-0.1466926728816703
1772790425509715000,4.73771484375,-0.9481506191730499,-0.551400249068439,-0.11999796917163766
1772790425519779800,4.74777978515625,-1.0955500886172056,-0.39787469795942304,-0.02968172473076265
1772790425529846000,4.757845947265625,-1.2451420996695757,-0.15468465801626444,-0.008693749328935518
1772790425539911700,4.76791162109375,-1.3239759824097155,0.11429448769986629,0.004740618655830622
1772790425549977900,4.777977783203125,-1.2640665803700686,0.4106429941177368,-0.02234787927791476
1772790425560042800,4.788042724609375,-1.088242395952344,0.692023648506403,-0.10470924202445894
1772790425570109000,4.79810888671875,-0.8542319800257683,0.9637202364876866,-0.18045005412008613
1772790425580174800,4.8081748046875,-0.5982973170608282,1.1492246879205108,-0.27861544572534036
1772790425590241000,4.818240966796875,-0.31991935161948204,1.2350883231669663,-0.46693771279156204
1772790425600306000,4.828305908203125,0.01052490114569664,1.2918608884856104,-0.642082755838707
1772790425610371800,4.838371826171875,0.2966390137970447,1.2192431037813425,-0.8487603436816483
1772790425620437800,4.848437744140625,0.563289716565609,1.1277873476162552,-0.9288990254100412
1772790425630503000,4.8585029296875,0.7307564070045948,1.066910269588232,-0.9426390161447227
1772790425640568800,4.86856884765625,0.8264630986124276,0.9920628261357545,-0.9454844687037169
1772790425650634800,4.878634765625,0.943351694458723,0.9245569776177406,-0.9629614540096372
1772790425660700700,4.88870068359375,1.0282581751108169,0.8225219597712159,-1.0512756242133676
1772790425670765800,4.898765869140625,1.02534316444695,0.7007400389254093,-1.153451877161488
1772790425680832000,4.90883203125,0.9896978505700826,0.7018377710342407,-1.1582074741907418
1772790425690898000,4.91889794921875,0.8834042984962462,0.763371267144382,-1.1715168184231965
1772790425700962800,4.928962890625,0.7398994984030723,0.8384355682179331,-1.0878723935961723
1772790425711028700,4.93902880859375,0.5464215838730335,0.8968576543092727,-0.9636069123063236
1772790425721095000,4.949094970703125,0.29355682987272735,0.9076160719498991,-0.8731377560257911
1772790425731160800,4.959160888671875,-0.013114917638897895,0.8994786504626273,-0.8361958264671265
1772790425741226000,4.96922607421875,-0.2856172690451145,0.9000684330493212,-0.7831978112511336
1772790425751291600,4.979291748046875,-0.5869722054481507,0.9031146688774228,-0.6846345611684024
1772790425761357800,4.98935791015625,-0.8926151944339275,0.9118325206011533,-0.5455960563017055
1772790425771423000,4.999423095703125,-1.1122855348408223,0.9379340533241629,-0.4452331729184836
1772790425781489000,5.009489013671875,-1.1687521029502153,1.0065265280351041,-0.37729156333170827
1772790425791554800,5.019554931640625,-1.1093506504327058,1.087152847149968,-0.3633203941896558
1772790425801621000,5.02962109375,-0.982813351753354,1.1585562876284121,-0.3507591649107635
1772790425811686000,5.039685791015625,-0.8243132271021604,1.2155801973596214,-0.2989881342064589
1772790425821751800,5.049751708984375,-0.6478454840838909,1.1445444211497902,-0.3280818344827741
1772790425831818000,5.05981787109375,-0.415275330093503,0.9699231827810406,-0.37512554440423845
1772790425841883000,5.0698828125,-0.11449322514235973,0.8000374485015869,-0.42830636884123086
1772790425851948800,5.07994873046875,0.17134616222083568,0.5888078964427114,-0.5653304286129772
1772790425862014700,5.0900146484375,0.4335726188063621,0.39039194098860025,-0.6638391720294952
1772790425872081000,5.100080810546875,0.6736573862105607,0.21952099506407974,-0.7521134486142546
1772790425882145800,5.110145751953125,0.8347305762201547,0.09100684335380792,-0.8443201692771166
1772790425892212000,5.1202119140625,0.9379840299457312,-0.012934592635929583,-0.9026387949939817
1772790425902278000,5.13027783203125,0.9878998612374067,-0.07930296155661344,-0.9294090938240289
1772790425912342800,5.1403427734375,0.9881722484380007,-0.13586013055890797,-0.9415651763681322
1772790425922408700,5.15040869140625,0.9369511797666549,-0.21077771663814782,-0.9491646185211837
1772790425932475000,5.160474853515625,0.8294757244318723,-0.24900340239703653,-0.9067033410191535
1772790425942540800,5.170540771484375,0.681363138282299,-0.2644087690606713,-0.8413344314645975
1772790425952606000,5.18060595703125,0.5240934322088957,-0.28938451262414455,-0.7882906774107367
1772790425962671900,5.190671875,0.3775900348216295,-0.29682956793308257,-0.7183583323981613
1772790425972737800,5.20073779296875,0.24967034187316894,-0.2920303509578109,-0.6913877617556602
1772790425982803700,5.2108037109375,0.16449673471748827,-0.27558161272108556,-0.6355778309240937
1772790425992868900,5.220868896484375,0.11228782405257225,-0.2551785839006305,-0.6037726797319948
1772790426002935000,5.23093505859375,0.048483752661943436,-0.2795435020893812,-0.6297843422144651
1772790426013001000,5.2410009765625,-0.019788988575339315,-0.3377551603004336,-0.6346154156327247
1772790426023065900,5.25106591796875,-0.16107377453148364,-0.39695787537544963,-0.6385992976371199
1772790426033131800,5.2611318359375,-0.3101683574557304,-0.4396899326428771,-0.6078853757478296
1772790426043198000,5.271197998046875,-0.4233721273094415,-0.40098493893444537,-0.5752926543746143
1772790426053264000,5.281263916015625,-0.38138591997325416,-0.34422347953170535,-0.5749637877464294
1772790426063328800,5.291328857421875,-0.27513094634413715,-0.34189503658413883,-0.5607712309386581
1772790426073394700,5.301394775390625,-0.17389584670364855,-0.35594489698559045,-0.6031927609521895
1772790426083460900,5.3114609375,-0.14954115764796733,-0.41063685663789506,-0.6198743580967188
1772790426093525800,5.32152587890625,-0.20546002874672412,-0.5272711854621768,-0.651537908861041
1772790426103592000,5.331592041015625,-0.25453648660480976,-0.6340855465397238,-0.6479367425639182
1772790426113657900,5.341657958984375,-0.2545966923594475,-0.6764680597171187,-0.6571019727289676
1772790426123723800,5.351723876953125,-0.2341863570153713,-0.6742921769827603,-0.7362428755916655
1772790426133789000,5.361788818359375,-0.24654957950413225,-0.614232260556519,-0.7879540658675134
1772790426143854800,5.371854736328125,-0.33081425512135026,-0.5530108991354704,-0.8252740349583327
1772790426153920800,5.381920654296875,-0.4813052608400583,-0.5058335528969764,-0.907740794308111
1772790426163985700,5.391985595703125,-0.681107702216506,-0.4507286285296082,-1.0291422644689678
1772790426174051800,5.4020517578125,-0.9475596675425767,-0.3797887139096856,-1.0515718306809663
1772790426184117500,5.412117431640625,-1.2847966491878031,-0.2955044568091631,-0.9890968890022486
1772790426194183700,5.42218359375,-1.6288655226796864,-0.15428396826088428,-0.8647565158452838
1772790426204248600,5.43224853515625,-1.877503598895669,0.0603232435375452,-0.6705863082021475
1772790426214314800,5.442314697265625,-2.0582266612708566,0.22140432459264991,-0.522122607059963
1772790426224380400,5.45238037109375,-2.1349328843325375,0.2652700620651245,-0.46575960892289875
1772790426234445600,5.462445556640625,-1.9864929659247397,0.2617459795922041,-0.4469517403393984
1772790426244511500,5.472511474609375,-1.6663526650309561,0.23687866483926773,-0.4907300187241286
1772790426254577700,5.48257763671875,-1.3488555721223354,0.2043175807133317,-0.4537391719898209
1772790426264643600,5.4926435546875,-1.0504314284741878,0.17179975120723245,-0.3725784902699292
1772790426274708500,5.50270849609375,-0.7808569472134113,0.08914689470082521,-0.3544182354075834
1772790426284774700,5.512774658203125,-0.5311936196029186,-0.024543781886994836,-0.388753964523226
1772790426294840600,5.522840576171875,-0.355143809735775,-0.07701543514132499,-0.36766163826435805
1772790426304905700,5.53290576171875,-0.2590215230643749,0.048263972431421276,-0.290598710719496
1772790426314971600,5.5429716796875,-0.3039116351485252,0.1985436734870076,-0.17477562521286308
1772790426325037600,5.55303759765625,-0.4184720803081989,0.2949909543290734,-0.11032478035129606
1772790426335102500,5.5631025390625,-0.509917022818327,0.3182604784965515,-0.12017543549723922
1772790426345168600,5.573168701171875,-0.6796633486270904,0.2939633648470044,-0.13132833234816788
1772790426355234600,5.583234619140625,-0.7903215256512165,0.40255993316620586,-0.10767061258070171
1772790426365300700,5.59330078125,-0.7992243785530329,0.6316881300091743,-0.024841741920262575
1772790426375365400,5.603365478515625,-0.7134528055042028,0.9366825919583439,0.07919409435465931
1772790426385431600,5.613431640625,-0.4951829795449972,1.2324582669243216,0.10965192259103058
1772790426395497500,5.62349755859375,-0.17164836003780365,1.4627958395570515,0.09465659803301095
1772790426405562600,5.633562744140625,0.18078735978305338,1.5571403029009698,0.05547361154928803
1772790426415628500,5.643628662109375,0.44092648870050904,1.4195970415607093,-0.02951265634074807
1772790426425694700,5.65369482421875,0.5933902557969093,1.1529966076746583,-0.09207914876043796
1772790426435760400,5.663760498046875,0.5956628769040108,0.9395102165997028,-0.10067775801867246
1772790426445825500,5.673825439453125,0.48355508559346194,0.8502513859570026,-0.004398965611308813
1772790426455891700,5.6838916015625,0.4134638967573642,0.7615083958819509,0.024580022244155404
1772790426465957600,5.69395751953125,0.35158231786191463,0.7051967260733246,0.036755320945382114
1772790426476022500,5.7040224609375,0.22359365133047102,0.709306499479711,0.04346972389221191
1772790426486088400,5.71408837890625,0.04951192666590214,0.7843456661120056,0.06717062521427869
1772790426496154600,5.724154541015625,-0.1563087520867586,0.923095965154469,0.14484423200339078
1772790426506220500,5.734220458984375,-0.3458884901344776,0.9688365565881133,0.16485270854830741
1772790426516285700,5.74428564453125,-0.4813607904195785,0.8748068582817912,0.09683657242059707
1772790426526351600,5.7543515625,-0.4960545016825199,0.7591369905754923,0.0011209668539464473
1772790426536417500,5.76441748046875,-0.4028951564699411,0.6812395119026303,-0.10695537698343395
1772790426546482700,5.774482666015625,-0.23802198965549468,0.5608157276675104,-0.24056626731082795
1772790426556548600,5.784548583984375,-0.09154314218759536,0.38684038598686454,-0.3749772219747305
1772790426566614500,5.794614501953125,0.07481295666098595,0.2639192319780588,-0.4533165991961956
1772790426576680700,5.8046806640625,0.23618425283432004,0.18358108215481042,-0.43925081057325005
1772790426586745600,5.81474560546875,0.38475218153595925,0.14078180487006903,-0.4251750850781798
1772790426596811500,5.8248115234375,0.5378355418354273,0.06116378601491451,-0.46359643953964114
1772790426606877400,5.83487744140625,0.6850158155709505,-0.08458382456898689,-0.5260654629342257
1772790426616942600,5.844942626953125,0.7843272536724806,-0.26214754613041874,-0.6123204355858266
1772790426627008800,5.8550087890625,0.749092858684063,-0.3947717635080218,-0.6614657208964229
1772790426637074700,5.86507470703125,0.681870503282547,-0.42279841907471416,-0.6830827286165208
1772790426647140600,5.875140625,0.6018816052883863,-0.364864116500318,-0.6767643392499536
1772790426657205500,5.88520556640625,0.4772948561549186,-0.27483254791945216,-0.6970384809937328
1772790426667271700,5.895271728515625,0.3154734781265259,-0.18276684316247702,-0.7225953123807907
1772790426677337600,5.905337646484375,0.14411913259923456,-0.08597966284155845,-0.7609893404439091
1772790426687402500,5.915402587890625,0.00006429740786552428,-0.012852175049483775,-0.7961721513755619
1772790426697468400,5.925468505859375,-0.12813012082874775,0.03504734798371792,-0.8463172613784671
1772790426707534600,5.93553466796875,-0.22146949878334998,0.07356383338272571,-0.9680538817778229
1772790426717600500,5.9456005859375,-0.28273206899762154,0.09511369415074586,-1.1124698053665458
1772790426727665700,5.955665771484375,-0.3158411423951387,0.14071896876692772,-1.223679771054536
1772790426737731600,5.965731689453125,-0.33920214423835277,0.2497632808536291,-1.3293151514805852
1772790426747797500,5.975797607421875,-0.38990006581842895,0.3849976807296276,-1.4087193814545869
1772790426757862700,5.985862548828125,-0.427787605664134,0.554438301590085,-1.4776402113370597
1772790426767928600,5.995928466796875,-0.4848749360203743,0.7683467174693942,-1.5388485671460628
1772790426777994800,6.005994873046875,-0.573778377354145,0.9975929877340793,-1.5957811453320085
1772790426788060700,6.016060791015625,-0.6067576868921518,1.1886641333833337,-1.626581795656681
1772790426798125600,6.02612548828125,-0.6538064383149147,1.4219000578060745,-1.6150668605603278
1772790426808191500,6.03619140625,-0.6760714616149663,1.5599813715457915,-1.5989546608015894
1772790426818257700,6.046257568359375,-0.7324889298856258,1.605018198624253,-1.6643129758968949
1772790426828322600,6.056322509765625,-0.8491939858585595,1.6932830497935414,-1.6116536911159753
1772790426838388700,6.066388671875,-1.0761188274383544,1.9014605208054183,-1.4811311221927403
1772790426848454700,6.07645458984375,-1.2650421474039555,2.0372391105607153,-1.595450013681501
1772790426858519600,6.08651953125,-1.3127297812521457,2.1512635491475463,-1.6842836046494543
1772790426868585500,6.09658544921875,-1.363533501294255,2.200856139834225,-1.7646664703972637
1772790426878651600,6.106651611328125,-1.479731192266941,2.2826360128983856,-1.8168842950209974
1772790426888717600,6.116717529296875,-1.6434645413964986,2.4321815544605254,-1.742392825399339
1772790426898782500,6.126782470703125,-1.8701894764900207,2.467453651110828,-1.6877407593660056
1772790426908848600,6.1368486328125,-2.116336320412159,2.296803069938719,-1.6946771345004439
1772790426918914600,6.14691455078125,-2.371127074038982,2.106728826372325,-1.6878671622246504
1772790426928979700,6.156979736328125,-2.522213707563281,2.0355317221209406,-1.6542961704038082
1772790426939045600,6.167045654296875,-2.4888994669824838,2.0291890750959514,-1.7024460149362681
1772790426949111800,6.17711181640625,-2.3192536789387463,2.082939662244916,-1.7328788548618554
1772790426959177500,6.187177490234375,-2.012100869911909,2.34855546900779,-1.5960285442218183
1772790426969242600,6.19724267578125,-1.7588129220634698,2.652514158168435,-1.4170757063895463
1772790426979308500,6.20730859375,-1.7327163577765226,2.7127169901967045,-1.3775716712579131
1772790426989374700,6.217374755859375,-1.7376812867075204,2.5830869861990213,-1.434391728980094
1772790426999439600,6.227439697265625,-1.6668302194148301,2.464646776996553,-1.6185542642846702
1772790427009505500,6.237505615234375,-1.5381202528715132,2.516077689026296,-1.8236562733739614
1772790427019571500,6.247571533203125,-1.463664439085126,2.6345176059678197,-2.0566336929909883
1772790427029637600,6.2576376953125,-1.4097212519735096,2.8458105786517263,-2.167626362666488
1772790427039702500,6.26770263671875,-1.4087234731078146,3.0365400712564585,-2.238780066167563
1772790427049768700,6.277768798828125,-1.4000725491404533,3.159847594234347,-2.3101592489875853
1772790427059834400,6.28783447265625,-1.3996324041575192,3.108008685925603,-2.422098551863432
1772790427069899500,6.2978994140625,-1.463046599447727,2.888862953914702,-2.471111881357431
1772790427079965700,6.307965576171875,-1.5496493626236916,2.685005976450443,-2.398237929935008
1772790427090031600,6.318031494140625,-1.4972282705128193,2.539580437427759,-2.3190125636592507
1772790427100096800,6.3280966796875,-1.3368933316498994,2.4379426022052764,-2.2499627005696294
1772790427110162400,6.338162353515625,-1.2261451382547617,2.3616464212492105,-2.254803710860014
1772790427120228600,6.348228515625,-1.2684060708791016,2.345733981846273,-2.2048821804799137
1772790427130294500,6.35829443359375,-1.2687760732352733,2.4199063025161625,-2.0685946182891723
1772790427140359700,6.368359619140625,-1.2913017932981252,2.422946693125367,-1.9082791147790847
1772790427150425600,6.378425537109375,-1.3492694136202334,2.346106030029058,-1.7381757922261953
1772790427160491800,6.38849169921875,-1.413555131047964,2.229253090018034,-1.5687211428403853
1772790427170556700,6.398556640625,-1.384274676027894,2.1367942942902443,-1.3866511959008871
1772790427180622000,6.4086220703125,-1.2254027954548596,2.0705194488719103,-1.3131355855740605
1772790427190688300,6.418688232421875,-1.0278425800472497,2.0668194253101944,-1.2506383589982986
1772790427200754200,6.428754150390625,-0.7155307808220386,2.061663357721269,-1.1570301740396767
1772790427210819000,6.438819091796875,-0.318882409787178,1.9828185151956974,-1.118818297610432
1772790427220885000,6.448885009765625,0.12938801193535326,1.9320754392996429,-1.0815363955076782
1772790427230951200,6.458951171875,0.5130360316216945,1.8423655038885771,-0.9789873637244105
1772790427241016000,6.46901611328125,-0.6114478905349969,2.2678457093931734,0.6505041818991303
1772790427251082200,6.479082275390625,0.05405483079254627,2.471791095793247,2.4829712459772826
1772790427261148200,6.489148193359375,2.251468428957462,0.22411475259512662,0.4473934196922928
1772790427271213000,6.499213134765625,2.8685201308488844,-1.111419711791724,-0.8555909934192896
1772790427281279000,6.509279052734375,1.6193232028305529,-0.6979620986446737,-1.107114708074182
1772790427291345200,6.51934521484375,-1.2079255909532307,0.7571789883755147,-0.7621432597193867
1772790427301411000,6.5294111328125,-1.1592489460676907,1.514562267151475,-0.535768160976842
1772790427311476000,6.53947607421875,-0.2955424507319927,1.8164358206011353,-0.7210507863525301
1772790427321542100,6.549542236328125,-0.4264104720920324,1.9743157675273715,-1.0612843925304711
1772790427331608000,6.559608154296875,-0.4127601324021816,1.2359142525970934,-1.2151806766480207
1772790427341673200,6.569673095703125,-0.0698433515548706,0.6250098212890327,-0.5391795037902891
1772790427351739100,6.5797392578125,-0.529520133432746,0.4123794625215232,-0.37112821839638055
1772790427361805300,6.589805419921875,-0.6234931331157684,0.3476338724970817,-0.20715061218217015
1772790427371871000,6.59987109375,-0.22419921600818632,0.27009397509023547,-0.02453238371014595
1772790427381936000,6.60993603515625,-0.22320552879571914,0.1689680349126458,0.03345240694247186
1772790427392002000,6.620001953125,-0.5246119031250477,0.1219400340169668,0.01824219752475619
1772790427402068200,6.630068115234375,-0.6192459970653057,-0.06011018530875444,-0.3063259297486394
1772790427412133000,6.640133056640625,-0.3909527897417545,-0.1338984750971198,-0.07903554279208183
1772790427422199000,6.650198974609375,0.0686409900277853,-0.5507547907717526,0.3691363139268011
1772790427432265000,6.660264892578125,0.5509457832992076,-0.6390181806363165,0.5529710785817354
1772790427442330000,6.670330078125,0.8729910410314797,-0.09060980686023831,0.792005679345876
1772790427452396000,6.68039599609375,0.9082873953402042,0.3056074792809784,1.209845672295615
1772790427462462200,6.690462158203125,0.5592185216039419,0.28666677809804675,1.2437176198244093
1772790427472528000,6.70052783203125,0.2016097830593586,-0.15651435766145586,1.1497275959413498
1772790427482593000,6.710593017578125,-0.05195639720857143,-0.5060173850312829,1.1771208489753304
1772790427492659200,6.7206591796875,-0.5137585006773472,-0.9474376485981046,1.4411866498172283
1772790427502725000,6.73072509765625,-0.9515227259546518,-1.1664666223615408,1.4708569809377192
1772790427512790300,6.740790283203125,-0.884699014481902,-1.2078162853598593,1.8837728884235023
1772790427522856000,6.75085595703125,-0.42068683374822136,-1.018858186341822,2.256201156567782
1772790427532922000,6.760922119140625,0.012593524113297462,-0.8684346929013729,1.6303762195035814
1772790427542988000,6.770988037109375,0.2261784071266651,-0.7665171639546752,0.7432927941031754
1772790427553053200,6.78105322265625,0.31957389918267726,-0.8109604090541601,0.08675441007371991
1772790427563119000,6.791119140625,0.4100637329250574,-0.8454638594195246,0.0808074113028124
1772790427573185300,6.801185302734375,0.12932254548370836,-0.7831976651206612,0.6083839363871142
1772790427583250000,6.81125,-0.156897365629673,-0.6635705842211842,0.8045041455868631
1772790427593316000,6.821316162109375,-0.06915536929070949,-0.6550738279022276,1.0181323562853037
1772790427603382000,6.831382080078125,-0.017084990313649177,-0.627468174226582,1.7935335223108528
1772790427613447200,6.841447265625,0.4080629144966602,-0.6020749359034001,2.1352190077975393
1772790427623513000,6.85151318359375,0.958230699160695,-0.8068548734314739,1.9030600649565457
1772790427633579000,6.8615791015625,-0.43471360553503036,-1.261495560838282,0.5308836768709123
1772790427643645000,6.87164501953125,-1.529438933765888,-0.6785716078676283,-0.47438678668849166
1772790427653710000,6.8817099609375,-1.345707921746373,0.007879062812030315,-0.37021095742098986
1772790427663776300,6.8917763671875,-1.258418345350027,0.3187161133095622,0.28055421350188553
1772790427673842200,6.90184228515625,-0.9810317290335893,0.03685293610095978,0.26429266840033233
1772790427683907000,6.911906982421875,-0.9852169057637452,-0.032305063538253305,0.16445596431568263
1772790427693973000,6.921972900390625,-0.9069833270043134,0.10454451644942164,0.672871788790822
1772790427704039200,6.9320390625,-0.896493497171998,-0.1426597275711596,1.0541147931620478
1772790427714104000,6.94210400390625,-1.130643029308319,-0.7904910369992255,0.7436389771923423
1772790427724170200,6.952170166015625,-0.6311340032577514,-1.2354890129223466,0.6073733345724642
1772790427734236000,6.96223583984375,-0.11255495055615901,-0.61915393486768,0.6600457710959017
1772790427744302000,6.972302001953125,0.30088205819427966,-0.4135661880880594,0.32774303098246454
1772790427754367200,6.9823671875,0.38316462008357044,-0.2662931215025484,-0.07001929264366627
1772790427764433200,6.99243310546875,-0.0070972647845745085,-0.005946779575198889,-0.020966069530695675
1772790427774499000,7.0024990234375,0.08304185582399368,-0.03348112158030271,0.16231339932903646
1772790427784564000,7.01256396484375,0.17221417722702026,0.12232771816030144,0.22831527302488683
1772790427794630100,7.022630126953125,0.5439917263776064,0.09110971920639276,0.25164105742424725
1772790427804696000,7.032696044921875,0.9966559991449117,0.06542334315553307,0.06952317968979478
1772790427814761200,7.04276123046875,1.1215250723510979,-0.348613385053724,-0.4562346785999834
1772790427824827100,7.0528271484375,0.8347890284091234,-0.6850605314955115,-0.6166805304914712
1772790427834893000,7.06289306640625,4.288872082430124,-0.33973069815710183,-0.2527672849752009
1772790427844959000,7.072958984375,1.3353373343795538,0.9955071213707327,2.710681977237761
1772790427855024000,7.083024169921875,1.16906014598608,-0.5847752799257636,1.5338120342835784
1772790427865090000,7.093090087890625,1.7651082228153943,-1.3393779880724848,-2.179014748773724
1772790427875156200,7.10315625,1.0942582952409983,-0.4227048225071281,-0.7629739383898675
1772790427885221000,7.11322119140625,0.16470599355399607,-0.04124284162297845,0.8774119262136518
1772790427895287000,7.123287109375,0.1878144819408655,-0.10441782132983207,0.7016605147711932
1772790427905353000,7.13335302734375,-0.1742290241807699,0.001140475272014737,0.36943186280727386
1772790427915418000,7.143418212890625,-0.9988123003959655,0.026408918171748518,0.19547566421851514
1772790427925484300,7.153484375,-1.1636521494627,0.0765010558784008,-0.017269553100317716
1772790427935550200,7.16355029296875,-0.9768494749128818,0.26239143788889047,0.027229952231049535
1772790427945616100,7.1736162109375,-0.8988099574208259,0.2893688766635954,0.03373787282034755
1772790427955681000,7.183680908203125,-0.802771257379651,0.24548136575073,0.11346673163883388
1772790427965747200,7.193747314453125,-0.7102250756293534,0.05649915520474314,0.21617563015893101
1772790427975813000,7.203813232421875,-0.732171534499526,-0.17019114696681498,0.4154103546500206
1772790427985878000,7.2138779296875,-0.7774526917278766,-0.2568269356295466,0.5230438500907272
1772790427995944000,7.22394384765625,-0.6631050125360488,-0.3160715901501477,0.44833449993468816
1772790428006010000,7.234010009765625,-0.5294692800283431,-0.3710103641703725,0.34651122514270244
1772790428016075000,7.244074951171875,-0.4520733211368322,-0.05510930828154087,0.3202222800888121
1772790428026141200,7.25414111328125,-0.3875321676433086,0.22379034294635056,0.19637538953721523
1772790428036207000,7.26420703125,-0.0032131168276071545,-0.3780677353359759,0.06102912678457796
1772790428046273000,7.27427294921875,-0.002461421677470207,-0.6305836758986115,-0.007948620916903019
1772790428056338200,7.284338134765625,-0.20441373456418513,-0.6841239812977612,0.06626249739341437
1772790428066404000,7.294404052734375,-0.23425006990134714,-0.37084918225929137,0.22658077738247812
1772790428076470000,7.304469970703125,-0.05594225197434425,-0.16094079580157994,0.22509784534834323
1772790428086535200,7.31453515625,0.043676644641160965,-0.18890841465741395,0.18167809807769952
1772790428096601000,7.32460107421875,0.06871580882966517,-0.2107721636801958,0.1603249289255589
1772790428106667000,7.3346669921875,-0.04765957679748535,-0.24358517674058675,0.16597184877134857
1772790428116732200,7.344732177734375,-0.14553659818172454,-0.4247961687631905,0.2737138460878283
1772790428126798000,7.354798095703125,-0.05877309148609638,-0.5371348462201655,0.41166276561953125
1772790428136864300,7.3648642578125,0.007571312037110328,-0.5133240547828376,0.4834577626988291
1772790428146930000,7.374929931640625,0.11373977642655372,-0.4753190260373056,0.5345480445973575
1772790428156995000,7.3849951171875,0.5086410115331411,-0.3990943028822541,0.5407799977894873
1772790428167061000,7.39506103515625,0.7375164026588201,-0.4615104270458221,0.4561155822649598
1772790428177127700,7.405127685546875,0.7140484333097934,-0.5498040659181773,0.532191544599086
1772790428187192600,7.415192626953125,0.436444959372282,-0.6085645901836455,0.6490205922778696
1772790428197258800,7.4252587890625,0.21153262665867803,-0.7181180208362639,0.7003649950679391
1772790428207324400,7.435324462890625,0.06771452283263206,-0.7077069553285836,0.745638261250779
1772790428217389600,7.4453896484375,0.03366729180216789,-0.6233472949042916,0.7411952373020351
1772790428227455500,7.45545556640625,0.04611293187737465,-0.5736344388388097,0.6744320238448679
1772790428237521700,7.465521728515625,0.08800444666743278,-0.5788260161325335,0.6008730127677321
1772790428247587600,7.475587646484375,0.007972294053435325,-0.5267357634112239,0.6094366968430578
1772790428257652500,7.485652587890625,-0.18842121566236017,-0.5009495802477002,0.6182780288159847
1772790428267718700,7.49571875,-0.2530745973587036,-0.5064351720519363,0.5941998186141252
1772790428277784600,7.50578466796875,-0.27175007173418997,-0.5132286315843463,0.5340955515895038
1772790428287849700,7.515849609375,-0.35204993537366386,-0.5244719101324677,0.4797982903432101
1772790428297915600,7.52591552734375,-0.2912444612771273,-0.5287755986757576,0.4230523207705468
1772790428307981600,7.535981689453125,-0.15756138249635696,-0.4957080263324082,0.34801194856185463
1772790428318046500,7.54604638671875,-0.0165524908721447,-0.46994507791399953,0.2651154925579205
1772790428328112600,7.556112548828125,-0.0077197805970907205,-0.4626309555083513,0.23920575607996433
1772790428338178600,7.566178466796875,-0.2284136188328266,-0.598406768784672,0.24832919292990116
1772790428348244700,7.57624462890625,-0.46470659273862835,-0.7709319116570055,0.315440269976668
1772790428358309600,7.5863095703125,-0.5672206262737512,-0.8340000699885189,0.3228154749197885
1772790428368375600,7.59637548828125,-0.5182388609617948,-0.8363760053396224,0.2345319921152666
1772790428378441500,7.60644140625,-0.49952831527292724,-0.7247872694671154,0.11389438246637582
1772790428388506600,7.616506591796875,-0.5791501335203647,-0.5729530324459076,-0.0699317239580676
1772790428398572800,7.62657275390625,-0.7126023261547089,-0.45543373748064037,-0.27799444601647555
1772790428408638700,7.636638671875,-0.9069283819466829,-0.3638479251950979,-0.5127119142338633
1772790428418703600,7.64670361328125,-1.002895770317316,-0.2630342658370733,-0.7142986086785793
1772790428428769500,7.65676953125,-0.9763122992962598,-0.22600977256149052,-0.9215480050601065
1772790428438835700,7.666835693359375,-0.7908119395166635,-0.17670768925398586,-1.1539255590878426
1772790428448900600,7.676900634765625,-0.5862251864731312,-0.06505582501739263,-1.4110384720519185
1772790428458966500,7.686966552734375,-0.475886158400774,-0.011218144106864928,-1.6463742913633583
1772790428469032400,7.697032470703125,-0.328116102078557,0.0004649871632456779,-1.7691382089838386
1772790428479098600,7.7070986328125,-0.16892799516320228,-0.04504296455830335,-1.8928252327986061
1772790428489163500,7.71716357421875,-0.19065058214962483,-0.021845044322311876,-1.994138073850423
1772790428499229700,7.727229736328125,-0.3995230496883392,-0.03555266715735197,-2.0676685894854367
1772790428509295600,7.737295654296875,-0.5972171206086874,-0.0589157148271799,-2.0402038055852056
1772790428519360500,7.747360595703125,-0.5999176117390393,-0.05010638542771339,-1.9758792174518107
1772790428529426700,7.7574267578125,-0.5935322946161031,0.020698796896636486,-1.9588819054216144
1772790428539492600,7.76749267578125,-0.5927426055431365,0.23417174396812915,-2.0184199899308384
1772790428549557800,7.777557861328125,-0.40607086389660835,0.5831076389744877,-2.2053274400293827
1772790428559623400,7.78762353515625,-0.11980419103205203,0.9068301822692155,-2.372727787233889
1772790428569689600,7.797689697265625,0.06458265454769134,1.12757341260463,-2.4281683732964097
1772790428579755500,7.807755615234375,0.1861772361278534,1.2595333208546042,-2.4290812503576276
1772790428589820700,7.817820556640625,0.2827250547349453,1.3993679080024362,-2.3745506187468766
1772790428599886600,7.827886474609375,0.4037017966777086,1.4939412116661668,-2.258648403589427
1772790428609952800,7.837952880859375,0.5183873295217752,1.5069018155261873,-2.1411479594551026
1772790428620017400,7.848017333984375,0.6808300543189049,1.5394310432091354,-1.935048025369644
1772790428630083600,7.85808349609375,0.8892261365175247,1.5387351698994636,-1.6533682419039308
1772790428640149500,7.8681494140625,0.940681013944745,1.483179579155147,-1.3758990618705749
1772790428650214700,7.878214599609375,0.865237942686677,1.3735308714345096,-0.9672360625889151
1772790428660280800,7.88828076171875,0.8693237506955862,1.148325400993228,-0.5656337589411065
1772790428670346500,7.898346435546875,0.9488660739660263,0.8925906445145606,-0.22303510413225738
1772790428680411600,7.90841162109375,1.0745014553695917,0.7818380672052502,0.13133143762070684
1772790428690477600,7.9184775390625,1.0947615685880183,0.6826230752155185,0.3644931642960757
1772790428700543700,7.928543701171875,1.083702998957038,0.5525868285045027,0.5699209347410127
1772790428710609700,7.938609619140625,1.2037199559569358,0.41876083412170406,0.8234170089147984
1772790428720674600,7.948674560546875,1.1800029802829026,0.28358152543380855,0.9907041050031781
1772790428730740500,7.958740478515625,1.0214555093586444,0.14842588988244532,1.1632691414944827
1772790428740806700,7.968806640625,0.9658616324305533,0.0414126452319324,1.361838680075109
1772790428750871600,7.97887158203125,0.8893143993228674,-0.03236936094611883,1.4741459394805132
1772790428760937700,7.988937744140625,0.784113903182745,-0.1454262696750462,1.600480847455561
1772790428771002600,7.999002685546875,0.6386673213720321,-0.28573241985738274,1.6488266529515385
1772790428781068500,8.009068603515624,0.5182873762786389,-0.34864728732332584,1.6125860035300255
1772790428791133700,8.0191337890625,0.42523266048431396,-0.3979522932402789,1.5654776308745144
1772790428801199600,8.02919970703125,0.2416325813680887,-0.420441334554553,1.4830164975479245
1772790428811265800,8.039265869140625,0.07379705761671065,-0.4531858124233782,1.39815765542984
1772790428821331500,8.04933154296875,-0.12404665090739726,-0.49835298788323995,1.282588617749512
1772790428831396600,8.059396728515624,-0.3546200781226158,-0.5093514978900552,1.189668268924579
1772790428841462500,8.069462646484375,-0.5406090982019901,-0.5812415528416633,1.1339641365550457
1772790428851528700,8.07952880859375,-0.6673416271924972,-0.615746756772697,1.0629404161091893
1772790428861593600,8.089593505859375,-0.6897095263451337,-0.6045777125045657,0.9542474747434257
1772790428871659500,8.099659423828125,-0.5307160652190447,-0.6252382232174277,0.79163209679313
1772790428881725400,8.109725341796874,-0.35414719991385935,-0.6312982539087534,0.682085753468424
1772790428891790600,8.11979052734375,-0.3056698769927025,-0.6431633176170289,0.6300884397275746
1772790428901856800,8.129856689453124,-0.3940057475715875,-0.7527176250524819,0.6708540192276239
1772790428911922700,8.139922607421875,-0.6430816306829452,-0.9094768973857164,0.767272293170914
1772790428921987600,8.149987548828125,-0.8696832316577434,-1.0112973956987261,0.7695666146531701
1772790428932053500,8.160053466796874,-0.8775181630671024,-1.075269955524057,0.7836991849020123
1772790428942119700,8.17011962890625,-0.7794558482438325,-1.0856699151158333,0.7319239164140074
1772790428952185600,8.180185546875,-0.7042103453844786,-1.0961100605875254,0.6578199117399752
1772790428962250800,8.190250732421875,-0.8192015831768512,-1.1510704619176686,0.5936241376180201
1772790428972316400,8.20031640625,-0.9530635256558656,-1.1396471506275236,0.5546674707034602
1772790428982382600,8.210382568359375,-0.821063285395503,-0.9936183850146829,0.5038255010101944
1772790428992447500,8.220447509765625,-0.5813724857449531,-0.8286028871200978,0.41095235232785343
1772790429002513700,8.230513671875,-0.5094084887742996,-0.7262843761570751,0.3308393530299887
1772790429012579600,8.24057958984375,-0.6176859081417322,-0.6712061936661601,0.2891426301596686
1772790429022644500,8.25064453125,-0.7605424734592438,-0.6786147163569927,0.27756438403613864
1772790429032710700,8.260710693359375,-0.8443278411269187,-0.6555125115804373,0.2750544105092063
1772790429042776600,8.270776611328126,-0.7459452083081006,-0.6009139293000102,0.25512042397260665
1772790429052841700,8.280841796875,-0.5591559777617454,-0.5605977010026574,0.18858866291744633
1772790429062907600,8.29090771484375,-0.5958844107002019,-0.49220893217027184,0.15138550687301902
1772790429072973600,8.3009736328125,-0.6734551416367291,-0.46303018395900725,0.20641869944473729
1772790429083039500,8.31103955078125,-0.758829824322462,-0.5144836000815034,0.2573636728547513
1772790429093104600,8.321104736328126,-0.7871276980459689,-0.5863330307617783,0.3358125748652965
1772790429103170600,8.331170654296875,-0.7114508180320263,-0.65311582570225,0.414317408314161
1772790429113236700,8.34123681640625,-0.6484498797178269,-0.6703259037002921,0.44791232899986205
1772790429123301600,8.351301513671874,-0.7207891397416591,-0.6845140035286545,0.47494062117896974
1772790429133367600,8.361367431640625,-0.8539929105728864,-0.652106648659706,0.47436293088886883
1772790429143433500,8.37143359375,-1.0436398686379194,-0.59197162117064,0.4286768826540559
1772790429153498600,8.38149853515625,-1.0666858131825923,-0.46589784834980963,0.2864767719512805
1772790429163564800,8.391564697265625,-1.0578770683050156,-0.27895313498079777,0.07629062799811363
1772790429173630700,8.401630615234374,-1.0601461822807787,-0.0683709409147501,-0.13187358167339117
1772790429183695600,8.411695556640625,-0.9772802675455808,0.13844284052848815,-0.24776368626793846
1772790429193761500,8.421761474609376,-0.7305792968720197,0.31329759539216756,-0.2919947499214671
1772790429203827700,8.43182763671875,-0.4294949941039085,0.49346156257987017,-0.3401044268403202
1772790429213893600,8.4418935546875,-0.17831132505834102,0.6340314782649278,-0.42216194780208166
1772790429223958500,8.45195849609375,0.04535305342078209,0.7488365458354354,-0.374892137507163
1772790429234024400,8.4620244140625,0.3516442771822214,0.8728416956886649,-0.3493205834750086
1772790429244090600,8.472090576171874,0.6681546971410512,0.9369476726353168,-0.38367410397566853
1772790429254155500,8.482155517578125,0.8461953885644674,0.9614221886783838,-0.3596129910390824
1772790429264221700,8.4922216796875,0.8064180894494056,0.8589370889768004,-0.3176446116205305
1772790429274287400,8.502287353515625,0.7412374690085649,0.7684016625270247,-0.22380842659231273
1772790429284352500,8.5123525390625,0.651114715012908,0.6778276576325297,-0.13584387354385108
1772790429294418700,8.522418701171874,0.6608657091766595,0.5968678687795996,-0.053032648137956856
1772790429304484600,8.532484619140625,0.6792857474863528,0.46830023331642145,-0.03140990479681641
1772790429314549500,8.542549560546876,0.6395324137687682,0.39364655887037514,-0.031404644099809226
1772790429324615400,8.552615478515625,0.6313631358385086,0.35422231097668405,0.012465806080400942
1772790429334681600,8.562681640625,0.6069201839774847,0.31972324452549217,0.07428283183965831
1772790429344747500,8.57274755859375,0.4553109878838062,0.3551514085203409,0.11044475346915424
1772790429354812700,8.582812744140625,0.4385679428756237,0.41334348524808884,0.07843074529934674
1772790429364878600,8.592878662109374,0.4233113370329141,0.48035628955215215,0.018918306688033043
1772790429374944500,8.602944580078125,0.37783611853718757,0.5296455133780836,-0.0001039170322008431
1772790429385009400,8.613009521484376,0.25514146676063537,0.542713084743917,0.0024199754222296176
1772790429395075600,8.62307568359375,0.12048165190219878,0.5240513466328383,0.008630191706586628
1772790429405141500,8.6331416015625,0.0036900866895914074,0.48583413644134993,0.022329083245899526
1772790429415207700,8.643207763671874,-0.09529811080694198,0.5056979438185691,0.06676754257241263
1772790429425272600,8.6532724609375,-0.12504326072931288,0.5376218990847468,0.05266817134027369
1772790429435338500,8.66333837890625,-0.10090893642604351,0.5336240616202355,-0.07123584252630825
1772790429445404400,8.673404296875,-0.05208791463375091,0.5390984013780952,-0.08985057685761712
1772790429455469600,8.683469482421875,0.03494564117491245,0.5538812522292137,-0.025593898294703103
1772790429465535700,8.69353564453125,0.13071721471250056,0.5203285267174244,0.026994216379569842
1772790429475601700,8.7036015625,0.1565606810212135,0.4876218966409564,0.12452852527336217
1772790429485666600,8.71366650390625,0.15880466055572032,0.44693800407499074,0.12394842383046634
1772790429495732500,8.723732421875,0.18780220698118208,0.3252326555967331,0.09959065690170973
1772790429505798700,8.733798583984376,0.1735585775732994,0.20820538193210958,0.15567666472829877
1772790429515863600,8.743863525390625,0.12227496505975723,0.08208163248971104,0.1766599776547402
1772790429525929500,8.753929443359375,0.1676940694540739,0.024640520259737966,0.2242058284120634
1772790429535995400,8.763995361328124,0.33836043271720406,-0.023701778104901313,0.2274450477953069
1772790429546061600,8.7740615234375,0.4190875818580389,-0.10535261796191334,0.24837922435039653
1772790429556126700,8.784126708984376,0.2933814733058214,-0.21410613040849566,0.30266866761641575
1772790429566192600,8.794192626953125,0.137176766115427,-0.2870107692301273,0.31573870493397116
1772790429576258600,8.804258544921876,0.09096037386357783,-0.32420228963568803,0.36912279685810206
1772790429586323500,8.814323486328124,0.11365560527443885,-0.354817354260385,0.37354426656216383
1772790429596389600,8.8243896484375,0.19857494540810583,-0.3549053248047829,0.3410858025604859
1772790429606455600,8.83445556640625,0.30308745928406716,-0.37245296419411894,0.3096327162090689
1772790429616520700,8.844520751953125,0.25829671592116354,-0.43295258721187707,0.2688283756012097
1772790429626586600,8.854586669921876,0.25671733777523037,-0.4738470537886023,0.25295769298076626
1772790429636652500,8.864652587890625,0.22976269535422325,-0.5163851959191262,0.22424309168253093
1772790429646717400,8.874717529296875,0.1695931810736656,-0.6145113697588444,0.22114644084144383
1772790429656783600,8.88478369140625,0.02820493474304676,-0.7681452035479247,0.26177202734891325
1772790429666849500,8.894849609375,-0.09957038129866122,-0.8881041467502713,0.2603498490586877
1772790429676914400,8.90491455078125,-0.17567863846719264,-1.0115078235790134,0.2774430409451015
1772790429686980600,8.914980712890625,-0.2174906582802534,-1.0687674417622386,0.2523361087500118
1772790429697046500,8.925046630859375,-0.2373936286240816,-1.060689641507715,0.25635349116520956
1772790429707112400,8.935112548828124,-0.27155484142303465,-1.028181602743268,0.20660943624386563
1772790429717177600,8.945177490234375,-0.3948661637932062,-0.9848195770092308,0.20647300518155096
1772790429727243800,8.955243896484374,-0.47654433004856106,-0.9315447906784713,0.2238352780666202
1772790429737309400,8.965309326171875,-0.46867082019448275,-0.8192470297537744,0.1896214034986682
1772790429747374600,8.97537451171875,-0.47822249239385123,-0.656675125619024,0.19222499185949563
1772790429757440500,8.9854404296875,-0.43735798256397246,-0.5563369748182595,0.19547257721228523
1772790429767506700,8.995506591796875,-0.42333354886472224,-0.46384091582000253,0.16787191023901105
1772790429777571300,9.0055712890625,-0.49076691666841504,-0.3752475633487105,0.16279053358780218
1772790429787637500,9.015637451171875,-0.5289812042504549,-0.3164249336324632,0.1716892400374636
1772790429797703400,9.025703369140626,-0.5355354481995105,-0.2919252831481397,0.14866144307083448
1772790429807768600,9.0357685546875,-0.4642606025367975,-0.28390505829975005,0.154203468636889
1772790429817834500,9.04583447265625,-0.3177583741933107,-0.2884026619799435,0.17220128121282904
1772790429827900700,9.055900634765624,-0.2468564534962177,-0.2813154801979661,0.18163376574562862
1772790429837965600,9.065965576171875,-0.21779636322855947,-0.3034527854651213,0.23534363729171454
1772790429848031500,9.076031494140626,-0.10282499918043612,-0.37811698130518195,0.3011702274858951
1772790429858097700,9.08609765625,0.012875848186016082,-0.4481082168981433,0.3126034756481647
1772790429868163600,9.09616357421875,0.050877369800209994,-0.4843889060690999,0.31587442361023277
1772790429878228700,9.106228759765624,0.07523965764045715,-0.4847860886931419,0.28409289075573907
1772790429888294400,9.11629443359375,-0.04854045128524303,-0.4462102743223309,0.23808884434662758
1772790429898360600,9.126360595703124,-0.5103378785789012,-0.3714715519413352,0.16542265392336994
1772790429908425500,9.136425537109375,-0.950914238667488,-0.21105010383874176,0.01724434559382498
1772790429918491600,9.14649169921875,-1.131421027943492,-0.0029033202260732647,-0.149239179026708
1772790429928557600,9.1565576171875,-1.1149240666508673,0.22563392498642204,-0.34928405085690317
1772790429938622500,9.16662255859375,-0.9905734643608332,0.48956455514132974,-0.5416675577463582
1772790429948688400,9.1766884765625,-0.7942728936254978,0.6965440485402942,-0.6941141179796307
1772790429958754600,9.186754638671875,-0.6038508595347404,0.854481424742192,-0.7527941243547945
1772790429968819700,9.19681982421875,-0.44748716239035125,0.9183644065879285,-0.7320687317121773
1772790429978885600,9.2068857421875,-0.3223866185158491,0.9127674633637071,-0.6553015722434967
1772790429988951600,9.21695166015625,-0.2200999639958143,0.8296794303104281,-0.5686236249394715
1772790429999016400,9.227016357421874,-0.09811901344656944,0.7116343579053879,-0.41748295967299487
1772790430009082600,9.23708251953125,0.07166296819746494,0.5669635827727616,-0.1615473833926022
1772790430019148500,9.2471484375,0.17014964591264722,0.44951486882567404,0.04690422838553786
1772790430029213700,9.257213623046875,0.23562194277644155,0.34868352768048644,0.21461375113707035
1772790430039279400,9.267279296875,0.26289339606165885,0.26136954749524594,0.38312268063798544
1772790430049345500,9.277345458984374,0.15248539440631864,0.19402137375697492,0.48789771790765224
1772790430059411500,9.287411376953125,-0.049232525202631945,0.11458645638376473,0.54441028058324
1772790430069476600,9.2974765625,-0.19684300704896449,0.06562427255511283,0.4889169414201751
1772790430079542500,9.30754248046875,-0.2406657821625471,0.11240852782279252,0.42701658475901927
1772790430089608700,9.317608642578126,-0.19119360298514365,0.23673370341062544,0.3591070873435587
1772790430099673600,9.327673583984375,-0.1474386324107647,0.37482773050144313,0.2831831737659871
1772790430109739500,9.337739501953125,-0.13684066602885722,0.4772371346183121,0.22203710607085375
1772790430119805700,9.3478056640625,-0.1771697538077831,0.5936307865545153,0.18006978609822688
1772790430129870600,9.35787060546875,-0.16811024903953076,0.6700473790198564,0.19427680982276796
1772790430139936500,9.3679365234375,-0.20454992816448211,0.6609767683357,0.23345095541290936
1772790430150002400,9.37800244140625,-0.31905601278841494,0.5721943230330944,0.2546291333243251
1772790430160067600,9.388067626953125,-0.31518180170357224,0.500051900755614,0.25847294927090403
1772790430170133500,9.398133544921874,-0.10174246464073658,0.40615547344014047,0.2772586790878325
1772790430180199700,9.40819970703125,0.12889116832911968,0.36450901945233344,0.30075704357512295
1772790430190264600,9.4182646484375,0.2874345476001501,0.26582404268607496,0.3257918238494545
1772790430200330500,9.42833056640625,0.37904257171750066,0.14245938269346953,0.39430421906150875
1772790430210396400,9.438396484375,0.4270902710497379,0.045036680947989224,0.4842100789034739
1772790430220461300,9.44846142578125,0.5092039061129093,-0.053540889921039336,0.553772165831551
1772790430230527500,9.458527587890625,0.5732669207006692,-0.14491232880353927,0.5865673144416883
1772790430240593400,9.468593505859374,0.6055746145874261,-0.2794099388375878,0.5853290413510054
1772790430250659600,9.47865966796875,0.543587821751833,-0.39262656817287206,0.570971466707252
1772790430260724500,9.488724365234376,0.48703357535898684,-0.490167343340069,0.5604443370718508
1772790430270790400,9.498790283203125,0.5142606049805879,-0.5570253954738378,0.5803113227868453
1772790430280856300,9.508856201171875,0.4077899427741766,-0.623613252364099,0.5231555668368936
1772790430290921500,9.51892138671875,0.2520154436945915,-0.6502262417405843,0.41378604138381775
1772790430300987400,9.5289873046875,0.14535247378647326,-0.607477233338356,0.3393561292236671
1772790430311053600,9.539053466796876,0.05076046542227268,-0.547722437338531,0.3134747055247426
1772790430321118500,9.549118408203125,0.05611527045369148,-0.45399683654531836,0.24627967652156948
1772790430331184400,9.559184326171875,0.06034019467234611,-0.3566851939588785,0.22651249791923908
1772790430341250300,9.569250244140624,0.024183424142003057,-0.328178499790281,0.22569212144706396
1772790430351315500,9.5793154296875,0.015513795474171638,-0.30552476943358775,0.2349984405832365
1772790430361381600,9.589381591796876,0.01618950277864933,-0.30395620494261383,0.23447690092716364
1772790430371447300,9.599447265625,0.0492956535667181,-0.3330295930832624,0.2092256283579394
1772790430381512400,9.609512451171875,0.05232113886773586,-0.3985485055677592,0.17645824453756212
1772790430391578400,9.619578369140624,0.055908934226632116,-0.4823552082844078,0.17691588864456861
1772790430401644500,9.62964453125,0.11366846475601196,-0.4937129069924354,0.17552469001449644
1772790430411709400,9.63970947265625,0.22552432713210582,-0.5101075769543647,0.12684764327015727
1772790430421775400,9.649775390625,0.32024434579014777,-0.5551898506097496,0.06804846749473363
1772790430431841300,9.65984130859375,0.31328970434665676,-0.6050872694619,0.025694979482423514
1772790430441907500,9.669907470703125,0.31133564766943456,-0.681287588828057,-0.010638645452167838
1772790430451972600,9.67997265625,0.2687310161739588,-0.7474694952659309,-0.011324307895079254
1772790430462038500,9.69003857421875,0.10887480073869228,-0.8167690953329205,-0.019452925021387634
1772790430472104400,9.7001044921875,0.042023032215237614,-0.8677483180724084,-0.01030144938705489
1772790430482169300,9.71016943359375,0.07081950311064719,-0.8569774793416262,-0.07418401110768318
1772790430492235500,9.720235595703125,0.07460019069314003,-0.8086277283228933,-0.16531486443364993
1772790430502301400,9.730301513671876,0.037834932875633234,-0.7957140323445201,-0.21954609297271815
1772790430512366600,9.74036669921875,-0.02080196501016617,-0.7715919830009341,-0.21498939778273923
1772790430522432300,9.750432373046875,-0.0685100571244955,-0.7550617039605975,-0.1763197493823245
1772790430532498400,9.76049853515625,-0.11364625292420387,-0.7503392054833471,-0.13038589126574807
1772790430542563300,9.770563232421875,-0.17228373533189295,-0.7286059509724379,-0.12121733663245103
1772790430552629500,9.78062939453125,-0.28411212517917156,-0.6923505423732101,-0.1405877162032295
1772790430562695400,9.7906953125,-0.36124855635166164,-0.664118427362293,-0.13247794990786352
1772790430572760300,9.80076025390625,-0.4159446076571941,-0.6365314783871173,-0.1484035319201648
1772790430582826500,9.810826416015624,-0.4402443516552448,-0.5744932476252317,-0.1691204124627635
1772790430592892400,9.820892333984375,-0.44968905634880063,-0.5481104137428104,-0.2049589108241722
1772790430602957600,9.83095751953125,-0.554016861307621,-0.5942370818845928,-0.1703216049460694
1772790430613023500,9.8410234375,-0.698062344148755,-0.6252551743522287,-0.1521970333184581
1772790430623089400,9.85108935546875,-0.7421259422808885,-0.6482279075302183,-0.12703909245533868
1772790430633154300,9.861154296875,-0.7790098580420016,-0.6882267404414713,-0.05613035842496902
1772790430643220500,9.871220458984375,-0.8395680793792009,-0.7173676408603787,-0.00027606786186806857
1772790430653286400,9.881286376953126,-0.9036872080683708,-0.6775327663391828,0.06452910686270333
1772790430663351600,9.8913515625,-0.9696773913264274,-0.5713654709935188,0.06892116780919022
1772790430673417200,9.901417236328125,-1.067240524455905,-0.3871284091480076,-0.00015742818457074463
1772790430683483400,9.9114833984375,-1.1928490178525448,-0.16608765717074275,-0.09113163877725601
1772790430693548500,9.921548583984375,-1.2771096018165349,0.004113865059614181,-0.20642337561985477
1772790430703614500,9.931614501953124,-1.142288458916545,0.1824319121196866,-0.283425037964154
1772790430713680400,9.941680419921875,-0.8451029171526432,0.37106209435760973,-0.29958831032300365
1772790430723746600,9.95174658203125,-0.6042313832849264,0.48584071231260895,-0.19776362902522085
1772790430733811500,9.9618115234375,-0.5790753147184848,0.43712958063557744,-0.1059511318443343
1772790430743877400,9.97187744140625,-0.6578828939735889,0.41766383266523477,0.00766246091928333
1772790430753943600,9.981943603515624,-0.6407575716495514,0.49668973084613677,0.09202917213886976
1772790430764008400,9.992008544921875,-0.5097779066085815,0.5845743505261838,0.08837032083775848
1772790430774074400,10.002074462890626,-0.3357926280558109,0.5891871050186455,0.06032466830965131
1772790430784140300,10.012140380859375,-0.2225613856732845,0.662673927642405,0.02703508724607527
1772790430794205400,10.022205322265625,0.004469254368543624,0.6605465602248907,0.032348062429763375
1772790430804271400,10.032271240234374,0.2876332850426435,0.6229622411094605,0.08859059425862506
1772790430814337500,10.042337646484375,0.46677696927189827,0.5380429009757935,0.23714869568599387
1772790430824402400,10.05240234375,0.5808791492700577,0.3886081263117492,0.3532349439071491
1772790430834468400,10.06246826171875,0.6948872212439775,0.24200287598520515,0.4581471246251836
1772790430844534300,10.0725341796875,0.7846890727221966,0.13059767998605964,0.537293397782743
1772790430854599400,10.082599365234374,0.8168173183888197,-0.029135201330482956,0.608240070937015
1772790430864665600,10.09266552734375,0.726772305804491,-0.1843864071883261,0.709276323537156
1772790430874731500,10.1027314453125,0.6745172179102897,-0.24953926283940672,0.7710597027551382
1772790430884796400,10.11279638671875,0.6730050597816706,-0.25803485011458394,0.8183630865260958
1772790430894862300,10.1228623046875,0.5345213027209044,-0.2631599380433559,0.826383165244013
1772790430904928500,10.132928466796875,0.3672925126910209,-0.24821619754210114,0.8298857665374875
1772790430914993400,10.142993408203125,0.3014157266795635,-0.19223375968784093,0.798414815735817
1772790430925059300,10.153059326171874,0.16386252846717833,-0.07335808167755603,0.7360460378453135
1772790430935125200,10.163125244140625,0.023726328024268148,0.10061375287175178,0.6864014977756887
1772790430945190400,10.1731904296875,-0.12993337085843085,0.16990984580740331,0.6514622132763266
1772790430955256600,10.183256591796875,-0.3167085728794336,0.2120081352159381,0.6502854245819151
1772790430965322500,10.193322509765625,-0.3132815210402012,0.29508769270181656,0.6797666628710926
1772790430975387400,10.203387451171874,-0.18805179782807827,0.39270094858333465,0.6502217116959392
1772790430985453300,10.213453369140625,-0.09922434433996677,0.4076666086554527,0.6250906314402819
1772790430995519500,10.22351953125,-0.040570495319366455,0.31662440172731876,0.6658433514587581
1772790431005585400,10.23358544921875,-0.0028057050704956054,0.22730405015572905,0.7600355468504131
1772790431015650600,10.243650634765626,0.08392916005253791,0.12634002254158258,0.8332778931938112
1772790431025716500,10.253716552734375,0.03207622321844101,0.020373802725970745,0.8515364573314785
1772790431035782400,10.263782470703125,0.05173953958749771,-0.07089797517433762,0.8772263405136763
1772790431045847300,10.273847412109374,0.17508710231482982,-0.1261287178784609,0.9425962729815394
1772790431055913500,10.28391357421875,0.27154256646335123,-0.17253040356934068,0.9574225976482034
1772790431065979400,10.2939794921875,0.3303711875289678,-0.2037817202709615,0.9789367295157164
1772790431076044300,10.304044189453125,0.360291109496355,-0.2706248670965433,0.9601513650249689
1772790431086110500,10.3141103515625,0.4168032703131437,-0.29567630624473096,0.9311508959900587
1772790431096176400,10.32417626953125,0.45005847418308254,-0.3047134530507028,0.8847828203078358
1772790431106241500,10.334241455078125,0.5214613301396369,-0.32171748708263037,0.8415152679242193
1772790431116307500,10.344307373046876,0.4677846850097179,-0.3385495255485177,0.7890077396389097
1772790431126373600,10.35437353515625,0.3352338251292705,-0.3192994661554694,0.7465404707875102
1772790431136438300,10.364438232421875,0.25091829610764976,-0.2663198633790016,0.6949552449788898
1772790431146504400,10.37450439453125,0.22240298024117947,-0.2385749473631382,0.6911308643851429
1772790431156570400,10.3845703125,0.11612170312702655,-0.23756460127681492,0.6944668038748204
1772790431166635500,10.394635498046876,0.0840039788544178,-0.21795535318255424,0.5548085962072015
1772790431176701400,10.404701416015625,0.18336042514145373,-0.2371365851230919,0.4335576039003208
1772790431186768100,10.41476806640625,0.26339374679923055,-0.24503259906992314,0.41480457077659666
1772790431196833000,10.4248330078125,0.30607611970603466,-0.31750615299791096,0.47164457530826326
1772790431206899200,10.434899169921875,0.2398340075135231,-0.45415538810789585,0.5194324181279167
1772790431216965000,10.444965087890624,0.21925065369009972,-0.55074558455199,0.5803120169065893
1772790431227030000,10.455030029296875,0.2459673957020044,-0.6483804677434265,0.5914177136149257
1772790431237096200,10.46509619140625,0.2251940722644329,-0.7418839502185582,0.5329063052723184
1772790431247162000,10.475162109375,0.12201543734073639,-0.8204920613788068,0.47864488252438603
1772790431257227300,10.485227294921875,0.03757598967850208,-0.9057121380247175,0.45022732794396575
1772790431267293200,10.495293212890624,0.05358779780268669,-0.9283901260398327,0.4306215869810432
1772790431277359000,10.505359130859375,0.05316577299833297,-0.8824845533028245,0.3714823655962944
1772790431287424000,10.515424072265626,-0.0328086291462183,-0.8778586470678448,0.3572508650176227
1772790431297490200,10.525490234375,-0.14934066663980483,-0.8924024284660815,0.3760549342088401
1772790431307556000,10.53555615234375,-0.3000269026696682,-0.8921151359573006,0.39847123908046633
1772790431317621000,10.54562109375,-0.4545382499456405,-0.9243785523109137,0.4629034888394177
1772790431327687000,10.55568701171875,-0.6299819106131792,-0.9081136462084949,0.489554252943024
1772790431337753000,10.565753173828124,-0.8008271375745535,-0.8695653043664991,0.458631401010789
1772790431347819000,10.575819091796875,-0.9970300931543111,-0.8564109315000474,0.4626316496280953
1772790431357884200,10.58588427734375,-1.2563719342142343,-0.8326387185074389,0.48284021532237525
1772790431367950000,10.5959501953125,-1.42732646676898,-0.7668953496173023,0.4781196165412664
1772790431378016000,10.60601611328125,-1.5662690735131501,-0.6404017439492047,0.4103184018058702
1772790431388081200,10.6160810546875,-1.6500252150863408,-0.5602667154826223,0.3339563890719786
1772790431398147000,10.62614697265625,-1.7656687793076038,-0.4553792308144271,0.22790323989158495
1772790431408213200,10.636213134765624,-1.910720808842778,-0.28602804180309177,0.08974076894074678
1772790431418278100,10.646278076171875,-2.0502134506851433,-0.13462503580600022,-0.06420158280823379
1772790431428344000,10.656343994140625,-2.072887054786086,0.04677548743933439,-0.20485745974369346
1772790431438410000,10.666409912109375,-1.9050053538054226,0.22189137745723128,-0.27597627459447827
1772790431448475100,10.67647509765625,-1.6485691710591315,0.3969042454920709,-0.3756025507988408
1772790431458541000,10.686541015625,-1.2724959705412386,0.5425327597409486,-0.4861875895215198
1772790431468607200,10.696607177734375,-0.9231962106585502,0.6396607163235545,-0.5451192325701937
1772790431478672100,10.706672119140626,-0.6773036337584257,0.6803181592740118,-0.4850318801477551
1772790431488738000,10.716738037109375,-0.5033452432125807,0.5962624502323568,-0.42240817764811217
1772790431498804000,10.726803955078125,-0.43956163008809085,0.4502678791500628,-0.339990335473977
1772790431508869000,10.736869140625,-0.38613165319561954,0.3551839956156909,-0.24554719752855597
1772790431518935300,10.746935302734375,-0.4862187518447637,0.22499328899532556,-0.13029400259805843
1772790431529001000,10.7570009765625,-0.5717360578715801,0.2086781140103936,-0.0952861281082034
1772790431539066000,10.767066162109375,-0.31266718853414055,0.38411534493714566,-0.17041907397117464
1772790431549132000,10.777132080078125,0.06424713898301124,0.5535900141976774,-0.3015495639259927
1772790431559198200,10.7871982421875,0.29672260042726994,0.7144796643339097,-0.4033373107468709
1772790431569263000,10.79726318359375,0.31177579265236854,0.8211730293802917,-0.5298635400429368
1772790431579329000,10.8073291015625,0.22825053722560404,0.8170498119704425,-0.623637510022521
1772790431589395000,10.81739501953125,0.17443243779838083,0.7686153052777052,-0.6434044328965246
1772790431599460000,10.827460205078125,0.278637493160367,0.7681625930741429,-0.676683017642051
1772790431609526300,10.8375263671875,0.4609615609914064,0.8101330183193087,-0.6766235425397753
1772790431619592200,10.84759228515625,0.45607028181850906,0.7821616000711917,-0.6903670404057949
1772790431629657000,10.857656982421876,0.43500528195798394,0.7553114409379661,-0.7007613009091467
1772790431639723000,10.867722900390625,0.45248190193772314,0.7061776999346911,-0.700963107091561
1772790431649789200,10.8777890625,0.5003372935682535,0.5696941767804324,-0.6558692160636186
1772790431659854000,10.88785400390625,0.5291337644636631,0.4786518237218261,-0.5295315681422129
1772790431669920300,10.897920166015625,0.5135018955677747,0.40675300094187256,-0.4648297807268798
1772790431679986000,10.90798583984375,0.5616898801535367,0.366442033341527,-0.4495769377438351
1772790431690051000,10.918051025390625,0.519038486906886,0.38930268444716926,-0.46369705036990344
1772790431700117000,10.928116943359376,0.44806408549547194,0.391979502440989,-0.4851134940166026
1772790431710183200,10.93818310546875,0.22237784579992292,0.350215559553355,-0.47006994640268385
1772790431720248000,10.948248046875,0.10399170487225055,0.3063103668533265,-0.43460090240817517
1772790431730314000,10.95831396484375,0.30224574776291846,0.3398354737058282,-0.4265440718764439
1772790431740380200,10.968380126953125,0.5377426028549671,0.32043212344720956,-0.5265682978898286
1772790431750445000,10.978445068359376,0.5878133324474096,0.2970234830699861,-0.5388287906564772
1772790431760511200,10.98851123046875,0.453466821321845,0.21258944223523138,-0.4873776760889217
1772790431770577200,10.9985771484375,0.6709767688244581,0.21366583929508923,-0.4056066439183429
1772790431780642000,11.00864208984375,0.9227291776686907,0.21676702018082142,-0.3072236092407256
1772790431790708000,11.0187080078125,0.19259061030149457,0.0650333209246397,-0.40171128044761717
1772790431800774100,11.028774169921874,-0.043243513920903205,-0.16042232488542793,-0.4970375213705003
1772790431810839300,11.03883935546875,0.11313713435828684,-0.1853855012282729,-0.3809787639444694
1772790431820905200,11.0489052734375,0.1230734219610691,-0.12751520380079745,-0.4391504920039326
1772790431830971000,11.058970947265625,0.11913783607780933,-0.11476195908114313,-0.5257219467261806
1772790431841036000,11.0690361328125,0.20380700084269046,-0.055417643578350544,-0.5069740281689912
1772790431851102200,11.079102294921874,0.5343821865111589,0.004779635491967201,-0.36460842470619825
1772790431861168000,11.089168212890625,0.6824661310881376,0.13583631129190324,-0.2553818879203871
