time,seconds_elapsed,z,y,x
1772797909366189800,0.05618994140625,-0.9959564208984375,0.015594482421875,0.0037689208984375
1772797909376217600,0.066217529296875,-0.98333740234375,0.0150299072265625,0.00543212890625
1772797909386244900,0.076244873046875,-0.9871978759765625,0.0128936767578125,0.0084991455078125
1772797909396271600,0.086271728515625,-1.0025787353515625,0.01263427734375,0.011932373046875
1772797909406298600,0.096298583984375,-1.00506591796875,0.0145111083984375,0.0120391845703125
1772797909416326700,0.10632666015625,-0.995819091796875,0.0162811279296875,0.0096588134765625
1772797909426353700,0.116353759765625,-0.9912261962890625,0.0149078369140625,0.0063934326171875
1772797909436380700,0.126380615234375,-0.9915924072265625,0.0140533447265625,0.0042724609375
1772797909446408700,0.13640869140625,-0.9913177490234375,0.013671875,0.00592041015625
1772797909456435700,0.146435791015625,-0.993438720703125,0.0137939453125,0.0092620849609375
1772797909466462700,0.156462646484375,-0.997772216796875,0.0133514404296875,0.0111083984375
1772797909476489500,0.166489501953125,-1.000579833984375,0.013275146484375,0.0113525390625
1772797909486517800,0.176517822265625,-0.996826171875,0.01434326171875,0.008270263671875
1772797909496544500,0.18654443359375,-0.992645263671875,0.0155029296875,0.00592041015625
1772797909506571800,0.19657177734375,-0.99212646484375,0.0125885009765625,0.0059967041015625
1772797909516598800,0.206598876953125,-0.993988037109375,0.013763427734375,0.0068206787109375
1772797909526626600,0.21662646484375,-0.9972686767578125,0.0136566162109375,0.00830078125
1772797909536653800,0.22665380859375,-0.997894287109375,0.0146636962890625,0.0088653564453125
1772797909546680600,0.2366806640625,-0.9954986572265625,0.013946533203125,0.0099029541015625
1772797909556708600,0.24670849609375,-0.9923095703125,0.013519287109375,0.0081939697265625
1772797909566736000,0.25673583984375,-0.993865966796875,0.0141448974609375,0.0067901611328125
1772797909576762600,0.2667626953125,-0.9945526123046875,0.014739990234375,0.0075225830078125
1772797909586789600,0.27678955078125,-0.9941253662109375,0.01434326171875,0.0075531005859375
1772797909596817700,0.286817626953125,-0.9945526123046875,0.013031005859375,0.008331298828125
1772797909606844700,0.2968447265625,-0.9966583251953125,0.01348876953125,0.0095977783203125
1772797909616871700,0.30687158203125,-0.994964599609375,0.01324462890625,0.0084075927734375
1772797909626898700,0.316898681640625,-0.9934539794921875,0.0134735107421875,0.0075225830078125
1772797909636926700,0.3269267578125,-0.994537353515625,0.013031005859375,0.0071868896484375
1772797909646953500,0.336953369140625,-0.9952239990234375,0.01348876953125,0.006805419921875
1772797909656980700,0.346980712890625,-0.99371337890625,0.0142822265625,0.0070037841796875
1772797909667008500,0.357008544921875,-0.9936981201171875,0.013702392578125,0.008148193359375
1772797909677035500,0.367035400390625,-0.994781494140625,0.013946533203125,0.008636474609375
1772797909687062800,0.377062744140625,-0.995208740234375,0.0131378173828125,0.0082244873046875
1772797909697089800,0.38708984375,-0.9941558837890625,0.0147857666015625,0.0078125
1772797909707117600,0.39711767578125,-0.9942626953125,0.01507568359375,0.00689697265625
1772797909717144800,0.407144775390625,-0.9945526123046875,0.01507568359375,0.0080413818359375
1772797909727171600,0.417171630859375,-0.993377685546875,0.01446533203125,0.008270263671875
1772797909737198600,0.427198486328125,-0.9951629638671875,0.013916015625,0.0076751708984375
1772797909747226600,0.4372265625,-0.9948883056640625,0.013702392578125,0.0082550048828125
1772797909757253600,0.447253662109375,-0.9948272705078125,0.01385498046875,0.0083160400390625
1772797909767280600,0.45728076171875,-0.9943695068359375,0.0129852294921875,0.0079345703125
1772797909777307600,0.4673076171875,-0.994293212890625,0.01336669921875,0.007476806640625
1772797909787335700,0.477335693359375,-0.9946746826171875,0.0152435302734375,0.0071563720703125
1772797909797362700,0.48736279296875,-0.99407958984375,0.0146331787109375,0.0072784423828125
1772797909807389700,0.4973896484375,-0.9948272705078125,0.01470947265625,0.0080413818359375
1772797909817416700,0.507416748046875,-0.9952239990234375,0.012725830078125,0.0087127685546875
1772797909827444500,0.517444580078125,-0.994354248046875,0.01312255859375,0.00799560546875
1772797909837471700,0.5274716796875,-0.993316650390625,0.0146942138671875,0.0078582763671875
1772797909847498800,0.537498779296875,-0.99322509765625,0.01373291015625,0.0074920654296875
1772797909857526800,0.54752685546875,-0.994781494140625,0.014312744140625,0.0083465576171875
1772797909867553800,0.5575537109375,-0.9956207275390625,0.0144500732421875,0.00836181640625
1772797909877580500,0.56758056640625,-0.9941864013671875,0.0131378173828125,0.0076904296875
1772797909887607600,0.577607666015625,-0.992919921875,0.013763427734375,0.0083465576171875
1772797909897635600,0.587635498046875,-0.994415283203125,0.0134735107421875,0.00799560546875
1772797909907662600,0.59766259765625,-0.9940338134765625,0.0139923095703125,0.00811767578125
1772797909917689600,0.607689697265625,-0.99456787109375,0.012908935546875,0.007843017578125
1772797909927716600,0.617716552734375,-0.9940948486328125,0.0134124755859375,0.00738525390625
1772797909937744600,0.62774462890625,-0.9930877685546875,0.0133819580078125,0.0067291259765625
1772797909947771600,0.637771728515625,-0.993194580078125,0.0141448974609375,0.00775146484375
1772797909957798700,0.647798583984375,-0.992919921875,0.0145416259765625,0.00823974609375
1772797909967825700,0.65782568359375,-0.9944000244140625,0.014068603515625,0.0079345703125
1772797909977853700,0.667853759765625,-0.9947967529296875,0.014373779296875,0.00775146484375
1772797909987880700,0.677880615234375,-0.994049072265625,0.013427734375,0.0074920654296875
1772797909997907700,0.68790771484375,-0.9946746826171875,0.0144805908203125,0.0078277587890625
1772797910007934500,0.6979345703125,-0.993682861328125,0.0144195556640625,0.00799560546875
1772797910017962800,0.707962646484375,-0.993072509765625,0.013702392578125,0.007659912109375
1772797910027989500,0.717989501953125,-0.99365234375,0.013916015625,0.0078887939453125
1772797910038016500,0.7280166015625,-0.9947357177734375,0.01361083984375,0.008148193359375
1772797910048044800,0.738044921875,-0.9945831298828125,0.013519287109375,0.0078277587890625
1772797910058071600,0.748071533203125,-0.9934844970703125,0.013641357421875,0.0070953369140625
1772797910068098600,0.7580986328125,-0.99371337890625,0.0131988525390625,0.0077667236328125
1772797910078125800,0.768125732421875,-0.9939727783203125,0.01373291015625,0.007080078125
1772797910088153900,0.77815380859375,-0.992767333984375,0.014312744140625,0.0087127685546875
1772797910098180900,0.788180908203125,-0.9933929443359375,0.0140533447265625,0.0095672607421875
1772797910108207600,0.79820751953125,-0.996795654296875,0.01324462890625,0.0056304931640625
1772797910118234600,0.808234619140625,-0.9961700439453125,0.013824462890625,0.00738525390625
1772797910128262700,0.8182626953125,-0.9922943115234375,0.0145263671875,0.0086822509765625
1772797910138289700,0.82828955078125,-0.9922943115234375,0.0142974853515625,0.0066375732421875
1772797910148317000,0.83831689453125,-0.9937591552734375,0.0132293701171875,0.009796142578125
1772797910158343700,0.84834375,-0.9955596923828125,0.0142822265625,0.0079345703125
1772797910168371700,0.858371826171875,-0.99395751953125,0.013916015625,0.008148193359375
1772797910178398700,0.868398681640625,-0.992889404296875,0.014434814453125,0.0083160400390625
1772797910188425700,0.87842578125,-0.9947967529296875,0.0140838623046875,0.0073699951171875
1772797910198452700,0.88845263671875,-0.992950439453125,0.0141754150390625,0.0066680908203125
1772797910208480800,0.898480712890625,-0.9930419921875,0.0145721435546875,0.00750732421875
1772797910218507800,0.9085078125,-0.9951019287109375,0.01348876953125,0.0081329345703125
1772797910228534800,0.91853466796875,-0.994415283203125,0.0143280029296875,0.008270263671875
1772797910238561500,0.9285615234375,-0.9936370849609375,0.0130767822265625,0.00823974609375
1772797910248589800,0.93858984375,-0.9945831298828125,0.0128631591796875,0.008087158203125
1772797910258616600,0.948616455078125,-0.99444580078125,0.013031005859375,0.0070037841796875
1772797910268643800,0.958643798828125,-0.993621826171875,0.014862060546875,0.0080413818359375
1772797910278671600,0.968671630859375,-0.9944610595703125,0.01446533203125,0.0079193115234375
1772797910288698600,0.97869873046875,-0.9946136474609375,0.013397216796875,0.007598876953125
1772797910298726000,0.988725830078125,-0.9950408935546875,0.01385498046875,0.0081024169921875
1772797910308753000,0.9987529296875,-0.99468994140625,0.0146331787109375,0.0084991455078125
1772797910318780700,1.00878076171875,-0.994232177734375,0.015716552734375,0.00762939453125
1772797910328808000,1.018807861328125,-0.993560791015625,0.0142669677734375,0.0082244873046875
1772797910338834700,1.028834716796875,-0.9942169189453125,0.014312744140625,0.0083160400390625
1772797910348861700,1.03886181640625,-0.994140625,0.0141754150390625,0.0073089599609375
1772797910358889700,1.0488896484375,-0.995208740234375,0.0138092041015625,0.0074615478515625
1772797910368916700,1.058916748046875,-0.9937896728515625,0.0131072998046875,0.007293701171875
1772797910378943700,1.06894384765625,-0.993255615234375,0.0137939453125,0.0076446533203125
1772797910388970800,1.078970703125,-0.993499755859375,0.0140533447265625,0.0074462890625
1772797910398998800,1.088998779296875,-0.9935302734375,0.01361083984375,0.00787353515625
1772797910409025800,1.09902587890625,-0.993896484375,0.014404296875,0.00762939453125
1772797910419052800,1.109052734375,-0.9944915771484375,0.0143890380859375,0.0070953369140625
1772797910429079800,1.119079833984375,-0.994140625,0.013427734375,0.0070037841796875
1772797910439107600,1.129107666015625,-0.994842529296875,0.013336181640625,0.0076446533203125
1772797910449134800,1.139134765625,-0.9938201904296875,0.013641357421875,0.008331298828125
1772797910459161900,1.149161865234375,-0.9935760498046875,0.0137786865234375,0.008331298828125
1772797910469188600,1.159188720703125,-0.99444580078125,0.01385498046875,0.0074005126953125
1772797910479217000,1.169216796875,-0.9948883056640625,0.014678955078125,0.0072021484375
1772797910489243600,1.17924365234375,-0.994232177734375,0.01483154296875,0.0072479248046875
1772797910499270700,1.189270751953125,-0.9942474365234375,0.0136260986328125,0.0067596435546875
1772797910509298000,1.1992978515625,-0.9932403564453125,0.0140838623046875,0.007781982421875
1772797910519325700,1.20932568359375,-0.9936065673828125,0.014434814453125,0.0074005126953125
1772797910529352700,1.219352783203125,-0.994110107421875,0.0136871337890625,0.008026123046875
1772797910539379700,1.229379638671875,-0.9960174560546875,0.01409912109375,0.008026123046875
1772797910549406700,1.23940673828125,-0.9940338134765625,0.013519287109375,0.0081787109375
1772797910559434800,1.249434814453125,-0.994140625,0.0136871337890625,0.008392333984375
1772797910569461800,1.259461669921875,-0.99383544921875,0.0143585205078125,0.0077667236328125
1772797910579488800,1.26948876953125,-0.9951934814453125,0.0139617919921875,0.0070343017578125
1772797910589515800,1.279515869140625,-0.99407958984375,0.0145721435546875,0.0078887939453125
1772797910599543800,1.289543701171875,-0.9939117431640625,0.0147705078125,0.0094146728515625
1772797910609570800,1.29957080078125,-0.9941253662109375,0.0146331787109375,0.0080413818359375
1772797910619597600,1.30959765625,-0.9945068359375,0.0142364501953125,0.0079498291015625
1772797910629624800,1.319624755859375,-0.994781494140625,0.0139617919921875,0.007232666015625
1772797910639652600,1.329652587890625,-0.9945526123046875,0.0140838623046875,0.0072174072265625
1772797910649679600,1.3396796875,-0.9944915771484375,0.013885498046875,0.007415771484375
1772797910659707000,1.349706787109375,-0.9934844970703125,0.0146026611328125,0.0066680908203125
1772797910669734000,1.35973388671875,-0.9938812255859375,0.0144805908203125,0.0074920654296875
1772797910679761700,1.36976171875,-0.9947357177734375,0.0145416259765625,0.0085296630859375
1772797910689789000,1.379788818359375,-0.99456787109375,0.01416015625,0.0080108642578125
1772797910699815700,1.389815673828125,-0.9945068359375,0.0139617919921875,0.007537841796875
1772797910709842700,1.3998427734375,-0.993896484375,0.014190673828125,0.0082550048828125
1772797910719870700,1.40987060546875,-0.9944000244140625,0.0140838623046875,0.0092620849609375
1772797910729897700,1.419897705078125,-0.993499755859375,0.0146942138671875,0.0086212158203125
1772797910739924700,1.4299248046875,-0.9932861328125,0.0136260986328125,0.0089874267578125
1772797910749951700,1.43995166015625,-0.99462890625,0.0135345458984375,0.00897216796875
1772797910759979800,1.449979736328125,-0.99542236328125,0.0137939453125,0.0092620849609375
1772797910770006800,1.4600068359375,-0.9938812255859375,0.0141448974609375,0.008331298828125
1772797910780033800,1.47003369140625,-0.9927520751953125,0.01348876953125,0.009979248046875
1772797910790060800,1.480060791015625,-0.994171142578125,0.0148468017578125,0.0091705322265625
1772797910800088600,1.490088623046875,-0.9947357177734375,0.0143585205078125,0.0084991455078125
1772797910810115800,1.50011572265625,-0.9946746826171875,0.0141448974609375,0.0086517333984375
1772797910820142800,1.510142822265625,-0.993804931640625,0.0136871337890625,0.0078582763671875
1772797910830169600,1.520169677734375,-0.99261474609375,0.012847900390625,0.0061492919921875
1772797910840198000,1.530197998046875,-0.9940185546875,0.0132598876953125,0.00640869140625
1772797910850224600,1.540224609375,-0.9952392578125,0.013671875,0.007476806640625
1772797910860251600,1.550251708984375,-0.99530029296875,0.0139617919921875,0.0075531005859375
1772797910870279000,1.56027880859375,-0.9949493408203125,0.013946533203125,0.0082550048828125
1772797910880306700,1.570306640625,-0.9941864013671875,0.0138702392578125,0.007293701171875
1772797910890333700,1.580333740234375,-0.994537353515625,0.0138092041015625,0.006378173828125
1772797910900360700,1.590360595703125,-0.9940643310546875,0.0128326416015625,0.0056610107421875
1772797910910387700,1.6003876953125,-0.9940948486328125,0.0150909423828125,0.0060882568359375
1772797910920414700,1.610414794921875,-0.995330810546875,0.013946533203125,0.0073699951171875
1772797910930442800,1.62044287109375,-0.99334716796875,0.014129638671875,0.007904052734375
1772797910940469800,1.6304697265625,-0.9943084716796875,0.0135498046875,0.007659912109375
1772797910950496800,1.640496826171875,-0.9934844970703125,0.0135040283203125,0.00811767578125
1772797910960523800,1.650523681640625,-0.994384765625,0.0139312744140625,0.008575439453125
1772797910970551800,1.6605517578125,-0.99517822265625,0.0137939453125,0.0081634521484375
1772797910980578600,1.67057861328125,-0.99432373046875,0.014495849609375,0.0072021484375
1772797910990605800,1.680605712890625,-0.9943389892578125,0.014434814453125,0.0082550048828125
1772797911000632800,1.6906328125,-0.9951934814453125,0.013763427734375,0.00885009765625
1772797911010660600,1.70066064453125,-0.9945526123046875,0.0143585205078125,0.0082550048828125
1772797911020688000,1.71068798828125,-0.9945526123046875,0.013336181640625,0.0092010498046875
1772797911030714600,1.720714599609375,-0.99493408203125,0.01470947265625,0.0088043212890625
1772797911040741600,1.73074169921875,-0.9948577880859375,0.015350341796875,0.00872802734375
1772797911050770000,1.74077001953125,-0.994140625,0.0146484375,0.0076141357421875
1772797911060796700,1.750796630859375,-0.9942474365234375,0.0149993896484375,0.007568359375
1772797911070823700,1.76082373046875,-0.994354248046875,0.0140228271484375,0.008453369140625
1772797911080851000,1.770850830078125,-0.9943695068359375,0.0134429931640625,0.0081634521484375
1772797911090879000,1.78087890625,-0.9950103759765625,0.014404296875,0.0074462890625
1772797911100906000,1.790906005859375,-0.9947509765625,0.0141143798828125,0.00714111328125
1772797911110932700,1.8009326171875,-0.995452880859375,0.014312744140625,0.006591796875
1772797911120959700,1.810959716796875,-0.9949188232421875,0.01446533203125,0.0069122314453125
1772797911130987000,1.820987060546875,-0.9947662353515625,0.0140380859375,0.007843017578125
1772797911141014800,1.831014892578125,-0.99383544921875,0.0146026611328125,0.00799560546875
1772797911151042000,1.8410419921875,-0.9940643310546875,0.0147705078125,0.0076751708984375
1772797911161068800,1.85106884765625,-0.9936981201171875,0.013214111328125,0.008331298828125
1772797911171095800,1.861095703125,-0.9937591552734375,0.01397705078125,0.0086669921875
1772797911181124000,1.8711240234375,-0.99493408203125,0.0142822265625,0.0079345703125
1772797911191150800,1.88115087890625,-0.9958648681640625,0.0143280029296875,0.0076751708984375
1772797911201177900,1.891177734375,-0.9955291748046875,0.0138702392578125,0.0072174072265625
1772797911211204900,1.901204833984375,-0.9951019287109375,0.0133819580078125,0.0078125
1772797911221233000,1.91123291015625,-0.99359130859375,0.0138702392578125,0.00836181640625
1772797911231260000,1.921260009765625,-0.99432373046875,0.013214111328125,0.008087158203125
1772797911241286700,1.93128662109375,-0.9943389892578125,0.013214111328125,0.007568359375
1772797911251314000,1.94131396484375,-0.993865966796875,0.0144195556640625,0.0078277587890625
1772797911261341700,1.951341796875,-0.9944915771484375,0.0146636962890625,0.0078125
1772797911271369000,1.961368896484375,-0.99468994140625,0.0136260986328125,0.008056640625
1772797911281396000,1.97139599609375,-0.994476318359375,0.013641357421875,0.008087158203125
1772797911291422700,1.981422607421875,-0.9950103759765625,0.014984130859375,0.0079193115234375
1772797911301449700,1.99144970703125,-0.9947509765625,0.0135345458984375,0.0076904296875
1772797911311478000,2.00147802734375,-0.993988037109375,0.0144805908203125,0.0077972412109375
1772797911321504800,2.0115048828125,-0.9937896728515625,0.014404296875,0.0081634521484375
1772797911331531800,2.02153173828125,-0.9950103759765625,0.0146026611328125,0.008453369140625
1772797911341559000,2.03155908203125,-0.995513916015625,0.01507568359375,0.0072479248046875
1772797911351586800,2.0415869140625,-0.994049072265625,0.014129638671875,0.0065765380859375
1772797911361614000,2.051614013671875,-0.9949951171875,0.01416015625,0.00677490234375
1772797911371640800,2.061640869140625,-0.9951629638671875,0.01434326171875,0.0076446533203125
1772797911381667800,2.071667724609375,-0.9944000244140625,0.01409912109375,0.0085601806640625
1772797911391696000,2.08169580078125,-0.9937744140625,0.0135498046875,0.0090179443359375
1772797911401723000,2.091722900390625,-0.9947357177734375,0.0143890380859375,0.0071868896484375
1772797911411750000,2.10175,-0.99554443359375,0.0143890380859375,0.0079498291015625
1772797911421777000,2.11177685546875,-0.9942626953125,0.015472412109375,0.00634765625
1772797911431804000,2.121803955078125,-0.9938812255859375,0.0137939453125,0.0085296630859375
1772797911441832000,2.13183203125,-0.9944000244140625,0.013885498046875,0.009429931640625
1772797911451858700,2.141858642578125,-0.995391845703125,0.0137481689453125,0.00848388671875
1772797911461886000,2.151885986328125,-0.9952239990234375,0.0136260986328125,0.0078125
1772797911471913000,2.161912841796875,-0.9942474365234375,0.014862060546875,0.00701904296875
1772797911481941000,2.17194091796875,-0.994873046875,0.0146942138671875,0.0070037841796875
1772797911491968000,2.181968017578125,-0.993743896484375,0.01385498046875,0.0070343017578125
1772797911501994800,2.191994873046875,-0.993988037109375,0.0146636962890625,0.0075225830078125
1772797911512021800,2.202021728515625,-0.994873046875,0.0132598876953125,0.0078582763671875
1772797911522049000,2.212049072265625,-0.995574951171875,0.0140228271484375,0.008453369140625
1772797911532076800,2.222076904296875,-0.994293212890625,0.0137786865234375,0.0083465576171875
1772797911542103800,2.232103759765625,-0.9950408935546875,0.0136260986328125,0.0077667236328125
1772797911552130800,2.242130859375,-0.9947662353515625,0.014923095703125,0.0079498291015625
1772797911562157800,2.25215771484375,-0.9946136474609375,0.014190673828125,0.0081634521484375
1772797911572185900,2.262185791015625,-0.994293212890625,0.014251708984375,0.0074920654296875
1772797911582212900,2.272212890625,-0.99420166015625,0.0141143798828125,0.0077667236328125
1772797911592239900,2.282239990234375,-0.9947052001953125,0.0139923095703125,0.0091094970703125
1772797911602267000,2.292266845703125,-0.99530029296875,0.0144805908203125,0.008270263671875
1772797911612294000,2.3022939453125,-0.9962005615234375,0.01416015625,0.0078887939453125
1772797911622322000,2.312322021484375,-0.9956817626953125,0.0147857666015625,0.0073699951171875
1772797911632348700,2.3223486328125,-0.9939422607421875,0.0147247314453125,0.0075225830078125
1772797911642376000,2.3323759765625,-0.994049072265625,0.0141143798828125,0.006988525390625
1772797911652403000,2.34240283203125,-0.9952239990234375,0.0139312744140625,0.007354736328125
1772797911662429700,2.3524296875,-0.9948883056640625,0.012908935546875,0.008270263671875
1772797911672458000,2.3624580078125,-0.99462890625,0.01409912109375,0.0076751708984375
1772797911682485000,2.372485107421875,-0.9942474365234375,0.0149688720703125,0.0081787109375
1772797911692511700,2.38251171875,-0.994873046875,0.0145263671875,0.0079803466796875
1772797911702539000,2.3925390625,-0.99456787109375,0.0139312744140625,0.007080078125
1772797911712566800,2.40256689453125,-0.99298095703125,0.0152435302734375,0.0078582763671875
1772797911722593800,2.41259375,-0.994049072265625,0.0148773193359375,0.0076751708984375
1772797911732621000,2.42262109375,-0.99578857421875,0.0138397216796875,0.007110595703125
1772797911742647800,2.432647705078125,-0.9952239990234375,0.0140533447265625,0.0071868896484375
1772797911752674800,2.4426748046875,-0.994049072265625,0.013946533203125,0.007843017578125
1772797911762702800,2.452702880859375,-0.9935760498046875,0.0140838623046875,0.0081634521484375
1772797911772729900,2.462729736328125,-0.993988037109375,0.0146636962890625,0.0082855224609375
1772797911782756900,2.4727568359375,-0.994384765625,0.0150604248046875,0.0073089599609375
1772797911792784000,2.482783935546875,-0.9949951171875,0.0144805908203125,0.0081634521484375
1772797911802811000,2.492810791015625,-0.995208740234375,0.0145721435546875,0.008209228515625
1772797911812839000,2.5028388671875,-0.9940338134765625,0.015533447265625,0.0073089599609375
1772797911822866000,2.512865966796875,-0.9926910400390625,0.014007568359375,0.009033203125
1772797911832893000,2.522892822265625,-0.994110107421875,0.0137481689453125,0.008819580078125
1772797911842920000,2.532919921875,-0.9954681396484375,0.0139923095703125,0.007476806640625
1772797911852948000,2.542947998046875,-0.994873046875,0.0140533447265625,0.0071563720703125
1772797911862975000,2.55297509765625,-0.9934539794921875,0.0136871337890625,0.007476806640625
1772797911873001700,2.563001708984375,-0.994659423828125,0.013885498046875,0.008209228515625
1772797911883029000,2.573029052734375,-0.9959259033203125,0.01409912109375,0.0078277587890625
1772797911893056000,2.583055908203125,-0.99591064453125,0.0140228271484375,0.008209228515625
1772797911903083800,2.593083740234375,-0.994903564453125,0.0146026611328125,0.0066375732421875
1772797911913111000,2.603111083984375,-0.99462890625,0.0139617919921875,0.0081634521484375
1772797911923137800,2.6131376953125,-0.9945220947265625,0.0144500732421875,0.0084381103515625
1772797911933164800,2.623164794921875,-0.994384765625,0.0143585205078125,0.0072784423828125
1772797911943191800,2.63319189453125,-0.9942474365234375,0.01470947265625,0.007781982421875
1772797911953219800,2.6432197265625,-0.9936370849609375,0.0149383544921875,0.00860595703125
1772797911963246800,2.653246826171875,-0.993927001953125,0.0144195556640625,0.008056640625
1772797911973273900,2.66327392578125,-0.995269775390625,0.0146942138671875,0.0086212158203125
1772797911983300900,2.67330078125,-0.9948577880859375,0.015533447265625,0.008056640625
1772797911993327900,2.683327880859375,-0.99365234375,0.0139617919921875,0.0070953369140625
1772797912003356000,2.69335595703125,-0.994140625,0.013458251953125,0.0081634521484375
1772797912013383000,2.7033828125,-0.993927001953125,0.013275146484375,0.00811767578125
1772797912023410000,2.713409912109375,-0.9951934814453125,0.014434814453125,0.007568359375
1772797912033436700,2.723436767578125,-0.995697021484375,0.0147705078125,0.0070037841796875
1772797912043464000,2.7334638671875,-0.9945831298828125,0.013519287109375,0.0076904296875
1772797912053491700,2.74349169921875,-0.993621826171875,0.014801025390625,0.0086669921875
1772797912063518700,2.753518798828125,-0.9949188232421875,0.013916015625,0.0082244873046875
1772797912073546000,2.7635458984375,-0.9958953857421875,0.013519287109375,0.007568359375
1772797912083572500,2.773572509765625,-0.9950714111328125,0.0146636962890625,0.007659912109375
1772797912093600300,2.783600341796875,-0.99468994140625,0.0140228271484375,0.0076904296875
1772797912103627500,2.79362744140625,-0.993194580078125,0.01434326171875,0.00830078125
1772797912113654300,2.803654296875,-0.993896484375,0.0146484375,0.0084381103515625
1772797912123681300,2.813681396484375,-0.9949951171875,0.01434326171875,0.007568359375
1772797912133708500,2.82370849609375,-0.994598388671875,0.014251708984375,0.006927490234375
1772797912143736300,2.833736328125,-0.9952239990234375,0.0142669677734375,0.00689697265625
1772797912153763300,2.843763427734375,-0.9940338134765625,0.0146484375,0.008148193359375
1772797912163790600,2.85379052734375,-0.994598388671875,0.0146484375,0.0069732666015625
1772797912173817300,2.8638173828125,-0.9939727783203125,0.015411376953125,0.007598876953125
1772797912183844400,2.87384423828125,-0.9950408935546875,0.014892578125,0.008880615234375
1772797912193872400,2.883872314453125,-0.9951629638671875,0.0148773193359375,0.008209228515625
1772797912203899400,2.8938994140625,-0.9947967529296875,0.0140380859375,0.0080413818359375
1772797912213926400,2.903926513671875,-0.9937591552734375,0.0142059326171875,0.007659912109375
1772797912223953400,2.913953369140625,-0.9932708740234375,0.0138092041015625,0.0079498291015625
1772797912233980400,2.92398046875,-0.9947052001953125,0.0146331787109375,0.0077972412109375
1772797912244008200,2.93400830078125,-0.9963836669921875,0.014129638671875,0.0074462890625
1772797912254035500,2.944035400390625,-0.9951934814453125,0.013275146484375,0.007965087890625
1772797912264062500,2.9540625,-0.9933624267578125,0.0151519775390625,0.008392333984375
1772797912274089200,2.964089111328125,-0.9937896728515625,0.01568603515625,0.0072784423828125
1772797912284116200,2.9741162109375,-0.9945220947265625,0.015228271484375,0.00701904296875
1772797912294144500,2.98414453125,-0.9948272705078125,0.0146026611328125,0.0070648193359375
1772797912304171300,2.994171142578125,-0.9952850341796875,0.0149993896484375,0.007293701171875
1772797912314198300,3.0041982421875,-0.994781494140625,0.014801025390625,0.00811767578125
1772797912324225500,3.0142255859375,-0.9951019287109375,0.0136871337890625,0.0076446533203125
1772797912334252300,3.024252197265625,-0.995330810546875,0.0140838623046875,0.0081329345703125
1772797912344280600,3.034280517578125,-0.9950408935546875,0.0140533447265625,0.008087158203125
1772797912354307300,3.044307373046875,-0.994384765625,0.0147705078125,0.007476806640625
1772797912364334300,3.054334228515625,-0.994140625,0.0144805908203125,0.007080078125
1772797912374361300,3.064361328125,-0.993682861328125,0.014434814453125,0.0076446533203125
1772797912384388400,3.074388427734375,-0.994476318359375,0.014678955078125,0.0075531005859375
1772797912394415400,3.084415283203125,-0.9961395263671875,0.014251708984375,0.0076904296875
1772797912404443400,3.094443359375,-0.9952392578125,0.01312255859375,0.0075531005859375
1772797912414470400,3.104470458984375,-0.9948883056640625,0.0140228271484375,0.0079498291015625
1772797912424497400,3.114497314453125,-0.995391845703125,0.0148468017578125,0.0081939697265625
1772797912434524400,3.1245244140625,-0.994110107421875,0.0145111083984375,0.0081634521484375
1772797912444551400,3.134551513671875,-0.994964599609375,0.015411376953125,0.0086212158203125
1772797912454579500,3.144579345703125,-0.995635986328125,0.015411376953125,0.0077056884765625
1772797912464606200,3.154606201171875,-0.994873046875,0.0138397216796875,0.006866455078125
1772797912474633500,3.164633544921875,-0.9951324462890625,0.014007568359375,0.0079498291015625
1772797912484660500,3.174660400390625,-0.9942779541015625,0.0143890380859375,0.008056640625
1772797912494687200,3.184687255859375,-0.9939117431640625,0.0143585205078125,0.0074615478515625
1772797912504715500,3.194715576171875,-0.995025634765625,0.0149078369140625,0.0067291259765625
1772797912514742300,3.2047421875,-0.994598388671875,0.0151519775390625,0.0071563720703125
1772797912524769300,3.214769287109375,-0.9940948486328125,0.014617919921875,0.008148193359375
1772797912534796500,3.224796630859375,-0.99371337890625,0.0142364501953125,0.0078582763671875
1772797912544823300,3.2348232421875,-0.9936981201171875,0.014007568359375,0.0079803466796875
1772797912554850300,3.244850341796875,-0.99462890625,0.0139617919921875,0.0069732666015625
1772797912564878300,3.25487841796875,-0.994720458984375,0.013671875,0.008697509765625
1772797912574905300,3.2649052734375,-0.9947967529296875,0.0145111083984375,0.0085296630859375
1772797912584932400,3.274932373046875,-0.9948577880859375,0.0150299072265625,0.0078125
1772797912594959400,3.28495947265625,-0.995697021484375,0.0139007568359375,0.0076751708984375
1772797912604986400,3.294986328125,-0.994110107421875,0.0145416259765625,0.008087158203125
1772797912615014400,3.305014404296875,-0.99542236328125,0.0139923095703125,0.00799560546875
1772797912625041400,3.31504150390625,-0.9925994873046875,0.01318359375,0.007568359375
1772797912635068400,3.325068359375,-0.9944610595703125,0.0148773193359375,0.007843017578125
1772797912645095400,3.335095458984375,-0.9953765869140625,0.01446533203125,0.0078125
1772797912655122200,3.3451220703125,-0.9946136474609375,0.014984130859375,0.00775146484375
1772797912665149400,3.3551494140625,-0.993560791015625,0.014984130859375,0.00732421875
1772797912675177200,3.36517724609375,-0.994354248046875,0.0139617919921875,0.0078277587890625
1772797912685204200,3.375204345703125,-0.994873046875,0.0147857666015625,0.009033203125
1772797912695231500,3.3852314453125,-0.994659423828125,0.014495849609375,0.0078887939453125
1772797912705258500,3.395258544921875,-0.9951019287109375,0.0143890380859375,0.00738525390625
1772797912715285200,3.40528515625,-0.9944610595703125,0.01409912109375,0.0070953369140625
1772797912725313500,3.4153134765625,-0.992706298828125,0.016082763671875,0.0084991455078125
1772797912735340300,3.42534033203125,-0.9931182861328125,0.0149993896484375,0.008209228515625
1772797912745367300,3.4353671875,-0.9960784912109375,0.0135345458984375,0.0070343017578125
1772797912755394600,3.44539453125,-0.9959869384765625,0.01373291015625,0.007232666015625
1772797912765421300,3.45542138671875,-0.9944000244140625,0.0137786865234375,0.00762939453125
1772797912775448300,3.4654482421875,-0.993408203125,0.0147552490234375,0.0077362060546875
1772797912785476400,3.475476318359375,-0.994140625,0.013397216796875,0.0084381103515625
1772797912795503400,3.48550341796875,-0.9944000244140625,0.013641357421875,0.007965087890625
1772797912805530400,3.4955302734375,-0.9945220947265625,0.0138702392578125,0.0081024169921875
1772797912815557400,3.505557373046875,-0.9950103759765625,0.013946533203125,0.007354736328125
1772797912825584400,3.51558447265625,-0.9941558837890625,0.01470947265625,0.0075225830078125
1772797912835612400,3.5256123046875,-0.9947662353515625,0.0155487060546875,0.00732421875
1772797912845639400,3.535639404296875,-0.99560546875,0.015838623046875,0.0081329345703125
1772797912855666400,3.54566650390625,-0.9958038330078125,0.0140533447265625,0.007568359375
1772797912865693400,3.555693359375,-0.99566650390625,0.014678955078125,0.008087158203125
1772797912875720200,3.56572021484375,-0.9942474365234375,0.013671875,0.00677490234375
1772797912885747500,3.57574755859375,-0.9947509765625,0.01409912109375,0.007415771484375
1772797912895775200,3.585775146484375,-0.994476318359375,0.01361083984375,0.0076141357421875
1772797912905802500,3.595802490234375,-0.994873046875,0.01446533203125,0.007965087890625
1772797912915829500,3.60582958984375,-0.9954071044921875,0.013336181640625,0.0080413818359375
1772797912925856300,3.615856201171875,-0.9948577880859375,0.0138092041015625,0.007415771484375
1772797912935883300,3.62588330078125,-0.9954833984375,0.0144805908203125,0.0074462890625
1772797912945911300,3.635911376953125,-0.99481201171875,0.014068603515625,0.0087738037109375
1772797912955938300,3.645938232421875,-0.9941864013671875,0.0144805908203125,0.0078582763671875
1772797912965965300,3.65596533203125,-0.9950408935546875,0.013641357421875,0.0073394775390625
1772797912975992300,3.665992431640625,-0.994842529296875,0.0149993896484375,0.0072174072265625
1772797912986019300,3.676019287109375,-0.9938507080078125,0.0159912109375,0.0079498291015625
1772797912996046300,3.68604638671875,-0.9941253662109375,0.015045166015625,0.0078582763671875
1772797913006074400,3.696074462890625,-0.9938812255859375,0.0146942138671875,0.0074920654296875
1772797913016101400,3.706101318359375,-0.994537353515625,0.0144500732421875,0.007904052734375
1772797913026128400,3.71612841796875,-0.9946136474609375,0.014312744140625,0.0076751708984375
1772797913036155400,3.7261552734375,-0.9941864013671875,0.01434326171875,0.0074615478515625
1772797913046182400,3.736182373046875,-0.9938507080078125,0.0143585205078125,0.0079193115234375
1772797913056209400,3.74620947265625,-0.9941558837890625,0.0143585205078125,0.00775146484375
1772797913066237400,3.756237548828125,-0.9959716796875,0.0149993896484375,0.008087158203125
1772797913076264400,3.766264404296875,-0.9963531494140625,0.014923095703125,0.0073089599609375
1772797913086291500,3.77629150390625,-0.9954986572265625,0.0153045654296875,0.0072784423828125
1772797913096318700,3.786318603515625,-0.9948272705078125,0.0150604248046875,0.007843017578125
1772797913106345700,3.796345703125,-0.9949798583984375,0.0144500732421875,0.0083160400390625
1772797913116372500,3.80637255859375,-0.99517822265625,0.01446533203125,0.00885009765625
1772797913126400800,3.81640087890625,-0.99530029296875,0.0139312744140625,0.0077972412109375
1772797913136427500,3.826427490234375,-0.9947967529296875,0.0147552490234375,0.0077362060546875
1772797913146454500,3.83645458984375,-0.9956512451171875,0.0142364501953125,0.008148193359375
1772797913156481500,3.8464814453125,-0.99505615234375,0.01458740234375,0.0084228515625
1772797913166508800,3.8565087890625,-0.994049072265625,0.01397705078125,0.0081634521484375
1772797913176535600,3.86653564453125,-0.994140625,0.013458251953125,0.0073089599609375
1772797913186563800,3.876563720703125,-0.9958953857421875,0.014617919921875,0.006744384765625
1772797913196590600,3.886590576171875,-0.995361328125,0.014556884765625,0.0077972412109375
1772797913206617600,3.89661767578125,-0.993927001953125,0.0138397216796875,0.0077972412109375
1772797913216644600,3.90664453125,-0.9929046630859375,0.0140380859375,0.0084075927734375
1772797913226671600,3.916671630859375,-0.9951019287109375,0.01470947265625,0.007720947265625
1772797913236698600,3.92669873046875,-0.9952239990234375,0.0140228271484375,0.008392333984375
1772797913246726400,3.936726318359375,-0.9943389892578125,0.014617919921875,0.008148193359375
1772797913256753700,3.946753662109375,-0.99493408203125,0.0150299072265625,0.0084991455078125
1772797913266780700,3.95678076171875,-0.9948272705078125,0.0145416259765625,0.0077667236328125
1772797913276807400,3.966807373046875,-0.994476318359375,0.015380859375,0.0074920654296875
1772797913286834700,3.976834716796875,-0.9945526123046875,0.014434814453125,0.0074462890625
1772797913296861700,3.98686181640625,-0.9947357177734375,0.0144195556640625,0.0080718994140625
1772797913306889500,3.996889404296875,-0.9937896728515625,0.0147857666015625,0.0072784423828125
1772797913316916700,4.006916748046875,-0.995208740234375,0.01507568359375,0.00750732421875
1772797913326943700,4.01694384765625,-0.9949188232421875,0.0145721435546875,0.00738525390625
1772797913336970500,4.026970458984375,-0.99462890625,0.014373779296875,0.00799560546875
1772797913346997800,4.036997802734375,-0.9948577880859375,0.015350341796875,0.0079345703125
1772797913357024800,4.047024658203125,-0.995330810546875,0.015167236328125,0.00848388671875
1772797913367051500,4.057051513671875,-0.99395751953125,0.0139923095703125,0.0083770751953125
1772797913377079800,4.067079833984375,-0.9943695068359375,0.0146026611328125,0.00823974609375
1772797913387106600,4.0771064453125,-0.9944915771484375,0.01434326171875,0.0075531005859375
1772797913397133600,4.087133544921875,-0.99456787109375,0.014251708984375,0.007843017578125
1772797913407160600,4.09716064453125,-0.99481201171875,0.0146484375,0.007354736328125
1772797913417187600,4.1071875,-0.9941253662109375,0.014617919921875,0.00836181640625
1772797913427214600,4.117214599609375,-0.99517822265625,0.01361083984375,0.00787353515625
1772797913437242600,4.12724267578125,-0.99578857421875,0.0133514404296875,0.00836181640625
1772797913447269600,4.13726953125,-0.994842529296875,0.013031005859375,0.0075531005859375
1772797913457296600,4.147296630859375,-0.99468994140625,0.0140380859375,0.006439208984375
1772797913467323600,4.15732373046875,-0.9934234619140625,0.0147552490234375,0.0078887939453125
1772797913477350700,4.1673505859375,-0.9934234619140625,0.0146331787109375,0.00872802734375
1772797913487377700,4.177377685546875,-0.9948883056640625,0.0142669677734375,0.0082855224609375
1772797913497405400,4.187405517578125,-0.99560546875,0.0141143798828125,0.0081329345703125
1772797913507432700,4.1974326171875,-0.995208740234375,0.014556884765625,0.007720947265625
1772797913517459700,4.207459716796875,-0.9945831298828125,0.013671875,0.007598876953125
1772797913527486500,4.217486572265625,-0.995819091796875,0.0155181884765625,0.007598876953125
1772797913537513700,4.227513671875,-0.9957122802734375,0.0153656005859375,0.0071868896484375
1772797913547540700,4.237540771484375,-0.9961090087890625,0.0148162841796875,0.0075836181640625
1772797913557567500,4.2475673828125,-0.9945526123046875,0.013916015625,0.0074920654296875
1772797913567595800,4.257595703125,-0.9946746826171875,0.015106201171875,0.0081634521484375
1772797913577622500,4.26762255859375,-0.994232177734375,0.0151214599609375,0.0077667236328125
1772797913587649500,4.2776494140625,-0.994140625,0.0151214599609375,0.0074310302734375
1772797913597676500,4.287676513671875,-0.9942626953125,0.014984130859375,0.0080718994140625
1772797913607703800,4.297703857421875,-0.99395751953125,0.0155181884765625,0.0079193115234375
1772797913617730600,4.30773046875,-0.99371337890625,0.0151214599609375,0.0075225830078125
1772797913627757600,4.317757568359375,-0.994171142578125,0.0146331787109375,0.008636474609375
1772797913637785600,4.32778564453125,-0.995452880859375,0.014434814453125,0.00933837890625
1772797913647812600,4.3378125,-0.995574951171875,0.01531982421875,0.0079345703125
1772797913657839600,4.347839599609375,-0.9947662353515625,0.014617919921875,0.00701904296875
1772797913667866600,4.35786669921875,-0.994140625,0.0146942138671875,0.007049560546875
1772797913677893600,4.3678935546875,-0.99444580078125,0.015045166015625,0.0076751708984375
1772797913687920600,4.377920654296875,-0.9941864013671875,0.0146331787109375,0.0073394775390625
1772797913697948700,4.38794873046875,-0.9949188232421875,0.0135650634765625,0.0072021484375
1772797913707975700,4.3979755859375,-0.9952239990234375,0.013519287109375,0.0075531005859375
1772797913718002400,4.40800244140625,-0.9943389892578125,0.013824462890625,0.0078277587890625
1772797913728029700,4.41802978515625,-0.9948883056640625,0.013671875,0.0079803466796875
1772797913738056700,4.428056640625,-0.9955596923828125,0.0151519775390625,0.0082550048828125
1772797913748083700,4.438083740234375,-0.9939422607421875,0.014404296875,0.0078277587890625
1772797913758110500,4.4481103515625,-0.994873046875,0.0145416259765625,0.0078887939453125
1772797913768138800,4.458138671875,-0.99481201171875,0.0154266357421875,0.0073394775390625
1772797913778165500,4.46816552734375,-0.99554443359375,0.01495361328125,0.0074005126953125
1772797913788192500,4.478192626953125,-0.99395751953125,0.0148773193359375,0.0071258544921875
1772797913798219800,4.4882197265625,-0.994476318359375,0.015228271484375,0.007598876953125
1772797913808246500,4.49824658203125,-0.9950714111328125,0.0146026611328125,0.0077362060546875
1772797913818273500,4.5082734375,-0.9948577880859375,0.0144195556640625,0.00775146484375
1772797913828300800,4.51830078125,-0.994720458984375,0.0149688720703125,0.008270263671875
1772797913838328600,4.52832861328125,-0.9938812255859375,0.014007568359375,0.007965087890625
1772797913848355600,4.53835546875,-0.9950408935546875,0.0139923095703125,0.0085906982421875
1772797913858382600,4.548382568359375,-0.9952545166015625,0.0144500732421875,0.0079193115234375
1772797913868409600,4.55840966796875,-0.99517822265625,0.01336669921875,0.00775146484375
1772797913878436600,4.5684365234375,-0.994903564453125,0.014190673828125,0.007171630859375
1772797913888463600,4.578463623046875,-0.994903564453125,0.0148162841796875,0.007110595703125
1772797913898490600,4.58849072265625,-0.994476318359375,0.0145416259765625,0.0073089599609375
1772797913908518700,4.5985185546875,-0.9958038330078125,0.0146942138671875,0.0080108642578125
1772797913918545700,4.608545654296875,-0.9954833984375,0.0138092041015625,0.0073089599609375
1772797913928572700,4.61857275390625,-0.995025634765625,0.013519287109375,0.0071258544921875
1772797913938599700,4.628599609375,-0.995391845703125,0.01483154296875,0.0084381103515625
1772797913948626400,4.63862646484375,-0.9956207275390625,0.01495361328125,0.00836181640625
1772797913958653700,4.64865380859375,-0.9949493408203125,0.0141143798828125,0.0076446533203125
1772797913968680700,4.6586806640625,-0.99493408203125,0.014923095703125,0.0076446533203125
1772797913978708500,4.66870849609375,-0.994781494140625,0.0147705078125,0.0077972412109375
1772797913988735700,4.67873583984375,-0.995452880859375,0.0146942138671875,0.0080718994140625
1772797913998762500,4.688762451171875,-0.9952239990234375,0.01470947265625,0.0075836181640625
1772797914008789500,4.69878955078125,-0.9950408935546875,0.0154876708984375,0.00732421875
1772797914018816800,4.708816650390625,-0.9948577880859375,0.015106201171875,0.007659912109375
1772797914028843500,4.718843505859375,-0.9950408935546875,0.014923095703125,0.0077362060546875
1772797914038870500,4.72887060546875,-0.9943084716796875,0.014556884765625,0.007568359375
1772797914048898800,4.73889892578125,-0.994384765625,0.0145416259765625,0.0080413818359375
1772797914058925600,4.748925537109375,-0.995391845703125,0.0143280029296875,0.0088043212890625
1772797914068952600,4.75895263671875,-0.995391845703125,0.0137939453125,0.0071563720703125
1772797914078979600,4.7689794921875,-0.99456787109375,0.013885498046875,0.00738525390625
1772797914089006300,4.77900634765625,-0.9947967529296875,0.015228271484375,0.00738525390625
1772797914099033600,4.78903369140625,-0.9940338134765625,0.0143585205078125,0.0066070556640625
1772797914109060600,4.799060546875,-0.9941558837890625,0.0146636962890625,0.0076141357421875
1772797914119087400,4.80908740234375,-0.9940643310546875,0.013031005859375,0.0083465576171875
1772797914129115600,4.81911572265625,-0.99517822265625,0.0130157470703125,0.0079345703125
1772797914139142400,4.829142333984375,-0.9956817626953125,0.01470947265625,0.0082855224609375
1772797914149169400,4.83916943359375,-0.9952239990234375,0.0155487060546875,0.007781982421875
1772797914159196700,4.84919677734375,-0.9944305419921875,0.01385498046875,0.0078125
1772797914169223400,4.859223388671875,-0.99468994140625,0.014373779296875,0.0090179443359375
1772797914179250400,4.86925048828125,-0.993682861328125,0.0141448974609375,0.008331298828125
1772797914189277700,4.879277587890625,-0.9928436279296875,0.0146484375,0.00738525390625
1772797914199305500,4.889305419921875,-0.9956207275390625,0.014984130859375,0.00787353515625
1772797914209332500,4.89933251953125,-0.9947509765625,0.014617919921875,0.0080413818359375
1772797914219359700,4.90935986328125,-0.9946136474609375,0.014129638671875,0.007171630859375
1772797914229386500,4.919386474609375,-0.99493408203125,0.015411376953125,0.007354736328125
1772797914239413500,4.92941357421875,-0.9944610595703125,0.015350341796875,0.00762939453125
1772797914249440500,4.9394404296875,-0.99407958984375,0.013153076171875,0.0079345703125
1772797914259467500,4.949467529296875,-0.9937744140625,0.014312744140625,0.0089111328125
1772797914269494500,4.95949462890625,-0.99609375,0.01397705078125,0.008514404296875
1772797914279522300,4.969522216796875,-0.996002197265625,0.014129638671875,0.008087158203125
1772797914289549600,4.979549560546875,-0.9951171875,0.0144195556640625,0.0073394775390625
1772797914299576600,4.98957666015625,-0.993804931640625,0.0140228271484375,0.0074615478515625
1772797914309603300,4.999603271484375,-0.99383544921875,0.0145263671875,0.0076904296875
1772797914319630600,5.009630615234375,-0.995941162109375,0.0149688720703125,0.0076446533203125
1772797914329657600,5.01965771484375,-0.995391845703125,0.014862060546875,0.0079498291015625
1772797914339684600,5.0296845703125,-0.994140625,0.01422119140625,0.0081787109375
1772797914349711400,5.03971142578125,-0.994415283203125,0.0139312744140625,0.0074615478515625
1772797914359739600,5.04973974609375,-0.9941864013671875,0.0144195556640625,0.0070037841796875
1772797914369766400,5.059766357421875,-0.9940338134765625,0.0142822265625,0.008148193359375
1772797914379793700,5.069793701171875,-0.994598388671875,0.0146942138671875,0.0080718994140625
1772797914389820700,5.079820556640625,-0.9947662353515625,0.0151214599609375,0.007904052734375
1772797914399847400,5.089847412109375,-0.99468994140625,0.01531982421875,0.0078582763671875
1772797914409874400,5.09987451171875,-0.992919921875,0.0137481689453125,0.00872802734375
1772797914419901700,5.109901611328125,-0.9930572509765625,0.0141448974609375,0.00762939453125
1772797914429929500,5.119929443359375,-0.994659423828125,0.0139923095703125,0.0070953369140625
1772797914439956500,5.12995654296875,-0.995208740234375,0.015228271484375,0.0078277587890625
1772797914449983500,5.1399833984375,-0.9944000244140625,0.0149383544921875,0.008056640625
1772797914460010500,5.150010498046875,-0.9945220947265625,0.0152587890625,0.0076141357421875
1772797914470037500,5.16003759765625,-0.9943084716796875,0.0155181884765625,0.0078125
1772797914480064500,5.170064453125,-0.9951019287109375,0.01507568359375,0.008209228515625
1772797914490091500,5.180091552734375,-0.9947509765625,0.014984130859375,0.0084381103515625
1772797914500118500,5.190118408203125,-0.9957122802734375,0.0143585205078125,0.0084991455078125
1772797914510146600,5.200146484375,-0.9954681396484375,0.0149993896484375,0.007843017578125
1772797914520173600,5.210173583984375,-0.9942779541015625,0.014923095703125,0.0073089599609375
1772797914530200600,5.22020068359375,-0.9950103759765625,0.014068603515625,0.00830078125
1772797914540227600,5.2302275390625,-0.9945831298828125,0.013214111328125,0.0079193115234375
1772797914550254600,5.240254638671875,-0.995086669921875,0.0147857666015625,0.00750732421875
1772797914560281600,5.250281494140625,-0.995025634765625,0.0144805908203125,0.0078125
1772797914570308400,5.260308349609375,-0.9952392578125,0.0148162841796875,0.0087738037109375
1772797914580335600,5.270335693359375,-0.9952239990234375,0.016082763671875,0.0079345703125
1772797914590362600,5.280362548828125,-0.994476318359375,0.0146026611328125,0.0079345703125
1772797914600390400,5.290390380859375,-0.99530029296875,0.0144500732421875,0.0076904296875
1772797914610417700,5.300417724609375,-0.9942626953125,0.0143280029296875,0.0077056884765625
1772797914620444400,5.3104443359375,-0.9946441650390625,0.0152435302734375,0.0076751708984375
1772797914630471400,5.320471435546875,-0.993988037109375,0.0147552490234375,0.00738525390625
1772797914640498700,5.330498779296875,-0.994476318359375,0.01446533203125,0.008148193359375
1772797914650525700,5.340525634765625,-0.9948883056640625,0.0149383544921875,0.0076141357421875
1772797914660552400,5.350552490234375,-0.9951629638671875,0.0141754150390625,0.0077972412109375
1772797914670579500,5.360579345703125,-0.994415283203125,0.014617919921875,0.00762939453125
1772797914680607500,5.370607421875,-0.9942474365234375,0.0139923095703125,0.0078887939453125
1772797914690634500,5.380634521484375,-0.9942626953125,0.0153350830078125,0.0075225830078125
1772797914700661500,5.39066162109375,-0.994964599609375,0.015350341796875,0.0081024169921875
1772797914710688500,5.4006884765625,-0.994384765625,0.0148162841796875,0.0072784423828125
1772797914720715500,5.410715576171875,-0.9950408935546875,0.01507568359375,0.007598876953125
1772797914730742500,5.420742431640625,-0.9945220947265625,0.014495849609375,0.0082855224609375
1772797914740769500,5.43076953125,-0.994659423828125,0.014068603515625,0.0075225830078125
1772797914750796500,5.440796630859375,-0.9940032958984375,0.0133056640625,0.0079498291015625
1772797914760823600,5.450823486328125,-0.994781494140625,0.013946533203125,0.0075225830078125
1772797914770851600,5.4608515625,-0.9950408935546875,0.014495849609375,0.007781982421875
1772797914780878600,5.470878662109375,-0.9951324462890625,0.0149688720703125,0.0073089599609375
1772797914790905600,5.480905517578125,-0.9948883056640625,0.0154571533203125,0.0066986083984375
1772797914800932600,5.4909326171875,-0.9951629638671875,0.0154266357421875,0.007049560546875
1772797914810959600,5.500959716796875,-0.9954071044921875,0.0146026611328125,0.008209228515625
1772797914820986600,5.510986572265625,-0.9944000244140625,0.0140380859375,0.0076751708984375
1772797914831013400,5.521013427734375,-0.99505615234375,0.0145416259765625,0.007904052734375
1772797914841040600,5.53104052734375,-0.9940185546875,0.0147705078125,0.008514404296875
1772797914851067600,5.541067626953125,-0.9944305419921875,0.014556884765625,0.0073394775390625
1772797914861095400,5.551095458984375,-0.994873046875,0.015777587890625,0.0067901611328125
1772797914871122700,5.561122802734375,-0.995574951171875,0.0147247314453125,0.007080078125
1772797914881149400,5.5711494140625,-0.9939727783203125,0.014923095703125,0.0069122314453125
1772797914891176400,5.581176513671875,-0.994476318359375,0.013916015625,0.0081024169921875
1772797914901203700,5.59120361328125,-0.9954681396484375,0.013336181640625,0.008514404296875
1772797914911230500,5.60123046875,-0.9960784912109375,0.0140228271484375,0.0074615478515625
1772797914921257500,5.611257568359375,-0.9955902099609375,0.014892578125,0.0076751708984375
1772797914931284500,5.621284423828125,-0.9954833984375,0.0141448974609375,0.0078887939453125
1772797914941311500,5.6313115234375,-0.9936981201171875,0.0135498046875,0.00738525390625
1772797914951339500,5.641339599609375,-0.992156982421875,0.0153045654296875,0.00823974609375
1772797914961366500,5.651366455078125,-0.99462890625,0.01458740234375,0.008148193359375
1772797914971393500,5.6613935546875,-0.996795654296875,0.0144500732421875,0.00665283203125
1772797914981420500,5.671420654296875,-0.9956207275390625,0.0132598876953125,0.0066680908203125
1772797914991447600,5.681447509765625,-0.9937591552734375,0.013427734375,0.0071258544921875
1772797915001474600,5.691474609375,-0.9927978515625,0.0151519775390625,0.007537841796875
1772797915011501600,5.70150146484375,-0.9941253662109375,0.016265869140625,0.0073394775390625
1772797915021528600,5.711528564453125,-0.9956817626953125,0.013824462890625,0.0079345703125
1772797915031555600,5.7215556640625,-0.9962005615234375,0.0147857666015625,0.0089263916015625
1772797915041583600,5.73158349609375,-0.9946441650390625,0.0157623291015625,0.0072479248046875
1772797915051610400,5.7416103515625,-0.9936370849609375,0.0142822265625,0.0083770751953125
1772797915061637600,5.7516376953125,-0.9937744140625,0.0150299072265625,0.008819580078125
1772797915071664600,5.76166455078125,-0.99462890625,0.0145263671875,0.0080413818359375
1772797915081691100,5.771691162109375,-0.994476318359375,0.01458740234375,0.0079498291015625
1772797915091718000,5.7817177734375,-0.995697021484375,0.0148468017578125,0.0067901611328125
1772797915101745000,5.791744873046875,-0.9948577880859375,0.0142974853515625,0.007720947265625
1772797915111772200,5.801772216796875,-0.9956817626953125,0.0140228271484375,0.007904052734375
1772797915121799000,5.811798828125,-0.99359130859375,0.01397705078125,0.0076904296875
1772797915131826000,5.821825927734375,-0.995391845703125,0.01495361328125,0.0083160400390625
1772797915141854000,5.83185400390625,-0.9947357177734375,0.0142974853515625,0.007904052734375
1772797915151881000,5.841880859375,-0.9949188232421875,0.0139312744140625,0.0073089599609375
1772797915161908000,5.851907958984375,-0.9944305419921875,0.015380859375,0.0073394775390625
1772797915171935000,5.86193505859375,-0.9940948486328125,0.0152130126953125,0.0078277587890625
1772797915181962000,5.8719619140625,-0.99505615234375,0.0147705078125,0.008026123046875
1772797915191989000,5.881989013671875,-0.9950408935546875,0.0142822265625,0.0093536376953125
1772797915202016000,5.89201611328125,-0.9956512451171875,0.014251708984375,0.0086822509765625
1772797915212043000,5.90204296875,-0.99481201171875,0.0141448974609375,0.0079345703125
1772797915222070000,5.912070068359375,-0.9945068359375,0.0139007568359375,0.0072479248046875
1772797915232097000,5.922096923828125,-0.9953155517578125,0.0148773193359375,0.00750732421875
1772797915242125000,5.932125,-0.9945526123046875,0.0153961181640625,0.008453369140625
1772797915252152000,5.942152099609375,-0.9951324462890625,0.01507568359375,0.008331298828125
1772797915262178800,5.9521787109375,-0.994720458984375,0.0150604248046875,0.00836181640625
1772797915272206000,5.9622060546875,-0.9952392578125,0.0147857666015625,0.0073699951171875
1772797915282233000,5.972233154296875,-0.9946136474609375,0.014007568359375,0.0083465576171875
1772797915292259800,5.982259765625,-0.9945831298828125,0.0156097412109375,0.00762939453125
1772797915302287000,5.992287109375,-0.995025634765625,0.0143890380859375,0.007568359375
1772797915312314000,6.002314208984375,-0.995269775390625,0.0147247314453125,0.0066986083984375
1772797915322340900,6.0123408203125,-0.9944000244140625,0.014801025390625,0.007049560546875
1772797915332368000,6.022367919921875,-0.993408203125,0.014190673828125,0.0075836181640625
1772797915342396000,6.03239599609375,-0.9937896728515625,0.014556884765625,0.0081939697265625
1772797915352423000,6.0424228515625,-0.99462890625,0.0151519775390625,0.0081939697265625
1772797915362450000,6.052449951171875,-0.994354248046875,0.0157928466796875,0.0072479248046875
1772797915372477000,6.062476806640625,-0.99456787109375,0.015655517578125,0.005859375
1772797915382504000,6.07250390625,-0.994720458984375,0.0146942138671875,0.0064697265625
1772797915392531000,6.082531005859375,-0.9936676025390625,0.014984130859375,0.0073089599609375
1772797915402558200,6.09255810546875,-0.9955596923828125,0.0135498046875,0.0080413818359375
1772797915412585000,6.1025849609375,-0.995635986328125,0.0133819580078125,0.0079803466796875
1772797915422612000,6.112612060546875,-0.9948272705078125,0.0147247314453125,0.0091400146484375
1772797915432639000,6.122638916015625,-0.9954986572265625,0.01470947265625,0.007720947265625
1772797915442667000,6.1326669921875,-0.9940032958984375,0.0141143798828125,0.0073699951171875
1772797915452694000,6.142694091796875,-0.99334716796875,0.0145416259765625,0.0084991455078125
1772797915462721000,6.152720947265625,-0.994903564453125,0.0142669677734375,0.0077972412109375
1772797915472748000,6.162748046875,-0.995208740234375,0.0144195556640625,0.0083160400390625
1772797915482775000,6.172775146484375,-0.9960479736328125,0.014556884765625,0.00738525390625
1772797915492801800,6.1828017578125,-0.993682861328125,0.014617919921875,0.0066680908203125
1772797915502829000,6.1928291015625,-0.9944915771484375,0.0159149169921875,0.007049560546875
1772797915512856000,6.20285595703125,-0.9953460693359375,0.015106201171875,0.006622314453125
1772797915522882800,6.2128828125,-0.9945831298828125,0.01513671875,0.008392333984375
1772797915532910000,6.22291015625,-0.9942779541015625,0.0135955810546875,0.0081634521484375
1772797915542937000,6.23293701171875,-0.993743896484375,0.0137481689453125,0.0081024169921875
1772797915552964900,6.24296484375,-0.994415283203125,0.0147857666015625,0.007080078125
1772797915562992000,6.2529921875,-0.994659423828125,0.014495849609375,0.0067596435546875
1772797915573019100,6.26301904296875,-0.995147705078125,0.0142364501953125,0.0076141357421875
1772797915583046000,6.2730458984375,-0.9951171875,0.0146942138671875,0.00799560546875
1772797915593073000,6.283072998046875,-0.9946746826171875,0.0141754150390625,0.0069427490234375
1772797915603100200,6.29310009765625,-0.9948883056640625,0.0148468017578125,0.0081024169921875
1772797915613127000,6.303126953125,-0.995147705078125,0.014434814453125,0.008544921875
1772797915623154000,6.31315380859375,-0.9947662353515625,0.0147247314453125,0.0076446533203125
1772797915633181200,6.32318115234375,-0.99560546875,0.0154876708984375,0.0068511962890625
1772797915643208000,6.3332080078125,-0.9948272705078125,0.015594482421875,0.00775146484375
1772797915653235000,6.34323486328125,-0.993927001953125,0.015960693359375,0.0082855224609375
1772797915663262000,6.353261962890625,-0.994873046875,0.014923095703125,0.007720947265625
1772797915673290000,6.3632900390625,-0.9942169189453125,0.0146026611328125,0.0081329345703125
1772797915683317000,6.37331689453125,-0.9940185546875,0.013824462890625,0.0069427490234375
1772797915693344000,6.383343994140625,-0.9954071044921875,0.01470947265625,0.0073089599609375
1772797915703371000,6.39337109375,-0.995452880859375,0.0151214599609375,0.0076141357421875
1772797915713398000,6.40339794921875,-0.994659423828125,0.0151214599609375,0.0076141357421875
1772797915723425000,6.413425048828125,-0.994873046875,0.01434326171875,0.009124755859375
1772797915733452000,6.4234521484375,-0.993194580078125,0.015380859375,0.00775146484375
1772797915743479000,6.43347900390625,-0.99542236328125,0.01434326171875,0.007080078125
1772797915753506000,6.443506103515625,-0.9941253662109375,0.01409912109375,0.0068817138671875
1772797915763532800,6.45353271484375,-0.9939117431640625,0.0146026611328125,0.00787353515625
1772797915773560000,6.46356005859375,-0.9942626953125,0.01483154296875,0.0082244873046875
1772797915783587800,6.473587890625,-0.9942474365234375,0.01361083984375,0.00732421875
1772797915793615000,6.483614990234375,-0.99560546875,0.0147247314453125,0.008514404296875
1772797915803642000,6.49364208984375,-0.994903564453125,0.01544189453125,0.0080413818359375
1772797915813668900,6.5036689453125,-0.99432373046875,0.0149993896484375,0.0076751708984375
1772797915823696000,6.51369580078125,-0.99530029296875,0.01507568359375,0.00823974609375
1772797915833723100,6.52372314453125,-0.994903564453125,0.0152740478515625,0.008392333984375
1772797915843750000,6.53375,-0.9943389892578125,0.0150909423828125,0.0083160400390625
1772797915853777000,6.54377685546875,-0.9947662353515625,0.0148773193359375,0.0084381103515625
1772797915863804200,6.55380419921875,-0.9944610595703125,0.0145721435546875,0.00726318359375
1772797915873831000,6.563830810546875,-0.9945220947265625,0.0137939453125,0.0080108642578125
1772797915883858000,6.57385791015625,-0.9949188232421875,0.014739990234375,0.007293701171875
1772797915893885000,6.583885009765625,-0.9944000244140625,0.0146331787109375,0.0074920654296875
1772797915903912200,6.593912109375,-0.99603271484375,0.0148162841796875,0.0079345703125
1772797915913940000,6.60393994140625,-0.9959259033203125,0.01495361328125,0.0072479248046875
1772797915923967000,6.613967041015625,-0.995880126953125,0.014068603515625,0.008453369140625
1772797915933994000,6.623993896484375,-0.995697021484375,0.01483154296875,0.0088348388671875
1772797915944021000,6.63402099609375,-0.9944305419921875,0.0142364501953125,0.00799560546875
1772797915954048000,6.644048095703125,-0.9940948486328125,0.0141754150390625,0.007598876953125
1772797915964075000,6.654074951171875,-0.9941558837890625,0.01422119140625,0.0079803466796875
1772797915974102000,6.66410205078125,-0.9951324462890625,0.0145721435546875,0.0072479248046875
1772797915984129000,6.67412890625,-0.9943389892578125,0.01495361328125,0.00823974609375
1772797915994155800,6.68415576171875,-0.994781494140625,0.0139617919921875,0.0077667236328125
1772797916004183000,6.69418310546875,-0.9936065673828125,0.01458740234375,0.0075836181640625
1772797916014210000,6.7042099609375,-0.993621826171875,0.0155487060546875,0.0076446533203125
1772797916024236800,6.71423681640625,-0.993896484375,0.0142364501953125,0.00787353515625
1772797916034264000,6.72426416015625,-0.993377685546875,0.014312744140625,0.008453369140625
1772797916044292000,6.7342919921875,-0.9954681396484375,0.014373779296875,0.0083770751953125
1772797916054318800,6.74431884765625,-0.99481201171875,0.0139312744140625,0.0077056884765625
1772797916064346000,6.75434619140625,-0.9953460693359375,0.0153045654296875,0.0076904296875
1772797916074373000,6.764373046875,-0.9952239990234375,0.0152435302734375,0.0076446533203125
1772797916084400400,6.774400390625,-0.9936370849609375,0.0145111083984375,0.0081634521484375
1772797916094427600,6.784427734375,-0.9936370849609375,0.0147857666015625,0.0078887939453125
1772797916104454400,6.794454345703125,-0.9949798583984375,0.0135498046875,0.0078582763671875
1772797916114481400,6.8044814453125,-0.9952392578125,0.014190673828125,0.007537841796875
1772797916124508400,6.81450830078125,-0.994598388671875,0.0138702392578125,0.007354736328125
1772797916134535400,6.824535400390625,-0.9942626953125,0.0148773193359375,0.0079345703125
1772797916144562400,6.8345625,-0.994842529296875,0.0142669677734375,0.0084228515625
1772797916154589400,6.84458935546875,-0.9961700439453125,0.01458740234375,0.008270263671875
1772797916164616700,6.85461669921875,-0.9946136474609375,0.0147247314453125,0.00830078125
1772797916174643500,6.8646435546875,-0.9939727783203125,0.0152435302734375,0.0086517333984375
1772797916184671500,6.87467138671875,-0.9941253662109375,0.0153350830078125,0.0078582763671875
1772797916194698500,6.884698486328125,-0.994873046875,0.0147552490234375,0.008880615234375
1772797916204725500,6.8947255859375,-0.994598388671875,0.0141143798828125,0.0078125
1772797916214752500,6.90475244140625,-0.9939727783203125,0.013641357421875,0.0074462890625
1772797916224779500,6.914779541015625,-0.995758056640625,0.014251708984375,0.00750732421875
1772797916234806500,6.924806640625,-0.994171142578125,0.0149688720703125,0.0081024169921875
1772797916244833500,6.93483349609375,-0.9951629638671875,0.0140838623046875,0.008392333984375
1772797916254860300,6.9448603515625,-0.9948577880859375,0.0136566162109375,0.008392333984375
1772797916264887600,6.954887451171875,-0.9945220947265625,0.01458740234375,0.0083770751953125
1772797916274914600,6.96491455078125,-0.994293212890625,0.014862060546875,0.0066680908203125
1772797916284941300,6.97494140625,-0.992950439453125,0.0141754150390625,0.0074615478515625
1772797916294968600,6.984968505859375,-0.9946746826171875,0.0141143798828125,0.008148193359375
1772797916304995600,6.99499560546875,-0.995574951171875,0.015411376953125,0.00811767578125
1772797916315022600,7.005022705078125,-0.9959716796875,0.0141754150390625,0.0075531005859375
1772797916325050600,7.015050537109375,-0.99334716796875,0.013885498046875,0.007049560546875
1772797916335077600,7.02507763671875,-0.9945068359375,0.0144500732421875,0.0076904296875
1772797916345104400,7.0351044921875,-0.995361328125,0.0150299072265625,0.0082244873046875
1772797916355131400,7.04513134765625,-0.994110107421875,0.01495361328125,0.0075531005859375
1772797916365158700,7.05515869140625,-0.9954986572265625,0.0147857666015625,0.0076904296875
1772797916375185400,7.065185302734375,-0.995086669921875,0.014923095703125,0.0078125
1772797916385212400,7.07521240234375,-0.9957427978515625,0.0152130126953125,0.008026123046875
1772797916395239700,7.08523974609375,-0.994171142578125,0.014129638671875,0.0082244873046875
1772797916405266400,7.095266357421875,-0.9951934814453125,0.014923095703125,0.00823974609375
1772797916415293400,7.10529345703125,-0.9949798583984375,0.0142364501953125,0.0074310302734375
1772797916425320400,7.115320556640625,-0.993896484375,0.014434814453125,0.007476806640625
1772797916435347500,7.125347412109375,-0.9943084716796875,0.0143585205078125,0.0081024169921875
1772797916445374500,7.13537451171875,-0.99456787109375,0.01373291015625,0.0078125
1772797916455401500,7.1454013671875,-0.994171142578125,0.0138397216796875,0.0086669921875
1772797916465428500,7.155428466796875,-0.99615478515625,0.0153656005859375,0.006683349609375
1772797916475456500,7.16545654296875,-0.996124267578125,0.0148468017578125,0.0093231201171875
1772797916485483500,7.1754833984375,-0.994537353515625,0.0138092041015625,0.006744384765625
1772797916495510500,7.185510498046875,-0.994476318359375,0.014923095703125,0.007781982421875
1772797916505537500,7.19553759765625,-0.9954681396484375,0.0142059326171875,0.0089874267578125
1772797916515564500,7.205564453125,-0.9955902099609375,0.0146636962890625,0.0068511962890625
1772797916525591600,7.215591552734375,-0.9949798583984375,0.0144500732421875,0.0081939697265625
1772797916535618600,7.22561865234375,-0.9940185546875,0.0141754150390625,0.007965087890625
1772797916545645600,7.2356455078125,-0.9957427978515625,0.0142364501953125,0.0077972412109375
1772797916555672300,7.24567236328125,-0.995758056640625,0.015167236328125,0.007965087890625
1772797916565699600,7.255699462890625,-0.9957275390625,0.01580810546875,0.00750732421875
1772797916575726600,7.2657265625,-0.994171142578125,0.014892578125,0.00799560546875
1772797916585753300,7.27575341796875,-0.994537353515625,0.013427734375,0.00750732421875
1772797916595780600,7.285780517578125,-0.99554443359375,0.0151519775390625,0.0081939697265625
1772797916605807600,7.2958076171875,-0.9944610595703125,0.0147552490234375,0.0087890625
1772797916615834400,7.30583447265625,-0.994537353515625,0.0151214599609375,0.0076446533203125
1772797916625861400,7.315861328125,-0.9959869384765625,0.014923095703125,0.0072784423828125
1772797916635888600,7.325888671875,-0.9954376220703125,0.0147247314453125,0.00787353515625
1772797916645916400,7.33591650390625,-0.9948272705078125,0.014984130859375,0.007354736328125
1772797916655943400,7.345943359375,-0.994293212890625,0.015472412109375,0.0076141357421875
1772797916665970700,7.355970703125,-0.99505615234375,0.014129638671875,0.0085906982421875
1772797916675997400,7.36599755859375,-0.9956817626953125,0.014923095703125,0.007537841796875
1772797916686024400,7.3760244140625,-0.9941558837890625,0.014739990234375,0.007781982421875
1772797916696051700,7.3860517578125,-0.994903564453125,0.015716552734375,0.007843017578125
1772797916706078500,7.396078369140625,-0.9959716796875,0.014862060546875,0.007598876953125
1772797916716105500,7.40610546875,-0.99578857421875,0.01416015625,0.0082550048828125
1772797916726132500,7.416132568359375,-0.9954986572265625,0.0146484375,0.008087158203125
1772797916736159500,7.426159423828125,-0.9945068359375,0.0142364501953125,0.0078887939453125
1772797916746186500,7.4361865234375,-0.99591064453125,0.01507568359375,0.0081939697265625
1772797916756213500,7.446213623046875,-0.9949493408203125,0.0144500732421875,0.007232666015625
1772797916766240500,7.456240478515625,-0.9944610595703125,0.014404296875,0.0068817138671875
1772797916776267500,7.466267578125,-0.9954681396484375,0.01458740234375,0.00738525390625
1772797916786294500,7.47629443359375,-0.9951019287109375,0.01422119140625,0.0074005126953125
1772797916796321300,7.4863212890625,-0.9939422607421875,0.01434326171875,0.008453369140625
1772797916806348500,7.4963486328125,-0.9945220947265625,0.01385498046875,0.008087158203125
1772797916816375600,7.50637548828125,-0.9968414306640625,0.013641357421875,0.008453369140625
1772797916826402300,7.51640234375,-0.995208740234375,0.0140838623046875,0.007049560546875
1772797916836430600,7.5264306640625,-0.9931640625,0.014434814453125,0.0061492919921875
1772797916846457600,7.53645751953125,-0.9934844970703125,0.01519775390625,0.00750732421875
1772797916856484400,7.546484375,-0.9961395263671875,0.0144500732421875,0.008270263671875
1772797916866511600,7.55651171875,-0.9950714111328125,0.0153350830078125,0.008209228515625
1772797916876538600,7.56653857421875,-0.9948883056640625,0.01416015625,0.0077667236328125
1772797916886565400,7.5765654296875,-0.9949951171875,0.0142364501953125,0.007965087890625
1772797916896592400,7.58659228515625,-0.99456787109375,0.0144195556640625,0.0076751708984375
1772797916906619600,7.59661962890625,-0.9942169189453125,0.0153045654296875,0.0074310302734375
1772797916916646400,7.606646484375,-0.9941558837890625,0.01531982421875,0.0079498291015625
1772797916926673400,7.61667333984375,-0.9961395263671875,0.01568603515625,0.00799560546875
1772797916936700700,7.62670068359375,-0.9953765869140625,0.0138702392578125,0.0088348388671875
1772797916946727400,7.6367275390625,-0.9951324462890625,0.0136566162109375,0.00799560546875
1772797916956754400,7.64675439453125,-0.9949951171875,0.0158843994140625,0.007568359375
1772797916966781400,7.656781494140625,-0.9950408935546875,0.0152740478515625,0.008331298828125
1772797916976808400,7.666808349609375,-0.993896484375,0.01495361328125,0.0074310302734375
1772797916986835500,7.67683544921875,-0.9942626953125,0.01544189453125,0.0079498291015625
1772797916996862500,7.686862548828125,-0.9944915771484375,0.0146942138671875,0.007354736328125
1772797917006889500,7.696889404296875,-0.994842529296875,0.0154876708984375,0.00628662109375
1772797917016916500,7.70691650390625,-0.99456787109375,0.0158538818359375,0.0069580078125
1772797917026943500,7.716943603515625,-0.995574951171875,0.0155029296875,0.0081634521484375
1772797917036970500,7.726970458984375,-0.9965667724609375,0.0150146484375,0.00885009765625
1772797917046998500,7.73699853515625,-0.994110107421875,0.0146331787109375,0.008453369140625
1772797917057025500,7.747025634765625,-0.9943695068359375,0.0157623291015625,0.008148193359375
1772797917067052500,7.757052490234375,-0.9953155517578125,0.0161895751953125,0.0083465576171875
1772797917077079600,7.76707958984375,-0.9949951171875,0.01385498046875,0.007354736328125
1772797917087106600,7.7771064453125,-0.9944000244140625,0.0154266357421875,0.007232666015625
1772797917097133300,7.78713330078125,-0.9949951171875,0.014617919921875,0.008514404296875
1772797917107160300,7.797160400390625,-0.9949188232421875,0.0149688720703125,0.00762939453125
1772797917117187300,7.807187255859375,-0.9962005615234375,0.0139923095703125,0.0077972412109375
1772797917127214300,7.81721435546875,-0.9946441650390625,0.014312744140625,0.00830078125
1772797917137241300,7.827241455078125,-0.9944610595703125,0.0146026611328125,0.007904052734375
1772797917147268400,7.837268310546875,-0.9950408935546875,0.014739990234375,0.007965087890625
1772797917157295400,7.84729541015625,-0.9954681396484375,0.0149993896484375,0.0075531005859375
1772797917167322400,7.857322265625,-0.9955902099609375,0.0147247314453125,0.0077056884765625
1772797917177349400,7.867349365234375,-0.9951324462890625,0.0149078369140625,0.0083160400390625
1772797917187376400,7.87737646484375,-0.9948577880859375,0.0153045654296875,0.0081024169921875
1772797917197403400,7.8874033203125,-0.995208740234375,0.0150299072265625,0.0078887939453125
1772797917207430400,7.897430419921875,-0.99462890625,0.0155029296875,0.0072479248046875
1772797917217457400,7.90745751953125,-0.9942779541015625,0.014984130859375,0.0072174072265625
1772797917227484400,7.917484375,-0.994110107421875,0.0142974853515625,0.007598876953125
1772797917237511400,7.927511474609375,-0.9940185546875,0.0139923095703125,0.007598876953125
1772797917247538400,7.937538330078125,-0.9954986572265625,0.0152435302734375,0.0081939697265625
1772797917257565200,7.947565185546875,-0.99468994140625,0.0147247314453125,0.006866455078125
1772797917267592400,7.957592529296875,-0.994049072265625,0.01434326171875,0.008026123046875
1772797917277619500,7.967619384765625,-0.9952850341796875,0.01446533203125,0.008758544921875
1772797917287647500,7.9776474609375,-0.9951629638671875,0.015106201171875,0.008453369140625
1772797917297674500,7.987674560546875,-0.99554443359375,0.0150604248046875,0.0074615478515625
1772797917307701200,7.997701171875,-0.9960174560546875,0.0156097412109375,0.00823974609375
1772797917317728300,8.007728271484375,-0.994964599609375,0.014892578125,0.0082550048828125
1772797917327755500,8.017755615234375,-0.993377685546875,0.0148773193359375,0.00830078125
1772797917337782300,8.0277822265625,-0.99462890625,0.01416015625,0.0084686279296875
1772797917347809300,8.037809326171875,-0.9940643310546875,0.0144195556640625,0.00860595703125
1772797917357836500,8.04783642578125,-0.995147705078125,0.014678955078125,0.0075225830078125
1772797917367863300,8.05786328125,-0.9947662353515625,0.0144500732421875,0.006927490234375
1772797917377890300,8.067890380859374,-0.994659423828125,0.0144500732421875,0.006500244140625
1772797917387917300,8.077917236328124,-0.9937591552734375,0.01483154296875,0.007232666015625
1772797917397944600,8.087944580078124,-0.9951019287109375,0.013916015625,0.00665283203125
1772797917407971300,8.097971435546874,-0.9947662353515625,0.01446533203125,0.0079498291015625
1772797917417998300,8.107998291015624,-0.9944610595703125,0.014556884765625,0.0088348388671875
1772797917428025600,8.118025634765624,-0.9949798583984375,0.01416015625,0.008453369140625
1772797917438052400,8.12805224609375,-0.9944915771484375,0.0145111083984375,0.0078125
1772797917448079400,8.138079345703124,-0.995147705078125,0.014434814453125,0.00750732421875
1772797917458106400,8.1481064453125,-0.9952392578125,0.015594482421875,0.0082244873046875
1772797917468133400,8.15813330078125,-0.993927001953125,0.014404296875,0.008270263671875
1772797917478160400,8.168160400390626,-0.9957427978515625,0.014892578125,0.0075531005859375
1772797917488187400,8.1781875,-0.9951019287109375,0.0144805908203125,0.0079803466796875
1772797917498214400,8.18821435546875,-0.99371337890625,0.014404296875,0.0074462890625
1772797917508241400,8.198241455078126,-0.9943084716796875,0.01495361328125,0.007232666015625
1772797917518268400,8.208268310546876,-0.995025634765625,0.015716552734375,0.007781982421875
1772797917528295200,8.218295166015626,-0.9936981201171875,0.0171051025390625,0.0081024169921875
1772797917538322400,8.228322509765626,-0.994842529296875,0.0160980224609375,0.00823974609375
1772797917548349400,8.238349365234376,-0.9951629638671875,0.0136871337890625,0.007965087890625
1772797917558376200,8.248376220703125,-0.9941864013671875,0.013671875,0.007080078125
1772797917568403500,8.258403564453126,-0.99346923828125,0.0155792236328125,0.0069427490234375
1772797917578431500,8.268431396484376,-0.9945220947265625,0.015411376953125,0.0072479248046875
1772797917588458200,8.278458251953126,-0.9945831298828125,0.0153045654296875,0.0076904296875
1772797917598485500,8.288485595703126,-0.9941864013671875,0.0147552490234375,0.008331298828125
1772797917608512500,8.298512451171876,-0.994842529296875,0.01434326171875,0.0077667236328125
1772797917618539300,8.308539306640625,-0.995574951171875,0.0146942138671875,0.00732421875
1772797917628566300,8.318566162109375,-0.9943695068359375,0.0142059326171875,0.0068511962890625
1772797917638593500,8.328593505859375,-0.994110107421875,0.013916015625,0.008087158203125
1772797917648620300,8.338620361328125,-0.993743896484375,0.01361083984375,0.008575439453125
1772797917658647300,8.348647216796875,-0.9952545166015625,0.01507568359375,0.00799560546875
1772797917668674600,8.358674560546875,-0.9942169189453125,0.015472412109375,0.0079803466796875
1772797917678701300,8.368701416015625,-0.994720458984375,0.0135345458984375,0.0083770751953125
1772797917688728300,8.378728271484375,-0.993682861328125,0.0143890380859375,0.007537841796875
1772797917698755300,8.38875537109375,-0.993927001953125,0.01556396484375,0.0078887939453125
1772797917708782300,8.3987822265625,-0.994964599609375,0.0157623291015625,0.0072784423828125
1772797917718809300,8.408809326171875,-0.995269775390625,0.0139923095703125,0.0069732666015625
1772797917728836400,8.41883642578125,-0.9953155517578125,0.0143585205078125,0.0073089599609375
1772797917738863400,8.42886328125,-0.9930419921875,0.0143280029296875,0.0074920654296875
1772797917748890400,8.438890380859375,-0.9936065673828125,0.0150909423828125,0.0079193115234375
1772797917758917400,8.44891748046875,-0.9937744140625,0.015106201171875,0.007781982421875
1772797917768944400,8.4589443359375,-0.99530029296875,0.015289306640625,0.0072479248046875
1772797917778971400,8.468971435546875,-0.9950714111328125,0.0152435302734375,0.00823974609375
1772797917788998400,8.478998291015625,-0.9945526123046875,0.0137939453125,0.006805419921875
1772797917799025400,8.489025390625,-0.99639892578125,0.015289306640625,0.0065155029296875
1772797917809052400,8.499052490234375,-0.9954681396484375,0.01287841796875,0.0106048583984375
1772797917819079400,8.509079345703125,-0.9932861328125,0.01446533203125,0.00555419921875
1772797917829106400,8.5191064453125,-0.994293212890625,0.0143280029296875,0.00762939453125
1772797917839133200,8.52913330078125,-0.9965057373046875,0.0155181884765625,0.009124755859375
1772797917849160400,8.539160400390625,-0.9944610595703125,0.0144195556640625,0.0069122314453125
1772797917859187500,8.5491875,-0.9937591552734375,0.0150146484375,0.0070953369140625
1772797917869214200,8.559214111328124,-0.9943695068359375,0.0151519775390625,0.0071868896484375
1772797917879241500,8.569241455078124,-0.994842529296875,0.0142974853515625,0.0069122314453125
1772797917889268500,8.5792685546875,-0.993988037109375,0.0146331787109375,0.0080413818359375
1772797917899295200,8.589295166015624,-0.9932861328125,0.0137481689453125,0.0078125
1772797917909322200,8.599322265625,-0.9936065673828125,0.0151824951171875,0.0082550048828125
1772797917919349500,8.609349609375,-0.9951629638671875,0.015777587890625,0.00823974609375
1772797917929376300,8.619376220703124,-0.9943389892578125,0.0146331787109375,0.0081329345703125
1772797917939403300,8.6294033203125,-0.9935455322265625,0.0135955810546875,0.008697509765625
1772797917949430500,8.639430419921876,-0.9948577880859375,0.01416015625,0.00823974609375
1772797917959457300,8.649457275390626,-0.9957275390625,0.014617919921875,0.009185791015625
1772797917969484300,8.659484375,-0.9946441650390625,0.01434326171875,0.0080108642578125
1772797917979511300,8.66951123046875,-0.9947967529296875,0.0141143798828125,0.00726318359375
1772797917989538300,8.679538330078126,-0.995086669921875,0.015228271484375,0.0073089599609375
1772797917999565300,8.6895654296875,-0.99560546875,0.0146942138671875,0.0067901611328125
1772797918009592300,8.69959228515625,-0.9958953857421875,0.0157470703125,0.00732421875
1772797918019620400,8.709620361328126,-0.995208740234375,0.01568603515625,0.0072174072265625
1772797918029647400,8.7196474609375,-0.995208740234375,0.0131683349609375,0.00726318359375
1772797918039674400,8.72967431640625,-0.9944610595703125,0.0146484375,0.0082244873046875
1772797918049701400,8.739701416015626,-0.9937286376953125,0.01434326171875,0.008514404296875
1772797918059728400,8.749728271484376,-0.9949188232421875,0.0142822265625,0.0080718994140625
1772797918069755400,8.75975537109375,-0.9952392578125,0.01531982421875,0.0077056884765625
1772797918079782400,8.769782470703126,-0.9951019287109375,0.01397705078125,0.0079803466796875
1772797918089809000,8.779808837890625,-0.995513916015625,0.0134735107421875,0.007476806640625
1772797918099836200,8.789836181640625,-0.9950408935546875,0.014556884765625,0.0074615478515625
1772797918109863200,8.79986328125,-0.993804931640625,0.0135650634765625,0.0092010498046875
1772797918119890000,8.809889892578125,-0.9929656982421875,0.0151824951171875,0.00787353515625
1772797918129917200,8.819917236328125,-0.9945526123046875,0.0150299072265625,0.006988525390625
1772797918139944200,8.829944091796875,-0.9956512451171875,0.0149078369140625,0.007080078125
1772797918149971000,8.839970947265625,-0.9940032958984375,0.013885498046875,0.008453369140625
1772797918159998000,8.849998046875,-0.993255615234375,0.01531982421875,0.0077362060546875
1772797918170025200,8.860025146484375,-0.995513916015625,0.0139007568359375,0.0078125
1772797918180052000,8.870052001953125,-0.9943695068359375,0.0145416259765625,0.0066680908203125
1772797918190079000,8.880078857421875,-0.9938201904296875,0.0151214599609375,0.0080413818359375
1772797918200106200,8.890106201171875,-0.994354248046875,0.013916015625,0.007598876953125
1772797918210133000,8.900133056640625,-0.994049072265625,0.0137481689453125,0.00897216796875
1772797918220160000,8.910159912109375,-0.9940032958984375,0.0143890380859375,0.007965087890625
1772797918230187000,8.92018701171875,-0.9944000244140625,0.0137176513671875,0.0080108642578125
1772797918240214000,8.930214111328125,-0.9951019287109375,0.01385498046875,0.0075531005859375
1772797918250241000,8.940240966796875,-0.9958648681640625,0.01422119140625,0.0083465576171875
1772797918260268000,8.95026806640625,-0.9954376220703125,0.014129638671875,0.0080108642578125
1772797918270295000,8.960294921875,-0.993072509765625,0.014373779296875,0.007568359375
1772797918280322000,8.970322021484375,-0.994537353515625,0.0147857666015625,0.00775146484375
1772797918290349000,8.98034912109375,-0.9947052001953125,0.0147247314453125,0.007354736328125
1772797918300376000,8.9903759765625,-0.9940948486328125,0.01434326171875,0.00836181640625
1772797918310403000,9.000403076171875,-0.99365234375,0.014007568359375,0.0077972412109375
1772797918320430000,9.01043017578125,-0.994171142578125,0.014068603515625,0.0074920654296875
1772797918330457000,9.02045703125,-0.99444580078125,0.01385498046875,0.00848388671875
1772797918340484000,9.030484130859374,-0.9941253662109375,0.0136566162109375,0.007354736328125
1772797918350511000,9.040510986328124,-0.9943389892578125,0.014801025390625,0.0080108642578125
1772797918360538000,9.0505380859375,-0.9949798583984375,0.0145721435546875,0.0079345703125
1772797918370564900,9.06056494140625,-0.9958953857421875,0.014862060546875,0.006927490234375
1772797918380592000,9.070592041015624,-0.99603271484375,0.0138702392578125,0.0076141357421875
1772797918390619100,9.080619140625,-0.99468994140625,0.0137176513671875,0.0070343017578125
1772797918400646000,9.09064599609375,-0.994476318359375,0.013336181640625,0.008087158203125
1772797918410673200,9.100673095703126,-0.995391845703125,0.013427734375,0.00799560546875
1772797918420700200,9.1107001953125,-0.995330810546875,0.01422119140625,0.0074310302734375
1772797918430727000,9.120726806640626,-0.993743896484375,0.0144195556640625,0.0085296630859375
1772797918440754000,9.13075390625,-0.994171142578125,0.0146331787109375,0.00628662109375
1772797918450781200,9.14078125,-0.9947357177734375,0.0148773193359375,0.007354736328125
1772797918460808000,9.150807861328126,-0.9947052001953125,0.0143585205078125,0.0087127685546875
1772797918470835000,9.1608349609375,-0.9954833984375,0.0142822265625,0.007415771484375
1772797918480862200,9.1708623046875,-0.9953460693359375,0.014495849609375,0.00640869140625
1772797918490889000,9.180888916015626,-0.9951629638671875,0.0145263671875,0.0068511962890625
1772797918500916000,9.190916015625,-0.9940643310546875,0.014739990234375,0.0066375732421875
1772797918510943000,9.20094287109375,-0.994140625,0.01446533203125,0.0076904296875
1772797918520970000,9.210969970703125,-0.9946136474609375,0.0157928466796875,0.0067138671875
1772797918530997000,9.2209970703125,-0.99456787109375,0.0141143798828125,0.007049560546875
1772797918541024000,9.23102392578125,-0.9949798583984375,0.01446533203125,0.0068511962890625
1772797918551051300,9.24105126953125,-0.9942169189453125,0.013031005859375,0.007843017578125
1772797918561078000,9.251078125,-0.9941558837890625,0.0133056640625,0.0077972412109375
1772797918571105000,9.26110498046875,-0.9948883056640625,0.01507568359375,0.0074310302734375
1772797918581132000,9.271132080078125,-0.9943695068359375,0.014434814453125,0.0079498291015625
1772797918591159000,9.281158935546875,-0.9936370849609375,0.0146331787109375,0.009796142578125
1772797918601186000,9.29118603515625,-0.993194580078125,0.0147552490234375,0.008453369140625
1772797918611213000,9.301213134765625,-0.9955596923828125,0.0156707763671875,0.0081939697265625
1772797918621240000,9.311239990234375,-0.995880126953125,0.014129638671875,0.00872802734375
1772797918631267000,9.32126708984375,-0.9940643310546875,0.0139007568359375,0.007659912109375
1772797918641294000,9.331294189453125,-0.99420166015625,0.0137481689453125,0.0074462890625
1772797918651320800,9.34132080078125,-0.9949798583984375,0.01397705078125,0.0074920654296875
1772797918661348000,9.35134814453125,-0.995849609375,0.0148162841796875,0.0072021484375
1772797918671375000,9.361375,-0.9940338134765625,0.014556884765625,0.008087158203125
1772797918681401900,9.37140185546875,-0.9933624267578125,0.0146942138671875,0.00836181640625
1772797918691429000,9.38142919921875,-0.9951019287109375,0.0144805908203125,0.0074615478515625
1772797918701456100,9.3914560546875,-0.9951324462890625,0.014892578125,0.00830078125
1772797918711483000,9.40148291015625,-0.993804931640625,0.014617919921875,0.007781982421875
1772797918721510000,9.411510009765625,-0.9938507080078125,0.0138092041015625,0.0072784423828125
1772797918731537200,9.421537109375,-0.9952545166015625,0.0145111083984375,0.0072174072265625
1772797918741564200,9.431564208984375,-0.99468994140625,0.0142669677734375,0.007659912109375
1772797918751591000,9.4415908203125,-0.9950408935546875,0.015472412109375,0.007232666015625
1772797918761618200,9.4516181640625,-0.99517822265625,0.013671875,0.0084228515625
1772797918771645200,9.461645263671874,-0.994873046875,0.0142669677734375,0.008056640625
1772797918781672000,9.471671875,-0.9947357177734375,0.0143585205078125,0.0071563720703125
1772797918791699000,9.481698974609374,-0.99493408203125,0.0142974853515625,0.0064544677734375
1772797918801726200,9.491726318359374,-0.99456787109375,0.0142669677734375,0.006927490234375
1772797918811753000,9.5017529296875,-0.9960479736328125,0.013336181640625,0.0077667236328125
1772797918821780000,9.511780029296874,-0.995880126953125,0.01312255859375,0.0073394775390625
1772797918831807200,9.52180712890625,-0.995880126953125,0.0137176513671875,0.0075836181640625
1772797918841834000,9.531833984375,-0.99517822265625,0.0141448974609375,0.00775146484375
1772797918851861000,9.541861083984376,-0.993621826171875,0.013214111328125,0.0084686279296875
1772797918861888000,9.551887939453126,-0.9947509765625,0.0142974853515625,0.009063720703125
1772797918871915000,9.5619150390625,-0.9957122802734375,0.01513671875,0.007720947265625
1772797918881942000,9.57194189453125,-0.996124267578125,0.014892578125,0.0073394775390625
1772797918891969000,9.581968994140626,-0.99493408203125,0.016021728515625,0.0078582763671875
1772797918901996000,9.59199609375,-0.9949188232421875,0.0150146484375,0.00677490234375
1772797918912023000,9.60202294921875,-0.9952850341796875,0.0140228271484375,0.0073089599609375
1772797918922050000,9.612050048828126,-0.9944610595703125,0.0134735107421875,0.0088653564453125
1772797918932077000,9.6220771484375,-0.9936065673828125,0.014129638671875,0.0081329345703125
1772797918942104000,9.63210400390625,-0.994232177734375,0.0133819580078125,0.0081634521484375
1772797918952131000,9.642131103515625,-0.9953155517578125,0.013916015625,0.0080108642578125
1772797918962158000,9.652157958984375,-0.99346923828125,0.01416015625,0.007080078125
1772797918972185000,9.66218505859375,-0.9935455322265625,0.0139312744140625,0.0076141357421875
1772797918982212000,9.672212158203125,-0.9959869384765625,0.0148468017578125,0.0075225830078125
1772797918992239000,9.682239013671875,-0.9955902099609375,0.0146331787109375,0.007659912109375
1772797919002265900,9.692265869140625,-0.9954071044921875,0.01373291015625,0.0081329345703125
1772797919012293000,9.702293212890625,-0.994140625,0.0146942138671875,0.0083770751953125
1772797919022320000,9.712320068359375,-0.9941864013671875,0.0131072998046875,0.0073089599609375
1772797919032347000,9.722346923828125,-0.99468994140625,0.014068603515625,0.007843017578125
1772797919042374100,9.7323740234375,-0.9943084716796875,0.0143890380859375,0.00775146484375
1772797919052401200,9.742401123046875,-0.9950408935546875,0.013702392578125,0.0074615478515625
1772797919062428000,9.752427978515625,-0.9937286376953125,0.014739990234375,0.00799560546875
1772797919072455000,9.762454833984375,-0.9951171875,0.0132904052734375,0.0080108642578125
1772797919082482200,9.772482177734375,-0.9950103759765625,0.014739990234375,0.00775146484375
1772797919092509200,9.78250927734375,-0.9936676025390625,0.0148162841796875,0.007232666015625
1772797919102536200,9.7925361328125,-0.9940338134765625,0.0150604248046875,0.0074920654296875
1772797919112563500,9.8025634765625,-0.9937896728515625,0.0154876708984375,0.0084686279296875
1772797919122590200,9.812590087890625,-0.9959259033203125,0.015625,0.0076904296875
1772797919132617200,9.8226171875,-0.99444580078125,0.0145721435546875,0.0072021484375
1772797919142644500,9.83264453125,-0.99456787109375,0.0149688720703125,0.0073699951171875
1772797919152671200,9.842671142578125,-0.9940185546875,0.015106201171875,0.007171630859375
1772797919162698200,9.8526982421875,-0.9947509765625,0.014801025390625,0.0078125
1772797919172725200,9.862725341796875,-0.9960784912109375,0.0140838623046875,0.0080413818359375
1772797919182752300,9.872752197265624,-0.995819091796875,0.0135955810546875,0.0069580078125
1772797919192779300,9.882779296875,-0.9931640625,0.0145111083984375,0.00775146484375
1772797919202806300,9.89280615234375,-0.9939117431640625,0.01458740234375,0.0088653564453125
1772797919212833300,9.902833251953124,-0.995819091796875,0.0148468017578125,0.0078582763671875
1772797919222860300,9.9128603515625,-0.9970245361328125,0.0137786865234375,0.00726318359375
1772797919232887300,9.92288720703125,-0.9951629638671875,0.0139007568359375,0.0067291259765625
1772797919242914300,9.932914306640624,-0.9956512451171875,0.016357421875,0.007171630859375
1772797919252941300,9.94294140625,-0.9949493408203125,0.0146331787109375,0.0087432861328125
1772797919262968300,9.95296826171875,-0.9944610595703125,0.0139617919921875,0.0076141357421875
1772797919272994300,9.962994384765626,-0.9936370849609375,0.013763427734375,0.00811767578125
1772797919283021300,9.973021240234376,-0.993988037109375,0.0137786865234375,0.007659912109375
1772797919293048300,9.98304833984375,-0.9957427978515625,0.0148162841796875,0.0071258544921875
1772797919303075300,9.993075439453126,-0.995025634765625,0.01544189453125,0.00714111328125
1772797919313102300,10.003102294921876,-0.99407958984375,0.0146331787109375,0.008026123046875
1772797919323129000,10.013129150390625,-0.9951171875,0.013946533203125,0.0079498291015625
1772797919333156400,10.02315625,-0.99603271484375,0.0140838623046875,0.0077056884765625
1772797919343183400,10.033183349609375,-0.993927001953125,0.0131378173828125,0.008056640625
1772797919353210000,10.043210205078125,-0.9939422607421875,0.0142822265625,0.0078582763671875
1772797919363237400,10.0532373046875,-0.9951629638671875,0.0137176513671875,0.007110595703125
1772797919373264400,10.063264404296875,-0.9940338134765625,0.015106201171875,0.006988525390625
1772797919383291100,10.073291015625,-0.9953155517578125,0.015289306640625,0.0070648193359375
1772797919393318100,10.083318115234375,-0.994964599609375,0.013763427734375,0.0072479248046875
1772797919403345400,10.093345458984375,-0.9944610595703125,0.0142364501953125,0.0073394775390625
1772797919413372200,10.1033720703125,-0.9946746826171875,0.0148162841796875,0.0076751708984375
1772797919423399200,10.113399169921875,-0.9953460693359375,0.014129638671875,0.0073394775390625
1772797919433426400,10.123426513671875,-0.9954681396484375,0.0143585205078125,0.007720947265625
1772797919443453200,10.133453125,-0.9939422607421875,0.0132598876953125,0.006988525390625
1772797919453480200,10.143480224609375,-0.994354248046875,0.0151824951171875,0.0072479248046875
1772797919463507200,10.153507080078125,-0.9956512451171875,0.015472412109375,0.007415771484375
1772797919473534500,10.163534423828125,-0.9945831298828125,0.0143585205078125,0.007781982421875
1772797919483561200,10.173561279296875,-0.99554443359375,0.0143585205078125,0.0075531005859375
1772797919493588200,10.183588134765625,-0.9943084716796875,0.0136871337890625,0.00775146484375
1772797919503615500,10.193615478515625,-0.9950408935546875,0.014495849609375,0.0071563720703125
1772797919513642200,10.203642333984375,-0.9947662353515625,0.015625,0.00775146484375
1772797919523669200,10.213669189453125,-0.995208740234375,0.0151214599609375,0.008270263671875
1772797919533696300,10.2236962890625,-0.9945068359375,0.0148773193359375,0.0077362060546875
1772797919543723300,10.23372314453125,-0.99554443359375,0.01446533203125,0.006927490234375
1772797919553750300,10.243750244140625,-0.9946136474609375,0.0146942138671875,0.0067596435546875
1772797919563777300,10.25377734375,-0.9940948486328125,0.01507568359375,0.007415771484375
1772797919573804300,10.26380419921875,-0.995086669921875,0.0142822265625,0.0077667236328125
1772797919583831300,10.273831298828124,-0.996002197265625,0.014862060546875,0.008575439453125
1772797919593858300,10.2838583984375,-0.99481201171875,0.014617919921875,0.0081939697265625
1772797919603885000,10.293885009765624,-0.9947509765625,0.01531982421875,0.0072479248046875
1772797919613912300,10.303912353515624,-0.9942779541015625,0.0151519775390625,0.007568359375
1772797919623939300,10.313939208984374,-0.995391845703125,0.01434326171875,0.00726318359375
1772797919633966000,10.323966064453124,-0.9957427978515625,0.0142059326171875,0.0080108642578125
1772797919643993300,10.333993408203124,-0.994476318359375,0.01416015625,0.0073699951171875
1772797919654020400,10.344020263671876,-0.995208740234375,0.0143280029296875,0.0078582763671875
1772797919664047400,10.35404736328125,-0.9950103759765625,0.0152130126953125,0.0082855224609375
1772797919674074000,10.36407421875,-0.9937744140625,0.01556396484375,0.0074310302734375
1772797919684101400,10.374101318359376,-0.9945831298828125,0.0148162841796875,0.007415771484375
1772797919694128400,10.38412841796875,-0.9949188232421875,0.0146026611328125,0.0069732666015625
1772797919704155100,10.394155029296876,-0.9940338134765625,0.0142364501953125,0.007965087890625
1772797919714181000,10.40418115234375,-0.9940032958984375,0.0138702392578125,0.007965087890625
1772797919724208400,10.41420849609375,-0.9947662353515625,0.0139312744140625,0.0070648193359375
1772797919734235400,10.4242353515625,-0.9944305419921875,0.013885498046875,0.0073699951171875
1772797919744262100,10.43426220703125,-0.9935150146484375,0.01495361328125,0.0076904296875
1772797919754289400,10.444289306640625,-0.9933624267578125,0.0150146484375,0.007354736328125
1772797919764316400,10.45431640625,-0.99493408203125,0.0150299072265625,0.0080108642578125
1772797919774343200,10.46434326171875,-0.99542236328125,0.015106201171875,0.0078887939453125
1772797919784370200,10.4743701171875,-0.9947357177734375,0.014312744140625,0.007415771484375
1772797919794397400,10.4843974609375,-0.992706298828125,0.0140228271484375,0.007843017578125
1772797919804424200,10.494424072265625,-0.9922637939453125,0.0145416259765625,0.0081939697265625
1772797919814451200,10.504451171875,-0.9961700439453125,0.0280303955078125,0.0049591064453125
1772797919824478500,10.514478515625,-1.0501861572265625,0.0288238525390625,0.0035247802734375
1772797919834505200,10.524505126953125,-1.0533905029296875,-0.0037689208984375,0.0068206787109375
1772797919844532200,10.5345322265625,-0.9298095703125,-0.016265869140625,0.0166168212890625
1772797919854559200,10.544559326171875,-0.8460693359375,-0.009429931640625,0.0225067138671875
1772797919864586200,10.554586181640625,-0.9486083984375,0.002685546875,0.01971435546875
1772797919874613200,10.56461328125,-1.1118316650390625,0.0211181640625,0.0092010498046875
1772797919884640300,10.57464013671875,-1.110015869140625,0.0319671630859375,-0.0018768310546875
1772797919894667300,10.584667236328125,-0.9665679931640625,0.0213165283203125,-0.0035552978515625
1772797919904694300,10.5946943359375,-0.910003662109375,0.0064697265625,0.006988525390625
