time,seconds_elapsed,z,y,x
1772790684898144800,0.077144775390625,-1.2350304554998874,-0.458972798326984,-0.2967796643767506
1772790684908210000,0.0872099609375,-1.6309148564249276,-0.5421142786005512,-0.3091740126561373
1772790684918274600,0.097274658203125,-2.251782317212224,-0.6335324427016079,-0.3395744846820831
1772790684928340700,0.1073408203125,-2.683085237520933,-0.5265955146903172,-0.13625322152972222
1772790684938405600,0.117405517578125,-2.7728777366489172,-0.4035645070988685,-0.14924159017950295
1772790684948470800,0.127470703125,-2.8245149849057194,-0.33589480978865177,-0.29105493005439637
1772790684958535700,0.13753564453125,-2.8121909253835677,-0.2906894394765608,-0.22128544745333492
1772790684968601600,0.1476015625,-3.011123013666272,-0.3114244949966669,-0.09651369714178144
1772790684978666800,0.157666748046875,-3.429562945270538,-0.41091004755608734,0.11656279795803129
1772790684988731600,0.167731689453125,-3.9609968033701177,-0.4842798927366733,0.3461000870585441
1772790684998796800,0.177796875,-4.302735772609711,-0.3527857753675431,0.3504068443417549
1772790685008861700,0.18786181640625,-4.6523891682356595,-0.135251204880327,0.053298313336819406
1772790685018927900,0.197927978515625,-4.701581945949792,0.07795373890474439,-0.26532968329787254
1772790685028992800,0.20799267578125,-4.4697763465911144,0.17019355811960996,-0.46734008304737507
1772790685039057700,0.2180576171875,-3.9656016668170686,0.2021600008206442,-0.5179394396238028
1772790685049122800,0.228122802734375,-2.9740216557621952,0.13234141838084906,-0.6903892522376031
1772790685059188700,0.238188720703125,-1.8282775034338234,-0.050093160619959234,-0.9806484288044274
1772790685069253600,0.248253662109375,-0.7050754377812146,-0.3005121654359624,-1.0224443012002855
1772790685079318800,0.25831884765625,0.4904325701475143,-0.5712311405567452,-0.9803799871265888
1772790685089384000,0.268384033203125,1.594995986303687,-0.7541624170333147,-0.94298673360385
1772790685099448600,0.278448486328125,2.3116999025583267,-1.0033247363191098,-0.9140482969544828
1772790685109514800,0.2885146484375,2.735335064718127,-1.1714780207827686,-0.945267172691226
1772790685119580000,0.298579833984375,3.112764356020093,-1.1207039652265607,-0.9668374917253851
1772790685129644500,0.30864453125,3.504424417248368,-0.9826938170269132,-1.088764081738889
1772790685139709700,0.318709716796875,3.765909700077772,-0.8558214411742985,-1.1786619409374892
1772790685149775600,0.328775634765625,4.1199879264086485,-1.0563109149668366,-1.2067271749489008
1772790685159840800,0.3388408203125,4.377423057064414,-1.1985285978589206,-1.0115712442040443
1772790685169905700,0.34890576171875,4.185567190778255,-0.12245017549619078,-0.7695921874858439
1772790685179970800,0.358970703125,4.576595968365669,0.05194821390211582,-1.227031419569999
1772790685190035700,0.36903564453125,5.304033460080623,-0.29177571860961615,-1.706976644103229
1772790685200101600,0.3791015625,6.0153463309466835,-0.3784337921693921,-1.8340718689262865
1772790685210166800,0.389166748046875,6.427737630036473,-0.2681271319966763,-1.4853098691821098
1772790685220231700,0.399231689453125,6.032096974739432,-0.4241683191884309,-1.152566107302904
1772790685230296600,0.409296630859375,5.430989276432991,0.19370310158804058,-0.8207375605724752
1772790685240362800,0.41936279296875,4.733471706685424,0.5878867995424196,-1.370297150210291
1772790685250427600,0.429427734375,3.803272339266538,0.8975634644910693,-1.8565002660945056
1772790685260492800,0.439492919921875,3.0605788262307643,1.0067357138063757,-1.6564504258282482
1772790685270557700,0.4495576171875,2.6462930916965006,0.7694888001766056,-1.3701692860469221
1772790685280623600,0.45962353515625,2.9185043512016535,0.7392696030016989,-1.575212258425355
1772790685290688800,0.469688720703125,2.0628525675058365,1.4212547456398605,-1.696454081045091
1772790685300754000,0.47975390625,-1.3678794215440748,1.4944175970062612,0.4361249336376786
1772790685310818600,0.489818603515625,-4.942813545301556,-0.2707976298475638,3.1472686831682917
1772790685320883700,0.4998837890625,-5.507545861890912,-1.1949904868606478,4.4061999464765185
1772790685330950000,0.509949951171875,-4.855631520932913,-0.34619054182097314,4.996814600080252
1772790685341014500,0.5200146484375,-4.806240005776286,-0.01128492573276162,3.8586771233633157
1772790685351079700,0.53007958984375,-5.524338591259718,0.343335079324618,3.30177856913954
1772790685361144800,0.540144775390625,-6.426391476124524,0.3348837695825845,3.88586089836508
1772790685371209700,0.550209716796875,-7.5478586808085435,0.10984401109702885,4.241243777553737
1772790685381275600,0.560275634765625,-8.023686971542238,0.3479690227355808,4.0320770032435655
1772790685391340800,0.5703408203125,-6.976169969210028,0.36348099157884717,3.410314639443159
1772790685401405700,0.58040576171875,-5.667735839325189,0.2691179696649313,2.3659572701856493
1772790685411470600,0.590470703125,-4.920539754173159,0.16194295858144758,1.3875366004332899
1772790685421536800,0.600536865234375,-4.0808378192812205,-0.06778758806884289,0.6721218472063542
1772790685431601700,0.6106015625,-2.745731371048093,-0.25983064749017354,1.083154425163567
1772790685441667000,0.6206669921875,-2.3967951837807893,-1.0412225783631206,2.7107985893547535
1772790685451732200,0.630732177734375,-1.9457430223852394,-2.14480341322273,3.658744333605468
1772790685461797000,0.640797119140625,-0.6876438259869814,-2.9285195492595433,3.361651146300137
1772790685471863000,0.650863037109375,-2.6130817269682884,-3.1269910342931744,2.5489775035873055
1772790685481928200,0.66092822265625,-4.2998312833398575,-3.729922440895438,2.7885546137303114
1772790685491992800,0.670992919921875,-1.587761358875036,-3.409910442556441,2.1713228790968655
1772790685502058000,0.68105810546875,-0.16781038931012152,-3.0403935318142175,2.1248194865971803
1772790685512124200,0.691124267578125,-1.5889035146474837,-6.709367290750145,5.133941681835055
1772790685522189000,0.70118896484375,-1.8517822976619005,-6.364068583202362,7.733090160518884
1772790685532254000,0.71125390625,1.446519243016839,1.0223523851331322,4.14312008793205
1772790685542319000,0.721319091796875,3.336993967166543,-0.6751803579941391,-0.04494578779414296
1772790685552384300,0.73138427734375,2.590961665096879,-0.15277703429665415,-1.5928013988688587
1772790685562450200,0.7414501953125,2.04397134142518,0.010252769673429429,-0.9737168029103428
1772790685572515000,0.75151513671875,3.002946721473336,0.019453345146495847,-0.2822846905563027
1772790685582580000,0.761580078125,3.009815438199043,-0.26215013994630426,-0.1655621719919145
1772790685592645000,0.77164501953125,4.040541464728117,-0.08372558203814551,-0.4198552052296698
1772790685602711000,0.7817109375,5.743992565053701,0.1311844120991416,-0.17292422519251704
1772790685612776000,0.79177587890625,6.586504296669363,0.724724068037793,0.21850115049704907
1772790685622841000,0.801841064453125,6.511673804351687,0.6631486324820667,-1.0303463795617223
1772790685632906000,0.811906005859375,6.2295759416043754,-0.3277659734666347,-1.9537990491993724
1772790685642971100,0.82197119140625,6.290005568125844,0.018584259277943056,-1.783586274922639
1772790685653037000,0.832037109375,5.966026711982488,-0.3378779098972678,-0.28277444683462377
1772790685663102200,0.842102294921875,5.5633694559216496,-0.7775396393589675,0.3707758247621357
1772790685673167000,0.8521669921875,5.579722624829412,-0.4888075262289494,-0.3450822883181274
1772790685683232000,0.86223193359375,6.286143632000685,-0.22683497133925556,-0.28314861390925944
1772790685693298200,0.872298095703125,7.680490789231658,0.2724167920146137,0.3154597418621182
1772790685703363000,0.882363037109375,8.312769286349415,1.101962805203721,0.6266222249217331
1772790685713428000,0.892427978515625,8.620553379017114,1.525621421304345,0.9201742324888705
1772790685723493000,0.9024931640625,9.127987352848052,1.362910985481739,1.203981383372098
1772790685733558300,0.912558349609375,9.31887525088489,0.7302336983047425,1.1934532673560083
1772790685743624000,0.9226240234375,8.501708388406037,0.273538051129505,0.8193822735060006
1772790685753689000,0.932689208984375,7.079470184686779,0.19530410704389214,0.1635773913828656
1772790685763754200,0.942754150390625,6.170181503349542,0.4156854452643543,-0.2175574764387682
1772790685773819000,0.95281884765625,5.443139148432016,0.4552345616467297,-0.18198615937987342
1772790685783885000,0.962885009765625,3.453680902960896,0.3803032393030822,-0.15195462113101965
1772790685793950200,0.9729501953125,-0.04286240564882755,0.6692645580790937,-0.1488204604242928
1772790685804015000,0.98301513671875,-5.497020960745215,1.2302533042259514,-0.0251038634551689
1772790685814080000,0.993080078125,-10.743425823199749,0.9783994808338582,-0.057128210355900225
1772790685824145200,1.003145263671875,-13.170393442404269,0.3413831415392458,-0.8358237052191049
1772790685834211000,1.013211181640625,-14.856047020232676,1.3738862607434392,-2.095419789111614
1772790685844276000,1.02327587890625,-17.472185796684027,2.6183091062277555,-3.3815137846335768
1772790685854341000,1.033341064453125,-19.019692302060125,3.329814869317412,-4.3228789814501996
1772790685864406000,1.043406005859375,-19.109702827852963,3.9293507882624863,-4.354373313127458
1772790685874472200,1.05347216796875,-19.02949122701883,4.011745870615542,-3.8949338471367954
1772790685884537000,1.063537109375,-18.266872531807422,3.6041830145955083,-3.360641969257593
1772790685894602000,1.07360205078125,-16.715614564943312,2.9723361868932843,-2.5069164774492383
1772790685904667100,1.083667236328125,-14.873419010794162,2.2583871223047374,-1.6021717231519519
1772790685914732000,1.09373193359375,-12.783399034899473,1.4365328326620161,-1.0667663310728968
1772790685924798000,1.1037978515625,-10.555027403891087,0.5057502585276961,-0.5860554559294134
1772790685934863000,1.113863037109375,-8.331510811698436,-0.47251719342432913,-0.2739881329845637
1772790685944928300,1.12392822265625,-6.282057823991775,-1.094317185821384,-0.23297698122560975
1772790685954993000,1.133992919921875,-4.07794735853672,-1.2348973306395112,-0.309945362354815
1772790685965059000,1.14405908203125,-1.6510978127539158,-1.2902253962382673,-0.41388424106128513
1772790685975124200,1.154124267578125,0.6656266399681567,-1.259074763432145,-0.3547551026791334
1772790685985188900,1.16418896484375,2.16751004281044,0.33467553365938363,0.1534044820126146
1772790685995254000,1.17425390625,3.1177368837356565,0.40937611598707735,0.9531089722327888
1772790686005319200,1.184319091796875,4.223690877467393,0.24939853919446467,1.5207115835614502
1772790686015385000,1.194385009765625,5.647638807713985,0.5329156941551715,1.6615303594410418
1772790686025450000,1.204449951171875,6.732545921763777,0.9171319421835243,1.6850686175473033
1772790686035515100,1.21451513671875,6.911441768711805,1.5102743606992064,1.674209369880706
1772790686045580000,1.224580078125,6.986494379347563,2.2787935121260583,1.7237012766718864
1772790686055646200,1.234646240234375,7.574954193004966,2.65114286981523,1.644284333346784
1772790686065711000,1.244711181640625,8.372997837340831,2.8391379690200087,1.5129763131342828
1772790686075776000,1.25477587890625,9.036503247371316,3.119248457342386,1.5644875969238579
1772790686085841200,1.264841064453125,9.44673766068816,3.3892636681079864,1.6966846749305724
1772790686095906000,1.274906005859375,9.749664960974455,3.497154718506336,1.8501394988909363
1772790686105972000,1.284971923828125,10.035462262761593,3.3298984559476374,1.7757165644608437
1772790686116037000,1.295037109375,9.927693961960077,3.196623373445868,1.5554039806276558
1772790686126102000,1.30510205078125,9.39813817269206,3.451166289791465,1.7659094561956823
1772790686136167200,1.315167236328125,8.755488503685593,3.661151979269087,1.9644430466800926
1772790686146233000,1.325233154296875,8.290522967749833,3.4681112871125337,1.8890758171372115
1772790686156298200,1.33529833984375,7.74335494942367,3.008778788627684,1.6425307676777243
1772790686166363000,1.34536279296875,6.917282895955443,2.5050194116562605,1.483993672017008
1772790686176428000,1.355427978515625,5.705991627961397,2.334040621443093,1.8962611985966562
1772790686186493200,1.3654931640625,4.395456141883135,2.244687390515208,2.311792549277842
1772790686196558800,1.375558837890625,3.826680687382817,1.9648381834775208,1.7836948498636482
1772790686206624000,1.3856240234375,3.16976400809288,1.7673437267825007,1.072337263073027
1772790686216689200,1.395689208984375,2.189078900539875,0.8607844704091548,1.3319000534072518
1772790686226754000,1.405754150390625,0.9107137457042932,0.3295338599219918,1.4866916789293287
1772790686236820000,1.415820068359375,-1.0117086068481207,-0.46638943125903604,1.907955435782671
1772790686246885000,1.425885009765625,-2.770313439118862,-1.8935861341685056,2.663763866457343
1772790686256950000,1.435949951171875,-3.6691689892470833,-3.409817795836925,3.335585269412398
1772790686267015000,1.446014892578125,-4.5534313658773895,-3.9588431324675675,3.3859994056150313
1772790686277080000,1.456080078125,-5.615442757508158,-3.5249212618321177,2.7135820825934407
1772790686287146000,1.46614599609375,-6.852504426574707,-3.138011317740381,2.0350468612134454
1772790686297211100,1.476211181640625,-8.234157521927356,-2.9194872247591612,1.6361346368998289
1772790686307276000,1.486276123046875,-9.021960927277803,-2.3760887880995867,1.1492227882243693
1772790686317341200,1.496341064453125,-9.227496359348297,-1.4960636106476186,0.3132775024522096
1772790686327407000,1.506406982421875,-9.155814686450361,-0.6424360262557863,-0.8116745486728847
1772790686337472000,1.516471923828125,-9.044733900099992,-0.4498173589035868,-1.2986971642464398
1772790686347537200,1.526537109375,-8.895413691726326,-0.7616282228693365,-1.0036901355654
1772790686357602000,1.53660205078125,-8.266817097991705,-1.297852237854898,-0.4734049360442906
1772790686367668200,1.546668212890625,-7.293401104658842,-1.7225860089063643,-0.06188134143343195
1772790686377733000,1.556733154296875,-6.104646662643551,-1.7197107457309961,0.27501868160869924
1772790686387798000,1.566798095703125,-4.598946916383505,-1.5085688719555734,0.44504466460905967
1772790686397863200,1.57686328125,-2.909247278034687,-1.1654410787060856,0.2987662350840866
1772790686407928000,1.586927978515625,-1.1292015983283519,-0.7209070670329034,0.07383178643679711
1772790686417994000,1.596993896484375,0.461232779148221,-0.39087884772270914,-0.08222524221148342
1772790686428059100,1.60705908203125,1.5723627142131327,-0.14320757071226833,-0.011402871290314942
1772790686438124300,1.617124267578125,2.4905711995869875,0.18068375327810643,-0.018382373180426657
1772790686448188400,1.6271884765625,3.3309318906486034,0.5983133914127946,-0.213667136203032
1772790686458254600,1.637254638671875,4.091410651221871,0.9981192035652696,-0.2589701582033187
1772790686468319500,1.647319580078125,4.787296235853433,1.0996364811480044,-0.19780496568260714
1772790686478384400,1.65738427734375,5.352032059574127,1.4415354632548987,-0.3427526032615453
1772790686488449500,1.667449462890625,5.729049847465753,2.084828836992383,-0.5032218360286206
1772790686498514400,1.677514404296875,6.087141401091218,2.079727129939198,-0.39744814311042426
1772790686508580400,1.687580322265625,6.490448645493387,1.937387720363587,-0.310413235594891
1772790686518645500,1.6976455078125,6.527355942130089,2.269251046146452,-0.41229123624879865
1772790686528710400,1.70771044921875,6.40767566973865,2.5906568369314074,-0.3221653769806027
1772790686538775600,1.717775634765625,6.427092902392149,2.3849704520829023,-0.33588549397103484
1772790686548841500,1.727841552734375,6.321414851868152,1.8771305277995765,-0.6516747600484639
1772790686558906600,1.73790673828125,6.238136849200725,2.150372591657191,-0.7709402410939336
1772790686568971500,1.747971435546875,5.865080366155505,2.3931160568766296,-0.6650757280871271
1772790686579036400,1.758036376953125,5.278199346122145,2.3394082859560847,-0.6963643080592155
1772790686589101600,1.7681015625,4.79446305874288,2.153897112521529,-0.7850970690011978
1772790686599167500,1.77816748046875,4.36900068115592,1.8590302229635416,-0.8550476803228259
1772790686609232400,1.788232421875,4.192954378420114,1.43820398074463,-1.1083148776441811
1772790686619297500,1.798297607421875,4.032421286636591,1.1674319602623582,-1.1889715918973087
1772790686629362700,1.80836279296875,3.223034410509467,0.633080168889463,-1.0108483367569745
1772790686639428400,1.818428466796875,1.9796189885020254,-0.14432020812928675,-0.7014137004032731
1772790686649493500,1.828493408203125,0.6052133800595998,0.7433407248981296,-0.9677912853188813
1772790686659558700,1.83855859375,-0.5644540841698646,1.054680171959847,-1.119392590367049
1772790686669623300,1.848623291015625,-0.9032593380451202,-0.0016733400397002697,-0.7603496543008834
1772790686679688400,1.8586884765625,-1.6696230650037527,-0.4345877871982753,-0.753242379578948
1772790686689754400,1.86875439453125,-3.3468267943948504,-0.7447077754676341,-0.8908652820266783
1772790686699819500,1.878819580078125,-4.964305246141553,-1.2189637023180722,-0.39308702529147266
1772790686709884400,1.888884521484375,-6.065989307469129,-1.5044626056805253,0.30838899975828826
1772790686719949600,1.898949462890625,-7.127113394871354,-1.5244130684278905,0.5032424769578502
1772790686730015500,1.909015380859375,-8.279703467571736,-1.2977511155679822,0.002638239549100399
1772790686740080600,1.91908056640625,-9.902686946475505,-0.7383659321602434,-0.2722514088524505
1772790686750145500,1.9291455078125,-10.527808557575941,-0.315338015178591,-0.5284791364798322
1772790686760210400,1.93921044921875,-10.421134481751919,-0.16925306239910423,-0.6500087995976209
1772790686770275600,1.949275634765625,-11.11297459038496,0.13532047072425485,-0.7442508985456079
1772790686780341500,1.959341552734375,-10.976751763993501,0.2974531797241419,-0.7207674393665046
1772790686790406400,1.969406494140625,-10.235007514506577,0.11171988797150552,-0.18423892500903458
1772790686800471600,1.979471435546875,-9.187754716068506,-0.03678381638750434,0.37824922938272354
1772790686810536400,1.989536376953125,-8.17538443044126,-0.051946789130009705,0.7476439750500022
1772790686820601300,1.999601318359375,-6.7656520725518465,-0.16379797533098608,0.7943250622041523
1772790686830667500,2.00966748046875,-4.985909759706258,-0.33990612778924406,0.7431064777508377
1772790686840732700,2.019732666015625,-3.32019539257884,-0.5964287467099726,0.7221583822682499
1772790686850797300,2.02979736328125,-1.7630618116796015,-0.9534321397725493,0.7914915192786603
1772790686860862500,2.039862548828125,-0.2950111203342676,-1.5503054884448646,0.8657439925126731
1772790686870928600,2.0499287109375,0.9235586142301558,-1.0187865093450992,1.1323469106167554
1772790686880993300,2.0599931640625,1.9414701673716306,-0.6701886871866881,0.40674890928864477
1772790686891058400,2.070058349609375,3.1081437104821203,-0.8139661667414009,-0.06222907715886831
1772790686901123600,2.08012353515625,3.941571971932053,-0.707043376853317,-0.04488433993048966
1772790686911188500,2.0901884765625,4.644543130910396,-0.4458037393480539,0.0840580471292138
1772790686921254400,2.10025439453125,5.367684971258044,-0.21507227202691137,0.06080766605362296
1772790686931319600,2.110319580078125,6.076889471668005,-0.06346541402079164,-0.045635231363028286
1772790686941384400,2.120384521484375,6.595353373557328,0.08106193405315279,-0.28863661686629055
1772790686951449300,2.130449462890625,6.8876195790976285,0.26861542697027324,-0.6707557464849203
1772790686961515500,2.140515625,7.3321315250694745,0.3570334959398955,-0.8895932162642478
1772790686971580400,2.150580322265625,7.814211861935258,0.30513058248423036,-0.9263376504894345
1772790686981645600,2.1606455078125,8.207893784379959,0.11538440182842313,-0.7192413988430053
1772790686991710500,2.17071044921875,8.288300031003356,0.3427812448341399,-0.5871323644459248
1772790687001776400,2.1807763671875,8.180573231256007,0.47721002741567786,-0.7258810560531914
1772790687011841500,2.190841552734375,7.852836483883857,-0.07308730191215872,-0.6286072612591087
1772790687021906400,2.200906494140625,7.319329911163448,-0.4445238190727308,-0.34062187484316525
1772790687031971300,2.210971435546875,6.75421239464879,-0.2210908747293055,-0.1292672350998968
1772790687042036500,2.221036376953125,6.1977580770611755,-0.2849985526248813,0.011758753789588808
1772790687052102700,2.2311025390625,6.245152280920744,-0.6395732572358102,0.022015651648864147
1772790687062167300,2.241167236328125,6.260129485300183,-0.6473056781187653,0.05890358599796891
1772790687072232400,2.251232421875,5.4276937420189375,-0.47225185701902955,0.3911201091326773
1772790687082297600,2.261297607421875,4.412675572231412,-0.34689898235127326,0.8027156547348946
1772790687092363500,2.271363525390625,3.9962177543550728,-0.2969398233745247,1.147552589989826
1772790687102428400,2.281428466796875,3.50585708039999,-0.32734277961850167,1.4345447275847196
1772790687112493600,2.29149365234375,2.3239918133765456,-0.36756029678173363,1.683380372199416
1772790687122558700,2.301558837890625,0.7345458624154328,-0.4100600065980106,1.9478040465682744
1772790687132623400,2.311623291015625,-0.7761328413009643,-0.5692280936386436,2.3164225471660496
1772790687142689500,2.321689453125,-2.5704806026041505,-0.8175897640660404,2.8943653507232665
1772790687152754400,2.33175439453125,-4.629999057251215,-1.0146257364038378,3.938829395225644
1772790687162819300,2.3418193359375,-6.801560421279072,-1.115116666613519,5.128400998842716
1772790687172884500,2.351884521484375,-9.434583112514018,-1.0961997846975922,5.80000086800158
1772790687182949600,2.36194970703125,-11.630367648172378,-0.746424297061935,5.819045760211348
1772790687193015600,2.372015625,-13.383035491609572,0.12484203906878828,5.307537084287405
1772790687203080400,2.38208056640625,-14.703617739927768,1.395028417493403,4.449470056143403
1772790687213145600,2.3921455078125,-15.471394256293772,2.472461250139773,3.2476644093751905
1772790687223210500,2.40221044921875,-15.74303677600026,3.195156223502755,2.15774224364236
1772790687233276400,2.4122763671875,-15.266058730709553,3.347183645008504,1.4257085101783276
1772790687243341600,2.422341552734375,-14.129967957389354,2.8971064661249515,1.04769769266136
1772790687253406500,2.432406494140625,-12.573875994497536,2.1314427041292188,0.9098879624046384
1772790687263471400,2.442471435546875,-10.701828907442092,1.4312820725269615,0.8212209601752459
1772790687273536500,2.45253662109375,-8.54010680038333,0.8575390587471425,0.8222983070831745
1772790687283602400,2.4626025390625,-6.469915560552478,0.33449294363409277,1.0131800676401703
1772790687293667600,2.47266748046875,-4.4842093610912555,0.0026958149552345273,1.1923450138531624
1772790687303732500,2.482732421875,-2.53355460126698,-0.11050488615855573,1.2182364109568298
1772790687313797400,2.49279736328125,-0.8210381509542465,-0.01503200330659747,1.074272176658362
1772790687323863600,2.502863525390625,0.6172627142935991,0.13097279690876604,0.8479899438310414
1772790687333928700,2.5129287109375,1.7733213398873804,0.252463041331619,0.5240524426113814
1772790687343993300,2.522993408203125,2.761296019926667,0.5581181591466069,0.2392217208340764
1772790687354058500,2.53305859375,3.6638486710071563,0.8482916301913559,-0.08345401682145893
1772790687364124400,2.54312451171875,4.382417212089896,1.0799917233489453,-0.4799328034430742
1772790687374189300,2.553189208984375,5.013276490059495,1.269328738681972,-0.8728809317205101
1772790687384254500,2.56325439453125,5.745570774155855,1.4111423708178101,-1.1920981994852422
1772790687394319600,2.573319580078125,6.379843659961224,1.4950246229887008,-1.4303808859035372
1772790687404384300,2.58338427734375,6.9142749463111155,1.3926311470933257,-1.5631626319304108
1772790687414450400,2.593450439453125,7.368503399655222,1.2669500268518923,-1.7745514662042259
1772790687424515600,2.603515625,7.5859543104469775,2.429889205739647,-2.283780214497447
1772790687434580500,2.61358056640625,7.65998926847279,2.719126857239008,-2.3788380868077277
1772790687444645400,2.623645263671875,8.169082699948548,2.1064498633004725,-2.394669569928944
1772790687454711600,2.633711669921875,8.672449570471048,1.9160022563770411,-2.566225867769122
1772790687464776200,2.643776123046875,8.549675423717499,2.023660374802351,-2.6763857398822903
1772790687474841300,2.65384130859375,8.209350412929057,2.1542390578269957,-2.709616686093807
1772790687484906500,2.663906494140625,8.093097776898741,2.0887376809991895,-2.590361361116171
1772790687494971400,2.673971435546875,7.916085844001174,1.9332516434721647,-2.43355766511932
1772790687505037300,2.684037353515625,7.423595172280073,1.722293747961521,-2.3010765094742176
1772790687515102500,2.6941025390625,6.453780418309569,1.4641002001538872,-2.087653685154766
1772790687525167400,2.70416748046875,5.282827005922794,1.1885320314362644,-2.0221224977105856
1772790687535232300,2.714232177734375,4.308875006017089,0.8479854868516326,-1.9786156566783786
1772790687545297400,2.72429736328125,3.2934541006475686,0.30969401794224977,-1.7159665907666086
1772790687555363300,2.73436328125,2.0596973183453082,-0.04502922829389572,-1.338158821541071
1772790687565428200,2.74442822265625,0.7407178290486335,-0.07385697111040353,-1.5926771879673003
1772790687575493400,2.754493408203125,-0.7999731510937214,-0.096599841055274,-2.000297619393468
1772790687585558500,2.76455859375,-2.4089286891669035,-0.5907289276331663,-2.0041773834362626
1772790687595624400,2.77462451171875,-3.806631586566567,-1.4112398398429153,-1.770650805503875
1772790687605689300,2.784689453125,-4.851021981310844,-2.1837737798690795,-1.3160631634585558
1772790687615754200,2.794754150390625,-5.685086787098646,-2.5866078538015485,-1.050840155405551
1772790687625819400,2.8048193359375,-6.340671341001987,-2.7826123641997573,-1.0651042430795727
1772790687635885300,2.81488525390625,-6.886773191401362,-3.007607991282642,-0.9194671071328222
1772790687645950200,2.8249501953125,-7.223571197107434,-3.0711928669646382,-0.6003562954172492
1772790687656015400,2.835015380859375,-7.365845578622817,-3.1681101034060117,-0.4559563000500202
1772790687666080300,2.845080322265625,-7.319158061727881,-3.2959573156401514,-0.3852726982787251
1772790687676145400,2.8551455078125,-7.094449727153778,-3.2592049173042175,-0.2707243819482624
1772790687686211300,2.86521142578125,-6.777934046497941,-3.165494952471554,-0.16992080559283493
1772790687696276500,2.8752763671875,-6.193422678205371,-2.9804335686311125,-0.09656097034960985
1772790687706341400,2.88534130859375,-5.39339165944457,-2.647008254228532,-0.1369810974128544
1772790687716406300,2.89540625,-4.194124591243267,-2.23963010712564,-0.40823651749789713
1772790687726472400,2.905472412109375,-2.722203780466318,-1.8957517877697942,-0.7264478961557149
1772790687736537300,2.915537353515625,-1.2162819158881901,-1.6856037473373113,-0.8759194956988096
1772790687746602200,2.925602294921875,0.2762012059241533,-1.525474121788144,-0.9034966539323329
1772790687756667400,2.93566748046875,1.550060866034031,-1.2959233156189323,-0.977110171675682
1772790687766732500,2.945732666015625,2.743970791116357,-0.8632010300315917,-0.9772669696725904
1772790687776798200,2.955798095703125,3.756464995384216,-0.3291267404258251,-1.1619802707277238
1772790687786863400,2.96586328125,4.468645296734572,-0.042787294586002826,-1.2754193106420337
1772790687796928500,2.975928466796875,4.904952893462776,-0.028896424138545988,-1.16680812927559
1772790687806993200,2.9859931640625,5.2937154796838755,-0.01049026822373271,-0.9899841201655566
1772790687817059300,2.996059326171875,5.569018275463581,0.013302841426432132,-0.7666631482966244
1772790687827124500,3.00612451171875,5.718844095271826,-0.0011022621534764767,-0.574026506896317
1772790687837189400,3.016189453125,5.90343435446918,0.059139586710929865,-0.3859839883532375
1772790687847254300,3.026254150390625,6.045003802585602,0.13282616969048977,-0.2099210267435759
1772790687857319400,3.0363193359375,5.9373833858221765,0.293929608707875,-0.14347915419526397
1772790687867385300,3.04638525390625,6.000058160921931,0.580485912168771,-0.09000343846492469
1772790687877450500,3.056450439453125,6.137935184261202,0.8888035271912813,-0.22404738644734024
1772790687887515400,3.066515380859375,6.173735980960727,1.0470799260891974,-0.36107634158991275
1772790687897580300,3.076580322265625,6.240862474772333,1.0129339108593762,-0.27378062771372497
1772790687907646500,3.086646484375,6.365790000167489,0.8577227447509765,-0.08196881976500153
1772790687917711400,3.09671142578125,6.267324949762225,0.6130421739891171,0.25315208304170517
1772790687927776300,3.1067763671875,6.043157297936082,0.33812764687463637,0.6770637605879456
1772790687937841400,3.11684130859375,5.798305169999599,0.18247224413007496,1.0457552533566952
1772790687947906300,3.12690625,5.597327839624882,0.09547529400475323,1.2910739758916199
1772790687957972200,3.13697216796875,5.328767503842711,0.10264672000408172,1.3244213880896567
1772790687968037400,3.147037353515625,4.749909631267189,0.1379968503266573,1.4439999536722898
1772790687978102500,3.1571025390625,3.9478853928625584,0.07204473405666649,1.5744864283688365
1772790687988167200,3.167167236328125,3.232491390162706,-0.12766308783888816,1.6057605414241551
1772790687998233300,3.1772333984375,2.024492733973265,-0.3802247672393918,1.7692200420483946
1772790688008298500,3.187298583984375,0.050827685439586635,-0.5636120073225349,2.196513580585271
1772790688018363100,3.197363037109375,-1.9515075772613286,-0.6117902742318808,2.7199405117094515
1772790688028428300,3.20742822265625,-4.1491175747811795,-0.6669734514672309,2.849013174085319
1772790688038493400,3.217493408203125,-6.783699770417809,-0.6764240744449198,2.9269387098088857
1772790688048559400,3.227559326171875,-9.071772129151224,-0.6382856285780668,3.185148039707541
1772790688058624300,3.237624267578125,-11.39612166992426,-0.6659237962838261,3.3099598297685384
1772790688068689400,3.247689453125,-13.789770372372866,-0.4166333936389535,3.3904867801621554
1772790688078754300,3.25775439453125,-15.77655209211111,0.17503281484432517,3.113164461253583
1772790688088820500,3.267820556640625,-17.159001306277514,0.8731938701272011,2.4002720661111177
1772790688098885400,3.277885498046875,-18.000318859672547,1.4373207681693136,1.7339049830392002
1772790688108950300,3.2879501953125,-18.097902451068162,2.7751293149679896,1.1018326760180295
1772790688119015400,3.298015380859375,-17.370019553673266,2.614896082913875,0.5172810487803071
1772790688129080300,3.308080322265625,-16.391120745015144,3.8767876573324203,0.3381844916284084
1772790688139146200,3.318146240234375,-14.479825351154803,3.2216739358112214,-0.07558647091728635
1772790688149211400,3.32821142578125,-12.695719582402706,1.6554259050861,-0.013976886496786028
1772790688159276300,3.3382763671875,-11.083769538688658,1.4695513051666318,0.5901781618826091
1772790688169341400,3.348341552734375,-9.129360979288816,0.8662453661635517,0.8118675870269536
1772790688179407400,3.358407470703125,-7.462574599015713,0.4767632334962487,1.0544096844553947
1772790688189472500,3.368472412109375,-5.806699488857388,0.5401518559537828,1.3112785595305263
1772790688199537200,3.378537109375,-4.232204438790679,0.6897153715640306,1.3174541794255374
1772790688209602300,3.388602294921875,-2.779398078328371,0.726135323075205,1.1847196335412562
1772790688219667500,3.39866748046875,-1.170052664154768,0.7845404580317438,1.1703081732857972
1772790688229733400,3.4087333984375,0.13309621880352496,1.0003656673178076,1.1670520210340618
1772790688239798300,3.41879833984375,1.2227537422508001,1.0541901964858174,0.881151843394339
1772790688249863400,3.428863525390625,2.6020611512601373,1.1437168842844665,0.6238560481440275
1772790688259928600,3.438928466796875,3.8678520712047813,1.3088973634824157,0.3883549552682787
1772790688269994200,3.448994140625,4.958730076357722,1.4573587630696594,0.00394508436396718
1772790688280059400,3.459059326171875,6.040323535814881,1.63045819869861,-0.38044264777377246
1772790688290124500,3.46912451171875,7.052010515353083,1.84401546305269,-0.6371066479265689
1772790688300189200,3.479189208984375,7.868389442324638,2.019772865844518,-0.8852136129405349
1772790688310254300,3.48925439453125,8.548192491683363,2.176427070368081,-1.1142298738416283
1772790688320320300,3.4993203125,9.248505829629302,2.2250123837083575,-1.3215491936542092
1772790688330385400,3.509385498046875,9.73891209629178,2.2013807482302186,-1.5229592163577674
1772790688340450300,3.5194501953125,10.105621256136894,2.2431875073462724,-1.655420352128148
1772790688350515500,3.529515380859375,10.298632722198963,2.328885138376057,-1.8146663267105816
1772790688360581400,3.539581298828125,10.36790441134572,2.4010990184545515,-1.899139092120528
1772790688370646300,3.549646240234375,10.374085145807266,2.434310675443709,-2.065630507786572
1772790688380711400,3.55971142578125,10.502354967367648,2.2226938776329157,-2.1465726148523387
1772790688390776300,3.5697763671875,10.62021913024783,2.0504797004058957,-1.9836225250549613
1772790688400841200,3.57984130859375,10.269390261101723,2.054421716029942,-1.886013653087616
1772790688410907400,3.589907470703125,9.791512636622786,1.9070012037977575,-1.953255151581019
1772790688420972300,3.59997216796875,9.305267581292986,1.7212617745652794,-2.0684889659576116
1772790688431037400,3.610037353515625,8.853058066555857,1.5941910996615887,-1.9209660162642597
1772790688441102300,3.620102294921875,8.227489296209813,1.2975257823795079,-1.720788896356523
1772790688451168000,3.63016796875,7.073331535801291,1.0066007623150943,-1.8097098733469843
1772790688461233200,3.640233154296875,5.50055614913404,0.8031228472962975,-1.896642306868732
1772790688471298300,3.65029833984375,3.8187761978685852,0.6131365742743015,-2.009538325947523
1772790688481363000,3.660363037109375,2.228853861567378,0.17735972342193126,-2.1593262979634105
1772790688491428000,3.670427978515625,0.7338876907676458,-0.02248889518380165,-2.0475120827719566
1772790688501494300,3.680494384765625,-1.1040472833275794,-0.38295740707367654,-1.8930863679528236
1772790688511559000,3.690558837890625,-2.8153765696823596,-0.9391767468616365,-1.7706868997305631
1772790688521624000,3.7006240234375,-4.333040309980511,-1.229465807110071,-1.75991299225986
1772790688531689200,3.710689208984375,-5.973486380338668,-1.8273691564172505,-1.6112766744971274
1772790688541755100,3.720755126953125,-7.195640987652539,-2.3084014455348254,-1.522439868658781
1772790688551820000,3.730820068359375,-8.264891098365187,-2.5297917416021227,-1.4372861352473496
1772790688561885200,3.74088525390625,-8.865112076964975,-2.9212191631183027,-0.9698487293053418
1772790688571950000,3.7509501953125,-9.119836195096372,-3.213772076645493,-0.5306172810196876
1772790688582015000,3.761014892578125,-9.439537520051003,-3.097033995185792,-0.2380721124075353
1772790688592081200,3.7710810546875,-9.422395831114054,-3.479420908895135,-0.4287522859778255
1772790688602146000,3.78114599609375,-9.262730754336713,-3.4585932249218225,-0.22465923473536967
1772790688612211000,3.7912109375,-9.042919544154405,-2.887152642865479,-0.25424152224622665
1772790688622276000,3.801276123046875,-8.339158696103096,-2.4732541540831328,-0.5539615509238094
1772790688632342000,3.811342041015625,-7.1934759185731405,-2.239792019689083,-0.40438605261482297
1772790688642407200,3.8214072265625,-5.638783885607123,-2.0484467332735656,-0.4273318247206509
1772790688652472000,3.83147216796875,-3.7921868816286324,-1.8912201356895266,-0.3166303200114518
1772790688662537200,3.841537109375,-1.921032359498739,-1.7338022533170878,-0.1284032386817038
1772790688672602000,3.85160205078125,-0.22381576964855193,-1.5713222652494907,0.01798917261175811
1772790688682668300,3.861668212890625,1.1428332333177327,-1.2771719995282589,0.09801094996221363
1772790688692733000,3.87173291015625,2.418748656913638,-1.3251406422749161,-0.1974734869722277
1772790688702798000,3.881798095703125,3.5648119581937787,-1.2154032333575189,0.010503200770542025
1772790688712863200,3.89186328125,4.074433212935924,-0.6990766357578336,0.1930463547123596
1772790688722929000,3.901928955078125,4.5926095300555225,-0.3006334902606904,0.07280026513170451
1772790688732994000,3.911994140625,5.348559415027499,-0.2699227101765573,0.13903021196238696
1772790688743059200,3.92205908203125,5.534854140055179,-0.3123657944347709,-0.09611411249809898
1772790688753124000,3.9321240234375,5.4228813733011485,-0.2198555607806891,-0.211963401025068
1772790688763189000,3.94218896484375,5.369887449738383,-0.04144486700110137,-0.1669318529099226
1772790688773255200,3.952255126953125,5.234482953992486,0.1069718897268176,-0.25094423426650464
1772790688783320000,3.962320068359375,4.9355403394281865,0.09591353929154574,-0.2929112985108048
1772790688793385000,3.972385009765625,4.805388941904902,0.04438596195429563,-0.17685867856461554
1772790688803450000,3.9824501953125,4.9515422106802465,0.07259155428446828,-0.06322795200310648
1772790688813516000,3.99251611328125,4.843576341480016,0.20792956066541374,-0.010385127348825334
1772790688823581200,4.002581298828125,4.517572701510787,0.43011016686018555,0.23879754060525446
1772790688833646000,4.01264599609375,4.540575975957513,0.5274676213497296,0.3990882019350305
1772790688843711200,4.022711181640625,4.546016121184826,0.4676785942867398,0.3924734965030104
1772790688853776100,4.032776123046875,4.495583572542667,0.3910235899556428,0.5073047944933176
1772790688863842000,4.042842041015625,4.305872901591658,0.29386669953949746,0.7289628015860915
1772790688873907200,4.0529072265625,4.143731790089607,0.20524141755998132,0.9289908684119582
1772790688883972000,4.06297216796875,3.989365404242277,0.17930084755234418,1.023436015651375
1772790688894037000,4.073037109375,3.6939275829285383,0.2714957316469401,1.1730655822351574
1772790688904102100,4.08310205078125,3.4917613350301977,0.32988946842662986,1.399982678899914
1772790688914168000,4.09316796875,3.118442986178398,0.34757816025447097,1.686593781287968
1772790688924233200,4.103233154296875,2.2107138092428444,0.24249091523047536,1.998952634525299
1772790688934298000,4.113298095703125,0.9340244786649942,-0.0579894668277353,2.273574462303519
1772790688944363000,4.123363037109375,-0.706141605708003,-0.26077176426518706,2.744188525520265
1772790688954429200,4.13342919921875,-2.569047354930639,-0.258992443100363,3.4400492679715153
1772790688964494000,4.143494140625,-4.613965621817112,-0.07974095111507921,3.8627684843301773
1772790688974559000,4.15355908203125,-6.257324364751577,-0.005207870841398835,4.1512557558536525
1772790688984624000,4.1636240234375,-7.840220747938751,0.22451704978570342,4.118866521163285
1772790688994689000,4.17368896484375,-9.522653025633096,0.41055772698707876,3.9661119544267653
1772790689004755000,4.1837548828125,-11.140676251780986,0.3771458712507039,3.80993618106991
1772790689014820000,4.193820068359375,-12.584756284952164,0.5789587026014924,3.684809625971317
1772790689024885200,4.20388525390625,-13.746347410231827,1.2824608997166156,3.1921582107305526
1772790689034950100,4.2139501953125,-13.744026858329772,-0.284522971002385,2.3143685372456906
1772790689045016000,4.22401611328125,-13.160112871408462,-0.34211057903096076,1.901868663214892
1772790689055081200,4.234081298828125,-12.814731746274232,1.009094186566025,1.296246556223929
1772790689065146000,4.24414599609375,-12.467623943477868,1.8328746219657361,0.5633586170833558
1772790689075211000,4.2542109375,-11.467088472551106,2.41307528745234,-0.050063934525474904
1772790689085277200,4.264277099609375,-10.249256989133357,2.4380418247960507,-0.20297581071555612
1772790689095342000,4.274342041015625,-9.22310718447864,2.1726761934019625,-0.1079156368503347
1772790689105407000,4.284406982421875,-7.727890253788233,1.337738111910969,0.07215197555711493
1772790689115472100,4.29447216796875,-6.5124214078485965,0.11339461625069379,0.23188843707023188
1772790689125537300,4.304537353515625,-5.5662412119656794,-0.24985563531219956,0.3364797335371375
1772790689135603200,4.314603271484375,-4.171791178882121,-0.34371151142157613,0.3138944653067738
1772790689145668000,4.324668212890625,-3.028240737205744,-0.4691201713971793,0.29832999909128993
1772790689155733000,4.33473291015625,-1.7252642882049083,-0.3491645891956985,0.10067326450664549
1772790689165798100,4.344798095703125,-0.3502899399638176,0.010129325956851244,-0.20389073360338805
1772790689175864300,4.3548642578125,0.937982276380062,0.3304709215763956,-0.4134235647469759
1772790689185929000,4.364928955078125,2.254323818388581,0.4712070606738329,-0.6373629607751965
1772790689195994000,4.374994140625,3.46404272249937,0.5425355362199247,-0.9807000128611921
1772790689206059300,4.385059326171875,4.538859819689392,0.6673312519289553,-1.3736053979754448
1772790689216124200,4.395124267578125,5.639617413821816,0.6097654904060066,-1.7775645304150878
1772790689226190000,4.405190185546875,6.576642243346572,0.5870113684147596,-2.013421597121656
1772790689236255200,4.415255126953125,7.270772508743405,0.6911869054213166,-2.0292622864626346
1772790689246320000,4.425320068359375,8.037574042597413,0.7386778476536273,-1.8785376181185245
1772790689256385000,4.435385009765625,8.584236449488998,0.792015762348473,-1.8504300062701105
1772790689266451200,4.445451171875,9.082723146754503,0.39215105961561203,-2.7824963366046545
1772790689276516000,4.45551611328125,9.832558348238468,0.8734805781140923,-1.3631753355063496
1772790689286581000,4.4655810546875,10.017239208328723,0.9805741945244372,-0.4078008660269901
1772790689296646100,4.475646240234375,10.299708242475987,0.519585014873743,-1.112134728193283
1772790689306711300,4.485711181640625,10.301085376048087,0.5071948313128203,-1.6169659721799194
1772790689316777000,4.49577685546875,10.214883594888448,0.6841950007073581,-1.6004456300117074
1772790689326842000,4.505842041015625,10.061337877774237,0.6929172363452613,-1.4091677097439765
1772790689336907300,4.5159072265625,9.715342420133947,0.7734083847731351,-1.3140176291055976
1772790689346972000,4.525971923828125,9.293355025181175,0.933373905801773,-1.2115703041311352
1772790689357038000,4.5360380859375,9.032155573555826,0.8323415621917695,-1.1430978756032883
1772790689367103000,4.54610302734375,8.376630056363343,0.7200954583890735,-1.262185588929057
1772790689377168100,4.556168212890625,7.455474411621689,0.7029992890942841,-1.1597516348928212
1772790689387233000,4.56623291015625,6.53731268799901,0.4290234310694039,-0.9769470900684595
1772790689397298200,4.576298095703125,5.3448471165061,0.009158435098081827,-0.9760890849996358
1772790689407364000,4.586364013671875,3.660685823062062,-0.08649842601865529,-1.1178185459833592
1772790689417429200,4.59642919921875,1.800021715286374,-0.3279465907305479,-1.0249121526185423
1772790689427494100,4.606494140625,0.21326982571482658,-0.48076297065690154,-1.0503124052044004
1772790689437559000,4.61655908203125,-2.368889524245262,-0.46574163487479087,-1.1929469252690672
1772790689447625200,4.626625244140625,-4.358109869307279,-0.713202630135417,-1.5385900623403488
1772790689457690000,4.636690185546875,-5.815417632842063,-0.7545593073964119,-1.7724496716193854
1772790689467755000,4.646755126953125,-7.452150235635042,-0.6827141144998371,-1.9430317175999283
1772790689477820200,4.656820068359375,-8.43439543211162,-0.8540290047995746,-2.0385788347318767
1772790689487886000,4.666885986328125,-8.842055611026286,-0.6957369699411093,-2.0244167461276055
1772790689497951200,4.676951171875,-9.645057754552363,-0.7962766346633434,-1.9790365124389528
1772790689508016000,4.68701611328125,-10.107863482105731,-0.9758584180489182,-1.7575939016625284
1772790689518081300,4.697081298828125,-10.445502030289173,-1.0201531215231865,-1.6869009475409984
1772790689528147200,4.707147216796875,-9.970409652614594,-1.46507430588305,-1.7651941475331783
1772790689538212400,4.71721240234375,-9.51417687371075,-1.7279485588528214,-1.474751358027756
1772790689548277200,4.72727734375,-9.641725395259261,-0.9330197586018592,-0.9120780197948217
1772790689558342100,4.737342041015625,-8.209900448027252,-0.5890505460921674,-1.05111765717268
1772790689568407300,4.7474072265625,-6.2727411295920605,-0.5345334315501153,-0.920615546515584
1772790689578473200,4.75747314453125,-4.52871894942522,-0.5367180821128189,-0.4429661047693342
1772790689588538000,4.7675380859375,-2.466530398786068,-0.6289614084590226,-0.18573948403140528
1772790689598603300,4.777603271484375,-0.41439620917141434,-0.5054193460728973,0.01733419756805524
1772790689608668200,4.787668212890625,1.5575643735319376,-0.21432474159523843,0.2604507521498948
1772790689618734000,4.797734130859375,2.1990759784191845,-0.19821656042449176,-0.05843713752999902
1772790689628799200,4.80779931640625,2.9624399390399456,-0.4892344464041292,-0.2858323000352829
1772790689638864400,4.817864501953125,4.094335598757863,-0.7511355434928089,-0.06320508258417248
1772790689648929000,4.827928955078125,4.794953472608327,-0.8038524767450987,0.31472364613991227
1772790689658994200,4.837994140625,4.4118391214072705,-0.768079810161516,0.16133538460973648
1772790689669060400,4.848060302734375,4.055279015132784,-0.7602250780731439,0.07977028680741786
1772790689679125000,4.858125,4.482188668918609,-0.808278257298097,0.4187206847744062
1772790689689190100,4.868190185546875,4.665963520079851,-0.8122753641102463,0.6523183186490088
1772790689699255300,4.87825537109375,3.9238264718830584,-0.7149177634902298,0.5810197633171453
1772790689709321200,4.8883212890625,3.5187411118924614,-0.4707665503647178,0.45426557048410177
1772790689719386000,4.89838623046875,3.388247184541821,-0.14918733924161642,0.43346418999582526
1772790689729451300,4.908451171875,3.5583243497401473,0.16314437026046216,0.48081565069220955
1772790689739516200,4.91851611328125,2.786718045952916,0.4984952093655243,0.2533515511365607
1772790689749581000,4.9285810546875,2.769410352799296,0.6448136421073227,0.44323779785018413
1772790689759647200,4.938647216796875,3.586135901251435,0.1978273053785786,0.9249098827086388
1772790689769712000,4.948712158203125,3.807518306273222,-0.3064909841172397,1.1337432603459805
1772790689779777300,4.95877734375,4.195455547586083,-0.3280520238664001,1.311151279889047
1772790689789842200,4.96884228515625,4.477404941773415,0.018791063579171895,1.1595130038313568
1772790689799908000,4.978908203125,4.418295750200748,0.43945729293078184,0.6683124449860304
1772790689809973200,4.98897314453125,4.4129649105668065,0.7647900479011237,0.38144232633560893
1772790689820038100,4.9990380859375,4.429074918368459,0.8647614842813461,0.46468416171111165
1772790689830103000,5.00910302734375,4.526478477022051,0.6211782072369009,0.8475875005099922
1772790689840168200,5.019168212890625,4.345075031167268,-0.08882635750956833,1.335420921009779
1772790689850234400,5.029234375,3.5486785695165395,-0.46875703717321154,1.4789061396196483
1772790689860299000,5.039299072265625,2.7955402348339558,-0.4384611945655197,1.4620982126817106
1772790689870364200,5.0493642578125,2.151333399513364,-0.5251480558283627,1.3788748628109693
1772790689880429300,5.05942919921875,0.7090729829847813,-0.9005836160298436,1.1791430755179375
1772790689890495200,5.0694951171875,-1.6797727030962704,-1.4265944992326198,1.2546759439513087
1772790689900560100,5.07956005859375,-4.192743366017938,-1.6171470278352498,1.9360487268447875
1772790689910625300,5.089625244140625,-6.056816405454278,-1.6111626927286387,3.3512253216147423
1772790689920690200,5.099690185546875,-8.326491522231697,-1.5676916536621748,4.0008132654517885
1772790689930755000,5.109755126953125,-9.944659125286341,-1.728607607283443,3.325663594856858
1772790689940821200,5.1198212890625,-10.714431199383736,-1.1604174053251743,2.360468171250075
1772790689950886100,5.12988623046875,-12.26510113722682,0.1267540101699531,1.9451416954912244
1772790689960951000,5.139950927734375,-13.772785335302352,1.0604051254779099,0.6902735169034451
1772790689971016200,5.15001611328125,-13.471726166975497,1.7494785458765922,0.05390442600380629
1772790689981082000,5.16008203125,-13.102984039998054,2.251860058623552,-0.17727884020544588
1772790689991147300,5.170147216796875,-12.654113314294815,2.4363871894568203,0.1401389769218862
1772790690001212200,5.180212158203125,-11.36478662046194,2.08879262605682,0.49724239629283545
1772790690011277300,5.19027734375,-9.825841022682189,1.0560837551474571,0.33916111810822036
1772790690021342200,5.20034228515625,-8.671458221346139,0.4897048403948545,0.5039466431718319
1772790690031408000,5.210408203125,-7.522189402022957,0.414578726131469,0.7258375822376459
1772790690041473000,5.22047314453125,-6.348389952555299,0.10633856025934219,0.7497209274545311
1772790690051538200,5.2305380859375,-5.175201912984251,-0.1364462598837912,0.6140409027028828
1772790690061603000,5.24060302734375,-3.8892344664514065,-0.12166267838031053,0.47258821283392605
1772790690071669000,5.2506689453125,-2.7372119645059105,-0.08250584925115108,0.3160400990333408
1772790690081734100,5.260734130859375,-1.5928782634973524,-0.0825005885541439,0.28934783387556673
1772790690091799300,5.27079931640625,-0.4808797289043665,0.06654613664038479,0.24310608798675237
1772790690101864200,5.2808642578125,0.563291470131278,0.2561693485036492,0.03854644214585423
1772790690111930000,5.29093017578125,1.568203256446123,0.32866474893726405,-0.13701229626871644
1772790690121995300,5.300995361328125,2.5622920354515313,0.43902072814442217,-0.2693536050517112
1772790690132060400,5.311060302734375,3.453329020783305,0.6173172940250485,-0.4888718236368149
1772790690142125000,5.321125,4.314325088116527,0.49867155231311916,-0.6638575844690203
1772790690152190200,5.331190185546875,4.9117362699925895,0.6536245058767497,-1.7982643502250313
1772790690162256100,5.341256103515625,5.814298273423314,0.9759329445898532,-1.9440677826493977
1772790690172321000,5.351321044921875,6.738957542371749,1.2039689622819423,-1.478468624985218
1772790690182386200,5.36138623046875,7.441692554506659,1.1762451621193437,-1.3405559458106755
1772790690192451300,5.371451416015625,8.046875539427996,1.1350270165462046,-1.2954672424145042
1772790690202517200,5.381517333984375,8.3620725387007,1.1234245492968709,-1.2244760359987616
1772790690212582100,5.39158203125,8.525771985560656,1.0603592405095696,-1.2787351571917533
1772790690222647300,5.401647216796875,8.764095588511228,0.8749522581018507,-1.524419498168677
1772790690232712200,5.411712158203125,8.9663904312253,0.7077876193493604,-1.722477433965355
1772790690242777000,5.421777099609375,8.91790024882257,0.7208914310723543,-1.713106086768955
1772790690252843300,5.43184326171875,8.734055255034566,0.7806453502893448,-1.602704807115346
1772790690262908200,5.441908203125,8.658062148678303,0.645772331071645,-1.6606160210750995
1772790690272973300,5.451973388671875,8.672862242925166,0.3634462125264108,-1.7010986919805406
1772790690283038200,5.4620380859375,8.103540260457992,0.2590244456738233,-2.118069866206497
1772790690293104000,5.472104248046875,7.361112704882025,0.14538096922859547,-2.4783389100015163
1772790690303169300,5.482169189453125,6.3778586236238475,0.09943711030781269,-2.4148716693498193
1772790690313234200,5.492234130859375,5.0748658080101015,0.44092575804814693,-2.3776278342351316
1772790690323299000,5.502299072265625,4.220587066233158,0.5542183752290905,-2.3931195640079674
1772790690333364200,5.5123642578125,3.655275488451123,0.1150992282114923,-2.0664711963944136
1772790690343430400,5.522430419921875,2.3348078064233064,-0.4380320824332535,-1.553385918803513
1772790690353495000,5.5324951171875,0.30711656866967674,-1.1930338729001582,-1.3250611472979188
1772790690363560200,5.542560302734375,-1.6935791101306676,-1.520881387170404,-1.2914946855217218
1772790690373625300,5.552625244140625,-2.849458872026205,-0.8071614551626145,-1.0792200083240866
1772790690383690200,5.562690185546875,-3.7645740675598383,-0.49158305535688995,-1.0376720462746918
1772790690393756200,5.572756103515625,-5.230783514952659,-0.8646917069807648,-0.6458117862991988
1772790690403821300,5.5828212890625,-6.891209712544083,-1.1736113795496523,0.06283011179193854
1772790690413886000,5.592885986328125,-8.160513609045744,-1.259967182227224,0.6260632758647203
1772790690423951000,5.602951171875,-8.892662931713462,-1.2715161657236516,0.6530334081158041
1772790690434017300,5.613017333984375,-9.16736191638112,-1.3481208281069994,0.4193219751358032
1772790690444082200,5.623082275390625,-9.436582177376746,-1.4591409703113138,0.3826612006060779
1772790690454151000,5.63315087890625,-9.389342871817945,-1.4957593670040368,0.4122714721024036
1772790690464215800,5.6432158203125,-8.877582851481437,-1.3906594086289406,0.39370004262328145
1772790690474281000,5.653281005859375,-8.045231279352306,-1.481926071962714,0.4467213656496256
1772790690484347000,5.663346923828125,-7.096282203277945,-1.6344446379862725,0.47203057895116507
1772790690494411800,5.673411865234375,-5.93495352832675,-1.6778059330679476,0.48127450037561353
1772790690504476700,5.6834765625,-4.38774279102683,-1.7222917021349071,0.4919155021816492
1772790690514541800,5.693541748046875,-2.8112065905213353,-1.7151356929004191,0.5410684593420475
1772790690524608000,5.70360791015625,-1.2376315779089926,-1.718390310782194,0.5856967786848545
1772790690534672600,5.713672607421875,0.24102409408092498,-1.625209045998752,0.5252513700723648
1772790690544737800,5.72373779296875,1.660485818824172,-1.3992209007471799,0.4420994780026376
1772790690554803000,5.733802978515625,2.745758843576908,-1.135930614322424,0.42048466223962605
1772790690564868900,5.743868896484375,3.405688733208179,-0.8497052963815629,0.2573356158040464
1772790690574933800,5.753933837890625,3.5143139430999755,-0.46000162991806864,-0.0014008797738701104
1772790690584999000,5.7639990234375,3.1320430569857356,-0.181273462799564,-0.10690569262281059
1772790690595063800,5.774063720703125,2.8331834445297717,-0.09064524349980056,0.004473857478424907
1772790690605128700,5.784128662109375,2.9841449903696775,0.11551708829738198,0.03213814600612968
1772790690615195000,5.79419482421875,3.1866765644490718,0.3657647186018526,0.016953509421087802
1772790690625259800,5.804259765625,3.419710244297981,0.39630437990278006,0.10418130916021763
1772790690635324700,5.81432470703125,3.852590789186954,0.5126531697839498,0.25626889988798646
1772790690645389800,5.824389892578125,4.296322982957959,0.5781168449498713,1.0049838286377488
1772790690655455700,5.834455810546875,4.720693473654985,0.3014933219604194,1.2228672125626354
1772790690665521000,5.84452099609375,4.820407647338509,-0.16452448124093935,0.5663534880504012
1772790690675585800,5.854585693359375,4.543009340584278,-0.21606460753250867,0.056730224014259874
1772790690685651000,5.86465087890625,4.79444552308619,-0.05057628622809425,0.06645553574748336
1772790690695715800,5.8747158203125,5.193319168955087,0.12826120899566448,0.33127920575197783
1772790690705781800,5.88478173828125,4.710326977941394,0.3134364193409681,0.38963125881440935
1772790690715846700,5.8948466796875,4.898889063379168,-0.08479845370035619,0.26444676298350095
1772790690725911800,5.904911865234375,5.773515012136102,-0.6368617332547902,0.40744054481461645
1772790690735976700,5.914976806640625,5.823624904695153,-0.6380357454702258,0.6382409126535058
1772790690746042600,5.925042724609375,5.068241421434283,-0.35400059451740234,0.7658869762923568
1772790690756107800,5.935107666015625,4.683342524904012,-0.24673326550796626,0.6035737230937928
1772790690766173000,5.9451728515625,4.6144665570765735,-0.33088816060777754,0.39324638057164846
1772790690776237800,5.95523779296875,4.132520660245418,-0.39465113280303776,0.5283963900998234
1772790690786302700,5.965302734375,3.2614503581434486,-0.5402130115564913,0.9293066563628614
1772790690796369000,5.975368896484375,2.5365625509113072,-0.9916107715193182,1.1485099637798963
1772790690806433800,5.985433837890625,1.6167320172935724,-1.0813752135965973,1.3340296127818525
1772790690816498700,5.995498779296875,0.11858078671693802,-1.0314644968714564,1.7650882029406725
1772790690826563800,6.005563720703125,-1.493433554404974,-1.4209043247669935,2.5495178940743206
1772790690836629800,6.015629638671875,-4.39154919757247,-2.0276763324454428,2.8884739545971154
1772790690846694700,6.025694580078125,-6.658114073374867,-2.436362055015564,3.234249047484994
1772790690856759800,6.035759765625,-7.871070059710741,-2.2883856624662875,3.67230904083848
1772790690866825000,6.045824951171875,-9.304004429489373,-1.92080673404932,3.6778938552334903
1772790690876889600,6.0558896484375,-9.938234060674905,-1.5217638690933584,3.3133366127252577
1772790690886955800,6.065955810546875,-10.569337668794393,-1.076259404952824,3.1975498406410217
1772790690897021000,6.07602099609375,-13.085928860300779,-1.1290351557202636,2.5103192716300486
1772790690907085800,6.0860859375,-12.731688721406458,-0.9024109045222402,2.281962205290049
1772790690917150700,6.096150634765625,-12.110921798384188,-0.19849691173583267,2.3205720680609345
1772790690927217000,6.106216796875,-12.171525027906894,0.03935410526692867,2.0225481757767496
1772790690937281800,6.11628173828125,-11.676046864807605,0.021735884859412906,1.6169216946467757
1772790690947347000,6.126346923828125,-10.630028576600552,0.04194660597816109,1.3372536893948912
1772790690957411800,6.136411865234375,-9.483784073534608,0.04500672420114279,1.2073732908327133
1772790690967476700,6.146476806640625,-8.166210359382628,-0.03031096711158752,1.142259378952533
1772790690977543000,6.15654296875,-6.685872433394193,-0.07739727406576276,1.0194412469267844
1772790690987607800,6.16660791015625,-5.080279649752378,-0.015090455495566129,0.8288983629353344
1772790690997672700,6.176672607421875,-3.3819396088302134,0.046184243547916407,0.5530456781879067
1772790691007737900,6.18673779296875,-1.7652929317325352,0.09184051769897342,0.23571152075603602
1772790691017804000,6.196803955078125,-0.12331073784828185,0.2043750830542296,-0.05349763530120253
1772790691027868700,6.20686865234375,1.1477478933662175,0.37186186643317337,-0.3879161985248327
1772790691037933800,6.216933837890625,2.1778987503558396,0.5008334065221249,-0.7778408142626285
1772790691047999000,6.2269990234375,3.2463813838273285,0.662326283248514,-1.124425177706778
1772790691058064000,6.23706396484375,4.038400361046195,0.7911412445362657,-1.75328729050979
1772790691068129800,6.2471298828125,4.840788756588101,0.929884602381289,-2.1537378303065893
1772790691078195000,6.25719482421875,5.487100455233454,1.070466062373668,-2.4395164273932575
1772790691088259600,6.267259521484375,6.04595715778768,0.9947142174273729,-2.732918066704273
1772790691098324700,6.27732470703125,6.575869505408406,0.8399621932633221,-2.9474878691017627
1772790691108391000,6.287390869140625,6.968918975168466,0.7114193999804556,-3.0363197065040466
1772790691118455800,6.297455810546875,7.331819974902272,0.7340251995421946,-3.152056501966715
1772790691128520700,6.307520751953125,7.595954310935736,0.7182954232297837,-3.3564486092209815
1772790691138585900,6.3175859375,7.584431630924343,0.8674856485482305,-3.2894074556052684
1772790691148651000,6.327651123046875,7.791556962534785,0.6650248746827244,-3.3386788515135644
1772790691158717000,6.337717041015625,7.6079656512469045,0.45862332730218763,-3.6351299415230747
1772790691168781800,6.34778173828125,7.369073893019556,0.31467297539860006,-3.863800457726419
1772790691178846700,6.3578466796875,7.756278143882751,0.05529598996005952,-3.976237627121806
1772790691188911900,6.367911865234375,8.21997351375222,-0.014969477730710059,-4.062297661723196
1772790691198977800,6.377977783203125,8.285212001860142,0.24091661511845885,-4.230243660111725
1772790691209042700,6.388042724609375,7.726218521183728,0.3922468116076663,-4.447819950848817
1772790691219107800,6.39810791015625,6.530174506682157,0.3678415614085272,-4.415726776495576
1772790691229172700,6.4081728515625,5.0993677965819835,0.3527809530619532,-3.9147248815387483
1772790691239238000,6.41823779296875,4.060512239611149,0.20119656261596827,-3.12806246291697
1772790691249303800,6.4283037109375,3.245347364604473,-0.06813165226615965,-2.4732363261654973
1772790691259369000,6.438368896484375,2.1217384717166423,0.035951018825173375,-2.2730308569461104
1772790691269433900,6.448433837890625,0.9620563949286938,-0.18094350019283592,-2.1631091775029896
1772790691279498800,6.458498779296875,-0.3256406518757343,-0.5981777823343872,-1.889312694633007
1772790691289565000,6.46856494140625,-2.147353389966488,-0.7155165331009775,-1.1710866833776234
1772790691299629800,6.4786298828125,-5.648687439984083,-1.0645235936474053,-0.009897124636173248
1772790691309694700,6.48869482421875,-8.213180200350283,-1.3941668322280047,1.065908691330254
1772790691319760000,6.498759765625,-8.433884559980035,-0.9206356394555419,1.4239938152149318
1772790691329825800,6.50882568359375,-8.816888436543941,-0.18203443723469973,1.250643327434361
1772790691339890700,6.518890625,-9.125686674690247,0.2234315195713192,0.8414493630811571
1772790691349955800,6.528955810546875,-8.65882904139757,0.5860382855989038,0.5842495024859905
1772790691360021000,6.53902099609375,-10.445714796257018,0.7611246572613716,0.297278188483417
1772790691370085600,6.549085693359375,-10.511664062982797,0.5487248923793435,0.39893677423298357
1772790691380151800,6.55915185546875,-9.676647071036696,0.5658225960440934,0.8515376263752579
1772790691390216700,6.569216796875,-8.74213977729082,0.6994736722514033,1.5652046591520308
1772790691400281900,6.57928173828125,-8.292883267140388,0.511199683040008,1.961447371995449
1772790691410346800,6.5893466796875,-7.6523776244252915,0.43317587457373735,1.9991700766682623
1772790691420412000,6.599411865234375,-6.393142701995372,0.45064606481269,1.8196870774820446
1772790691430477800,6.609477783203125,-4.746816341426968,0.434981389625743,1.4422832128822802
1772790691440542700,6.619542724609375,-3.1273861710906026,0.47881242111101746,0.9345707143709063
1772790691450608000,6.629608154296875,-1.4524766901165247,0.588969955136627,0.38885260259211063
1772790691460673000,6.639673095703125,0.11287409950792789,0.687423972691223,-0.21542525018304584
1772790691470739200,6.6497392578125,1.617871834978461,0.7053031090572476,-0.7996671538844704
1772790691480803800,6.659803955078125,2.975242137467861,0.6869213569313287,-1.2189832838013768
1772790691490869000,6.669868896484375,3.9658740540176627,0.6737454298201948,-1.5462264024376868
1772790691500934100,6.67993408203125,4.657551081043482,0.6358387468826026,-1.7649328662484882
1772790691510999000,6.6899990234375,5.225179119074344,0.6699345662951469,-1.965071115450561
1772790691521065000,6.70006494140625,5.756793009915947,0.6831669728338718,-2.200108244076371
1772790691531130000,6.710130126953125,6.4416889984995125,0.6080185736734419,-2.4815759922266003
1772790691541195300,6.7201953125,7.115117252129316,0.4676307365570217,-2.8202532358080146
1772790691551260000,6.730260009765625,7.526862070009112,0.465282127604261,-2.8109941168144346
1772790691561326000,6.740326171875,7.454943665745854,0.36306700395047664,-2.8434727833539246
1772790691571391200,6.75039111328125,7.49284757220447,0.1738305263824761,-2.8509590474560853
1772790691581456000,6.760455810546875,7.869864191052317,0.16749861994720994,-2.438827276085317
1772790691591521000,6.77052099609375,8.128336848062276,0.4077948746776208,-2.1882032867491246
1772790691601587000,6.7805869140625,8.066274651902914,0.5378301350079476,-2.0619863060653207
1772790691611652000,6.790652099609375,7.527509720262884,0.4805687267264351,-1.9109733222991228
1772790691621717000,6.800717041015625,6.839466665825247,0.4543318041207269,-1.758494503764063
1772790691631782100,6.8107822265625,6.107601420795917,0.3640512657474726,-1.4719874462723732
1772790691641847000,6.820846923828125,5.788631917247176,0.3747277041930705,-1.1357231090515851
1772790691651913200,6.830913330078125,5.164907897984981,0.4715178436560556,-0.8204127125322819
1772790691661978000,6.84097802734375,4.931270991545915,0.5930665402678772,-0.7473379778407514
1772790691672043000,6.85104296875,4.980074477681518,0.7497385361764579,-0.29038126857653257
1772790691682108200,6.861108154296875,3.385701591712236,0.5315089691624045,-0.19880875416398047
1772790691692174000,6.871174072265625,1.6741823357433079,0.06382741573359817,-0.3471516419380903
1772790691702239000,6.881239013671875,0.3731494220256805,-0.35274299567174167,0.05221373297050595
1772790691712304000,6.89130419921875,-0.5087748670458794,-0.49145847912915047,1.0008661641858518
1772790691722369000,6.901369140625,-1.7561954330414533,-0.6878145063787698,2.4009848905555904
1772790691732434000,6.911433837890625,-3.670450845751166,-1.108617075461149,3.890717398485541
1772790691742500000,6.9215,-5.565137634637951,-1.4345292377546428,5.1793210387408735
1772790691752565200,6.931565185546875,-6.877019274628162,-1.3902734780512749,6.213050338739157
1772790691762630000,6.9416298828125,-8.278964047381281,-0.948376975274831,6.683871030443906
1772790691772695000,6.951695068359375,-9.739272746297717,-0.44152982488851994,6.631358168396353
1772790691782760200,6.96176025390625,-11.05482167662382,0.2416055472306907,6.320752588567137
1772790691792826000,6.971826171875,-12.075661099910736,0.8758435078531503,5.943890868020057
1772790691802891000,6.98189111328125,-12.602481326735019,1.372834413602948,5.440150488010048
1772790691812956200,6.9919560546875,-12.914052536725997,1.7753494847141205,4.813941373933852
1772790691823021000,7.00202099609375,-12.050208678746223,1.6776244390211998,4.208302169677615
1772790691833087000,7.0120869140625,-13.015215740174055,2.0312810789391396,3.6814474560618398
1772790691843152100,7.022152099609375,-12.502678890246152,1.9691938944689928,3.353282838666439
1772790691853217000,7.032217041015625,-10.640295119071006,0.84196396153979,2.883815607397258
1772790691863282000,7.042281982421875,-10.167651888114213,0.2974732726640999,2.8308015178292987
1772790691873347000,7.05234716796875,-9.084808720856904,-0.1556949310373515,2.9466227767050266
1772790691883413000,7.0624130859375,-7.744366172292828,-0.6587645721789449,2.887678420305252
1772790691893478100,7.07247802734375,-6.461225473618507,-0.9094906336501241,2.6367349897563455
1772790691903543000,7.08254296875,-4.933012866777181,-0.94830179114677,2.2665273202709852
1772790691913608200,7.092608154296875,-3.4386130976885556,-1.0272478290244937,1.837704818601161
1772790691923674000,7.102674072265625,-2.136935456326604,-1.2420492482207715,1.4584449508711694
1772790691933739000,7.112739013671875,-0.9727303491562604,-1.4890554854512215,1.2305600320875645
1772790691943804000,7.122803955078125,-0.1302759006857872,-1.7131518256068228,0.9133879333496093
1772790691953869000,7.132869140625,0.5766682535767554,-1.9626377508237958,0.4144669363200664
1772790691963934000,7.142933837890625,1.4388643443495035,-2.1653202776812015,-0.17398820116221902
1772790691973999900,7.152999755859375,2.2758266251444814,-2.26899867882058,-0.6950085095360875
1772790691984065000,7.16306494140625,3.119641840574145,-2.166557272130251,-1.060847024026513
1772790691994130200,7.173130126953125,3.6322722140043973,-2.075625978230685,-2.1249673706352707
1772790692004195000,7.183195068359375,4.264527330246567,-2.0289017825871705,-2.636103706115484
1772790692014261000,7.193260986328125,4.97300117829442,-1.8159953833572566,-2.961932281778753
1772790692024326100,7.203326171875,5.459148033946752,-1.6406296102315185,-3.4383427563145754
1772790692034391000,7.21339111328125,5.920354509609937,-1.6608523140490055,-3.944634866634011
1772790692044456000,7.2234560546875,6.325674262878298,-1.6434800312265754,-4.2942397469431155
1772790692054522000,7.233522216796875,6.755110804793238,-1.5347650972247122,-4.5083322872176765
1772790692064587000,7.2435869140625,6.63789136955738,-1.224784663556516,-4.615305930510163
1772790692074652000,7.25365185546875,6.920219533929228,-1.2626421005249022,-4.749074934008717
1772790692084717000,7.263717041015625,7.3477476118743414,-1.2881741627968848,-4.908411509484052
1772790692094782200,7.2737822265625,7.655161702185869,-1.0860055037457494,-4.930449153769016
1772790692104848100,7.28384814453125,7.857564681449532,-0.8399634353723376,-4.841361588039994
1772790692114913000,7.2939130859375,7.595597168061137,-0.6867809255473315,-4.697513673597574
1772790692124978200,7.303978271484375,6.886366364166141,-0.559934597451426,-4.637677629055083
1772790692135043000,7.31404296875,6.2907181003093715,-0.30693909321092067,-4.571007354578375
1772790692145109200,7.324109130859375,5.799474213778972,-0.15492275935476646,-4.424309019140899
1772790692155174100,7.334174072265625,5.055308874624967,-0.12768208480030296,-4.08640509801954
1772790692165239000,7.344239013671875,4.138117457339168,-0.05299472728036344,-3.6094855049178003
1772790692175304200,7.35430419921875,3.280103036165237,0.10944905696269124,-3.199029557804763
1772790692185369000,7.364369140625,2.400788637331128,0.2334254556454718,-2.730374227440357
1772790692195435000,7.37443505859375,1.2709224376142023,0.275376956994459,-2.2322399968743323
1772790692205500200,7.384500244140625,-0.46572716795802116,0.26610439399741587,-1.3952934981703757
1772790692215565000,7.39456494140625,-1.9539841965079305,0.6017294104013592,-0.5597942756652832
1772790692225630000,7.4046298828125,-3.075199472257495,1.136378796481341,-0.05946574992537498
1772790692235696000,7.414696044921875,-4.562304992684722,1.6353402716517447,0.19739888736605643
1772790692245761300,7.42476123046875,-6.3638827052414415,1.8185007903069257,0.5588835905611514
1772790692255826000,7.434825927734375,-7.932599756428599,1.9476763285353778,1.0309516519784927
1772790692265891000,7.44489111328125,-8.56697727165222,2.1385909684486686,1.2119336575508117
1772790692275956200,7.454956298828125,-8.51304402141273,2.219480176283419,0.9857757086902856
1772790692286022000,7.46502197265625,-8.380554536330699,2.1818444192416964,0.8345216096445918
1772790692296087000,7.475087158203125,-8.012069014462828,2.0270948792956767,1.0119070520296691
1772790692306152200,7.485152099609375,-7.443340321713686,1.641650039320439,1.3988462222158908
1772790692316216800,7.495216796875,-6.705244073340296,1.0511470293976366,1.8454893349975345
1772790692326283000,7.505282958984375,-5.862024485716224,0.6130128017641604,2.140829248894751
1772790692336348200,7.51534814453125,-4.974944129055738,0.3406209249950945,2.174233213585615
1772790692346413000,7.5254130859375,-3.8140146825551984,0.011521145641431212,1.9367457691982388
1772790692356478000,7.53547802734375,-2.4054613053172824,-0.3546604831982404,1.4434545947492121
1772790692366543000,7.545543212890625,-0.8817612074643373,-0.624256518703699,0.9059306030809878
1772790692376609000,7.555609130859375,0.31459435720443724,-0.8461784374296665,0.5221317767471074
1772790692386674200,7.565674072265625,1.495440218052268,-1.0861535339143127,0.19522738854587077
1772790692396739000,7.575739013671875,2.67509073163569,-0.922163360479474,-0.3712865507632494
1772790692406804000,7.585803955078125,3.4982729088813063,-0.5864708317972719,-1.0366308666586874
1772790692416870100,7.5958701171875,4.043159538272023,-0.41484851951617746,-1.5769740074008702
1772790692426935000,7.60593505859375,4.258785571724176,-0.23915450081676243,-1.8567571634650228
1772790692437000000,7.616,4.277310823974013,-0.1925322129114531,-1.7701923942118882
1772790692447065000,7.626065185546875,4.225960575965047,-0.3455493943732232,-1.2865659969478844
1772790692457126700,7.636126708984375,4.191741495499015,-0.5053179680576547,-0.9944374463126062
1772790692467192600,7.646192626953125,4.078935200530291,-0.4413785798495635,-0.8628086697131395
1772790692477257500,7.656257568359375,4.049448993805051,-0.100574662970379,-0.8315357257016003
1772790692487322600,7.666322509765625,4.22877037268877,0.16740140665043143,-1.0058819465212523
1772790692497387500,7.676387451171875,4.4891883185476065,0.2772392072023824,-1.125685699161887
1772790692507453700,7.68645361328125,4.744983280780911,0.22111436520274727,-1.0395229348383843
1772790692517518600,7.6965185546875,5.0394823599398135,-0.03623579058330506,-0.7027532784439623
1772790692527583500,7.70658349609375,5.295573674771189,-0.3169350385790691,-0.3625432723373174
1772790692537648600,7.716648681640625,5.3595080945432185,-0.632505949198082,-0.09867284793704748
1772790692547713500,7.726713623046875,5.287344775608181,-0.8818076038893312,0.2173731693804264
1772790692557779500,7.736779541015625,5.148488678103685,-1.1325540505614131,0.499934411855787
1772790692567844600,7.7468447265625,4.92549883788526,-1.4388982466191051,0.7598555141083896
1772790692577909800,7.75690966796875,4.755332825359702,-1.6976793850563465,0.987633465386182
1772790692587974700,7.766974609375,4.33052511228919,-1.7249989152669905,1.077121720870584
1772790692598040600,7.77704052734375,3.7061370761603114,-1.5729323307946323,1.0691178626351059
1772790692608105700,7.787105712890625,2.9792987193822857,-1.2979463458791374,1.06539854985103
1772790692618170600,7.797170654296875,1.7723340824157,-1.0115203177344054,1.2793198252119122
1772790692628235500,7.807235595703125,0.07878770551085472,-1.0035340682208538,1.795616758325696
1772790692638300700,7.81730078125,-1.855261371949315,-1.2049627225596458,2.526046417593956
1772790692648366600,7.82736669921875,-3.566971182054281,-1.4648451733022927,3.251455033829808
1772790692658431500,7.837431396484375,-4.908084761747718,-1.4830473310776053,3.523150745028257
1772790692668496600,7.84749658203125,-6.191051272898912,-1.2921559259094297,3.57811655318588
1772790692678561800,7.857561767578125,-7.608182508867978,-1.0194664544332772,4.035354417479038
1772790692688627700,7.867627685546875,-9.009349282985925,-0.8443407006084919,4.6602755375713105
1772790692698692600,7.877692626953125,-10.108861845493315,-0.819913019381836,5.017960848483443
1772790692708757800,7.8877578125,-11.170477515804768,-0.5393362652545795,4.8446623831510545
1772790692718822700,7.89782275390625,-12.232427532637118,-0.10822254737503827,4.346124247959256
1772790692728887600,7.907887451171875,-12.70645374238491,0.3107233609899878,3.6699130856126545
1772790692738953500,7.917953369140625,-12.880331468909977,0.7243306848060339,3.0107445357427
1772790692749018600,7.9280185546875,-12.87117084185481,1.0438352450795472,2.570931561242044
1772790692759083500,7.93808349609375,-12.91889471606016,1.1979532091237604,2.2593023374535144
1772790692769148700,7.948148681640625,-12.547878798931837,1.0991649181135,1.8259322554819284
1772790692779214600,7.958214599609375,-11.905699670046568,1.0714257011860608,1.2973298214159905
1772790692789279700,7.96827978515625,-10.605120929837227,1.1500262135617434,0.9086673345685005
1772790692799344600,7.9783447265625,-8.89361511787176,1.1525031250692903,0.4665365846447646
1772790692809409500,7.988409423828125,-7.027910093319416,1.1249652759328483,-0.019380553904920814
1772790692819474700,7.998474609375,-4.970817989036441,1.1558182409666478,-0.28070041703954335
1772790692829539600,8.00853955078125,-2.902762592190504,1.2369627387367188,-0.3579749415084719
1772790692839605500,8.01860546875,-1.0227531479537486,1.3120486671201883,-0.4175196018889546
1772790692849670700,8.028670654296874,0.6704740799993276,1.5400341236688195,-0.6227377847038209
1772790692859735600,8.038735595703125,2.333635255512595,1.797738865046203,-0.9159589528813957
1772790692869800400,8.048800537109376,3.768257724508643,1.8820641848094761,-1.192133124668151
1772790692879866600,8.05886669921875,4.920394792744517,1.9366021229438481,-1.5338723861686885
1772790692889931800,8.068931884765625,6.025135903555155,1.9429354176186024,-1.9507890537284314
1772790692899996400,8.078996337890626,6.863704450502992,1.9125372106149792,-2.2151723960869014
1772790692910061600,8.0890615234375,7.748038138803839,1.6855799280703068,-2.331101499251276
1772790692920127700,8.099127685546875,8.536677994978428,1.4324487782187758,-2.404991788109392
1772790692930192600,8.109192626953124,8.931248975217342,1.3352698221012949,-2.3377488283112644
1772790692940257500,8.119257568359375,9.15035349843502,1.2389295087650418,-2.2195406742990014
1772790692950322700,8.12932275390625,9.315284532916545,0.9411381831277161,-2.0459623691119253
1772790692960387600,8.1393876953125,9.592567104336618,0.469079839386791,-1.6592900331683456
1772790692970453500,8.14945361328125,9.681472883757948,0.6275500803563744,-1.5759887957558034
1772790692980518700,8.1595185546875,9.734451025229692,0.40805991882197556,-1.2292549408383666
1772790692990583600,8.16958349609375,9.152031076258421,-0.08531864164955913,-1.531834450600296
1772790693000648400,8.1796484375,9.078018914586305,-0.40035007509700954,-1.677841735033691
1772790693010714600,8.189714599609376,9.309076910448074,-0.27507863163501023,-1.8873630218699573
1772790693020779500,8.199779541015625,9.122897920754552,-0.12777984608635307,-1.7138022523395715
1772790693030844700,8.2098447265625,8.498629127091169,0.061924248993396755,-1.5695279291786253
1772790693040909600,8.21990966796875,7.584575423309206,0.34354821061864493,-1.5829795314259827
1772790693050974700,8.229974609375,6.22993892969787,0.7126248302474617,-1.8190218915715812
1772790693061040600,8.24004052734375,5.653825387394428,0.2878302689194679,-1.677909393442422
1772790693071105800,8.250105712890624,5.208391650402546,0.008937339693307875,-1.2755069889254866
1772790693081170400,8.26017041015625,3.979104122468829,-0.05382262947186827,-1.0334374774448574
1772790693091235600,8.270235595703125,2.8636171612381935,-0.2813359384641051,-0.6532134408578276
1772790693101301800,8.2803017578125,1.2957231168717145,-0.11382073270827531,-0.575192043544352
1772790693111366400,8.290366455078125,-0.4711480239629745,0.1817380846366286,-0.9120778736643492
1772790693121431600,8.300431640625,-2.579735922205448,0.4498664587423205,-1.2201393219687044
1772790693131496700,8.31049658203125,-4.56542283244431,0.4053942798092961,-1.3119814471028743
1772790693141561600,8.3205615234375,-5.769278397479653,0.3126565210096538,-1.239604339286685
1772790693151627500,8.33062744140625,-6.293579334959388,0.6460818354122341,-1.1312355883739889
1772790693161692700,8.340692626953125,-6.77028908470273,1.0576417982444166,-1.1691074191939086
1772790693171757800,8.3507578125,-6.992830596631765,1.1668471461117267,-1.3403538473673164
1772790693181822500,8.360822509765624,-7.224453825160861,0.8942483485937118,-1.56641871111691
1772790693191888600,8.370888671875,-8.19164524489045,0.12208075766190886,-1.7287534454949198
1772790693201953500,8.38095361328125,-8.53409849987924,-0.45666357153654097,-1.3314958565205335
1772790693212018400,8.391018310546874,-8.204731520956754,-0.4525760099619627,-0.6787080937288701
1772790693222083600,8.40108349609375,-8.009159264495969,-0.6936892436310649,-0.5496907417368143
1772790693232148700,8.411148681640626,-7.427420868048071,-0.9577287409879267,-0.6660586016446352
1772790693242214700,8.421214599609375,-6.673685736516117,-1.0866809918545186,-0.6139347389146685
1772790693252279600,8.431279541015625,-6.029295945844054,-1.2202381061680614,-0.46791163585763423
1772790693262344700,8.4413447265625,-5.7107975669384,-1.1771887996450066,-0.23948309345031155
1772790693272409600,8.45140966796875,-5.745793476995825,-1.0038406499519943,0.160575524419453
1772790693282475800,8.461475830078125,-4.742956743389367,-0.9252677562355994,0.16336710963305084
1772790693292540700,8.471540771484374,-3.882826352974772,-0.8087561770081519,0.12724720051437616
1772790693302605600,8.48160546875,-3.1942730109274384,-0.5396782470926642,0.10676409219503402
1772790693312670700,8.491670654296875,-1.5695996792405842,0.09902429172322154,0.6556124648235738
1772790693322735600,8.501735595703124,-1.3893115011513233,0.19974223562180995,0.5623700809700414
1772790693332801500,8.511801513671875,-1.2621955258011817,-0.21993059877827761,0.20482288162065668
1772790693342866700,8.52186669921875,0.2540899118810892,-1.1171234763912856,0.3756999832913279
1772790693352931600,8.531931640625,1.0973831492632626,-0.852686211888492,0.008236086955619976
1772790693362996500,8.54199658203125,-0.2748778483659029,-0.7049146942615508,-0.3989234763599932
1772790693373062700,8.552062744140626,-0.815214559367299,-0.5805649687543512,-0.3836499193824827
1772790693383127800,8.5621279296875,0.030961539974808692,-0.4718085336983204,-0.33946857662219554
1772790693393192400,8.5721923828125,1.9298112937599419,-0.5316160097334534,0.10670814249040558
1772790693403257600,8.582257568359376,3.1497289358019827,-0.4694958363091573,0.07980552251758054
1772790693413322800,8.59232275390625,3.6135242589145897,-0.3499564702257514,-0.15550824935883284
1772790693423388700,8.602388671875,3.722072311916947,-0.36534276686273515,-0.20810354725914074
1772790693433453600,8.61245361328125,3.4851825411617754,-0.5918593199025839,-0.1453771972357761
1772790693443518700,8.622518798828125,3.1583009493142367,-1.2402796081997454,-0.027167700649797916
1772790693453587000,8.6325869140625,3.3543484220713373,-1.1913348138973117,0.5272929589025676
1772790693463652000,8.642652099609375,3.8656437475055454,-0.3237962661180645,0.45886093545034523
1772790693473717000,8.652717041015626,3.9030817900180814,-0.16814254387393593,-0.011347871433757244
1772790693483782100,8.6627822265625,4.147743363818526,-0.30956827267073095,0.12553108077887445
1772790693493848000,8.67284814453125,4.356634536057711,-0.30194793386012314,0.40604974804334343
1772790693503913200,8.682913330078126,4.4149908634364605,-0.22319095228109506,0.3411906146418303
1772790693513978000,8.69297802734375,4.322426561507583,-0.08806381217185408,-0.10570256391074508
1772790693524043000,8.70304296875,4.187847995191812,0.1297986385628581,-0.4290478348582983
1772790693534108200,8.713108154296876,4.247936845451593,0.15099552117474377,-0.33520427024122323
1772790693544174000,8.723174072265625,4.057023812973499,0.21670264970771966,-0.41321879942249506
1772790693554239000,8.733239013671875,3.7226778765946626,0.2878168979812413,-0.5574257199030369
1772790693564304100,8.74330419921875,3.414065516409278,0.4091092817444354,-0.6160377756085247
1772790693574369000,8.753369140625,2.95038417506516,0.575332036536932,-0.6630795858338475
1772790693584435000,8.76343505859375,1.6103770953088998,0.7830188014224171,-1.0169079290568828
1772790693594500000,8.7735,0.6959633260428905,0.771473763448745,-1.638595035663992
1772790693604565200,8.783565185546875,0.24199323137402534,0.40750820322334763,-1.3314334588088095
1772790693614630000,8.7936298828125,-0.35667525708675385,0.35704262909442186,-0.16506516398889942
1772790693624695000,8.803695068359374,-1.3702321221500635,-0.1488170811571181,0.43398222252056
1772790693634761200,8.81376123046875,-2.3617893368512393,-0.8367911620117724,0.4983418819673359
1772790693644826000,8.823826171875,-3.4937796891152857,-0.9730525668479502,0.5912526227137074
1772790693654891000,8.83389111328125,-4.329460697928071,-0.5151698287799954,0.5242039068460465
1772790693664956200,8.8439560546875,-4.695494734990596,0.16828399817124007,0.04336835044354666
1772790693675022000,8.85402197265625,-4.933427292796969,0.8690968100719153,-0.30294505513869224
1772790693685087000,8.8640869140625,-5.366988805687427,1.2041370123252273,-0.27603932989332824
1772790693695152000,8.874152099609375,-5.8862821441382165,0.7957306912183761,-0.10461106974645518
1772790693705217000,8.884217041015624,-6.2655526793926954,0.04143164219334721,0.028805375721072776
1772790693715282000,8.894281982421875,-6.395826826512813,-0.4783047638498246,0.37066670183185485
1772790693725348000,8.90434814453125,-6.170293731552362,-0.7152033024333417,0.6732398914508522
1772790693735413000,8.9144130859375,-5.7663610487282275,-0.8312713756769895,0.9405987424887716
1772790693745478100,8.92447802734375,-5.30114884455502,-1.041973396730423,1.2384979854799807
1772790693755543000,8.93454296875,-4.993293440216779,-1.244285190579295,1.418354494153708
1772790693765609000,8.94460888671875,-4.603201066696643,-1.3546550521813332,1.36406541621387
1772790693775674000,8.954674072265625,-3.9996687715917822,-1.2769586490385234,1.1931838027648627
1772790693785739000,8.964739013671876,-3.5015392172008752,-1.1692549379058181,1.0761706306908279
1772790693795804000,8.974803955078125,-2.9286703559070824,-1.0689119647994636,1.1161408220294862
1772790693805869000,8.984869140625,-2.2575012793809175,-0.899687470907718,1.241929859624803
1772790693815935200,8.994935302734374,-1.4812614705741405,-0.7330190912395715,1.1539490860939026
1772790693826000000,9.004999755859375,-0.6575158142268658,-0.6505828000932932,0.81849971851781
1772790693836065000,9.01506494140625,0.3481418220192194,-0.5003082136042416,0.5440008595321327
1772790693846130200,9.025130126953124,1.3484125045299529,-0.19792437254488468,0.4385858438584953
1772790693856196000,9.035196044921875,2.400141571599245,0.16374460117593406,0.4837167058959603
1772790693866261000,9.045260986328126,2.976085018032789,-0.05462064798176288,0.259799941824656
1772790693876326100,9.055326171875,2.9248873302370306,0.3665954703375697,-0.007434533914923667
1772790693886391000,9.06539111328125,3.7512738564819097,0.7901447077795862,-0.053547739786934105
1772790693896456000,9.0754560546875,4.416068721801042,1.0148920591898263,-0.2490158600198105
1772790693906522000,9.085522216796875,4.687236025211215,1.1110979324914514,-0.2677418042072095
1772790693916587000,9.0955869140625,4.72236169912815,1.0223919134259223,-0.28391209082873536
1772790693926652000,9.10565185546875,4.730077972593903,0.9675807113081216,-0.35692291170489043
1772790693936717000,9.115717041015625,5.055523978680372,1.208241378904134,-0.3752636377006769
1772790693946783000,9.125782958984376,5.8268029502093786,1.509683262938261,-0.4952963767915964
1772790693956848000,9.13584814453125,6.336964303177595,1.7880878241255878,-0.43272213945686816
1772790693966913000,9.1459130859375,6.3681894625246525,1.8110462365172801,-0.2161874849935062
1772790693976978200,9.155978271484376,6.0473868983298535,1.5513364389277993,-0.06134345343075692
1772790693987043000,9.16604296875,5.702961466485261,1.0519530850835144,-0.1685970644420944
1772790693997109200,9.176109130859375,5.5630538141012185,0.8463793668292462,-0.27882417483888566
1772790694007174000,9.186173828125,5.649827257668972,0.781890674175322,-0.16243066903315484
1772790694017239000,9.196239013671875,5.579868755301833,0.5904767064377665,0.1203521803036332
1772790694027304200,9.20630419921875,5.291124294146895,0.3862291222207248,0.3393506127983332
1772790694037369900,9.216369873046874,4.377639330163598,0.22670929913297294,0.29918774843178686
1772790694047435000,9.22643505859375,2.7448347144693135,-0.12253916895389556,0.051104602684825653
1772790694057500200,9.236500244140625,1.0153320580422878,-0.4380550249174237,0.029982392744347452
1772790694067565000,9.24656494140625,-0.36094869662225243,-0.19745587825030086,0.24503588700555262
1772790694077630000,9.2566298828125,-1.342408880200982,-0.014184884957969188,-0.1930740099042654
1772790694087696100,9.266696044921876,-2.224202236369252,-0.2938116814166307,-0.43201329706776886
1772790694097761300,9.27676123046875,-3.360240987241268,-0.6072711893722414,-0.4876518899204209
1772790694107826000,9.286825927734375,-4.488599705004692,-0.7212129181116819,-0.585337224657461
1772790694117891000,9.29689111328125,-5.266595417568087,-0.6481149486750364,-0.6795856072157621
1772790694127956200,9.306956298828124,-5.973133329117298,-0.5262707762479781,-0.48545869072508063
1772790694138022000,9.31702197265625,-6.513486406731605,-0.5743325041055679,-0.23665366044435648
1772790694148087000,9.327087158203126,-6.88901483284831,-0.6596897972650826,-0.07648173012342303
1772790694158152200,9.337152099609375,-7.3515131018877025,-0.7231311728231609,0.1314485977269709
1772790694168217000,9.347217041015625,-7.526313788476586,-0.6606643413856625,0.18273966289460658
1772790694178283000,9.357282958984374,-7.466338335463404,-0.500747481804341,-0.05837784509081393
1772790694188348200,9.36734814453125,-7.159528056263923,-0.3043118865124881,-0.3651792468640953
1772790694198413000,9.3774130859375,-6.5359098354637615,0.17988251989781856,-0.34624398904126136
1772790694208478000,9.38747802734375,-6.276472132813931,-1.2253484349191188,-0.5226834192804992
1772790694218544000,9.397544189453125,-5.761075217279791,-1.194120352962613,0.3120100032670423
1772790694228609000,9.407609130859376,-5.096294965007901,-1.4441159812673925,0.00883468303643167
1772790694238674200,9.417674072265624,-3.853451205408573,-1.7091152635671198,0.10549270228603855
1772790694248739000,9.427739013671875,-3.348989525386691,-2.0786375811368227,-0.03654814446810633
1772790694258804000,9.437803955078126,-2.3476813165217636,-2.2529151206344364,0.1337551393699832
1772790694268870100,9.4478701171875,-1.3848761490523815,-2.013976308394968,0.24289262789916247
1772790694278935000,9.45793505859375,-0.716363724514842,-1.8609172057539223,0.1903013303205371
1772790694289000000,9.468,-0.12017828504145145,-1.606593631247431,0.21927739556655287
1772790694299065000,9.478065185546875,0.6112690268367529,-1.1599167623266577,0.19914500038102267
1772790694309131300,9.48813134765625,1.4541864166438578,-0.6950332055859267,0.14797473031515254
1772790694319196000,9.49819580078125,2.352214283776283,-0.4265447659961879,0.11829290968626736
1772790694329261000,9.508260986328125,3.0335294912636277,-0.30226182211488484,0.2082541164446622
1772790694339326200,9.518326171875,3.447084573435783,-0.17547829358950257,0.23728688031397757
1772790694349391000,9.52839111328125,3.732773738673329,-0.13385098269358275,0.11111059696674347
1772790694359457000,9.53845703125,4.251022536507248,-0.012064677933603524,-0.0849316150933504
1772790694369522200,9.548522216796876,5.069183086198568,0.20805267558842896,-0.21315125910276544
1772790694379587000,9.558587158203125,5.826515949961543,0.4160289249397814,-0.12526400907421484
1772790694389652000,9.56865185546875,6.3744993763238185,0.566335075610876,0.07190890578255058
1772790694399718100,9.57871826171875,6.814663063958287,0.6387535383507609,0.055509669243358074
1772790694409783000,9.588782958984375,7.035183883714676,0.706124946834147,0.04236388154216111
1772790694419848000,9.598847900390625,7.086411966648697,0.7560878321379423,0.21529588818233458
1772790694429913000,9.6089130859375,6.8354574301838875,0.8684880305238067,0.29793106290157884
1772790694439978200,9.618978271484375,6.307563436648249,0.9156656690232455,0.2862001104343682
1772790694450041000,9.629041015625,5.785120694255829,0.9467411907665431,0.15021587857175617
1772790694460106200,9.639106201171876,5.516440531486272,1.027901616758108,-0.015956643870845437
1772790694470171000,9.6491708984375,5.175813907402754,0.9237295868828892,-0.0937846740366891
1772790694480236000,9.659236083984375,4.497603680193424,0.6930079833686351,-0.18467724336106328
1772790694490302200,9.66930224609375,4.046329985001683,0.766068981795758,-0.052025151595845816
1772790694500367000,9.6793671875,3.7759833503246307,0.7632968867339194,-0.020206118008866906
1772790694510432000,9.689431884765625,3.145135178270936,0.7347425540313124,0.12154993872083723
1772790694520497200,9.6994970703125,1.6053268261820077,0.7616784917518497,0.40711284723021085
1772790694530562000,9.70956201171875,-0.0011328034222126005,0.5961626431196928,0.42351190110631287
1772790694540628000,9.7196279296875,-0.6679647275269032,0.3629641280978918,0.256352596116066
1772790694550693000,9.729693115234374,-0.8688806831032038,0.25514409710913893,0.23854214107207952
1772790694560758000,9.739758056640625,-1.5290899741977453,0.3496311837941408,0.24213651230223476
1772790694570823000,9.749822998046875,-2.7914918362259864,0.6495476118266582,0.1895176325969398
1772790694580888000,9.75988818359375,-4.2913159684509035,0.7551230787590145,0.05480477237701416
1772790694590954000,9.7699541015625,-5.178758144161105,0.5727633550927043,0.016159491232875734
1772790694601019100,9.78001904296875,-5.987365852609276,0.32233021215349433,0.17114369845129548
1772790694611084000,9.790083984375,-7.102503854271769,0.037753976593911644,0.36900110670719294
1772790694621149200,9.800149169921875,-7.732614359700679,-0.20530103879272937,0.43350799260493367
1772790694631215000,9.810215087890626,-7.617975588607788,-0.3464414478421211,0.39031043671760707
1772790694641280300,9.8202802734375,-7.528921925148367,-0.5243783866301178,0.4147201804287731
1772790694651345000,9.830344970703125,-7.668143348833918,-0.8246063648298382,0.5907713785354047
1772790694661410000,9.84041015625,-7.5258894255846736,-1.1669088131710885,0.7248580696810036
1772790694671475200,9.85047509765625,-7.2696204160988325,-1.4227800555109977,0.8575074214998633
1772790694681540900,9.860540771484375,-6.895389044055342,-1.4577204359889029,0.8304037990622222
1772790694691606000,9.87060595703125,-6.396054205527902,-1.3365090085074305,0.7054642179030924
1772790694701671200,9.880671142578125,-5.881029045915604,-1.209363222540915,0.6039072658970952
1772790694711736000,9.890736083984375,-5.265277320706844,-1.1572104259774088,0.39308355469275263
1772790694721802000,9.900802001953124,-4.5656753459006545,-1.109656355381012,0.16563552948907018
1772790694731867100,9.9108671875,-3.8602094474971294,-0.9544625787988305,0.008131315973470919
1772790694741932000,9.92093212890625,-3.1146546998113394,-0.7588105351001024,0.005415070151560939
1772790694751997000,9.930996826171874,-2.414064883011579,-0.5390419950157403,0.03851291433558799
1772790694762062000,9.94106201171875,-1.716060991051793,-0.32003157982230185,0.030396021896402815
1772790694772128000,9.9511279296875,-0.9263345086842775,-0.09609159927219152,0.01737524767271825
1772790694782193000,9.96119287109375,-0.093254037758708,0.10861351945400237,0.05398258754024282
1772790694792258000,9.971258056640625,0.6503565901219844,0.37439123878031966,0.14289887922243213
1772790694802323200,9.9813232421875,1.2861217603117228,0.6493266625523567,0.09934386080009862
1772790694812389000,9.99138916015625,1.9662194087028502,0.8976505582526325,0.02288226471582893
1772790694822454000,10.0014541015625,2.620225753504038,1.0697867018073797,-0.0028731762495590374
1772790694832519200,10.011519287109374,3.2304356266766785,1.1568573747560382,-0.046390643707057456
1772790694842584000,10.021583984375,3.9009535458177327,1.2903475613132118,-0.1279912055484019
1772790694852649000,10.03164892578125,4.543537163850665,1.388597507663071,-0.2609674877666868
1772790694862715000,10.04171484375,5.106533450427651,1.5417656236365436,-0.3234174228683114
1772790694872780000,10.051780029296875,5.640267986685037,1.5753142574951051,-0.40593189381733535
1772790694882845200,10.06184521484375,5.986589607539773,1.5839277720615266,-0.5413609394825994
1772790694892910000,10.07191015625,6.190926769736409,1.6241083912804721,-0.7511224648155271
1772790694902976000,10.08197607421875,6.323837695100903,1.6262807668834924,-0.8787605643436313
1772790694913041200,10.092041259765624,6.423544854521751,1.5964067298844455,-0.9050736939907074
1772790694923106000,10.10210595703125,6.479051637688279,1.604610202345252,-0.9520061255574226
1772790694933171000,10.1121708984375,6.666811759093403,1.7021403099879622,-1.0257090020846575
1772790694943236000,10.122236083984374,6.859035289648175,1.6852070031046866,-1.1478358639106154
1772790694953302300,10.13230224609375,6.568106470191478,1.2902145825833082,-1.079324126285687
1772790694963367000,10.142366943359375,5.8951528483361,0.804285753595829,-0.8155781319826841
1772790694973432000,10.15243212890625,5.164576474073529,0.5764718542218208,-0.6549761396814138
1772790694983497200,10.162497314453125,4.202614771690964,0.612391601125896,-0.45688426508251573
1772790694993561900,10.172561767578125,3.178307964554429,-0.15555910276323556,-0.748526237777248
1772790695003628000,10.1826279296875,1.5290537338405847,0.10348755474239588,-1.1403139439731835
1772790695013693200,10.192693115234375,-0.08130407224595547,0.397095238019526,-1.031567299658805
1772790695023758000,10.202758056640626,-1.5006588294833898,0.01864244888871908,-0.9984875984862446
1772790695033823000,10.212822998046875,-2.8670278464645147,0.16496932066529987,-1.0649161731615662
1772790695043889200,10.22288916015625,-3.910346812584996,0.26317250526398417,-1.2509789891295133
1772790695053954000,10.2329541015625,-4.793306289923191,0.18964169736802577,-1.4193804762005806
1772790695064019000,10.24301904296875,-5.338554738363623,0.17382745764255522,-1.517997210036218
1772790695074084000,10.253083984375,-5.70162232683599,-0.06772972040176391,-1.5723036775022745
1772790695084150000,10.26314990234375,-5.732470469564199,-0.46842356743514535,-1.2542610795401037
1772790695094215200,10.273215087890625,-5.583354843851923,-0.9753417006984353,-0.8311549096904695
1772790695104280000,10.283280029296876,-5.372441225874423,-1.4536521636366844,-0.3704313221734017
1772790695114345000,10.293344970703124,-5.2711961893618104,-1.9911144882455467,0.13146459901370108
1772790695124410000,10.30341015625,-5.336936197251081,-2.403287468409538,0.3680253570102155
1772790695134476000,10.31347607421875,-5.134277197399735,-2.3943103812277315,0.4711581069655716
1772790695144541000,10.323541015625,-4.431582517275214,-2.219070134177804,0.3621447014737874
1772790695154606000,10.333606201171875,-3.9581086807131767,-2.2445465207397937,0.23487675043232736
1772790695164671000,10.3436708984375,-4.298881435269117,-2.265178974401951,0.2097325914993882
1772790695174736100,10.353736083984375,-4.7023406553626055,-2.3417454967319964,-0.008161094623804092
1772790695184802000,10.363802001953125,-4.622496134275198,-2.2475793125644326,-0.33916944754514844
1772790695194867200,10.3738671875,-4.07712610528171,-1.9606015688210725,-0.6934403834365308
1772790695204932000,10.38393212890625,-3.4527217025399204,-1.6712779926039278,-0.8236747830681502
1772790695214997000,10.3939970703125,-2.6041549086689946,-1.421982329262048,-0.597394413404353
1772790695225063200,10.404063232421874,-1.7380822687238453,-1.237740883502364,-0.2917301259022206
1772790695235128000,10.414128173828125,-0.8647703251749277,-0.9919130424015223,-0.19306575353257358
1772790695245193000,10.42419287109375,0.19196575640141963,-0.7806266455888747,-0.19306257519479839
1772790695255258000,10.434258056640624,1.1895318561285733,-0.6574537087760866,-0.19562548448536543
1772790695265323300,10.4443232421875,1.8748118755936622,-0.5735834393039345,-0.16429759541619568
1772790695275389000,10.454388916015626,2.33703951099813,-0.4752275483615696,-0.12874668182451277
1772790695285454000,10.4644541015625,2.773582670047879,-0.4432682295210659,-0.18582517128717152
1772790695295519200,10.474519287109375,3.1369056945860385,-0.30983298802152276,-0.338764848799631
1772790695305583900,10.484583984375,3.5346629036456343,-0.08790507794618606,-0.500743317085877
1772790695315650000,10.494650146484375,3.9689457165479656,0.21467866959944365,-0.65479186915569
1772790695325715000,10.50471484375,4.3181800099790095,0.4697806811325252,-0.8205017790552228
1772790695335780000,10.514780029296874,4.46290470725596,0.7105692128919064,-0.980032781124115
1772790695345845000,10.524844970703125,4.902208563190698,1.0085063036754727,-1.0223639294404536
1772790695355910100,10.53491015625,5.386263999521732,1.0932158004507422,-1.0022131218153982
1772790695365976000,10.54497607421875,5.570113084962964,1.1039914614871145,-0.8750957582257688
1772790695376041200,10.555041259765625,5.688103504571318,1.1609938900388777,-0.8137031318910419
1772790695386106000,10.565106201171876,5.815597665584087,1.234839024581015,-0.8690148308768868
1772790695396171000,10.5751708984375,5.855403606271744,1.2925595382742583,-0.892233793900907
1772790695406237200,10.5852373046875,5.760714567273855,1.269866937211901,-0.7955589879132807
1772790695416302000,10.595302001953126,5.65093141951859,1.026220385672897,-0.5466252166863531
1772790695426367000,10.605366943359375,5.136153512665629,0.6882299553118646,-0.27945523928403854
1772790695436432100,10.61543212890625,4.241954263910651,0.38286622165888545,-0.08486965577304363
1772790695446497000,10.6254970703125,3.3962282464236018,0.2239209835886955,0.03893295724540949
1772790695456564000,10.63556396484375,2.5151485914826393,0.16681933244615793,0.24571093672290442
1772790695466629000,10.645629150390626,1.5617887132287025,0.02706803966760635,0.6350776993822306
1772790695476693800,10.65569384765625,0.22012159130573272,-0.31138767011761664,1.1086124723512678
1772790695486759000,10.665759033203125,-1.158780159512162,-0.4586836791872978,1.295808164806664
1772790695496825000,10.6758251953125,-2.500571784597635,-0.5161150006756187,1.3436232244268058
1772790695506889700,10.6858896484375,-3.7435137438744306,-0.4306786509305238,1.0814987669110299
1772790695516955000,10.695954833984375,-4.606589540091156,-0.28181203154325485,0.6687335930075496
1772790695527020000,10.70602001953125,-5.2499184235334395,-0.22215572748184204,0.5309121723130346
1772790695537085200,10.716085205078125,-5.777865608561038,-0.19579291347414254,0.70511679270491
1772790695547150800,10.72615087890625,-6.27233196426928,-0.1961997407093644,0.8832872479878365
1772790695557216000,10.736216064453124,-6.5523623730927705,-0.29708734208643434,0.897476736055687
1772790695567281000,10.746281005859375,-6.629557256454229,-0.29039368966668844,1.0006507678695022
1772790695577345800,10.756345703125,-6.706204442805052,-0.3520680555522442,1.1935605271227656
1772790695587412000,10.766411865234375,-6.464483014109731,-0.44167204637080426,1.423879833446443
1772790695597476900,10.776476806640625,-5.910853690814972,-0.5227548770815134,1.516011004655063
1772790695607542000,10.7865419921875,-5.467195146802068,-0.6238531985998154,1.5969325073242187
1772790695617607000,10.79660693359375,-5.334564207422733,-0.7947799663648009,1.8383590447261928
1772790695627672000,10.806672119140625,-5.152708341625332,-0.8222112863868475,1.928636112500727
1772790695637738000,10.816738037109374,-4.6380058380961415,-0.6920791780859231,1.775278319174051
1772790695647803000,10.826802978515625,-4.0672593757838005,-0.6143181852743029,1.720036908945441
1772790695657868000,10.836867919921875,-3.7514661641836162,-0.6536658608004451,1.7272724131569266
1772790695667933000,10.846932861328124,-3.3011411480188366,-0.6646525342389941,1.4781648197330532
1772790695677997800,10.856997802734375,-2.6957559185236692,-0.5801496659517288,1.109232503945753
1772790695688063700,10.867063720703126,-2.0155852048963308,-0.5202376335635781,0.7969944275438785
1772790695698129000,10.87712890625,-1.3570055608302354,-0.4312804162159562,0.6925762408878654
1772790695708194000,10.887194091796875,-0.7970031953722239,-0.3279711406499147,0.6246035055104643
1772790695718259000,10.897259033203126,-0.24508242956101892,-0.17071195597052574,0.4971103674110025
1772790695728324900,10.907324951171875,0.19819617522358893,-0.05800707554966211,0.42446912876591086
1772790695738390000,10.91739013671875,0.6848486423105001,0.06612886107638478,0.31431232539266346
1772790695748455200,10.927455078125,1.3498153570652007,0.34703722177818414,0.3060273121282458
1772790695758519800,10.937519775390625,1.9221686700522898,0.5131877150520682,0.3687249566469341
1772790695768585000,10.9475849609375,2.3058172742605207,0.652066755040735,0.41184433273151516
1772790695778651000,10.95765087890625,2.5587311280995606,0.8542175131089985,0.34798509708754716
1772790695788715800,10.9677158203125,2.945195374250412,1.0300643477499485,0.30581016224622726
1772790695798781000,10.977781005859375,3.2442309277951717,1.1785459133423863,0.2734284532751888
1772790695808846000,10.98784619140625,3.5072342139720916,1.3038453407898545,0.16042356699444352
1772790695818912000,10.997912109375,3.81899130192399,1.3511384223625063,0.14548340668976306
1772790695828977000,11.007976806640626,4.000410529869795,1.2682047030881047,0.04042728745639324
1772790695839042000,11.0180419921875,4.015460799485445,1.200687164132297,-0.0070187927208840845
1772790695849107000,11.02810693359375,4.068590332126617,1.239367315660417,-0.10552227544039487
1772790695859171800,11.038171875,4.291512367805838,1.2762158678472042,-0.343317762863636
1772790695869238000,11.048238037109375,4.308514356011152,1.211463117429614,-0.534525321308896
1772790695879303000,11.058302978515625,4.441629864037036,1.0908370886206626,-0.7074078993167727
1772790695889368000,11.0683681640625,4.582427743259072,1.134997717386484,-0.7880569417200982
1772790695899433000,11.078432861328125,3.7169203359812495,0.8903986874282359,-0.8310674506027251
1772790695909499000,11.088498779296875,2.8970231717556714,0.6404845999270677,-0.6004923428870738
1772790695919564000,11.09856396484375,2.471304189059138,0.4859148004621267,-0.35816081946939227
1772790695929629000,11.10862890625,1.7735165701985358,0.269094296528399,-0.41745691191628576
1772790695939693800,11.11869384765625,0.8874918600708246,0.1881830229923129,-0.3756336400568485
1772790695949759000,11.128759033203124,0.3515688738584518,0.18306085767298935,-0.39102052121572195
1772790695959825200,11.1388251953125,0.08264028928577899,0.05664513954669237,-0.13131371930092572
1772790695969889800,11.148889892578126,-0.878553935855627,0.06279314078241587,-0.3094377050936222
