time,seconds_elapsed,z,y,x
1772789515565818000,0.084818115234375,-0.0012201543431729078,0.000525202602148056,-0.0015497655840590596
1772789515575884000,0.094884033203125,-0.0009976224973797798,-0.0003440193831920624,-0.0011398603674024343
1772789515585950000,0.104949951171875,-0.0016865823417901993,-0.0003378940746188164,-0.0000711337779648602
1772789515596015900,0.115015869140625,-0.0018918307032436132,0.0002859262749552727,0.0014459964586421847
1772789515606081000,0.1250810546875,0.0008344473317265511,0.0007370654493570328,-0.0020129173062741756
1772789515616147000,0.13514697265625,-0.0009675859473645687,-0.001463061198592186,-0.001936346641741693
1772789515626213000,0.145213134765625,-0.00011297757737338543,0.00003816280514001846,0.0002375917392782867
1772789515636278000,0.155278076171875,-0.0003455718979239464,0.0006905924528837204,0.0025862762704491615
1772789515646344000,0.165343994140625,0.001673370599746704,-0.001592535525560379,0.00012445030733942986
1772789515656409900,0.175409912109375,0.00014837435446679592,-0.00037689320743083954,-0.0012741850223392248
1772789515666476000,0.18547607421875,0.0018637164030224085,0.0003293771296739578,-0.0003719060914590955
1772789515676541200,0.195541259765625,0.0007026009261608124,-0.00025331974029541016,0.0018614584114402533
1772789515686607000,0.205607177734375,0.0017963612917810678,0.0009104814380407333,-0.00009729654993861914
1772789515696673000,0.215673095703125,-0.0005440805107355118,0.0013007204979658127,0.0004240469424985349
1772789515706739000,0.225739013671875,0.00047963857650756836,0.0014035189524292946,-0.003282274352386594
1772789515716804000,0.23580419921875,-0.0017293172422796488,-0.0014712614938616753,-0.00173591123893857
1772789515726870000,0.2458701171875,0.0006566089577972889,-0.00018628686666488647,0.0016505643725395203
1772789515736936200,0.255936279296875,-0.001122710993513465,0.0022547803819179535,-0.00034667254658415914
1772789515747002000,0.266002197265625,-0.0028926481027156115,0.0004350431263446808,0.001698102569207549
1772789515757067000,0.27606689453125,-0.0010603899136185646,-0.0015483759343624115,-0.0012473978567868471
1772789515767133000,0.2861328125,-0.0015181871131062508,0.0013249088078737259,0.001109233358874917
1772789515777199000,0.29619921875,-0.0006701217498630285,-0.0012901658192276955,-0.00011994008673354983
1772789515787265000,0.30626513671875,-0.0011673339176923037,0.0022768722847104073,-0.0015908039640635252
1772789515797330000,0.316329833984375,0.0007076864130795002,-0.00042666681110858917,0.00022175977937877178
1772789515807395800,0.326395751953125,0.0007516287732869387,-0.0003568911924958229,0.00019619346130639315
1772789515817462000,0.3364619140625,-0.0011359788477420807,0.0014865007251501083,0.0029468098655343056
1772789515827528000,0.34652783203125,-0.002736006397753954,-0.0017162170261144638,-0.0007712293299846351
1772789515837593000,0.356593017578125,0.00023188465274870396,0.0025974223390221596,0.00034668302396312356
1772789515847659000,0.366658935546875,0.00045772059820592403,-0.0001648087054491043,0.0008375036413781345
1772789515857725000,0.376724853515625,0.0024359403178095818,0.0015898635610938072,0.0004642265266738832
1772789515867790800,0.386790771484375,0.0034737742971628904,0.001371750608086586,-0.0007283370359800756
1772789515877856000,0.39685595703125,0.0010738542769104242,-0.0015211468562483788,-0.00017097353702411056
1772789515887922200,0.406922119140625,-0.0007192522753030062,0.0026373788714408875,0.0006415569223463535
1772789515897988000,0.416988037109375,0.0002784249372780323,0.0009972574189305305,-0.00039973066304810345
1772789515908054000,0.427053955078125,0.0004467365797609091,0.0005370629951357841,0.0008996256510727108
1772789515918119000,0.437118896484375,-0.001711042132228613,0.0012851795181632042,-0.00025774806272238493
1772789515928185000,0.44718505859375,-0.0018639075569808483,0.0014391103759407997,-0.000050287810154259205
1772789515938251000,0.4572509765625,0.000372924143448472,0.0007009748369455338,-0.00031646262505091727
1772789515948317000,0.46731689453125,0.0007827845402061939,0.000011748634278774261,-0.0011702720075845718
1772789515958382000,0.477382080078125,-0.0022016558796167374,-0.00031719543039798737,0.002849958837032318
1772789515968448000,0.487447998046875,-0.0007299929857254028,0.00021250732243061066,0.0008139723213389516
1772789515978514000,0.497513916015625,-0.0005940301343798637,-0.0028851134702563286,-0.0018186371307820082
1772789515988580000,0.507580078125,-0.0009295884519815445,-0.0001931898295879364,-0.0006979790050536394
1772789515998645000,0.51764501953125,0.000599514227360487,-0.00046114716678857803,0.0003234039759263396
1772789516008711200,0.527711181640625,-0.0005397859495133162,-0.001735202968120575,0.0016797519056126475
1772789516018777000,0.537777099609375,-0.0006271786987781525,0.0011387402191758156,-0.0008913373458199203
1772789516028843000,0.547843017578125,-0.0015169410035014153,-0.0009885933250188828,0.001843196339905262
1772789516038908000,0.557907958984375,0.0003878099378198385,-0.001062828116118908,0.0013261541025713086
1772789516048974000,0.56797412109375,-0.0007634747307747602,-0.0006875889375805855,0.0025498769246041775
1772789516059040000,0.5780400390625,0.0013883584178984165,-0.0012482097372412682,-0.0009474992984905839
1772789516069106200,0.588106201171875,0.002558284904807806,0.000575522892177105,0.003637399058789015
1772789516079170800,0.5981708984375,0.0003447257913649082,0.00024359580129384995,-0.000523379712831229
1772789516089237000,0.608237060546875,0.0020499476231634617,-0.0007044896483421326,0.0007384260534308851
1772789516099303000,0.618302978515625,-0.000618933467194438,0.0005504181608557701,-0.0010477639734745026
1772789516109369000,0.628369140625,-0.0007142743561416864,-0.0019106082618236542,-0.00037078841705806553
1772789516119434200,0.638434326171875,-0.0020818563643842936,0.0019219061359763145,-0.002310668583959341
1772789516129500000,0.6485,0.0011855759657919407,-0.00048132985830307007,-0.0006184960948303342
1772789516139565800,0.65856591796875,-0.0011193854734301567,0.0014883270487189293,-0.0009892969392240047
1772789516149632000,0.668632080078125,0.00010779895819723606,-0.0010326215997338295,-0.0010223201243206859
1772789516159697200,0.678697265625,0.0004232204519212246,-0.0005371663719415665,0.0006955212447792292
1772789516169763000,0.68876318359375,0.0018930191872641444,0.0006356891244649887,-0.000038712285459041595
1772789516179829200,0.698829345703125,0.00022059469483792782,-0.00003836490213871002,-0.0026531603652983904
1772789516189895000,0.70889501953125,0.0003851780202239752,-0.0008290568366646767,0.0007210646290332079
1772789516199960000,0.7189599609375,0.002343200147151947,-0.0011571040377020836,-0.001959378132596612
1772789516210026000,0.72902587890625,0.0012638207990676165,-0.002855934202671051,0.00041909096762537956
1772789516220092200,0.739092041015625,-0.001122189685702324,-0.001866278238594532,0.0015089437365531921
1772789516230158000,0.749157958984375,0.000005925074219703674,0.0009577376767992973,0.0007073323940858245
1772789516240223000,0.759222900390625,0.0006878548301756382,-0.0008699195459485054,-0.00043436544365249574
1772789516250289000,0.769288818359375,0.0016905348747968674,0.0016989661380648613,-0.0007835058495402336
1772789516260355000,0.77935498046875,-0.0012982601765543222,-0.001894550397992134,-0.0003128229873254895
1772789516270421000,0.7894208984375,-0.0020356893073767424,0.0019750231876969337,0.00016947544645518064
1772789516280486100,0.799486083984375,-0.0016373137477785349,-0.00048088841140270233,0.00036770058795809746
1772789516290551800,0.8095517578125,0.002754771616309881,0.0008179359138011932,-0.00031460128957405686
1772789516300618000,0.819617919921875,-0.0016950499266386032,0.0009206701070070267,-0.0005445796996355057
1772789516310684000,0.829683837890625,-0.00031872838735580444,-0.0005118437111377716,-0.0021595205180346966
1772789516320749000,0.8397490234375,0.0008657432626932859,-0.0006531644612550735,0.0005112231592647731
1772789516330814700,0.849814697265625,-0.00010071787983179092,-0.002143735997378826,-0.00023472827160730958
1772789516340881000,0.859880859375,-0.0008560866117477417,-0.0013038339093327522,-0.00044071071897633374
1772789516350946800,0.86994677734375,0.0016331702936440706,0.0002969913184642792,-0.0003347169258631766
1772789516361012000,0.880011962890625,0.0016652096528559923,-0.0031453054398298264,-0.0003465780755504966
1772789516371078000,0.890077880859375,0.00007184036076068878,0.0017384001985192299,0.0016036548186093569
1772789516381144000,0.90014404296875,-0.0014529952313750982,-0.0031044604256749153,-0.0020431254524737597
1772789516391209700,0.910209716796875,0.0005414460320025682,-0.001733199693262577,-0.0009970358805730939
1772789516401275000,0.92027490234375,0.0005562740843743086,0.0016897330060601234,-0.000674096925649792
1772789516411341000,0.930341064453125,-0.00015878467820584774,-0.00043520331382751465,-0.001263188198208809
1772789516421407000,0.940406982421875,0.0013675468508154154,-0.001073644496500492,0.0008824621327221394
1772789516431473000,0.950472900390625,-0.0005941377021372318,0.0016859229654073715,-0.0017135872039943933
1772789516441539000,0.9605390625,-0.0010546285193413496,-0.0014494173228740692,0.0009483885951340199
1772789516451604000,0.97060400390625,-0.0009310578461736441,0.0014672772958874702,0.00018006667960435152
1772789516461670000,0.980669921875,-0.002298795385286212,0.0007613571360707283,-0.0004802751645911485
1772789516471736000,0.990736083984375,0.0007185658905655146,-0.0012932708486914635,-0.000227274838835001
1772789516481802000,1.000802001953125,-0.0006458780262619257,0.000887175090610981,0.001018448849208653
1772789516491867000,1.010866943359375,0.0005450877360999584,-0.00024014152586460114,0.00073002849239856
1772789516501932800,1.020932861328125,-0.00015663518570363522,-0.0016455193981528282,0.0010252620559185743
1772789516511999000,1.0309990234375,0.001911309314891696,0.0020408285781741142,0.0017882577376440167
1772789516522065000,1.04106494140625,-0.0018278660718351603,0.00001880992203950882,-0.0005106705357320607
1772789516532130000,1.051130126953125,0.00012662773951888084,-0.00009330920875072479,-0.0002150596701540053
1772789516542196000,1.061196044921875,-0.00011910195462405682,-0.000041124410927295685,0.0016836640425026417
1772789516552262000,1.071261962890625,0.0023264787159860134,0.0015818066895008087,0.0007939020288176835
1772789516562327800,1.081327880859375,-0.0011717600282281637,0.00014255382120609283,-0.0005371161969378591
1772789516572393000,1.09139306640625,0.002408593660220504,0.00042085442692041397,-0.00048039088142104447
1772789516582459000,1.101458984375,-0.0010160112287849188,-0.00002744421362876892,-0.00005143630551174283
1772789516592525000,1.111525146484375,0.00012382189743220806,-0.002881287597119808,-0.0003441176959313452
1772789516602591000,1.121591064453125,-0.000999088166281581,0.0010587610304355621,0.0022041471675038338
1772789516612655900,1.13165576171875,-0.0005679226014763117,-0.0005846759304404259,-0.0023570486810058355
1772789516622721800,1.1417216796875,0.0015143307391554117,-0.001585204154253006,-0.0009660979267209768
1772789516632788000,1.1517880859375,0.0018648026743903756,0.003035380505025387,0.002749544568359852
1772789516642854000,1.16185400390625,-0.0008595879189670086,0.001841108314692974,0.000648012850433588
1772789516652918800,1.171918701171875,0.0018877291586250067,0.0013763867318630219,-0.0020697428844869137
1772789516662985000,1.18198486328125,-0.0018988887313753366,-0.001378561370074749,-0.00025236193323507905
1772789516673051000,1.19205078125,0.0010084840469062328,0.0008875224739313126,0.0011178343556821346
1772789516683116800,1.20211669921875,-0.0008854800835251808,0.0028953151777386665,0.0024226438254117966
1772789516693183000,1.212182861328125,-0.0005744230002164841,-0.0014733336865901947,-0.0018104508053511381
1772789516703248100,1.222248046875,0.000489894999191165,0.0010173153132200241,0.0015724776312708855
1772789516713313800,1.232313720703125,-0.002187114441767335,0.0006013289093971252,0.00043051427928730845
1772789516723380000,1.2423798828125,0.0027661281637847424,-0.0015425300225615501,-0.00019934901501983404
1772789516733446000,1.25244580078125,0.0005756784230470657,0.00007880199700593948,-0.0031589199788868427
1772789516743511000,1.262510986328125,-0.0011638998985290527,-0.0016521140933036804,-0.002056568395346403
1772789516753577000,1.272576904296875,0.0020196428522467613,0.001604665070772171,-0.001140174688771367
1772789516763643100,1.28264306640625,0.002778756432235241,0.0006176978349685669,-0.00032879022182896733
1772789516773708800,1.292708740234375,-0.0001113060861825943,0.00025470927357673645,-0.0012521081371232867
1772789516783774000,1.30277392578125,-0.0019579543732106686,0.0003151651471853256,0.00040897150756791234
1772789516793839900,1.31283984375,0.0015507605858147144,-0.0007136138156056404,-0.00003124895738437772
1772789516803906000,1.322906005859375,0.0006632672157138586,0.0004655914381146431,0.0034110976848751307
1772789516813972000,1.332971923828125,0.0007631357293576002,-0.00040952302515506744,-0.0007293187081813812
1772789516824038100,1.3430380859375,-0.0003321229014545679,-0.0010042563080787659,0.00048678723396733403
1772789516834102800,1.353102783203125,0.0036010995972901583,0.001456238329410553,-0.000798720633611083
1772789516844169000,1.3631689453125,-0.0009909705258905888,-0.0005666147917509079,0.0014040800742805004
1772789516854235000,1.37323486328125,0.0017611400689929724,-0.0007498404011130333,-0.0025049077812582254
1772789516864301000,1.383301025390625,0.0014254243578761816,-0.0018337015062570572,0.001181071624159813
1772789516874366000,1.393365966796875,-0.0006731466855853796,-0.0003319447860121727,0.0009088965598493814
1772789516884432000,1.403431884765625,-0.001533834496513009,0.001776234246790409,0.0005570045323111117
1772789516894497800,1.413497802734375,0.002629219088703394,0.00031282659620046616,-0.002925877459347248
1772789516904564000,1.42356396484375,-0.0005338073242455721,-0.00010830909013748169,0.00021196616580709815
1772789516914628900,1.43362890625,-0.0014022642280906439,0.0011748019605875015,0.001021300908178091
1772789516924695000,1.443695068359375,0.0009468435309827328,-0.003186812624335289,-0.002385798841714859
1772789516934761000,1.453760986328125,0.0012637595646083355,-0.00040833745151758194,-0.0011410374427214265
1772789516944827000,1.463826904296875,-0.0013727606274187565,0.0003571426495909691,-0.0005083436844870448
1772789516954892800,1.473892822265625,0.00046695093624293804,0.00012997537851333618,-0.0011765308445319533
1772789516964958000,1.4839580078125,-0.001096570398658514,-0.0019284849986433983,0.0006376684177666903
1772789516975023900,1.49402392578125,0.001845157123170793,0.0006009852513670921,0.0003021101001650095
1772789516985090000,1.504090087890625,0.0006198713090270758,-0.0005335137248039246,0.0018244902603328228
1772789516995156000,1.514156005859375,-0.00006322935223579407,-0.00116734579205513,0.0005323244258761406
1772789517005220900,1.524220947265625,-0.00003266613930463791,-0.00021339207887649536,0.00024510471848770976
1772789517015287000,1.534287109375,0.00043365336023271084,-0.0003124615177512169,-0.001974107464775443
1772789517025353000,1.54435302734375,0.003396185813471675,-0.0026413099840283394,0.0012075609993189573
1772789517035419000,1.5544189453125,0.00042356550693511963,-0.001031162217259407,0.00038863910594955087
1772789517045485000,1.564485107421875,0.0005384557880461216,0.0006501171737909317,-0.0015662426594644785
1772789517055550000,1.574550048828125,-0.0014437350910156965,-0.002584557980298996,-0.0007265480235219002
1772789517065616000,1.584615966796875,-0.000791498925536871,0.00007881317287683487,-0.0004589737509377301
1772789517075682000,1.59468212890625,-0.00013130134902894497,-0.0017843348905444145,0.0013703517615795135
1772789517085748000,1.604748046875,0.0009571355767548084,0.0012972597032785416,0.0018613542197272182
1772789517095813000,1.614813232421875,0.0006596604362130165,-0.0030836397781968117,-0.0022468380630016327
1772789517105878800,1.624878662109375,-0.00011891871690750122,-0.00138783548027277,-0.0007257132092490792
1772789517115945000,1.634945068359375,0.001297882990911603,0.00074748694896698,-0.0030538486316800117
1772789517126011000,1.645010986328125,0.00102867535315454,-0.00002816319465637207,-0.0008287726668640971
1772789517136076800,1.655076904296875,0.00014583743177354336,0.0008370969444513321,0.0015196027234196663
1772789517146142000,1.665141845703125,0.0016602822579443455,-0.001940866932272911,-0.00003922701580449939
1772789517156208000,1.6752080078125,-0.002784001175314188,-0.0022846804931759834,0.003799187019467354
1772789517166273800,1.685273681640625,-0.0009413191583007574,0.001793568953871727,-0.0006917243590578437
1772789517176340000,1.695340087890625,-0.0006574264261871576,-0.0003215130418539047,-0.001305316691286862
1772789517186404900,1.70540478515625,-0.00110865687020123,-0.0006785998120903969,-0.0003445360343903303
1772789517196471000,1.715470947265625,0.0010660802945494652,-0.001985146664083004,0.0006924988701939583
1772789517206537000,1.725536865234375,0.0006858066190034151,-0.000026753172278404236,-0.002675281371921301
1772789517216603100,1.73560302734375,-0.0012069020885974169,0.0006707282736897469,0.001727722934447229
1772789517226668800,1.745668701171875,0.0006781639531254768,-0.0019613951444625854,0.0000719540985301137
1772789517236734000,1.75573388671875,0.0009402190335094929,0.00035209301859140396,0.0017103308346122503
1772789517246800000,1.7657998046875,-0.002261033048853278,0.001999565400183201,-0.0017347129760310054
1772789517256866000,1.775865966796875,-0.003106054151430726,-0.0022436492145061493,0.00044401915511116385
1772789517266932000,1.785931884765625,-0.00013827113434672356,0.0025210771709680557,-0.0008233055123127997
1772789517276998100,1.795998046875,0.000037497375160455704,0.0009309034794569016,0.0014382509980350733
1772789517287062800,1.806062744140625,0.0006440258584916592,-0.0009443787857890129,0.0016694259829819202
1772789517297129000,1.81612890625,0.0013263276778161526,-0.00015049055218696594,-0.0001950531150214374
1772789517307195100,1.826195068359375,-0.001878863200545311,-0.002948814071714878,-0.0027990115340799093
1772789517317261300,1.83626123046875,-0.0009648660197854042,0.0008927956223487854,0.00043033756082877517
1772789517327326200,1.846326171875,-0.00009173760190606117,0.0003244969993829727,0.0006644671084359288
1772789517337392400,1.856392333984375,0.0015405139420181513,0.00035325903445482254,-0.001887640100903809
1772789517347458300,1.866458251953125,-0.0008636703714728355,0.001854422502219677,-0.0012114215642213821
1772789517357524200,1.876524169921875,0.0010660558473318815,-0.004228504374623299,-0.0010196740040555596
1772789517367590100,1.886590087890625,0.0008151684887707233,-0.002156820148229599,-0.0012040777364745736
1772789517377655300,1.8966552734375,-0.001059696776792407,0.0009207287803292274,0.0007914289017207921
1772789517387721200,1.90672119140625,-0.001478402642533183,-0.0014554494991898537,0.00046727084554731846
1772789517397787400,1.916787353515625,-0.0003087420482188463,0.0019896160811185837,0.0005777919432148337
1772789517407853300,1.926853271484375,0.00256612547673285,-0.0008737286552786827,0.0020319614559412003
1772789517417918200,1.936918212890625,0.0013221628032624722,0.0012509413063526154,-0.000494313077069819
1772789517427984100,1.946984130859375,0.0006046297494322062,-0.000035472214221954346,0.001282086013816297
1772789517438050300,1.95705029296875,0.0011082335840910673,-0.002345765009522438,-0.0022953383158892393
1772789517448116200,1.9671162109375,0.0006365603767335415,0.0005736742168664932,0.0013877615565434098
1772789517458182400,1.977182373046875,0.0016480290796607733,-0.0004764096811413765,-0.0010836520232260227
1772789517468247300,1.987247314453125,-0.00009721494279801846,-0.002070687711238861,-0.0006022371235303581
1772789517478313200,1.997313232421875,0.0008484735153615475,0.0027536284178495407,0.0007852698327042162
1772789517488379100,2.007379150390625,0.0004927250556647778,-0.0013395464047789574,-0.002148502739146352
1772789517498445300,2.0174453125,-0.0012108993250876665,0.001245317980647087,-0.0003684459370560944
1772789517508511200,2.02751123046875,-0.0019301862921565771,-0.0007696431130170822,0.0014358452754095197
1772789517518576400,2.037576416015625,-0.00015652086585760117,0.001975542865693569,0.0007013455033302307
1772789517528642300,2.047642333984375,-0.0012853858061134815,-0.00006679445505142212,-0.0007061356445774436
1772789517538708200,2.057708251953125,-0.0019967160187661648,-0.0012444444000720978,-0.002362355589866638
1772789517548774100,2.067774169921875,-0.0011955599766224623,0.0018238844349980354,-0.0005482191918417811
1772789517558840300,2.07784033203125,0.0015778557863086462,0.0015826020389795303,-0.000013989105354994535
1772789517568905500,2.087905517578125,0.0005631945095956326,0.001202944666147232,-0.0017188743222504854
1772789517578971100,2.09797119140625,0.0004015406593680382,0.0024037640541791916,-0.00003948505036532879
1772789517589037000,2.108037109375,0.0012692806776612997,-0.004214318469166756,0.001542554353363812
1772789517599103200,2.118103271484375,0.0022240239195525646,0.001007341779768467,-0.000432978558819741
1772789517609168400,2.12816845703125,0.00068486831150949,0.0015259822830557823,0.0008830762817524374
1772789517619234300,2.138234375,-0.0029106654692441225,0.001699887216091156,-0.0014687612419947982
1772789517629300500,2.148300537109375,-0.0005094357766211033,0.001059921458363533,0.0003634567838162184
1772789517639366100,2.1583662109375,0.0016423980705440044,0.00003273971378803253,0.00038742530159652233
1772789517649432000,2.16843212890625,0.0019043040229007602,0.00001453794538974762,-0.0000799461267888546
1772789517659497200,2.178497314453125,0.00006059766747057438,-0.0009029209613800049,0.0007136758649721742
1772789517669563400,2.1885634765625,0.001604628749191761,-0.00003650877624750137,0.0013256266247481108
1772789517679629300,2.19862939453125,0.0016823930200189352,0.0032402444630861282,0.004105167929083109
1772789517689695200,2.2086953125,0.0018366422737017274,0.000708606094121933,0.0007363992626778781
1772789517699761200,2.21876123046875,-0.00022624223493039608,0.00038050487637519836,-0.00011980702402070165
1772789517709826300,2.228826416015625,-0.0009158130269497633,-0.0008540768176317215,0.0008901883848011494
1772789517719892200,2.238892333984375,0.0012855560053139925,0.0008239811286330223,0.00199273694306612
1772789517729958400,2.24895849609375,-0.0013650471810251474,0.00252397358417511,0.00020999257685616612
1772789517740024300,2.2590244140625,0.00023098522797226906,-0.0010065790265798569,0.000039017642848193645
1772789517750090200,2.26909033203125,0.000165299279615283,-0.000932568684220314,0.0006220629438757896
1772789517760155100,2.279155029296875,-0.0012357896193861961,-0.0010635964572429657,-0.0003681003872770816
1772789517770221300,2.28922119140625,-0.0021539083682000637,-0.0005727922543883324,-0.0017499722307547927
1772789517780287200,2.299287353515625,-0.0003762482665479183,0.0027420446276664734,0.002899640705436468
1772789517790353400,2.309353515625,0.0008963609579950571,-0.0004891064018011093,0.0014424354303628206
1772789517800419300,2.31941943359375,0.0006694595795124769,0.0007436703890562057,-0.00047317639109678566
1772789517810484200,2.329484130859375,0.00009844545274972916,-0.0018047792837023735,-0.001666826894506812
1772789517820550100,2.339550048828125,-0.0004389802925288677,0.00025570858269929886,0.0018805037252604961
1772789517830616300,2.3496162109375,0.00015749945305287838,-0.0004505142569541931,-0.0011473768390715122
1772789517840682200,2.35968212890625,-0.00008165254257619381,-0.0029197968542575836,-0.00020754727302119136
1772789517850748400,2.36974853515625,-0.0006661734078079462,0.0019272221252322197,0.0006346310838125646
1772789517860813300,2.379813232421875,-0.0004400711040943861,-0.0007593752816319466,0.001947569428011775
1772789517870879200,2.389879150390625,0.002565952017903328,0.0002793101593852043,-0.0006990305846557021
1772789517880945200,2.399945068359375,0.00001970399171113968,0.0014889184385538101,-0.000981059274636209
1772789517891011300,2.41001123046875,-0.0012526323553174734,-0.0021168161183595657,-0.0015170304104685783
1772789517901077200,2.4200771484375,0.000358047429472208,0.0006289025768637657,-0.0023945418652147055
1772789517911142400,2.430142333984375,-0.00036361441016197205,-0.00028926972299814224,0.0027859662659466267
1772789517921208300,2.440208251953125,0.00015969667583703995,0.0008313888683915138,-0.0032444957178086042
1772789517931274200,2.450274169921875,-0.00013763317838311195,0.00014020688831806183,0.00045766093535348773
1772789517941340200,2.460340087890625,-0.00043803779408335686,-0.0016835257411003113,0.000532762089278549
1772789517951406300,2.47040625,0.00015046517364680767,-0.000704699195921421,0.00048701860941946507
1772789517961471200,2.48047119140625,0.0002708400133997202,0.0016191750764846802,0.0012849016347900033
1772789517971537400,2.490537353515625,-0.0008952498901635408,-0.0005927262827754021,0.0021058206912130117
1772789517981603300,2.500603271484375,-0.0008883259724825621,0.0011583026498556137,-0.001713152159936726
1772789517991669200,2.510669189453125,0.00040142075158655643,-0.0013887761160731316,-0.0009443608578294516
1772789518001735200,2.520735107421875,0.00167947169393301,-0.0007269810885190964,-0.0007390311220660806
1772789518011800300,2.53080029296875,0.0007056188769638538,0.0007447777315974236,-0.0005392661551013589
1772789518021866200,2.5408662109375,-0.0006419406272470951,-0.0006616376340389252,0.0019691651687026024
1772789518031932400,2.550932373046875,-0.0011216457933187485,0.0030682869255542755,0.0005532463546842337
1772789518041998000,2.560998046875,0.0018855954986065626,-0.0005533462390303612,0.001399599015712738
1772789518052064300,2.571064208984375,-0.000033572083339095116,0.001285497099161148,-0.0005574561655521393
1772789518062129200,2.581129150390625,0.00014352821744978428,0.002339310012757778,0.0010513593442738056
1772789518072195300,2.5911953125,-0.0014560362324118614,-0.00010158214718103409,-0.001544800354167819
1772789518082261200,2.60126123046875,-0.0010626870207488537,0.00029389746487140656,-0.000402037869207561
1772789518092327400,2.611327392578125,0.0009281302336603403,-0.0007443921640515327,-0.0007068701088428497
1772789518102393000,2.62139306640625,0.0006511614192277193,-0.0007079076021909714,-0.0012565465876832604
1772789518112458200,2.631458251953125,-0.0006924360059201717,-0.0010366728529334068,0.0017585688037797809
1772789518122524200,2.641524169921875,-0.00035874219611287117,-0.00235041044652462,0.00031673326157033443
1772789518132590300,2.65159033203125,0.00037101050838828087,0.00020342320203781128,0.0024212535936385393
1772789518142656300,2.66165625,0.0001976385246962309,0.00033871177583932877,0.002204206073656678
1772789518152722400,2.671722412109375,-0.00013523316010832787,0.0004784483462572098,-0.0004978369106538594
1772789518162787000,2.681787109375,-0.001964558381587267,-0.0029700780287384987,-0.0020629765931516886
1772789518172853200,2.691853271484375,0.0006677170749753714,-0.0014402158558368683,0.0003639715723693371
1772789518182919200,2.701919189453125,-0.00016611861065030098,0.00038058776408433914,-0.0018834701040759683
1772789518192985300,2.7119853515625,-0.0006333831697702408,0.00008079595863819122,0.003885213052853942
1772789518203051300,2.72205126953125,0.0021110044326633215,0.00082408357411623,0.0024028976913541555
1772789518213116200,2.7321162109375,0.00041878013871610165,-0.00007418263703584671,0.0014227498322725296
1772789518223182000,2.74218212890625,0.00014580623246729374,-0.000551687553524971,0.001046711578965187
1772789518233248300,2.752248291015625,0.000731706852093339,-0.00023922603577375412,-0.0003888257488142699
1772789518243314200,2.762314208984375,-0.001916007837280631,0.0029224781319499016,0.0002612518728710711
1772789518253380400,2.77238037109375,0.0002979016862809658,0.0002854466438293457,-0.0018911452498286963
1772789518263445500,2.782445556640625,0.0008126907050609589,-0.0011776937171816826,-0.0008437240612693131
1772789518273511200,2.79251123046875,0.0012260384391993284,0.0009628599509596825,0.002210363047197461
1772789518283577000,2.8025771484375,0.001607669284567237,0.0020241299644112587,0.001540311612188816
1772789518293643300,2.812643310546875,-0.0022830376401543617,0.0022120708599686623,-0.001776366145350039
1772789518303709200,2.822709228515625,-0.0009237602353096008,0.0006535891443490982,0.0001996993087232113
1772789518313774300,2.8327744140625,-0.002078578108921647,0.0020195189863443375,-0.00012736947974190116
1772789518323840300,2.84284033203125,0.0019385343184694648,-0.0014700209721922874,0.0018708002753555775
1772789518333906200,2.85290625,0.002188822254538536,0.0017723804339766502,-0.0009530810639262199
1772789518343972000,2.86297216796875,-0.0013510514982044697,0.0028999624773859978,0.00021125294733792543
1772789518354038300,2.873038330078125,-0.00002697901800274849,-0.0028051957488059998,0.0001988146104849875
1772789518364104200,2.883104248046875,-0.0022067762911319733,0.0018188506364822388,0.0016089584678411484
1772789518374169300,2.89316943359375,-0.0009325207211077213,0.00012432411313056946,-0.00107089476659894
1772789518384235300,2.9032353515625,0.0008304917719215155,-0.00007754378020763397,0.0004963756073266268
1772789518394301200,2.91330126953125,0.0006054260302335024,0.0016542216762900352,0.0015334617346525192
1772789518404367000,2.9233671875,0.0006115513388067484,-0.000014248304069042206,0.001163814915344119
1772789518414433300,2.933433349609375,-0.0009097694419324398,0.0006855037063360214,-0.00009347760351374745
1772789518424498400,2.94349853515625,-0.0006967168301343918,-0.0008295690640807152,-0.0007523436797782779
1772789518434564400,2.953564453125,0.0013537085615098476,0.001656973734498024,-0.0009211388533003628
1772789518444630300,2.96363037109375,-0.0009211637079715729,-0.0016605257987976074,0.001241347985342145
1772789518454696200,2.9736962890625,-0.00003131944686174393,-0.0011543268337845802,0.0004100787336938083
1772789518464762000,2.98376220703125,-0.0007173498161137104,0.0009599560871720314,-0.0006783552234992385
1772789518474827300,2.9938271484375,0.0014514056965708733,-0.0005608079954981804,0.0006299131782725453
1772789518484893400,3.0038935546875,-0.0000021476298570632935,0.000018695369362831116,-0.0005360186914913356
1772789518494959400,3.01395947265625,-0.0006622716318815947,0.0002594422549009323,-0.0022075753659009933
1772789518505025000,3.02402490234375,0.0005441403482109308,-0.0015200823545455933,-0.0003122035413980484
1772789518515091200,3.03409130859375,0.0005109114572405815,-0.000017020851373672485,0.0010723788291215897
1772789518525156400,3.04415625,-0.001145574962720275,0.000617343932390213,-0.0018017045222222805
1772789518535222300,3.05422216796875,0.0010105264373123646,-0.000975542701780796,-0.0011835487093776464
1772789518545288400,3.064288330078125,-0.00016366131603717804,0.003913753665983677,0.00006334326462820172
1772789518555354400,3.074354248046875,-0.0021847819443792105,-0.001186898909509182,0.0002562892623245716
1772789518565420000,3.084419921875,-0.0008358906488865614,0.002295983023941517,-0.0020638566929847
1772789518575486200,3.094486328125,-0.001482443418353796,-0.0008402196690440178,0.0006771511980332434
1772789518585551400,3.10455126953125,0.0005018780939280987,-0.0011803051456809044,-0.0002890435862354934
1772789518595617300,3.1146171875,-0.0008426983840763569,0.000827091746032238,0.0014468127628788352
1772789518605683200,3.12468310546875,0.0008457454387098551,-0.0016882633790373802,-0.0002488219179213047
1772789518615749400,3.134749267578125,-0.0010902604553848505,-0.00018914137035608292,-0.0006792631465941668
1772789518625815000,3.14481494140625,0.0011308158282190561,0.00042977742850780487,0.0015548627125099301
1772789518635880200,3.154880126953125,-0.0001969465520232916,-0.00028108246624469757,-0.0010775323025882244
1772789518645946400,3.1649462890625,-0.00214398349635303,0.0018904590979218483,0.00046204100362956524
1772789518656012300,3.17501220703125,0.000005461042746901512,-0.0004696035757660866,-0.0022558444179594517
1772789518666078200,3.185078125,-0.00010159797966480255,0.0010406747460365295,0.001845423597842455
1772789518676144400,3.195144287109375,0.0009238924831151962,-0.0003299601376056671,0.0004971390590071678
1772789518686210000,3.2052099609375,0.000008297618478536606,0.0016426434740424156,-0.0014432400930672884
1772789518696275200,3.215275146484375,-0.002807744313031435,0.0019091833382844925,-0.0006630096468143165
1772789518706341400,3.22534130859375,0.00023571611382067204,-0.0021153856068849564,-0.0016150897135958076
1772789518716407300,3.2354072265625,0.0005402390379458666,-0.00011502299457788467,0.002648028079420328
1772789518726473200,3.24547314453125,0.0007828529924154282,0.0010120263323187828,-0.003962203860282898
1772789518736539400,3.255539306640625,-0.0010094272438436747,0.0003958512097597122,-0.0027926526963710785
1772789518746604300,3.265604248046875,0.0007525202818214893,0.000054700300097465515,-0.0009907580679282546
1772789518756670200,3.275670166015625,-0.0007011790294200182,0.0001972811296582222,0.000022265652660280466
1772789518766736400,3.285736328125,-0.00005403091199696064,0.0014540264382958412,-0.00024378416128456593
1772789518776802300,3.29580224609375,0.0017934954958036542,0.0008866889402270317,-0.0007382561452686787
1772789518786868200,3.3058681640625,0.0002182356547564268,0.001013454981148243,-0.002449603518471122
1772789518796933000,3.31593310546875,-0.000214690575376153,0.0006932215765118599,-0.0014511477202177048
1772789518806999300,3.325999267578125,0.000009814044460654259,-0.001165931113064289,-0.00000984495272859931
1772789518817065200,3.336065185546875,-0.0006265125703066587,-0.000042362138628959656,-0.0003658585192169994
1772789518827131400,3.34613134765625,-0.00010586460120975971,-0.0009606201201677322,-0.0000846287002786994
1772789518837197300,3.356197265625,0.0007637972012162209,-0.001185108907520771,-0.0018031427171081305
1772789518847263200,3.36626318359375,-0.0009592678397893906,0.0007685860618948936,-0.00006303336704149842
1772789518857328000,3.376328125,-0.0014492019545286894,-0.000315595418214798,-0.0011601136066019535
1772789518867394300,3.386394287109375,-0.0003149614203721285,0.0019824467599391937,0.002023695269599557
1772789518877460200,3.396460205078125,0.00014616642147302628,0.0030696801841259003,-0.0011312603019177914
1772789518887526400,3.4065263671875,-0.000732676824554801,-0.0036558667197823524,0.0007582524558529258
1772789518897592300,3.41659228515625,-0.0005180146545171738,0.0003060074523091316,-0.003127618692815304
1772789518907657200,3.4266572265625,0.0005672236438840628,-0.002934260293841362,0.0005595278926193714
1772789518917723100,3.43672314453125,0.000015454133972525597,0.00022748205810785294,0.0017689457163214684
1772789518927789300,3.446789306640625,0.0005121338181197643,0.00016063638031482697,0.001194235635921359
1772789518937855200,3.456855224609375,0.0005324564408510923,-0.002101241610944271,-0.00029006830300204456
1772789518947921200,3.466921142578125,-0.0004523808602243662,-0.00011771917343139648,-0.0002104397863149643
1772789518957987300,3.4769873046875,0.0016219138633459806,-0.00016346387565135956,0.001210660906508565
1772789518968052200,3.48705224609375,0.002426454797387123,0.0010160505771636963,-0.003683430375531316
1772789518978118100,3.4971181640625,-0.00003916374407708645,-0.004154356196522713,-0.0009635828319005668
1772789518988184300,3.507184326171875,-0.0003281165845692158,-0.0021159732714295387,0.0005688000819645822
1772789518998250200,3.517250244140625,0.0014144610613584518,0.000849003903567791,-0.0007495232275687158
1772789519008316200,3.527316162109375,-0.0007091437000781298,-0.0013273311778903008,0.0010116251651197672
1772789519018382300,3.53738232421875,-0.0012730071321129799,-0.00037306826561689377,0.0014482131227850914
1772789519028447200,3.547447265625,-0.0011712745763361454,0.00133588258177042,-0.0013198764063417912
1772789519038513200,3.55751318359375,0.0019527006661519408,-0.0022957902401685715,-0.0020332352723926306
1772789519048579300,3.567579345703125,-0.0016620077658444643,-0.0026225605979561806,0.0016656292136758566
1772789519058645200,3.577645263671875,0.0007152010221034288,-0.0007402459159493446,-0.0006118883029557765
1772789519068711200,3.587711181640625,-0.0006818934343755245,-0.000880328007042408,0.0010448643006384373
1772789519078776300,3.5977763671875,-0.0009295716881752014,0.0023649539798498154,0.0005199514562264085
1772789519088842200,3.60784228515625,-0.0010020099580287933,0.0011899666860699654,0.00016628362936899066
1772789519098908200,3.617908203125,0.0006584760267287493,0.0005589062348008156,-0.0013147550635039806
1772789519108974300,3.627974365234375,0.0005442264955490828,0.0014792950823903084,-0.0011296654120087624
1772789519119040300,3.638040283203125,0.0003374239895492792,-0.0021649887785315514,-0.0005606646882370114
1772789519129106200,3.648106201171875,-0.001617602538317442,-0.000873887911438942,0.0016577484784647822
1772789519139171300,3.65817138671875,0.0017782915383577347,0.0006799930706620216,0.0006823139265179634
1772789519149237200,3.6682373046875,0.0010959894862025976,-0.0006201621145009995,-0.0011153197847306728
1772789519159303200,3.67830322265625,0.001362120732665062,0.0010142438113689423,-0.0020603006705641747
1772789519169369300,3.688369384765625,-0.00025814655236899853,-0.000990050844848156,-0.0006493580876849592
1772789519179435300,3.698435302734375,-0.0013046534731984138,0.00154896080493927,0.00023245334159582853
1772789519189501200,3.708501220703125,-0.0006708214059472084,-0.002043643034994602,-0.002381439320743084
1772789519199566300,3.71856640625,0.0009872214868664742,0.0007933126762509346,0.0018643839284777641
1772789519209632300,3.72863232421875,-0.002148650586605072,0.0022324854508042336,0.0006326719885692
1772789519219698200,3.7386982421875,-0.000031554605811834335,-0.002078804187476635,0.0011519474210217595
1772789519229764000,3.74876416015625,0.00258180545642972,-0.0005240505561232567,0.0009159913752228022
1772789519239830300,3.758830322265625,0.0012972638942301273,-0.0003562485799193382,0.0004737386479973793
1772789519249895400,3.7688955078125,0.0013806207571178675,0.0007098149508237839,-0.0012389402836561203
1772789519259961300,3.77896142578125,0.00012881937436759472,0.00035819876939058304,-0.0007728843484073877
1772789519270027300,3.78902734375,0.0019727919716387987,-0.0008636601269245148,0.001397858140990138
1772789519280093200,3.79909326171875,0.0016411184333264828,-0.0007312828674912453,-0.00020088889868929982
1772789519290159000,3.8091591796875,-0.0015389621257781982,0.00009136740118265152,-0.0013958492781966925
1772789519300225300,3.819225341796875,0.0008571159560233355,-0.00023638363927602768,0.0011218904983252287
1772789519310290000,3.8292900390625,0.0009974644053727388,0.00008426140993833542,-0.001665374031290412
1772789519320355800,3.83935595703125,-0.00037845829501748085,0.001540275290608406,0.0018204114167019725
1772789519330422000,3.849422119140625,0.0007573796901851892,0.000622815452516079,-0.0005862872931174934
1772789519340488000,3.859488037109375,0.0016288901679217815,0.0016957027837634087,-0.00027995381969958544
1772789519350554000,3.86955419921875,0.0013966625556349754,-0.0012223226949572563,0.001649772748351097
1772789519360619800,3.879619873046875,-0.0005902282427996397,-0.0010171206668019295,0.00009379279799759388
1772789519370685000,3.889684814453125,0.0007922183722257614,0.002531275153160095,-0.0013312646187841892
1772789519380750800,3.899750732421875,0.001657404936850071,-0.0007374817505478859,-0.00008662219624966383
1772789519390817000,3.909817138671875,-0.0005916347727179527,0.0005403030663728714,-0.002261093119159341
1772789519400883000,3.919883056640625,-0.0003690090961754322,-0.0010434892028570175,0.0018956479616463184
1772789519410948900,3.929948974609375,-0.0013602375984191895,0.002636733464896679,0.0032059233635663986
1772789519421013800,3.940013671875,0.0020021419040858746,-0.0011903531849384308,0.0007846416556276381
1772789519431080000,3.950079833984375,0.00006602378562092781,0.0008906414732336998,0.000004069122951477766
1772789519441145900,3.960145751953125,0.0021374928764998913,0.0005018142983317375,0.0016385703347623348
1772789519451212000,3.9702119140625,0.00026076333597302437,-0.00019247177988290787,0.0014822427183389664
1772789519461278000,3.98027783203125,0.0007083702366799116,0.0009496370330452919,-0.0005405263509601355
1772789519471343900,3.99034375,-0.0037284560967236757,-0.0003718230873346329,-0.00007473945152014494
1772789519481408800,4.00040869140625,-0.0014279994647949934,-0.0008326573297381401,-0.0013381566386669874
1772789519491475000,4.010474853515625,-0.0003912311512976885,0.0007047858089208603,-0.002902497537434101
1772789519501540900,4.020540771484375,0.0005409554578363895,-0.00041201990097761154,0.004328080452978611
1772789519511607000,4.03060693359375,-0.00001324852928519249,0.002961672842502594,0.002207139041274786
1772789519521673000,4.0406728515625,0.0009821592830121517,-0.002812964841723442,0.0013433010317385197
1772789519531739000,4.05073876953125,-0.00022957893088459969,0.0026965830475091934,-0.00015952083049342036
1772789519541803800,4.0608037109375,0.0025456249713897705,-0.0007601678371429443,-0.0005318736075423658
1772789519551870000,4.070869873046875,0.0023035435006022453,-0.0009311428293585777,0.001591997453942895
1772789519561936000,4.080935791015625,0.0013342862948775291,-0.000042387284338474274,0.0014751139096915722
1772789519572002000,4.091001953125,-0.0006662802770733833,-0.0007435977458953857,-0.0020972504280507565
1772789519582068000,4.10106787109375,-0.00013665389269590378,0.0019324729219079018,-0.000931811286136508
1772789519592134000,4.1111337890625,-0.0013457289896905422,0.000193694606423378,0.0017238929867744446
1772789519602198800,4.12119873046875,-0.00002987077459692955,-0.0007064305245876312,-0.0002163671306334436
1772789519612265000,4.131264892578125,0.002244202420115471,-0.0018633073195815086,-0.0014803033554926515
1772789519622331000,4.141330810546875,-0.0020138004329055548,-0.00022906623780727386,0.0006463064346462488
1772789519632397000,4.15139697265625,0.0005782539956271648,0.00006654486060142517,0.0006612201686948538
1772789519642463000,4.161462890625,0.0022315713576972485,0.0007914388552308083,-0.001994295045733452
1772789519652529000,4.17152880859375,0.0004792113322764635,-0.001063985750079155,-0.0006344849825836718
1772789519662593800,4.18159375,-0.00008065509609878063,0.0007449332624673843,0.00002333067823201418
1772789519672660000,4.191659912109375,0.0017337566241621971,0.000021352432668209076,-0.0015175743028521538
1772789519682726000,4.201725830078125,0.001891113119199872,0.0020748181268572807,-0.001763804699294269
1772789519692792000,4.2117919921875,-0.00046338746324181557,0.00026147253811359406,-0.00010012794518843293
1772789519702858000,4.22185791015625,-0.003447110764682293,-0.001013103872537613,-0.00033889932092279196
1772789519712924000,4.231923828125,0.001478405436500907,-0.0005861986428499222,-0.002399919554591179
1772789519722988800,4.24198876953125,-0.0013166260905563831,-0.0008143940940499306,-0.00105537089984864
1772789519733055000,4.252054931640625,0.0012290896847844124,0.0010205237194895744,0.002195549663156271
1772789519743121000,4.262120849609375,0.002859246451407671,0.0012969942763447762,0.00033084710594266653
1772789519753186800,4.272186767578125,0.0002578706480562687,0.002144412137567997,0.0008259287569671869
1772789519763253000,4.2822529296875,0.001045350218191743,0.002467523328959942,-0.0007441003690473735
1772789519773319000,4.29231884765625,-0.001976538682356477,-0.0008483780547976494,0.001883906894363463
1772789519783383800,4.3023837890625,0.0006197439506649971,0.0003104479983448982,-0.0011506336741149426
1772789519793450000,4.312449951171875,-0.001118501415476203,0.0016857041046023369,0.0039320094510912895
1772789519803516000,4.322515869140625,-0.00024275877512991428,-0.0001276293769478798,0.00023519521346315742
1772789519813581800,4.332581787109375,0.0011375576723366976,-0.001903424970805645,0.001405920833349228
1772789519823648000,4.34264794921875,0.001196868484839797,-0.0006191413849592209,0.0019225674914196134
1772789519833714000,4.3527138671875,0.0002828715369105339,-0.000933394767343998,-0.00031581948860548437
1772789519843778800,4.36277880859375,-0.00018620258197188377,0.0019813328981399536,0.000938244687858969
1772789519853845000,4.372844970703125,-0.000061034224927425385,-0.000476764515042305,0.0003984219511039555
1772789519863911000,4.382910888671875,-0.00023497547954320908,0.00005075335502624512,-0.0008082792046479881
1772789519873976800,4.392976806640625,0.0010816913563758135,0.0005993647500872612,0.001110794604755938
1772789519884043000,4.40304296875,-0.0004538656212389469,-0.0012433519586920738,0.0005034249625168741
1772789519894108700,4.413108642578125,0.00011525163426995277,0.00017664488404989243,-0.0010731663787737489
1772789519904173800,4.423173828125,0.0012434881646186113,-0.00024416670203208923,-0.00035931073944084346
1772789519914240000,4.433239990234375,0.0015287126880139112,0.001218174584209919,-0.0009966051438823342
1772789519924306000,4.443305908203125,0.0018795107025653124,-0.0020732320845127106,0.0005234082927927375
1772789519934371800,4.453371826171875,0.00018307706341147423,-0.0012228842824697495,-0.0012143043568357825
1772789519944438000,4.46343798828125,-0.000012576580047607422,0.003855304792523384,0.001761564053595066
1772789519954503700,4.473503662109375,-0.00026584300212562084,0.0005900021642446518,-0.00002941163256764412
1772789519964568800,4.48356884765625,0.0015090284869074821,0.0005145445466041565,0.001048928126692772
1772789519974635000,4.493635009765625,-0.0022886390797793865,-0.00007987301796674728,-0.0009439152199774981
1772789519984701000,4.503700927734375,0.00016659521497786045,-0.0005477210506796837,-0.000554836995434016
1772789519994766800,4.513766845703125,-0.00024459674023091793,-0.0009237593039870262,0.0005146885523572564
1772789520004833000,4.5238330078125,0.0019850970711559057,-0.00007595587521791458,0.0012803096324205399
1772789520014898700,4.533898681640625,0.0019134581089019775,-0.0009065959602594376,-0.0011873752810060978
1772789520024963800,4.5439638671875,0.0006295035127550364,0.0030075572431087494,0.0009399101254530251
1772789520035030000,4.554030029296875,0.0002734388690441847,-0.0018820064142346382,0.0015745412092655897
1772789520045096000,4.564095947265625,0.0005238435696810484,0.002021576277911663,0.0006378225516527891
1772789520055161900,4.574161865234375,-0.0009036106057465076,0.000395982526242733,0.0002045262372121215
1772789520065228000,4.58422802734375,0.0010446540545672178,-0.001942305825650692,0.0002792470040731132
1772789520075293700,4.594293701171875,0.001235602656379342,0.0005493480712175369,0.0018936553969979286
1772789520085358800,4.60435888671875,0.0012176667805761099,0.0011469190940260887,-0.0002783117233775556
1772789520095424800,4.6144248046875,0.0001915509346872568,0.00031441543251276016,0.0005174407851882279
1772789520105491000,4.624490966796875,0.00176535127684474,0.0002138875424861908,-0.002190202474594116
1772789520115558000,4.634557861328125,0.0019456472946330905,-0.002001063898205757,0.002391233341768384
1772789520125624000,4.6446240234375,-0.00011554546654224396,0.002555668354034424,0.0007015087176114321
1772789520135688700,4.654688720703125,-0.0016660378314554691,0.0007665567100048065,-0.0003784030850511044
1772789520145755000,4.6647548828125,-0.0004001581110060215,-0.00017416011542081833,-0.0025424803607165813
1772789520155820800,4.67482080078125,0.0018092000391334295,0.001012544147670269,0.0017627858323976398
1772789520165887000,4.684886962890625,0.00010854029096662998,-0.0001184782013297081,0.0005502921412698925
1772789520175953000,4.694952880859375,0.00048298086039721966,-0.0008881324902176857,-0.0007743641617707908
1772789520186018800,4.705018798828125,0.0012641253415495157,0.0010734926909208298,-0.00032239046413451433
1772789520196083700,4.715083740234375,0.0014875645283609629,0.0008042473345994949,-0.0011173440143465996
1772789520206150000,4.72514990234375,-0.0011427924036979675,-0.00020262319594621658,-0.0008165393956005573
1772789520216215800,4.7352158203125,-0.001239198725670576,-0.0010915864259004593,-0.0005867086001671851
1772789520226282000,4.745281982421875,-0.0010896192397922277,0.0017868326976895332,0.00118486606515944
1772789520236348000,4.755347900390625,-0.0019434287678450346,-0.0008409079164266586,0.0004021630738861859
1772789520246413800,4.765413818359375,-0.0009669000282883644,0.001769527792930603,0.0003238607314415276
1772789520256480000,4.77547998046875,0.00009277183562517166,-0.00009841285645961761,0.0002719291369430721
1772789520266545000,4.785544921875,-0.00043804082088172436,-0.0021061263978481293,0.0007712020305916667
1772789520276610800,4.79561083984375,-0.001876147696748376,0.00132082961499691,0.0017405925318598747
1772789520286677000,4.805677001953125,0.0007018572650849819,0.0019345032051205635,-0.0015560886822640896
1772789520296743000,4.815742919921875,0.0006161034107208252,-0.0012064296752214432,0.0005808316636830568
1772789520306809300,4.825809326171875,-0.0020146286115050316,0.0003436775878071785,0.0012828181497752666
1772789520316875500,4.83587548828125,0.001055730041116476,-0.00030160602182149887,-0.00017792562721297145
1772789520326940400,4.8459404296875,-0.0010861849877983332,0.002010507509112358,0.0015124664641916752
1772789520337006300,4.85600634765625,-0.0005716623272746801,0.00014176685363054276,-0.0011594831012189388
1772789520347072300,4.866072265625,0.0031648206058889627,-0.00013164430856704712,-0.0017436998896300793
1772789520357138400,4.876138427734375,-0.0014919827226549387,-0.0014371257275342941,0.001690446399152279
1772789520367204400,4.886204345703125,-0.0008052983321249485,-0.0023636622354388237,0.0016002373304218054
1772789520377270500,4.8962705078125,0.0005145643372088671,0.0006515681743621826,-0.0025444403290748596
1772789520387335400,4.90633544921875,-0.0002159150317311287,-0.00037050433456897736,-0.00008365733083337545
1772789520397401300,4.9164013671875,-0.0002782330848276615,-0.0005936771631240845,0.0005565665778703988
1772789520407467300,4.92646728515625,-0.0003416743129491806,0.001988707110285759,-0.0006855194224044681
1772789520417533400,4.936533447265625,0.0006050793454051018,-0.00036472827196121216,-0.0011140219867229462
1772789520427599400,4.946599365234375,-0.0007704985328018665,0.001852516084909439,-0.0018764965934678912
1772789520437665500,4.95666552734375,-0.0002541113644838333,-0.0019185198470950127,0.0008625645423308015
1772789520447731500,4.9667314453125,0.0011792343575507402,-0.00010149646550416946,0.0016115056350827217
1772789520457796400,4.97679638671875,0.0015347662847489119,0.0002516387030482292,0.0010367955546826124
1772789520467862300,4.9868623046875,0.0008290726691484451,-0.0019681416451931,-0.0012277552159503102
1772789520477928400,4.996928466796875,0.0011553098447620869,0.0011924980208277702,-0.0030584121122956276
1772789520487994400,5.006994384765625,0.000695354538038373,0.0005547497421503067,0.0009707493591122329
1772789520498060500,5.017060546875,-0.001033569686114788,-0.0009323591366410255,-0.0014434061013162136
1772789520508126500,5.02712646484375,0.000991535373032093,0.00021193455904722214,-0.0018480875296518207
1772789520518191400,5.03719140625,0.0003622302319854498,-0.0009683780372142792,0.001506163738667965
1772789520528257300,5.04725732421875,0.0006239362992346287,0.001206197775900364,-0.002214300213381648
1772789520538323500,5.057323486328125,0.0012833350338041782,0.0019612032920122147,-0.0033346922136843204
1772789520548389400,5.067389404296875,-0.001217518700286746,-0.0023747188970446587,0.0008787384140305221
1772789520558455600,5.07745556640625,0.0031631148885935545,0.002066901884973049,0.00002253212733194232
1772789520568521500,5.087521484375,-0.0014703336637467146,-0.0013075023889541626,-0.0018412108765915036
1772789520578587400,5.09758740234375,0.002053294563665986,-0.0016055097803473473,0.000338852871209383
1772789520588652300,5.10765234375,0.000498822657391429,-0.00036203116178512573,0.0003274843329563737
1772789520598718500,5.117718505859375,-0.0007014640141278505,0.0004731360822916031,-0.001078398316167295
1772789520608784400,5.127784423828125,0.001730386633425951,0.0010158652439713478,-0.0008890893077477813
1772789520618850600,5.1378505859375,0.0006086633075028658,-0.002008953131735325,0.0020851287990808487
1772789520628916500,5.14791650390625,0.0016847176011651754,0.0003067571669816971,0.0006100230966694653
1772789520638982400,5.157982421875,0.0002862915862351656,0.00034936796873807907,-0.0008536502136848867
1772789520649047300,5.16804736328125,-0.0005247271619737148,-0.0012353751808404922,0.00034821470035240054
1772789520659113500,5.178113525390625,-0.00021553412079811096,0.00007516611367464066,-0.0003468703362159431
1772789520669179400,5.188179443359375,-0.0009438092820346355,-0.002766144461929798,-0.0009019589051604271
1772789520679245600,5.19824560546875,-0.0019467556849122047,-0.00044786278158426285,-0.0004675973323173821
1772789520689311500,5.2083115234375,0.00007247133180499077,0.00005165766924619675,-0.00011249590897932649
1772789520699377400,5.21837744140625,0.0008847354911267757,-0.0012990981340408325,-0.00015697069466114044
1772789520709443300,5.228443359375,0.0009296827483922243,0.0008149603381752968,-0.0016963918460533023
1772789520719508500,5.238508544921875,0.0002753441222012043,-0.0014924025163054466,0.00015077664284035563
1772789520729574400,5.248574462890625,-0.00036341394297778606,-0.0004473607987165451,0.00159595743753016
1772789520739640600,5.258640625,-0.0003085529897361994,0.0005428027361631393,0.0013935572933405638
1772789520749706500,5.26870654296875,-0.0015592740382999182,0.0008929334580898285,-0.0007611297769472003
1772789520759772400,5.2787724609375,0.0014719357714056969,0.0007278174161911011,0.00006924383342266083
1772789520769838300,5.28883837890625,-0.0008489596657454967,-0.0012219296768307686,0.0003147479146718979
1772789520779904300,5.298904296875,-0.0006417655386030674,-0.000666128471493721,-0.0010525190737098455
1772789520789969400,5.308969482421875,-0.0005593637470155954,0.0018123472109436989,0.00021704321261495352
1772789520800035600,5.31903564453125,0.0012302803806960583,0.001138034276664257,0.00024713692255318165
1772789520810101500,5.3291015625,0.003958407323807478,0.0006573023274540901,-0.000274023215752095
1772789520820167400,5.33916748046875,-0.0007404740899801254,-0.000655636191368103,0.0006857800181023777
1772789520830233300,5.3492333984375,0.0009439701680094004,0.001260228455066681,-0.0006487719365395606
1772789520840299300,5.35929931640625,-0.0011716452427208424,0.00022878684103488922,0.0012085165362805128
1772789520850364400,5.369364501953125,0.0012865143362432718,-0.002884242683649063,-0.001244957442395389
1772789520860430600,5.3794306640625,0.0028737583197653294,0.00018212106078863144,0.0029332758858799934
1772789520870496300,5.389496337890625,0.002085900865495205,0.001057046465575695,-0.003346713725477457
1772789520880562400,5.3995625,0.001682165777310729,-0.0003086226060986519,0.00023790088016539812
1772789520890628400,5.40962841796875,-0.0006984586361795664,0.00017646048218011856,0.00011738290777429938
1772789520900694300,5.4196943359375,-0.00022228551097214222,-0.002427312545478344,0.00007370708044618368
1772789520910760400,5.429760498046875,0.0017671776004135609,0.00037908460944890976,0.0009347893646918237
1772789520920825600,5.43982568359375,0.001336544519290328,-0.0000848378986120224,0.0029976738151162863
1772789520930891300,5.449891357421875,0.002211819402873516,-0.0004185102880001068,0.000377194257453084
1772789520940957200,5.459957275390625,-0.0020838596392422915,0.0009911013767123222,-0.001942951581440866
1772789520951023400,5.4700234375,0.0008744443766772747,-0.0007457556203007698,0.00021820160327479243
1772789520961089300,5.48008935546875,-0.0009679307695478201,0.00031897611916065216,0.0012824006844311953
1772789520971155500,5.490155517578125,0.00036468543112277985,-0.0005369717255234718,-0.0007240247214213014
1772789520981221400,5.500221435546875,-0.00017060991376638412,0.00026304181665182114,0.00003284565173089504
1772789520991286300,5.510286376953125,0.0005341754294931889,-0.0008906573057174683,0.0014046516735106707
1772789521001352200,5.520352294921875,-0.0009992728009819984,-0.004968755412846804,-0.000012682576198130846
1772789521011418400,5.53041845703125,-0.001918143592774868,-0.00029868073761463165,0.0007768045179545879
1772789521021484300,5.540484375,0.0007977481000125408,0.003966370597481728,-0.0009555817814543843
1772789521031550500,5.550550537109375,-0.0014444554690271616,-0.0008628033101558685,-0.0006813259678892791
1772789521041616400,5.560616455078125,-0.002190140774473548,0.001013394445180893,0.00006249494617804885
1772789521051681300,5.570681396484375,0.0005132162477821112,-0.00168599933385849,0.001144253183156252
1772789521061747200,5.580747314453125,0.0021305540576577187,-0.00003803521394729614,-0.0008584439055994153
1772789521071813400,5.5908134765625,-0.00014201179146766663,-0.0016686096787452698,0.0015019311103969812
1772789521081879300,5.60087939453125,-0.0008679893799126148,-0.001591644249856472,-0.0008392538875341415
1772789521091945500,5.610945556640625,0.0008156523108482361,0.000931641086935997,0.00007922021904960275
1772789521102011400,5.621011474609375,-0.0009404362645000219,-0.0006867619231343269,-0.0001644589938223362
1772789521112077600,5.63107763671875,0.0023437519557774067,-0.00009452365338802338,-0.0022686487063765526
1772789521122142200,5.64114208984375,0.0011075125075876713,0.004652827046811581,0.000009685521945357323
1772789521132208400,5.65120849609375,0.0007311352528631687,-0.0017933612689375877,0.0007579853991046548
1772789521142274300,5.6612744140625,0.0001180754043161869,-0.0007270323112607002,-0.0009645471582189202
1772789521152340500,5.671340576171875,0.0040152124129235744,0.0005659554153680801,0.0008369318093173206
1772789521162406400,5.681406494140625,0.0008351316209882498,-0.00013365689665079117,-0.002130894921720028
1772789521172472600,5.69147265625,-0.0009757070802152157,0.0006670299917459488,-0.0003760825493372977
1772789521182538500,5.70153857421875,0.0008946312591433525,-0.001504777930676937,0.0007128840661607683
1772789521192603400,5.711603271484375,0.00027970829978585243,0.0007496876642107964,0.0017524529248476028
1772789521202669300,5.72166943359375,0.0007284509483724833,-0.002476464956998825,0.0006432462832890451
1772789521212735500,5.731735595703125,0.002673923270776868,-0.00042683351784944534,-0.0016801445744931698
1772789521222801400,5.741801513671875,0.0003236834891140461,0.0007092710584402084,0.00024611986009404063
1772789521232867600,5.75186767578125,0.0013153939507901669,-0.003085944801568985,-0.003223053878173232
1772789521242933200,5.761933349609375,-0.00028809509240090847,-0.00031119678169488907,0.0009280153317376971
1772789521252999400,5.77199951171875,0.0008210609667003155,0.0022713690996170044,-0.002015635371208191
1772789521263064300,5.782064208984375,0.00012304633855819702,0.0008556321263313293,-0.0009000372956506908
1772789521273130500,5.792130615234375,0.00045931036584079266,-0.0005592424422502518,-0.002022871281951666
1772789521283196400,5.802196533203125,0.0012396166566759348,0.0006759315729141235,0.0013119388604536653
1772789521293262600,5.8122626953125,0.002722841687500477,0.0011880481615662575,-0.0001354982960037887
1772789521303328300,5.822328369140625,-0.0005073065403848886,0.001576070673763752,-0.0005179282743483782
1772789521313394400,5.83239453125,0.0015797861851751804,-0.0014926018193364143,-0.0006020410219207406
1772789521323460400,5.84246044921875,0.00029401201754808426,0.0014208965003490448,-0.00016022258205339313
1772789521333525500,5.852525390625,0.0008783896919339895,0.002673070877790451,-0.0010484799277037382
1772789521343591200,5.862591064453125,0.0014741388149559498,0.00001630093902349472,0.00286716572009027
1772789521353657300,5.8726572265625,0.0007377672009170055,-0.00012612435966730118,-0.0005548002081923187
1772789521363723300,5.88272314453125,0.00009035272523760796,-0.0023645106703042984,0.0013789210934191942
1772789521373789200,5.8927890625,0.0009780896361917257,-0.0008052391931414604,-0.002910761395469308
1772789521383855400,5.90285546875,-0.0024400774855166674,-0.001698463223874569,0.00303368060849607
1772789521393921300,5.91292138671875,-0.001424676040187478,-0.0027290433645248413,0.002105618827044964
1772789521403986200,5.922986083984375,0.0008459349628537893,-0.0006842678412795067,0.0006299613160081208
1772789521414052400,5.93305224609375,0.0016872519627213478,0.00029285624623298645,0.0018683255184441805
1772789521424118300,5.9431181640625,0.001973275328055024,-0.000032582320272922516,0.0006914746481925249
1772789521434184200,5.95318408203125,0.0019739605486392975,-0.0013583768159151077,-0.0007736771367490292
1772789521444250400,5.96325048828125,-0.00291533675044775,-0.0001636827364563942,-0.0023177778348326683
1772789521454316300,5.97331640625,0.001646579708904028,0.0014456957578659058,0.0024191548582166433
1772789521464382500,5.983382568359375,0.00038344250060617924,-0.002182861790060997,-0.0007057982147671282
1772789521474447400,5.993447265625,0.0009637996554374695,0.0003078533336520195,-0.0005825524567626417
1772789521484513300,6.00351318359375,0.0017118817195296288,0.00006310921162366867,-0.0019290467025712132
1772789521494579200,6.0135791015625,0.0006200908683240414,0.00006495323032140732,-0.000994115136563778
1772789521504645400,6.023645263671875,0.0008371383883059025,0.00027188099920749664,-0.0008063623099587858
1772789521514711300,6.033711181640625,-0.00026320572942495346,-0.0030215317383408546,0.0013373364927247167
1772789521524777500,6.043777587890625,0.0014047320000827312,-0.0009269556030631065,-0.0004658898978959769
1772789521534843100,6.053843017578125,0.0006847493350505829,0.00006882380694150925,0.00009813095675781369
1772789521544908300,6.063908203125,-0.00005960417911410332,-0.00017991568893194199,-0.00028350003412924707
1772789521554974200,6.07397412109375,0.0012140253093093634,0.0011221682652831078,-0.0009946443606168032
1772789521565040400,6.084040283203125,-0.0007585783023387194,-0.0001084785908460617,-0.0026412769220769405
1772789521575106300,6.094106201171875,0.0003308642189949751,0.0005573322996497154,0.0009219500352628529
1772789521585172500,6.10417236328125,0.0004043674562126398,0.0003504054620862007,0.00044258107664063573
1772789521595238100,6.114238037109375,0.0012371521443128586,-0.00018508173525333405,0.0006899498985148966
1772789521605304300,6.12430419921875,0.0007663052529096603,-0.0019736606627702713,-0.0011249943636357784
1772789521615369200,6.134369140625,0.0011848269496113062,-0.0016020173206925392,0.0016267977189272642
1772789521625435400,6.144435302734375,0.0015736485365778208,0.00019987765699625015,0.0001354273408651352
1772789521635501300,6.154501220703125,0.002459235955029726,0.004170921631157398,0.0016632976476103067
1772789521645567500,6.1645673828125,-0.0012119316961616278,0.002065161243081093,-0.0016784367617219687
1772789521655633200,6.174633056640625,0.0009260226506739855,0.00291997566819191,-0.001970530953258276
1772789521665699300,6.18469921875,-0.0006516340654343367,-0.0019259117543697357,0.0003179233171977103
1772789521675765200,6.19476513671875,-0.0003425728064030409,-0.0005558514967560768,-0.0008251892286352813
1772789521685830400,6.204830322265625,0.002500085160136223,-0.0037559056654572487,0.00214503426104784
1772789521695896300,6.214896240234375,0.0004974317271262407,-0.0029698219150304794,0.0009863728191703558
1772789521705962500,6.22496240234375,-0.00014252611435949802,0.0005713831633329391,0.00006305484566837549
1772789521716028200,6.235028076171875,-0.0007265929598361254,0.0007726037874817848,-0.000021490210201591253
1772789521726094300,6.24509423828125,0.00213444116525352,-0.0005595097318291664,0.0010759984143078327
1772789521736160300,6.25516015625,0.00035532424226403236,-0.00030120182782411575,0.00040844641625881195
1772789521746226400,6.265226318359375,-0.000430041691288352,-0.00003142375499010086,0.000019358645658940077
1772789521756292400,6.275292236328125,0.001389925368130207,0.0009744111448526382,-0.0010682716965675354
1772789521766357500,6.285357421875,-0.00019944948144257069,-0.00036462582647800446,0.0016944915987551212
1772789521776423200,6.295423095703125,-0.00031417282298207283,0.0005403338000178337,0.000720010488294065
1772789521786489300,6.3054892578125,0.0009886454790830612,0.00030118227005004883,-0.00019505165982991457
1772789521796555300,6.31555517578125,0.0008020848035812378,0.0005335798487067223,-0.0005412565660662949
1772789521806621400,6.325621337890625,0.00031552533619105816,0.0015935180708765984,0.001428417395800352
1772789521816687400,6.335687255859375,0.002297954401001334,-0.00016278959810733795,-0.000829594093374908
1772789521826753300,6.345753173828125,0.00020684022456407547,0.0010510794818401337,0.0030809915624558926
1772789521836818200,6.355818115234375,-0.00035649980418384075,-0.0005807569250464439,-0.0010647017043083906
1772789521846884400,6.36588427734375,0.001098385313525796,-0.0004691705107688904,0.0006698149954900146
1772789521856950300,6.3759501953125,0.0008462921250611544,0.0005081351846456528,-0.0007706590695306659
1772789521867016200,6.38601611328125,-0.0018333804327994585,-0.0007925527170300484,-0.002883344888687134
1772789521877082400,6.396082275390625,0.0006177148316055536,-0.0014572031795978546,-0.001168431481346488
1772789521887148300,6.406148193359375,-0.001444903202354908,0.0011545587331056595,0.0005727432435378432
1772789521897214500,6.41621435546875,0.0009059009607881308,-0.0008608093485236168,-0.0009196897735819221
1772789521907279400,6.426279296875,0.0005719405598938465,-0.0005012834444642067,0.0008667586953379214
1772789521917345300,6.43634521484375,-0.0010451027192175388,-0.002257329411804676,-0.0010156144853681326
1772789521927411200,6.4464111328125,0.0012377589009702206,-0.0009185587987303734,0.0011181101435795426
1772789521937477400,6.456477294921875,0.00010741711594164371,-0.0010034851729869843,-0.002016335027292371
1772789521947543300,6.466543212890625,0.0005297944881021976,0.0009427526965737343,0.00022364978212863207
1772789521957609500,6.476609375,-0.001176351448521018,-0.00012056250125169754,-0.0010081938235089183
1772789521967675100,6.486675048828125,0.0002801313530653715,0.0010837186127901077,0.0014094238867983222
1772789521977740300,6.496740234375,-0.00040817027911543846,-0.0017096912488341331,-0.0015761549584567547
1772789521987806200,6.50680615234375,0.0007572288159281015,0.0023985011503100395,0.001409781165421009
1772789521997872400,6.516872314453125,0.0013154603075236082,-0.0022586416453123093,-0.0010192549088969827
1772789522007938300,6.526938232421875,-0.001579395728185773,0.0008940082043409348,-0.00009939906885847449
1772789522018004500,6.53700439453125,-0.0004623294807970524,0.002540883608162403,0.002345642074942589
1772789522028070100,6.547070068359375,0.0010279756970703602,-0.0008027153089642525,0.003304379992187023
1772789522038136300,6.55713623046875,-0.001016839174553752,0.002406688407063484,-0.0013839928433299065
1772789522048201200,6.567201171875,-0.0003393308725208044,0.0007611215114593506,0.0006064537446945906
1772789522058267400,6.577267333984375,0.001510206377133727,0.00025643035769462585,0.0010256398236379027
1772789522068333300,6.587333251953125,-0.00012071337550878525,0.0019802944734692574,0.0009888882050290704
1772789522078399500,6.5973994140625,-0.0016536284238100052,-0.0009639225900173187,-0.00046011951053515077
1772789522088465200,6.607465087890625,-0.0017468389123678207,0.003415646031498909,0.00018756126519292593
1772789522098531300,6.61753125,-0.0008337437175214291,0.000021531246602535248,0.002413823502138257
1772789522108597200,6.62759716796875,-0.0004923264496028423,0.0010862629860639572,-0.0012458923738449812
1772789522118662400,6.637662353515625,-0.0015772627666592598,-0.0011893212795257568,0.0004971933085471392
1772789522128728300,6.647728271484375,0.001002008793875575,-0.0005533583462238312,0.0008734979201108217
1772789522138794500,6.65779443359375,0.0020643204916268587,0.001790783368051052,0.0007049848209135234
1772789522148860200,6.667860107421875,-0.0008363944943994284,0.00015027634799480438,-0.000762949523050338
1772789522158926300,6.67792626953125,0.0020247623324394226,-0.00020044110715389252,0.0005189167568460107
1772789522168992300,6.6879921875,0.0002540266141295433,0.0020624464377760887,-0.0023679498117417097
1772789522179058400,6.698058349609375,-0.0002638744190335274,0.0007659932598471642,0.00038344075437635183
1772789522189123300,6.708123291015625,-0.0000803826842457056,-0.0003149835392832756,-0.0017604039749130607
1772789522199189500,6.718189453125,-0.00010948511771857738,-0.0005902880802750587,0.0006565481889992952
1772789522209255200,6.728255126953125,0.0003304691053926945,0.0006414232775568962,-0.0018955590203404427
1772789522219321300,6.7383212890625,-0.0020063503179699183,0.0003602588549256325,0.0018121235771104693
1772789522229387300,6.74838720703125,0.0015521654859185219,-0.0009894315153360367,-0.003940304275602102
1772789522239453400,6.758453369140625,0.00028416165150702,0.0001850854605436325,-0.0010504693491384387
1772789522249519400,6.768519287109375,0.0031356082763522863,0.0006394209340214729,0.0013660830445587635
1772789522259585300,6.778585205078125,0.0005113419611006975,0.0007532117888331413,0.0006858082488179207
1772789522269650200,6.788650146484375,0.0005164018366485834,0.0010525519028306007,-0.0018159652827307582
1772789522279716400,6.79871630859375,-0.00028177746571600437,0.0009377524256706238,0.0014416547492146492
1772789522289782300,6.8087822265625,0.000045791035518050194,-0.0000649280846118927,-0.0006609108531847596
1772789522299848200,6.81884814453125,0.0028584946412593126,-0.00012650620192289352,-0.00020722509361803532
1772789522309915000,6.828914794921875,-0.0003111995756626129,-0.0010293181985616684,0.0004079651553183794
1772789522319980800,6.838980712890625,0.0009044238831847906,0.00033045001327991486,-0.003270793706178665
1772789522330045700,6.849045654296875,0.00043011480011045933,-0.002124452032148838,-0.0016017905436456203
1772789522340111600,6.859111572265625,0.0005773559678345919,-0.00001230090856552124,0.0005177794373594224
1772789522350177800,6.869177734375,-0.00030628079548478127,-0.005184692796319723,0.0004922131192870438
1772789522360243700,6.87924365234375,0.0005514605436474085,0.0005145734176039696,-0.002123615238815546
1772789522370310000,6.889309814453125,-0.0005923670250922441,0.0013316310942173004,-0.0015840588603168726
1772789522380375800,6.899375732421875,0.0013216636143624783,0.0007345350459218025,0.0037536420859396458
1772789522390441700,6.909441650390625,0.0002574643585830927,0.0009686276316642761,0.004271893296390772
1772789522400506600,6.919506591796875,0.00046956376172602177,0.001466585323214531,0.0002300181076861918
1772789522410572800,6.92957275390625,-0.0020394003950059414,-0.00030708033591508865,0.000647335487883538
1772789522420638700,6.939638671875,0.00017411494627594948,0.0005533630028367043,0.0014776266179978848
1772789522430705000,6.949704833984375,0.002148582600057125,-0.000835740938782692,0.0003013082896359265
1772789522440770800,6.959770751953125,-0.00046168128028512,0.0009231436997652054,-0.002323516644537449
1772789522450836700,6.969836669921875,0.00041290069930255413,-0.0005921954289078712,0.0007481733919121325
1772789522460902700,6.979902587890625,0.0004331967793405056,-0.0022545093670487404,0.00011745566735044122
1772789522470967800,6.9899677734375,-0.00034764199517667294,0.0002523241564631462,-0.00003114872379228473
1772789522481033700,7.00003369140625,-0.002096656011417508,-0.001173442229628563,-0.000351339258486405
1772789522491100000,7.010099853515625,0.0009428097400814295,-0.0005518598482012749,0.00018555403221398592
1772789522501165800,7.020165771484375,-0.0008817501366138458,-0.001232369802892208,-0.0030361092649400234
1772789522511231700,7.030231689453125,-0.0008995933458209038,-0.0028782030567526817,0.0005610223161056638
1772789522521297700,7.040297607421875,0.000495098065584898,0.0019962210208177567,-0.0019529762212187052
1772789522531363800,7.05036376953125,-0.0006111790426075459,-0.0007359161972999573,0.0028710737824440002
1772789522541428700,7.0604287109375,0.001910904422402382,-0.001360456459224224,0.0006015419494360685
1772789522551495000,7.070494873046875,-0.001089146826416254,-0.0010920101776719093,-0.0022357897832989693
1772789522561560800,7.080560791015625,-0.00022322195582091808,-0.0029973816126585007,0.001508068758994341
1772789522571626800,7.090626708984375,0.0005264580249786377,0.0008365046232938766,0.0003306852886453271
1772789522581692700,7.100692626953125,0.0016819201409816742,0.0003921203315258026,-0.0024104861076921225
1772789522591758800,7.1107587890625,-0.0006523407064378262,0.0017159776762127876,-0.003382273716852069
1772789522601824800,7.12082470703125,0.002103417180478573,0.00018746312707662582,-0.001668137963861227
1772789522611890000,7.130889892578125,0.0006554564461112022,-0.0013369293883442879,0.0015859786653891206
1772789522621955800,7.140955810546875,0.0001779345329850912,0.0008868100121617317,-0.00015651824651286006
1772789522632021800,7.151021728515625,0.003419800428673625,0.002729184925556183,0.00017664319602772593
1772789522642087700,7.161087646484375,0.0002747869584709406,0.0004306221380829811,0.0017685175407677889
1772789522652153900,7.17115380859375,-0.0005095137748867273,0.000809856690466404,-0.0020717608276754618
1772789522662219800,7.1812197265625,-0.0005202337633818388,-0.00007523782551288605,0.0005488995811901987
1772789522672285700,7.19128564453125,0.0009498312138020992,0.0009127948433160782,-0.0008934684447012842
1772789522682350800,7.201350830078125,-0.00005951779894530773,0.0016188696026802063,-0.00008504593279212713
1772789522692416800,7.211416748046875,0.0003860290162265301,0.0016162069514393806,-0.00289521343074739
1772789522702482700,7.221482666015625,-0.0016297358088195324,0.00016296189278364182,0.000030104652978479862
1772789522712548600,7.231548583984375,0.0006139772012829781,0.0009461967274546623,-0.0022668717429041862
1772789522722614800,7.24161474609375,-0.0015287937130779028,-0.0013688644394278526,0.00015300948871299624
1772789522732680700,7.2516806640625,-0.00008615921251475811,-0.000008255243301391602,-0.0006083882763050497
1772789522742747000,7.261746826171875,0.00013503874652087688,-0.0009467517957091331,0.002202205127105117
1772789522752811800,7.271811767578125,-0.001902279444038868,-0.0010245153680443764,-0.0009088998194783926
1772789522762877700,7.281877685546875,0.001154517289251089,0.0004156744107604027,-0.0015055157709866762
1772789522772943600,7.291943603515625,0.002022707834839821,-0.000016823410987854004,-0.0006692831520922482
1772789522783009800,7.302009765625,-0.0010965107940137386,-0.0002687377855181694,0.001168730203062296
1772789522793075700,7.31207568359375,-0.00004802411422133446,-0.0029279040172696114,-0.004482231568545103
1772789522803142000,7.322141845703125,0.00019346107728779316,-0.0011267727240920067,0.0004840035689994693
1772789522813206800,7.332206787109375,0.000900796614587307,0.0006591435521841049,-0.0010656898375600576
1772789522823272700,7.342272705078125,0.0008903250563889742,0.0003408864140510559,0.0006746813887730241
1772789522833338600,7.352338623046875,-0.0029576763045042753,0.0016469014808535576,0.0014078497188165784
1772789522843404800,7.36240478515625,-0.00044684670865535736,-0.0017189206555485725,0.0002589474315755069
1772789522853470700,7.372470703125,0.00012892857193946838,0.0010052267462015152,-0.0013778313295915723
1772789522863537000,7.382536865234375,0.00048498320393264294,0.00014470890164375305,0.0010476460447534919
1772789522873602800,7.392602783203125,0.0034024761989712715,-0.0003386549651622772,0.0014093031641095877
1772789522883667700,7.402667724609375,0.001348790479823947,0.0006322488188743591,0.0016843306366354227
1772789522893733600,7.412733642578125,0.0011037797667086124,-0.0004924042150378227,0.002087266882881522
1772789522903799800,7.4227998046875,-0.00023329630494117737,0.0018920013681054115,-0.00040093032293953
1772789522913865700,7.43286572265625,-0.0008551441133022308,-0.0010931361466646194,-0.0003450039366725832
1772789522923932000,7.442931884765625,0.0029087925795465708,0.001414368860423565,-0.0014726893277838826
1772789522933997800,7.452997802734375,-0.00017621321603655815,-0.0004040375351905823,0.0010453294962644577
1772789522944062700,7.463062744140625,-0.00029969168826937675,-0.001556485891342163,0.00048490718472748995
1772789522954128600,7.473128662109375,-0.00028211483731865883,-0.00018655508756637573,0.0001914268359541893
1772789522964194800,7.48319482421875,0.0014981688000261784,0.0037105437368154526,-0.0002199069131165743
1772789522974260700,7.4932607421875,0.0010835144203156233,-0.0008482560515403748,0.00016225670697167516
1772789522984327000,7.503326904296875,-0.0004269080236554146,-0.00017807260155677795,0.0013761240988969803
1772789522994392800,7.513392822265625,0.0018836504314094782,-0.0001948503777384758,0.0001864900696091354
1772789523004458800,7.523458740234375,0.00018820795230567455,-0.0011785728856921196,-0.0015062177553772926
1772789523014523600,7.533523681640625,-0.0004991539753973484,-0.0015069413930177689,0.0006093973643146455
1772789523024589800,7.54358984375,-0.0016470979899168015,-0.001453920267522335,-0.0001311186933889985
1772789523034655700,7.55365576171875,-0.0003645196557044983,0.0015977965667843819,0.00035410927375778556
1772789523044722000,7.563721923828125,0.0007129877340048552,0.0010115858167409897,-0.0008625085465610027
1772789523054787800,7.573787841796875,-0.0010718628764152527,0.0005849478766322136,-0.0019839657470583916
1772789523064853800,7.583853759765625,-0.0004196753725409508,0.0023375004529953003,-0.0018503086175769567
1772789523074918700,7.593918701171875,-0.0005411156453192234,0.0019492115825414658,-0.0022441900800913572
1772789523084984800,7.60398486328125,-0.0009595793671905994,0.0022359574213624,0.002226204378530383
1772789523095050800,7.61405078125,-0.0014764987863600254,0.0007629627361893654,0.0009508164948783815
1772789523105117000,7.624116943359375,0.00008130259811878204,-0.0005902359262108803,0.0009764242568053305
1772789523115182800,7.634182861328125,-0.0005333549343049526,0.002463078126311302,0.0018720454536378384
1772789523125248800,7.644248779296875,0.0008616095874458551,-0.0004026656970381737,-0.0003778369864448905
1772789523135314700,7.654314697265625,-0.00046943826600909233,-0.0016855103895068169,-0.0002785010728985071
1772789523145379800,7.6643798828125,-0.0012035160325467587,-0.00022312719374895096,0.000013689976185560226
1772789523155445800,7.67444580078125,-0.0014029871672391891,-0.000667608343064785,0.0018683152738958597
1772789523165512000,7.684511962890625,-0.0014761430211365223,0.002934454008936882,0.00010144914267584682
1772789523175577900,7.694577880859375,0.0002834075130522251,-0.0015915874391794205,-0.003333762288093567
1772789523185643800,7.704643798828125,0.00033988128416240215,0.002800651825964451,-0.002823467832058668
1772789523195709700,7.714709716796875,-0.00005506537854671478,-0.0002452060580253601,-0.00249510002322495
1772789523205774800,7.72477490234375,0.001703878864645958,-0.000020954757928848267,0.0018241915386170149
1772789523215840800,7.7348408203125,-0.0007512893062084913,0.00031939707696437836,-0.00023256760323420167
1772789523225907000,7.744906982421875,-0.0009205497335642576,-0.00036499835550785065,-0.002633664757013321
1772789523235972900,7.754972900390625,0.0016235678922384977,0.00023794174194335938,0.0007847689557820559
1772789523246038800,7.765038818359375,-0.0014750552363693714,-0.00028129853308200836,-0.0022060393821448088
1772789523256104700,7.775104736328125,-0.00026358338072896004,0.0013275174424052238,0.000506390118971467
1772789523266169900,7.785169921875,0.001550787128508091,-0.0007098130881786346,-0.0008579208515584469
1772789523276235800,7.79523583984375,0.0019180369563400745,-0.0015242071822285652,0.0002941626589745283
1772789523286302000,7.805302001953125,0.0025968695990741253,0.002588176168501377,0.00012636295286938548
1772789523296367900,7.815367919921875,0.0019473247230052948,-0.0008963039144873619,-0.00015300262020900846
1772789523306433800,7.825433837890625,0.0005173047538846731,0.0001367749646306038,0.0002490406623110175
1772789523316498700,7.835498779296875,-0.00030800909735262394,-0.00304437056183815,-0.001529152039438486
1772789523326563800,7.845563720703125,0.003789830720052123,0.001726573333144188,0.00041291204979643226
1772789523336629800,7.855629638671875,0.000895241042599082,-0.0021131718531250954,-0.0001982834073714912
1772789523346695700,7.86569580078125,-4.849862307310104e-7,0.00039158109575510025,0.0015046296175569296
1772789523356761600,7.87576171875,-0.0008798609487712383,-0.00044438522309064865,-0.00034413678804412484
1772789523366827800,7.885827880859375,0.0018350430764257908,-0.00017774198204278946,-0.00004995451308786869
1772789523376893700,7.895893798828125,0.0008222428150475025,-0.0031626131385564804,-0.002053184201940894
1772789523386960000,7.9059599609375,-0.0028915666043758392,-0.001943507231771946,-0.00010613322956487536
1772789523397024800,7.916024658203125,-0.001936290878802538,-0.001981857232749462,-0.00021452389773912728
1772789523407090700,7.926090576171875,-0.0001070431899279356,-0.00040878821164369583,0.0009370569023303688
1772789523417156600,7.936156494140625,0.00048018363304436207,-0.001173648051917553,-0.0011005275882780552
1772789523427222800,7.946222900390625,0.0013586673885583878,-0.0010852515697479248,0.0004738575662486255
1772789523437288700,7.956288818359375,0.0002673040144145489,-0.0009678062051534653,0.0008331179269589484
1772789523447355000,7.96635498046875,0.000565775902941823,-0.0003343531861901283,0.0025341154541820288
1772789523457419800,7.976419677734375,-0.0006313151679933071,0.00004541315138339996,-0.001228931127116084
1772789523467485700,7.986485595703125,0.001695750979706645,-0.0008226511999964714,-0.000725424790289253
1772789523477550800,7.99655078125,0.0009788279421627522,-0.0010921638458967209,-0.0007011900306679308
1772789523487616800,8.00661669921875,-0.0015063406899571419,-0.0010443106293678284,0.0014914139173924923
1772789523497682700,8.0166826171875,0.0018804013961926103,0.0012417472898960114,0.0029454997275024652
1772789523507748900,8.026748779296875,0.0019882051274180412,0.0005947500467300415,0.00020529981702566147
1772789523517814800,8.036814697265624,0.000193767249584198,0.0007340330630540848,-0.0012160292826592922
1772789523527880700,8.046880615234375,0.0004855284933000803,0.0006286390125751495,0.0019196365028619766
1772789523537945900,8.05694580078125,-0.0008154255338013172,-0.0004917522892355919,-0.00003778684185817838
1772789523548011800,8.06701171875,-0.00010093417949974537,0.0019560791552066803,0.0018024352611973882
1772789523558077700,8.07707763671875,-0.0016178709920495749,-0.0020940564572811127,-0.0011677882866933942
1772789523568144000,8.087143798828125,0.00005355756729841232,0.000759282149374485,0.0005305681843310595
1772789523578209800,8.097209716796876,0.0007366582285612822,-0.0023507578298449516,-0.00329426396638155
1772789523588275700,8.107275634765625,0.0008081498090177774,-0.0005323495715856552,-0.0017448936123400927
1772789523598340900,8.1173408203125,0.0002012155018746853,-0.0016263769939541817,0.00022211723262444139
1772789523608406800,8.12740673828125,0.0005412665195763111,0.001227106899023056,0.0010092298034578562
1772789523618472700,8.13747265625,0.0009298217482864857,0.0005666427314281464,-0.0010818842565640807
1772789523628539000,8.147538818359376,0.0021302439272403717,0.0022119078785181046,-0.0005709882243536413
1772789523638604800,8.157604736328125,-0.00004955334588885307,0.0007876493036746979,-0.0029702300671488047
1772789523648670700,8.167670654296876,-0.0012384222354739904,0.0009302683174610138,-0.0014155806275084615
1772789523658735900,8.17773583984375,-0.0014346970710903406,-0.002920396625995636,-0.0007971946033649147
1772789523668801800,8.1878017578125,0.0011916649527847767,0.0018718987703323364,0.002950918860733509
1772789523678867700,8.19786767578125,-0.0005676194559782743,0.001122218556702137,0.0012688662391155958
1772789523688934000,8.207933837890625,-0.0008196241687983274,-0.0031334729865193367,-0.00028746548923663795
1772789523698999800,8.217999755859376,0.0013023826759308577,-0.001610676757991314,0.0016574411420151591
1772789523709065700,8.228065673828125,0.0012902859598398209,-0.002822502516210079,0.0016871043480932713
1772789523719131000,8.238130859375,0.001683368580415845,-0.0010072914883494377,0.0006450095097534359
1772789523729196800,8.24819677734375,-0.0010774603579193354,-0.001110217534005642,0.00048346014227718115
1772789523739262700,8.2582626953125,0.00009459676221013069,-0.0012732027098536491,-0.00032507561263628304
1772789523749329000,8.268328857421874,-0.0006892683450132608,0.0009924164041876793,0.0020777371246367693
1772789523759394800,8.278394775390625,-0.0010413385462015867,0.00023448094725608826,0.0007837071316316724
1772789523769459700,8.288459716796876,0.001305136363953352,-0.0008454341441392899,0.0004349860828369856
1772789523779525600,8.298525634765625,-0.000788374338299036,0.0014259759336709976,0.0007582937832921743
1772789523789591800,8.308591796875,-0.000615457072854042,-0.002141357399523258,0.0018614523578435183
1772789523799657700,8.31865771484375,-0.001991778612136841,0.00011833477765321732,0.0017794270534068346
1772789523809724000,8.328723876953125,0.00021311058662831783,-0.0014920737594366074,0.0017097450327128172
1772789523819789600,8.33878955078125,0.0020368434488773346,0.00027679745107889175,0.002957435790449381
1772789523829854700,8.348854736328125,-0.0018058638088405132,-0.000572817400097847,-0.0006476993439719081
1772789523839920600,8.358920654296876,-0.0021906904876232147,-0.0019821617752313614,0.000358176592271775
1772789523849986800,8.36898681640625,-0.0008317134343087673,-0.0004665311425924301,-0.0004806095967069268
1772789523860052700,8.379052734375,-0.0021377275697886944,-0.0021656276658177376,0.00026001548394560814
1772789523870119000,8.389118896484375,-0.0009788351599127054,-0.0010868767276406288,0.000024777604267001152
1772789523880184600,8.3991845703125,0.00024968083016574383,0.00014563463628292084,0.00018829567125067115
1772789523890249700,8.409249755859374,0.00241039227694273,-0.0013236161321401596,0.0003286341088823974
1772789523900315600,8.419315673828125,0.0003373876679688692,0.0019049346446990967,0.00014700653264299035
1772789523910381800,8.4293818359375,0.0014232282992452383,-0.003983139060437679,-0.00021921208826825023
1772789523920447700,8.43944775390625,-0.000999449286609888,0.0006859153509140015,-0.0023089945316314697
1772789523930514000,8.449513916015626,-0.0006758528761565685,0.002888159826397896,-0.0008151094662025571
1772789523940579600,8.45957958984375,-0.0030710995197296143,-0.0002714144065976143,0.0015218143817037344
1772789523950644700,8.469644775390625,-0.0006300569511950016,-0.00020816363394260406,0.000587695452850312
1772789523960710700,8.479710693359374,-0.0009744036942720413,0.001400119625031948,0.0008161947480402887
1772789523970776800,8.48977685546875,-0.0036281361244618893,-0.00011386722326278687,0.0010205155704170465
1772789523980842800,8.4998427734375,0.000545836053788662,0.002418000251054764,-0.0014546263264492154
1772789523990909000,8.509908935546875,0.0011945797596126795,-0.000547642819583416,-0.00006493396358564496
1772789524000973800,8.519973876953125,-0.003147970885038376,-0.0007990449666976929,0.0007854133727960289
1772789524011039700,8.530039794921874,-0.0004018291365355253,0.0007266020402312279,-0.00010326452320441604
1772789524021105700,8.540105712890625,0.00046982336789369583,-0.0003626309335231781,0.0002754369634203613
1772789524031171800,8.550171875,-0.0016843045596033335,0.0007610758766531944,-0.00011489697499200702
1772789524041237800,8.56023779296875,-0.0011708473321050406,-0.0021513570100069046,0.002619370585307479
1772789524051304000,8.570303955078124,0.00005271425470709801,-0.001114911399781704,-0.0006217635236680508
1772789524061368600,8.58036865234375,-0.0017081680707633495,-0.0023567425087094307,0.001603041309863329
1772789524071434800,8.590434814453126,-0.0016749051865190268,-0.00009466614574193954,0.00023643480380997062
1772789524081500700,8.600500732421875,0.00046441215090453625,0.0030404068529605865,0.00047665199963375926
1772789524091566800,8.61056689453125,0.0004093900788575411,-0.0009236782789230347,-0.0016470097471028566
1772789524101632800,8.6206328125,0.0006152524147182703,0.000783674418926239,0.0018696943297982216
1772789524111699000,8.630698974609375,-0.0018524336628615856,0.0009753722697496414,0.0005589990178123116
1772789524121764600,8.6407646484375,-0.0009328438900411129,-0.00016392767429351807,0.001151552307419479
1772789524131829800,8.650829833984375,0.00022322614677250385,0.0013081524521112442,-0.0016628650482743979
1772789524141895700,8.660895751953126,0.0016578708309680223,0.0015861866995692253,0.0010628802701830864
1772789524151961900,8.6709619140625,0.0009341612458229065,0.00001839548349380493,0.0026696547865867615
1772789524162027800,8.68102783203125,-0.00010660220868885517,-0.00019811931997537613,-0.0033693292643874884
1772789524172094000,8.691093994140624,-0.00011966144666075706,-0.0003693327307701111,-0.0007195619400590658
1772789524182159600,8.70115966796875,-0.0003905051853507757,0.0014216424897313118,0.0006999028846621513
1772789524192224800,8.711224853515626,0.00042138178832829,-0.0009074117988348007,-0.0034292303025722504
1772789524202290700,8.721290771484375,-0.0009394933003932238,-0.0020017046481370926,-0.0023786132223904133
1772789524212356900,8.73135693359375,-0.0036758503410965204,-0.0019529247656464577,0.0009441878646612167
1772789524222422800,8.7414228515625,0.000043786829337477684,0.00009371433407068253,0.0034725931473076344
1772789524232489000,8.751489013671875,-0.001053140265867114,0.0000016763806343078613,-0.003076351946219802
1772789524242553600,8.7615537109375,0.002751451451331377,0.0005867732688784599,-0.0006195858586579561
1772789524252619800,8.771619873046875,0.000520308269187808,-0.0010451506823301315,-0.0021988977678120136
1772789524262685700,8.781685791015626,0.0014074072241783142,0.0006113350391387939,0.0007268510526046157
1772789524272751900,8.791751953125,-0.001294924644753337,-0.002721901051700115,-0.0027313902974128723
1772789524282817800,8.80181787109375,-0.001521559664979577,0.001658465713262558,0.00006173294968903065
1772789524292884000,8.811884033203125,-0.0010603407863527536,-0.000775839202105999,0.0015918504213914275
1772789524302948600,8.821948486328125,-0.0018877850379794836,-0.0011430885642766953,0.00007171818288043141
1772789524313015300,8.832015380859374,0.0007687716279178858,0.001979469321668148,0.000983699457719922
1772789524323081200,8.842081298828125,-0.00041420478373765945,-0.0005673114210367203,0.0014454915653914213
1772789524333147100,8.852147216796874,0.000791309168562293,0.001901351846754551,0.0007630925392732024
1772789524343213000,8.862213134765625,0.0014240762684494257,-0.00261776614934206,0.0022709742188453674
1772789524353278200,8.8722783203125,0.00035284017212688923,-0.0016357805579900742,-0.001825973391532898
1772789524363344100,8.88234423828125,-0.0017971298657357693,0.0021597566083073616,0.00010375323472544551
1772789524373410300,8.892410400390625,0.0002263239584863186,-0.0003181546926498413,0.0007344596087932587
1772789524383476200,8.902476318359374,0.0012319334782660007,-0.0021006083115935326,0.0004942425293847919
1772789524393542100,8.912542236328125,-0.0010371622629463673,-0.0019821645691990852,-0.0009534222772344947
1772789524403608000,8.922608154296874,-0.0007330290973186493,-0.0011193007230758667,0.0005472690099850297
1772789524413673200,8.932673095703125,-0.00005662348121404648,0.0019398154690861702,-0.001950424863025546
1772789524423739100,8.9427392578125,-0.0008880624081939459,-0.0005545010790228844,-0.0008409519214183092
1772789524433805300,8.952805419921875,0.0007110591977834702,0.0018473230302333832,0.001283064717426896
1772789524443871200,8.962871337890626,0.000029556220397353172,-0.0019660573452711105,-0.0006493250257335603
1772789524453937200,8.972937255859375,-0.0008737193420529366,-0.001434064470231533,-0.0007418438326567411
1772789524464002000,8.983001953125,-0.0008753174915909767,0.0016006072983145714,-0.002330419374629855
1772789524474068200,8.993068115234376,0.0010011033155024052,-0.002323014661669731,0.000004647707100957632
1772789524484134100,9.003134033203125,0.0002495592925697565,-0.00008010026067495346,0.0014374284073710442
1772789524494200300,9.013200439453126,-0.002229135949164629,0.0006826939061284065,-0.0005968798068352044
1772789524504266000,9.023265869140625,0.0008643919136375189,-0.0017711427062749863,0.002230598358437419
1772789524514331100,9.0333310546875,0.00032204831950366497,-0.00005924329161643982,-0.0008068548049777746
1772789524524397000,9.04339697265625,-0.0023312591947615147,0.0000020097941160202026,-0.0024164693895727396
1772789524534463200,9.053463134765625,-0.00006556278094649315,0.002809806726872921,0.0004305102629587054
1772789524544529200,9.063529052734374,0.00008597108535468578,-0.0019151736050844193,0.0051312558352947235
1772789524554595300,9.07359521484375,-0.0006321603432297707,-0.00024303141981363297,0.00011022784747183323
1772789524564661000,9.083660888671876,-0.00028355279937386513,0.0009029265493154526,-0.001832548063248396
1772789524574726100,9.09372607421875,0.0030270153656601906,0.0003979392349720001,0.0017819323111325502
1772789524584792000,9.1037919921875,0.002927413210272789,-0.0023879939690232277,-0.00011663517216220498
1772789524594858200,9.113858154296874,0.0010874392464756966,0.002059022895991802,0.0013731453800573945
1772789524604924200,9.123924072265625,-0.0012039444409310818,0.002942393533885479,-0.0005722937639802694
1772789524614990300,9.133990234375,-0.0004959336947649717,-0.0007018232718110085,-0.001588423503562808
1772789524625055000,9.144054931640625,-0.0007707716431468725,0.000571967102587223,0.0006078854785300791
1772789524635121200,9.15412109375,-0.0010972900781780481,-0.0002778908237814903,-0.0007122674724087119
1772789524645187000,9.16418701171875,0.00012563331983983517,0.000043286941945552826,0.0007191816112026572
1772789524655253200,9.174253173828125,-0.0003118568565696478,-0.0015780627727508545,0.0017871775198727846
1772789524665319200,9.184319091796874,-0.0009488852228969336,0.0002475343644618988,-0.0000991393462754786
1772789524675385300,9.19438525390625,0.001858737668953836,-0.0016654729843139648,-0.0008710695547051728
1772789524685450000,9.204449951171876,0.00012288917787373066,-0.0006156545132398605,-0.003347276709973812
1772789524695516200,9.21451611328125,-0.0010366325732320547,0.0009755166247487068,-0.0004271798534318805
1772789524705582000,9.22458203125,0.00040626828558743,-0.0006692511960864067,-0.001240509212948382
1772789524715648300,9.234648193359375,-0.00012798374518752098,-0.0009103883057832718,0.000033143151085823774
1772789524725714200,9.244714111328125,0.0008382110390812159,-0.0012153200805187225,0.000486146891489625
1772789524735779000,9.254779052734374,0.0029419888742268085,0.002343817614018917,0.0005459007807075977
1772789524745845000,9.264844970703125,0.0008551357313990593,-0.0006418526172637939,0.0015206178650259972
1772789524755911200,9.2749111328125,0.000882626511156559,-0.0007629254832863808,0.001367916469462216
1772789524765977000,9.28497705078125,0.0008362873923033476,0.0018989043310284615,0.0006323514971882105
1772789524776043300,9.295043212890626,-0.002225596224889159,0.000766480341553688,-0.0008747607353143394
1772789524786108200,9.305108154296875,0.0011217307765036821,-0.0010415390133857727,0.00042299763299524784
1772789524796174000,9.315174072265625,0.0006347030866891146,-0.00007154233753681183,0.0008329967968165874
1772789524806240000,9.325239990234374,0.002800918184220791,0.0003979727625846863,0.0013967880513519049
1772789524816306200,9.33530615234375,0.0007668370380997658,-0.00017321202903985977,-0.0012452732771635056
1772789524826372000,9.3453720703125,-0.002835088176652789,0.0001828521490097046,0.0001243904116563499
1772789524836437200,9.355437255859375,-0.00026452867314219475,-0.0011896295472979546,0.0007170499884523451
1772789524846503200,9.365503173828126,-0.0012360499240458012,0.000425044447183609,-0.000427043967647478
1772789524856569000,9.375569091796875,-0.0003340011462569237,0.003712080419063568,0.0015641810605302453
1772789524866635000,9.385635009765625,-0.0000863273162394762,0.001514439471065998,0.0001788045046851039
1772789524876701200,9.395701171875,0.0005232179537415504,-0.0032364260405302048,0.0006627210532315075
1772789524886766000,9.40576611328125,0.000479275593534112,-0.0010869884863495827,0.0007958791102282703
1772789524896832300,9.415832275390626,0.0007699767593294382,-0.000144236721098423,-0.0030701258219778538
1772789524906898000,9.42589794921875,-0.00001272629015147686,0.00035430677235126495,0.0015296858036890626
1772789524916964000,9.435964111328126,-0.0031414066907018423,-0.00009894650429487228,-0.00192449486348778
1772789524927030000,9.446030029296875,0.00047489977441728115,-0.0017783353105187416,-0.0010962517699226737
1772789524937096200,9.45609619140625,-0.0004023243673145771,-0.0007263002917170525,0.0031978667248040438
1772789524947161000,9.4661611328125,-0.0010177809745073318,0.00039062928408384323,0.001063343370333314
1772789524957227300,9.476227294921875,0.0000799668487161398,-0.0006781257688999176,0.0004057726473547518
1772789524967293000,9.48629296875,-0.000648674089461565,0.00006968993693590164,0.0014268287923187017
1772789524977359000,9.496359130859375,0.001174290431663394,-0.00029358919709920883,0.00031900551402941346
1772789524987425000,9.506425048828126,0.0014707003720104694,-0.00006136111915111542,-0.0032240641303360462
1772789524997490200,9.516490234375,-0.00037675327621400356,0.0006361398845911026,0.0017630599904805422
1772789525007556000,9.52655615234375,0.000943109393119812,-0.00006214063614606857,-0.002590409480035305
1772789525017622300,9.536622314453124,0.0011558120604604483,0.0003480585291981697,-0.000011358235497027636
1772789525027688000,9.54668798828125,-0.0014562162104994059,-0.0003345096483826637,0.000016871257685124874
1772789525037754000,9.556754150390624,0.0018996394937857985,-0.0021825535222887993,-0.002256658859550953
1772789525047819300,9.5668193359375,0.00033263559453189373,0.0009498568251729012,-0.0007149548036977649
1772789525057885200,9.57688525390625,-0.0007661234121769667,0.0003571677953004837,0.0008556395187042654
1772789525067951000,9.586951171875,0.0001489387359470129,-0.00008544884622097015,0.00028998410562053323
1772789525078017300,9.597017333984375,-0.00040070083923637867,0.0010208450257778168,0.0012502373429015279
1772789525088083000,9.6070830078125,-0.00039457553066313267,-0.0032093198969960213,-0.0014930848265066743
1772789525098148000,9.617148193359375,0.0008680971805006266,0.0006296280771493912,-0.00026922853430733085
1772789525108214000,9.627214111328126,-0.0007974437903612852,-0.0004036789759993553,0.0002463595010340214
1772789525118280200,9.6372802734375,0.0005814579781144857,0.002035827375948429,0.002756274538114667
1772789525128346000,9.64734619140625,0.001956714317202568,-0.0006518345326185226,0.0011991241481155157
1772789525138412300,9.657412353515625,-0.0019630822353065014,0.00029407162219285965,0.0002434637863188982
1772789525148477200,9.667477294921875,0.0016044883523136377,0.0013518789783120155,-0.0007134099723771214
1772789525158543000,9.677543212890624,-0.0003820410929620266,0.0007797172293066978,0.001158526400104165
1772789525168609000,9.687609130859375,0.0003191691357642412,-0.0008298978209495544,-0.0016050359699875116
1772789525178675200,9.69767529296875,0.0014236916322261095,-0.0014732703566551208,0.0004119708901271224
1772789525188741000,9.7077412109375,0.0006441844161599874,0.00028601381927728653,-0.0022780881263315678
1772789525198806000,9.717805908203125,-0.0007920803036540747,-0.00035942811518907547,0.00012632133439183235
1772789525208872200,9.7278720703125,0.0030023916624486446,-0.0009146975353360176,-0.0006907365168444812
1772789525218938000,9.737938232421875,0.0006312448531389236,0.00044055283069610596,-0.002290396485477686
1772789525229004000,9.748004150390624,-0.0013496142346411943,0.0010482855141162872,-0.0023191587533801794
1772789525239070200,9.7580703125,-0.0005597453564405441,0.0009216153994202614,-0.0022581778466701508
1772789525249136000,9.76813623046875,0.0012035334948450327,0.00020123086869716644,-0.0013463114155456424
1772789525259201000,9.778200927734375,-0.00036454200744628906,-0.0013057347387075424,-0.0007389555685222149
1772789525269267200,9.78826708984375,0.0007864763028919697,-0.001037287525832653,0.002768960315734148
1772789525279333000,9.7983330078125,0.0009666529949754477,0.0010804776102304459,-0.002438968513160944
1772789525289399000,9.80839892578125,0.0013296417891979218,0.0005206810310482979,0.0021616420708596706
1772789525299464200,9.818464111328124,0.001114291837438941,0.003018384799361229,-0.0011685772333294153
1772789525309530400,9.8285302734375,0.0006903165485709906,-0.0014714384451508522,-0.00019226240692660213
1772789525319595300,9.83859521484375,-0.00020879157818853855,0.0006454624235630035,-0.0017363564111292362
1772789525329661400,9.848661376953125,0.0003906860947608948,-0.0004895767197012901,0.001022412208840251
1772789525339727400,9.858727294921875,0.00027068983763456345,-0.0005797436460852623,-0.0004472413857001811
1772789525349793500,9.86879345703125,0.0013127848505973816,0.0007337266579270363,-0.0021932097151875496
1772789525359858200,9.878858154296875,0.00039943098090589046,0.0009442847222089767,0.0004757126444019377
1772789525369924400,9.88892431640625,0.000020463252440094948,-0.0030395379289984703,0.0013415063731372356
1772789525379990300,9.898990234375,0.0036077273543924093,0.0002219323068857193,-0.00048425071872770786
1772789525390056400,9.909056396484376,0.0013656120281666517,-0.0008931336924433708,-0.0013244780711829662
1772789525400122400,9.919122314453125,-0.002012609038501978,0.0018053213134407997,-0.0008502047858200967
1772789525410187500,9.9291875,0.00042737904004752636,-0.0016418742015957832,0.00044781994074583054
1772789525420253200,9.939253173828124,-0.000453178770840168,0.0005784407258033752,-0.0037326845340430737
1772789525430319400,9.9493193359375,0.000508222496137023,0.0018109511584043503,0.0015611470444127917
1772789525440385300,9.95938525390625,0.0024446581955999136,0.0018098391592502594,-0.0006995153962634504
1772789525450451500,9.969451416015625,0.001764486776664853,-0.00015397556126117706,0.00038492382736876607
1772789525460516400,9.979516357421875,0.0017625996842980385,-0.0007308032363653183,0.0013406043872237206
1772789525470582500,9.98958251953125,-0.0028483974747359753,-0.0018589189276099205,-0.00014357530744746327
1772789525480648200,9.999648193359375,0.000284507405012846,-0.0010134801268577576,-0.004460315220057964
1772789525490714400,10.00971435546875,-0.0009432097431272268,0.001572982408106327,0.000606082146987319
1772789525500780300,10.0197802734375,0.00009951414540410042,0.0007628342136740685,0.00017852202290669084
1772789525510845400,10.029845458984376,-0.004033179022371769,0.0020150523632764816,-0.00012774142669513822
1772789525520911400,10.039911376953125,0.0016716888640075922,0.001447000540792942,0.000002565619070082903
1772789525530977500,10.0499775390625,0.0015358675736933947,0.0015657776966691017,-0.0011918621603399515
1772789525541043200,10.060043212890625,-0.0009513006079941988,-0.0008400212973356247,0.002562003443017602
1772789525551109400,10.070109375,0.00165114039555192,0.00021645426750183105,-0.00017705763457342982
1772789525561174300,10.08017431640625,0.0002285866066813469,0.000603250227868557,-0.0007258025580085814
1772789525571240400,10.090240478515625,0.002097593154758215,0.0006413329392671585,-0.0009409859776496887
1772789525581306400,10.100306396484376,0.00035357754677534103,0.001043456606566906,0.0005089744809083641
1772789525591372500,10.11037255859375,0.0016633202321827412,-0.0012380732223391533,-0.0009083598852157593
1772789525601438200,10.120438232421876,0.0007622097618877888,-0.00039611849933862686,0.0028067922685295343
1772789525611503400,10.13050341796875,-0.0017006814014166594,0.0003772638738155365,0.00026267440989613533
1772789525621569300,10.1405693359375,-0.0017957387026399374,-0.002288471907377243,-0.001027415506541729
1772789525631635500,10.150635498046874,-0.0015238302294164896,0.0006402060389518738,0.0015031201764941216
1772789525641701400,10.160701416015625,-0.0008293574210256338,-0.0014420747756958008,-0.0007237963145598769
1772789525651767600,10.170767578125,0.0001616047229617834,-0.0016825580969452858,0.0018349688034504652
1772789525661832400,10.18083251953125,0.00003047729842364788,0.00040124915540218353,-0.00017031579045578837
1772789525671898400,10.1908984375,-0.001030525891110301,-0.0006110183894634247,-0.0008765861275605857
1772789525681964300,10.20096435546875,-0.001180652529001236,0.0005476353690028191,0.0004211039049550891
1772789525692030500,10.211030517578125,-0.0006746519356966019,-0.0006289491429924965,-0.00031925481744110584
1772789525702096400,10.221096435546874,-0.0017459054943174124,-0.002388590946793556,-0.0020690136589109898
1772789525712161300,10.231161376953125,0.0010149937588721514,-0.0001848256215453148,0.0006918853614479303
1772789525722227500,10.2412275390625,-0.00012264400720596313,-0.0007728561758995056,-0.001727473922073841
1772789525732293400,10.25129345703125,-0.0016702068969607353,0.0018050838261842728,0.000527957221493125
1772789525742359300,10.261359375,0.0007258327677845955,-0.00036793574690818787,-0.00038597750244662166
1772789525752425500,10.271425537109375,0.0009908173233270645,-0.000640377402305603,-0.0009665465913712978
1772789525762490400,10.281490478515625,0.00020847097039222717,0.0012212833389639854,-0.0013678716495633125
1772789525772556300,10.291556396484374,-0.002032312797382474,-0.0017931489273905754,-0.0008054119534790516
1772789525782622500,10.30162255859375,-0.0015495212282985449,-0.000628993846476078,-0.003453577868640423
1772789525792688400,10.3116884765625,-0.00010156049393117428,0.001958000473678112,-0.002839186694473028
1772789525802753500,10.32175341796875,0.0007671904750168324,0.00029501039534807205,-0.0010882007190957665
1772789525812819500,10.3318193359375,-0.00015159999020397663,0.0012223226949572563,0.003845571307465434
1772789525822885400,10.341885498046874,-0.00041372678242623806,0.0005350848659873009,0.0009121654438786209
1772789525832951300,10.351951416015625,-0.0007301100995391607,0.0017569437623023987,0.004236855544149876
1772789525843017200,10.362017333984374,0.000836491584777832,0.002509842626750469,-0.0007567125139757991
1772789525853082400,10.372082275390625,0.001796827418729663,-0.003095046617090702,0.00179938948713243
1772789525863148500,10.3821484375,-0.0004640498664230108,-0.000543021596968174,0.00034256052458658814
1772789525873214500,10.39221435546875,-0.00023821392096579075,-0.0012783203274011612,0.00011992023792117834
1772789525883280400,10.4022802734375,0.0005088692996650934,-0.0003517176955938339,0.0018947506323456764
1772789525893346300,10.41234619140625,-0.000517779029905796,-0.0010052574798464775,0.001048131613060832
1772789525903411500,10.422411376953125,-0.0015527550131082535,-0.0009818272665143013,-0.002809204626828432
1772789525913477400,10.432477294921876,0.0034824833273887634,0.0011439081281423569,-0.0002919847029261291
1772789525923543600,10.44254345703125,-0.0006242282688617706,0.0008731335401535034,-0.00197251932695508
1772789525933609500,10.452609375,-0.001397877000272274,-0.0005399398505687714,0.0016070354031398892
1772789525943675400,10.46267529296875,-0.0008175291586667299,-0.0009505487978458405,-0.0030127945356070995
1772789525953740300,10.472740234375,0.0019172710599377751,0.0008739829063415527,0.0010458631440997124
1772789525963806500,10.482806396484374,0.0007146482821553946,0.0018259817734360695,0.0027247744146734476
1772789525973872400,10.492872314453125,0.0023500954266637564,-0.0019455868750810623,-0.0006960558821447194
1772789525983938600,10.5029384765625,0.0003992435522377491,-0.000882457010447979,0.0023754597641527653
1772789525994004500,10.51300439453125,-0.0004806648939847946,-0.0008129486814141273,-0.00026240124134346843
1772789526004069400,10.5230693359375,-0.00084299361333251,-0.0006082737818360329,0.0010195894865319133
1772789526014135300,10.53313525390625,0.0008510432671755552,0.000775504857301712,-0.0007386294309981167
1772789526024201500,10.543201416015625,0.0004645173903554678,0.0007975799962878227,-0.0010063070803880692
1772789526034267400,10.553267333984374,-0.000888101989403367,-0.00005729496479034424,-0.00011654489208012819
1772789526044333600,10.56333349609375,-0.0007290937937796116,-0.0020512808114290237,-0.002415481023490429
1772789526054398200,10.573398193359376,-0.000136540737003088,-0.002799362875521183,-0.0010564698604866862
1772789526064464400,10.58346435546875,0.0005752239376306534,0.0018890388309955597,-0.00042233499698340893
1772789526074530300,10.5935302734375,0.001982970628887415,-0.0021395254880189896,-0.0005411119782365859
1772789526084596500,10.603596435546875,-0.0008507566526532173,-0.0020315907895565033,0.00017388619016855955
1772789526094662400,10.613662353515625,0.0004874817095696926,0.0000011995434761047363,0.001519581419415772
1772789526104727600,10.6237275390625,0.000292706536129117,-0.001403450034558773,0.0012957550352439284
1772789526114793200,10.633793212890625,-0.0015065253246575594,-0.0020495327189564705,-0.0006526135839521885
1772789526124859400,10.643859375,-0.00033812783658504486,0.002680978737771511,0.0010477881878614426
1772789526134925300,10.65392529296875,0.0020395424216985703,-0.0006250692531466484,-0.0007439865148626268
1772789526144991500,10.663991455078126,0.0016088339034467936,0.001328086480498314,0.002761164214462042
1772789526155056400,10.674056396484374,0.0014232117682695389,-0.0008993810042738914,-0.0011851079761981964
1772789526165122600,10.68412255859375,0.0004042161162942648,0.0018865792080760002,0.0028435513377189636
1772789526175188200,10.694188232421874,0.0018274092581123114,-0.0006205206736922264,0.0013476538006216288
1772789526185254400,10.70425439453125,0.0005235807038843632,0.0001502418890595436,0.0005079361726529896
1772789526195319300,10.7143193359375,0.0008378336206078529,0.0004834029823541641,-0.0032346041407436132
1772789526205385500,10.724385498046875,-0.001402589725330472,-0.0026506828144192696,-0.002322882181033492
1772789526215451400,10.734451416015625,0.00031861127354204655,0.0016114404425024986,-0.00015187333337962627
1772789526225517300,10.744517333984374,0.0004815538413822651,-0.0010560685768723488,-0.0010203947313129902
1772789526235583200,10.754583251953125,0.0005409421864897013,-0.0010928204283118248,-0.0008395660552196205
1772789526245648400,10.7646484375,-0.002966494532302022,0.0005038194358348846,-0.003756278194487095
1772789526255714300,10.77471435546875,-0.0015233273152261972,-0.0003172336146235466,0.00015697069466114044
1772789526265780500,10.784780517578126,-0.0015091144014149904,-0.0019068894907832146,-0.0009378397953696549
1772789526275846400,10.794846435546875,-0.00004837033338844776,0.000019375234842300415,-0.00003209873102605343
1772789526285912300,10.804912353515626,0.001193866366520524,-0.0010925205424427986,0.0016997314523905516
1772789526295977500,10.8149775390625,0.002415990922600031,-0.0010126251727342606,-0.0006089629605412483
1772789526306043400,10.82504345703125,-0.0008042361587285995,-0.0013319645076990128,0.0010350772645324469
1772789526316109800,10.83510986328125,0.001442939043045044,0.0005815168842673302,0.00017860473599284887
1772789526326175700,10.84517578125,0.0008654927369207144,0.0004949066787958145,0.00030234851874411106
1772789526336241700,10.85524169921875,-0.0001310619991272688,-0.0014233682304620743,0.0007225952576845884
1772789526346306800,10.865306884765625,0.002598792314529419,0.0008015166968107224,-0.00033368924050591886
1772789526356372700,10.875372802734375,-0.0007498662453144789,0.0018177786841988564,-0.0020775271113961935
1772789526366439000,10.88543896484375,0.0011243317276239395,0.0001713307574391365,-0.0032085394486784935
1772789526376504800,10.8955048828125,0.0005850417073816061,0.0029527368023991585,0.001281816279515624
1772789526386570800,10.90557080078125,-0.0010399383027106524,0.001767640933394432,0.0029817987233400345
1772789526396635600,10.9156357421875,0.00027805985882878304,0.0006176875904202461,0.003428943222388625
1772789526406701800,10.925701904296876,-0.00014306814409792423,-0.0012473277747631073,-0.0007135543855838478
1772789526416767700,10.935767822265625,-0.0016062089707702398,-0.0017381487414240837,-0.0013575067277997732
1772789526426834000,10.945833984375,0.00028416491113603115,0.0007181223481893539,-0.000016277714166790247
1772789526436899800,10.95589990234375,-0.0027853944338858128,0.0005953507497906685,-0.0023465435951948166
1772789526446964700,10.96596484375,-0.00040747830644249916,-0.0002644006162881851,0.0002769588027149439
1772789526457030700,10.97603076171875,0.0003621752839535475,-0.00042738672345876694,-0.0022200210951268673
1772789526467096800,10.986096923828125,0.0006700148805975914,-0.0037773065268993378,-0.0016371958190575242
1772789526477162800,10.996162841796876,0.0014593759551644325,0.00041877012699842453,0.0028030925896018744
1772789526487228000,11.006227783203125,-0.0015452452935278416,-0.0023447610437870026,0.005866637919098139
1772789526497293800,11.0162939453125,0.000992747489362955,0.0005309199914336205,0.002597074955701828
