time,seconds_elapsed,z,y,x
1772790835825078800,0.083078857421875,0.14088146585226058,0.014330138647556305,0.4993402818875387
1772790835835143700,0.093143798828125,0.011865794360637665,-0.29766718780100343,0.7446895822238176
1772790835845209900,0.1032099609375,-0.030921792486310003,-0.19102350711524485,0.7342180917657911
1772790835855274800,0.113274658203125,0.05777823522984981,-0.11924538810551166,0.7811631636183708
1772790835865339600,0.123339599609375,0.14341478372216224,0.027643209207057953,0.6897627909023314
1772790835875404800,0.13340478515625,0.44462709678411483,0.17882453527748585,0.7903744248822331
1772790835885470700,0.143470703125,0.6595879443258047,0.11548515878915785,0.764770393352583
1772790835895535600,0.15353564453125,0.8278314643561839,0.2669651755452156,0.679636533685401
1772790835905600800,0.163600830078125,1.0177537322312593,0.3689893797367811,0.755465316325426
1772790835915667000,0.1736669921875,1.0867489425241947,0.4146820403754711,0.5929485033787787
1772790835925731600,0.183731689453125,0.9781962133467197,0.27412498417198655,0.12930424264203758
1772790835935796700,0.193796630859375,0.6739969934284686,-0.10127660069465637,-0.3819482665637508
1772790835945862000,0.20386181640625,0.6506044274032116,-0.2787327702283859,-0.32609471578616644
1772790835955927800,0.213927734375,0.3532224862843752,-0.14970482377707958,-0.5228375138636678
1772790835965992700,0.22399267578125,0.26705402287244795,-0.15541326455175875,-0.42540882076881825
1772790835976057900,0.234057861328125,0.15939210505485535,-0.2566992175966501,-0.4378837600037455
1772790835986123800,0.244123779296875,0.03197100927829742,-0.19122049099206923,-0.5395958660388365
1772790835996188700,0.254188720703125,-0.11007540870010853,-0.21228139919936656,-0.5382801437977701
1772790836006253800,0.26425390625,-0.1672930874377489,-0.1987894649416208,-0.5337842571506276
1772790836016318700,0.274318603515625,-0.14235095388293265,-0.2200309904128313,-0.4428548994798213
1772790836026385000,0.284385009765625,-0.16559388230443,-0.25997896991968156,-0.31931802472546694
1772790836036449800,0.29444970703125,-0.09039280310869216,-0.289652223649621,-0.27697712220009413
1772790836046514700,0.3045146484375,0.03282382671535015,-0.3279454216867685,-0.29219785301182416
1772790836056579800,0.314579833984375,0.09490823470652103,-0.3343716553419828,-0.2509620621841401
1772790836066645500,0.3246455078125,0.20521452955305575,-0.30428982081115247,-0.1966819895346649
1772790836076710700,0.334710693359375,0.31029227609634397,-0.2684866860240698,-0.15525518791321663
1772790836086775800,0.34477587890625,0.4018769193381071,-0.26095307564884423,-0.07449225050637033
1772790836096841700,0.354841796875,0.513725182929635,-0.2845987396523356,-0.02507916283875238
1772790836106906600,0.36490673828125,0.5166162281960248,-0.27793694367557764,-0.09636415086956694
1772790836116971800,0.3749716796875,0.49058746844828127,-0.2181967607229948,-0.05378196410133969
1772790836127037000,0.385036865234375,0.5347521888673306,-0.15140198308378458,-0.09121181874084286
1772790836137102800,0.395102783203125,0.5384937134832144,0.041830432252585883,-0.1164732473779004
1772790836147167700,0.405167724609375,0.5563058490276336,0.27422347611039877,-0.19033479419872162
1772790836157232600,0.415232666015625,0.509019781717658,0.6063125734731555,-0.3652954205896705
1772790836167298800,0.425298828125,0.47240649959146974,0.8693190745204686,-0.5259295615948736
1772790836177363700,0.43536376953125,0.4622042545288801,1.2095230892777442,-0.5418618016768246
1772790836187428600,0.4454287109375,0.45847500487267967,1.626738155262172,-0.6063139982452616
1772790836197493800,0.45549365234375,0.487204840272665,1.9403993232697248,-0.6753738347396254
1772790836207560000,0.465559814453125,0.5615770674288273,2.1821198751822113,-0.6635251376442611
1772790836217624600,0.47562451171875,0.8038245658248663,2.377045065911114,-0.5416670097570866
1772790836227689700,0.485689697265625,1.0212918432295321,2.27480371183753,-0.3580752235451713
1772790836237755600,0.495755615234375,1.0037971030712127,2.183153602144122,-0.3620057313945144
1772790836247820500,0.505820556640625,1.2870435513317584,2.2330703102186322,0.027573504971712827
1772790836257885700,0.5158857421875,1.5607850891441106,2.6449188807338473,-0.10445588831789791
1772790836267950800,0.525950927734375,1.6019535503566265,2.4793586084380745,-0.08602759363651274
1772790836278016800,0.536016845703125,1.8890683644831179,2.1301342518791557,0.2011866622764617
1772790836288081700,0.54608154296875,1.8438754700601099,1.9529773575529454,0.23495164229944346
1772790836298146800,0.556146728515625,1.7938918342292307,1.799754881043732,0.21129399559721349
1772790836308211700,0.566211669921875,1.6434277165174482,1.5608870882138608,0.04687156822495162
1772790836318278000,0.57627783203125,1.710041000109911,1.3890572341293095,0.22943455937840043
1772790836328342800,0.5863427734375,1.618110904431343,1.1767065690860152,0.38687479971311983
1772790836338407700,0.59640771484375,1.5645482410699127,0.9321772433631121,0.4985333859514445
1772790836348473900,0.606473876953125,1.7271224832922218,0.7856877283707261,0.6288067293539643
1772790836358538800,0.616538818359375,1.8800281489372253,0.5626503957487643,0.8472280926130712
1772790836368603600,0.626603759765625,1.9958710351228712,0.3560297987900674,0.9590449381530284
1772790836378668800,0.636668701171875,2.364979072803259,0.02928440054282546,1.0851027827523647
1772790836388734700,0.646734619140625,2.4965935286164282,-0.4819890053205192,1.2582190233856438
1772790836398799600,0.656799560546875,1.9277584528833627,-0.7904716747116297,1.0200213849022983
1772790836408864800,0.66686474609375,2.672751475033164,-1.5586317105025052,1.172438097986579
1772790836418930000,0.676929931640625,2.4682108992189167,-1.7126425609104334,1.2161669112063944
1772790836428995800,0.686995849609375,2.8407980111867186,-1.8261790698498486,1.0627869060479105
1772790836439060700,0.697060791015625,3.1741660424441096,-2.104970876789093,1.0574490521512925
1772790836449126000,0.7071259765625,2.9734283660441636,-2.138105961410701,0.9205328366681933
1772790836459191800,0.71719189453125,2.5096295358002183,-2.338081129005551,0.881413855331391
1772790836469256700,0.727256591796875,3.6809161256641145,-2.4500647094145416,1.0789826193716376
1772790836479321600,0.737321533203125,3.7798236591398715,-2.4238503639668223,0.9379100879266857
1772790836489386800,0.74738671875,2.703484466949105,-2.6357041854038834,0.5979942424610257
1772790836499453000,0.757452880859375,1.2902455622434614,-3.097209059491753,0.3917965470895171
1772790836509517600,0.767517578125,-0.04107259962260723,-3.5067461381942033,0.2143252530518919
1772790836519582700,0.777582763671875,-1.7868442538052796,-3.619234453254938,0.03420293304882943
1772790836529647900,0.78764794921875,-3.6884792543947693,-3.119142074358463,-0.23189956125244496
1772790836539713500,0.797713623046875,-5.41784221009016,-2.628923439222574,-0.63747299702093
1772790836549778700,0.80777880859375,-7.294161567637324,-2.203465445549786,-0.945875440782681
1772790836559843800,0.81784375,-9.3025577378124,-1.8698539609253406,-0.809936984290555
1772790836569908700,0.82790869140625,-11.352899783313275,-1.4878105999566613,-0.5125673911966383
1772790836579974700,0.837974609375,-13.131023555046319,-0.8634021055616438,-0.43569655215777453
1772790836590039800,0.848039794921875,-14.293620057976245,0.02378514553941786,-0.7501561770666391
1772790836600104700,0.858104736328125,-15.163788442802428,0.8000354757402092,-1.2022042176317422
1772790836610171000,0.8681708984375,-14.910987401688098,1.145856453596428,-1.2938438789963722
1772790836620235800,0.87823583984375,-15.312864905548095,1.9641937480941414,-1.4624439573794603
1772790836630300700,0.88830078125,-15.39780879560113,2.7992595476180315,-1.709548248156905
1772790836640365800,0.89836572265625,-13.34270114313364,2.313311575538665,-1.4706702261939644
1772790836650431700,0.908431640625,-12.666907329416274,1.8517806902267038,-1.169781007606536
1772790836660496600,0.91849658203125,-11.563626938807964,1.3475192089520394,-0.6644278586376458
1772790836670561800,0.928561767578125,-10.015800115436315,0.6487345418781042,-0.3631550840927288
1772790836680626700,0.938626708984375,-8.660335354307293,0.38806905099898575,-0.20878460659217088
1772790836690692600,0.948692626953125,-7.353094233599305,0.405848599448055,0.013657774077635257
1772790836700757800,0.9587578125,-5.721394364276528,-0.25788097472712396,-0.05937732272325083
1772790836710823000,0.968822998046875,-4.185842500588298,-0.642031098716706,-0.008579091707011684
1772790836720888600,0.978888671875,-2.7336598249822854,-0.6917573987856507,0.08566051388978958
1772790836730953700,0.98895361328125,-1.1255220330327749,-0.9621996027916669,0.2394782528784126
1772790836741019000,0.999018798828125,0.15907763227820396,-1.253393064533919,0.5029798439662904
1772790836751083800,1.009083740234375,0.8627683377027511,-1.0637003676310182,0.5075958863943815
1772790836761149700,1.019149658203125,2.0728391239911317,-0.7630803213737904,0.47059404334202404
1772790836771214800,1.02921484375,3.4083535685032604,-0.5699432561706751,0.5702369784202427
1772790836781279700,1.03927978515625,4.277264062222838,-0.513664867577143,0.6658665131386369
1772790836791344600,1.0493447265625,5.250716295912862,-0.29564890678115185,0.6649049746301025
1772790836801410600,1.05941064453125,6.118308108249306,-0.021926018870342522,0.8958855213414877
1772790836811475700,1.069475830078125,6.851074686032534,0.28035266304779793,1.3820415101483463
1772790836821540900,1.079540771484375,7.541585007366538,0.0559262232881505,1.4419117492213844
1772790836831606500,1.0896064453125,7.670332967832684,-0.28904550819443536,1.1405880847394465
1772790836841671700,1.099671630859375,8.461863869273662,-0.23612079567667096,1.693110031314194
1772790836851736800,1.10973681640625,9.28660847353041,0.20806334311291574,2.2697338612273334
1772790836861801700,1.1198017578125,9.853512288939953,0.3525376823579892,2.4056110890515146
1772790836871867600,1.12986767578125,10.239228931593894,0.13396268117344007,2.0802923626065253
1772790836881932800,1.139932861328125,10.388981101644038,-0.3923035832962021,1.867369158372283
1772790836891997700,1.149997802734375,10.853542732954025,-0.595618599370867,1.843968701301515
1772790836902062600,1.1600625,11.18606320747137,-0.5352415798194706,1.6493509690865873
1772790836912128800,1.170128662109375,11.264890660470723,-0.6839375188149511,1.4142982045002281
1772790836922193700,1.180193603515625,11.005710147452353,-0.8070796220980584,1.297811759714037
1772790836932258800,1.1902587890625,10.66356142836809,-0.7243398910257965,1.222323972531408
1772790836942323700,1.20032373046875,10.433633897840975,-0.5550631554901599,1.3365189453795552
1772790836952389600,1.2103896484375,10.168452683103084,-0.5054991333108395,1.3705669070623814
1772790836962454800,1.220454833984375,10.05188031359911,-0.44208639932535587,1.1270134406343102
1772790836972519700,1.230519775390625,10.423383721983432,-0.2037505214150995,0.8567897016845643
1772790836982584800,1.240584716796875,9.59776818011105,-0.4968005708094686,0.44129897527471185
1772790836992650800,1.250650634765625,7.76049488479495,-0.5692127499390394,0.23926486585605888
1772790837002716000,1.2607158203125,5.239083141264319,-0.9192468885108828,0.08452756433710455
1772790837012780500,1.270780517578125,3.850394155925512,-1.4794650886766612,0.5589166160479188
1772790837022846700,1.2808466796875,4.127068824580311,-1.6802400283470749,0.7216426147658378
1772790837032912000,1.290911865234375,2.301314702144265,-1.767229160492122,0.14654993994273244
1772790837042976500,1.3009765625,-0.3213455850303173,-2.7970149835616347,-1.0901461837470532
1772790837053041700,1.311041748046875,-0.5838356609880924,-1.0122742779068648,-2.6982971274390817
1772790837063107800,1.32110791015625,-3.4299335321485995,-0.5844377185344696,-3.1648230445593595
1772790837073172700,1.3311728515625,-7.957226832684874,-1.1409880438424647,-3.4324984142005444
1772790837083237600,1.341237548828125,-11.3006318359375,-1.2445574316494166,-3.9363153665781017
1772790837093302800,1.351302734375,-11.998026071566343,-0.8866589163780212,-4.802817337851226
1772790837103368700,1.36136865234375,-12.1362269200325,-0.08685849150270224,-5.443851096093654
1772790837113433900,1.371433837890625,-12.353697120046615,0.7937517923608421,-5.59695783726871
1772790837123498800,1.381498779296875,-12.630388739836215,1.0685033839985727,-5.24795793711543
1772790837133563600,1.391563720703125,-13.594396268832682,0.7529960036024451,-4.490348009976745
1772790837143629800,1.4016298828125,-13.938297384542226,0.050365328624844545,-3.3853713368445635
1772790837153694700,1.41169482421875,-14.513881934535503,-0.31654461448937654,-2.1355393257930873
1772790837163759600,1.421759521484375,-15.466743800139426,-0.373519716642797,-1.302209702412039
1772790837173824800,1.43182470703125,-15.287982977747916,-0.002672141818702221,-1.2853035757966338
1772790837183891000,1.441890869140625,-14.23821907327175,0.2591886963248253,-1.416860748464614
1772790837193955600,1.45195556640625,-13.187586569267511,0.07119973459988832,-1.4352930617339907
1772790837204020700,1.462020751953125,-11.9847889888525,-0.37381051628291606,-1.0942227855361997
1772790837214086700,1.472086669921875,-11.411768151867388,-1.0852996204987169,-0.7119974921293556
1772790837224151800,1.48215185546875,-10.160353547799586,-1.560293798495829,-0.4630360291779041
1772790837234216700,1.492216796875,-8.411928748759626,-1.8408558299779891,-0.5494027916409074
1772790837244281900,1.50228173828125,-6.674513419511914,-2.0680928062468764,-0.5424607174180448
1772790837254347800,1.51234765625,-4.6432104210019105,-2.1146414991930125,-0.4534245896153152
1772790837264412700,1.52241259765625,-2.3081436713814734,-2.039283183608949,-0.23474092215821146
1772790837274477800,1.532477783203125,-0.1440565887570381,-1.977525815615058,0.07647299882769584
1772790837284542700,1.542542724609375,1.6928852826476095,-1.7133713135764002,0.22334669083207845
1772790837294609000,1.55260888671875,3.341725087341666,-1.2663251729518175,0.4038704312428832
1772790837304673800,1.562673828125,4.956535196661949,-0.74808192807585,0.5716594855040311
1772790837314738700,1.57273876953125,6.562127980303764,-0.2605775203347206,0.6808667330674827
1772790837324803800,1.582803955078125,7.76718999851942,-0.3265593741558492,0.7608490551903844
1772790837334869500,1.592869384765625,8.974496580791472,0.7006567445561289,0.9998151938281953
1772790837344934700,1.6029345703125,9.756177703869342,1.3196573885582388,1.172508825135231
1772790837354999800,1.612999755859375,10.37508350919485,0.8417294951967894,1.470208453901112
1772790837365064700,1.623064697265625,11.025434254097938,0.2599740014836192,2.0297189441889523
1772790837375130600,1.633130615234375,11.279654514360427,0.05830883497521281,2.501182025450468
1772790837385195800,1.64319580078125,11.389558658146857,0.07559723890647292,2.8635329900860786
1772790837395261000,1.653260986328125,11.203428183770178,-0.16961349320933222,3.0283009429603815
1772790837405325600,1.66332568359375,11.390427257674931,-0.7247923840336501,2.700261413249373
1772790837415391700,1.673391845703125,11.107495282191037,-0.4512489260766655,2.669523160636425
1772790837425456600,1.68345654296875,10.814992345285415,-0.20600093069039285,2.19769986776039
1772790837435521800,1.693521728515625,10.661704986846447,-0.3541666352666914,1.754664862473309
1772790837445587700,1.703587646484375,10.201679245400427,-0.20209084457457063,1.6509788625493644
1772790837455652600,1.713652587890625,9.885120894646644,0.1430344061024487,1.5355977486565708
1772790837465717800,1.7237177734375,9.745539989998935,0.18717165399268268,1.5787769651696084
1772790837475782700,1.73378271484375,9.384628702777624,0.09926263052374124,1.7517212102368473
1772790837485848600,1.7438486328125,9.023224079081416,-0.004103343665599822,2.0344000877425072
1772790837495913700,1.753913818359375,8.477313951861857,-0.13910174282863735,2.258472170239687
1772790837505979000,1.763978759765625,7.727471736115216,-0.1646331475134939,2.142686859460175
1772790837516043800,1.774043701171875,6.847956261751055,-0.262108821555227,2.166804086498171
1772790837526109700,1.784109619140625,5.715374373334646,-0.3320066797763109,2.0151850996628404
1772790837536174800,1.7941748046875,4.608825920841098,-0.05161985873058438,1.3951048437304794
1772790837546239700,1.80423974609375,3.6178538125514983,0.19051964924633502,0.8613206961777061
1772790837556304600,1.8143046875,2.3586942934453488,0.3459412432350218,0.4233158670775592
1772790837566370800,1.824370849609375,0.9970102194100617,0.3919585327181965,0.0890819397058338
1772790837576435700,1.834435791015625,-0.016070844835042952,0.24137013103961943,-0.25221871118173
1772790837586500600,1.84450048828125,-0.8486901279896497,0.14086911782734096,-0.5531006963107734
1772790837596566500,1.85456640625,-1.7255723312407731,-0.05757409095987677,-0.6357910352833569
1772790837606632400,1.864632568359375,-3.051095543092489,-0.3758152802340686,-0.826413998773694
1772790837616697600,1.874697509765625,-4.804592823091149,-0.5712131299760193,-0.920896628479287
1772790837626762500,1.884762451171875,-6.3786570805251595,-0.8376936638094484,-1.0549041899740694
1772790837636827400,1.894827392578125,-7.890742143908143,-1.0355988201972097,-1.4145615316115319
1772790837646893600,1.9048935546875,-9.132798552522063,-1.2542426671005784,-1.537703196503222
1772790837656958500,1.91495849609375,-10.702986260783671,-1.4596357680909335,-1.6857419867642223
1772790837667023400,1.9250234375,-12.706755355679988,-1.3609297485366463,-1.725018058358878
1772790837677088500,1.935088623046875,-15.05779942663312,-0.8286316017579287,-2.09768364239037
1772790837687154400,1.945154541015625,-17.115477806371448,-0.10919438808187842,-2.5164690264314413
1772790837697219300,1.95521923828125,-18.08007804056406,0.780686997473985,-2.6034984905868765
1772790837707284500,1.965284423828125,-18.566044863474367,1.5211273247554897,-2.6293402033299205
1772790837717349600,1.975349609375,-18.83292236073613,1.8725337015286088,-2.679828866073489
1772790837727415600,1.98541552734375,-18.42142713370323,1.9450586933828888,-2.8767931614145636
1772790837737480400,1.99548046875,-17.341607113659382,1.853205462332815,-3.3016078887477516
1772790837747545600,2.005545654296875,-15.714135675686597,1.4110070540003479,-3.3380607196152208
1772790837757611500,2.015611572265625,-13.883208534526824,0.7461440918810666,-2.95377849367857
1772790837767676700,2.0256767578125,-11.618003841161727,0.07000380281358957,-2.534308342243731
1772790837777741300,2.0357412109375,-9.249528158414364,-0.6510587470419704,-1.812792203401774
1772790837787806500,2.045806396484375,-6.875184460416436,-1.4061843100190161,-0.9315819078184664
1772790837797872600,2.05587255859375,-4.580016005942225,-1.951367730399221,-0.5059708790084347
1772790837807937300,2.065937255859375,-2.3862696981132028,-2.0715455770492555,-0.43812947839312255
1772790837818002400,2.07600244140625,-0.4339169021993875,-1.6769570611536502,-0.6969029449805617
1772790837828067600,2.086067626953125,1.4117916285067795,-1.0729477961868048,-0.8568116212554275
1772790837838133500,2.096133544921875,3.1701661591529846,-0.59824251813367,-0.8763116368215531
1772790837848198400,2.106198486328125,4.804104747313261,-0.2374065611708909,-0.616087094642967
1772790837858263600,2.116263671875,6.248883868664502,-0.09000263474732637,-0.05407024755738675
1772790837868328400,2.126328369140625,7.598415148091315,-0.023719606022536754,0.6023339156331494
1772790837878394400,2.136394287109375,8.58348416981697,0.033036592683196066,1.1478178898625075
1772790837888459500,2.14645947265625,9.344961878299712,-0.009275704802200198,1.575974767230451
1772790837898524400,2.1565244140625,10.04337435106039,-0.10115604305490851,1.8805520266808569
1772790837908589600,2.166589599609375,10.72451186389327,-0.25675408958904444,2.0707114643126725
1772790837918655500,2.176655517578125,11.309722320365905,-0.4109880812283605,2.2747169103369114
1772790837928720400,2.186720458984375,11.649093391430377,-0.5446520899824798,2.353007918372005
1772790837938785500,2.19678564453125,11.6746019266963,-0.4987279586754739,2.3201278314247724
1772790837948850400,2.206850341796875,11.673009689068794,-0.4145360560335219,2.3305609626337884
1772790837958916400,2.216916259765625,11.558684221708774,-0.4277934508830309,2.3126764925055205
1772790837968981500,2.2269814453125,11.315392182695865,-0.5520680653274059,2.3442038496695456
1772790837979046700,2.237046630859375,11.076245572924613,-0.239387944246456,2.263669008230418
1772790837989111300,2.247111328125,10.58314407582879,0.6416346467450261,2.0285773729383942
1772790837999177500,2.257177490234375,10.160037905979156,0.3958865928821265,2.2637613626889883
1772790838009242600,2.26724267578125,9.910704248714447,0.2866474888756871,2.0732078111730514
1772790838019307300,2.277307373046875,9.351539503124355,0.5422966128975153,1.9842774818323552
1772790838029372400,2.287372314453125,8.56972101740241,0.26537907539755107,2.00649442820698
1772790838039438600,2.2974384765625,7.751966710424423,-0.2794673681132495,2.25509553341344
1772790838049503500,2.30750341796875,6.951398516047001,-0.6213670808725059,2.4979174706965686
1772790838059568400,2.317568359375,6.134146313372254,-0.5257036438845097,2.2333511729866267
1772790838069633500,2.327633544921875,5.515742612349987,-0.24107611652910707,1.6718085923492907
1772790838079699500,2.337699462890625,4.610282549390196,-0.11887494735792278,1.069741474426165
1772790838089764600,2.3477646484375,3.506643262341618,-0.12503814616277814,0.7629444200344383
1772790838099829500,2.35782958984375,2.2447031726062296,-0.44260567395910616,0.6322429143477231
1772790838109894400,2.367894287109375,1.0024567943781613,-0.8324734449431299,0.4246523763783276
1772790838119960600,2.377960693359375,-0.6227005214333534,-1.2270461787477136,0.5282493463119492
1772790838130025500,2.388025390625,-2.6104741748183966,-1.5330731986150146,0.7212792613461613
1772790838140090400,2.39809033203125,-4.992005153971911,-1.7640189662739634,0.899725976287201
1772790838150155500,2.408155517578125,-7.351451727089286,-1.7406356064684687,0.8723611456301062
1772790838160221700,2.4182216796875,-9.548174420380592,-1.317524029791355,0.5174017525505274
1772790838170286300,2.428286376953125,-11.190330217266082,-0.6533803218573332,0.14700561128836123
1772790838180351500,2.4383515625,-12.587400661981105,0.2902680174604058,-0.0962480319429189
1772790838190416600,2.448416748046875,-14.017391379523277,1.4974579876154661,-0.23218228718396275
1772790838200482300,2.458482421875,-15.153893656253814,2.3765090593382716,-0.3781039756931364
1772790838210547500,2.46854736328125,-15.658914723724125,2.667739784350991,-0.20347608838789163
1772790838220612600,2.478612548828125,-15.399137998378276,2.596958859685063,0.2848244381669909
1772790838230677200,2.48867724609375,-15.271071590435504,2.1969372128248215,0.6397500020422041
1772790838240743400,2.498743408203125,-14.939315670549869,1.560216787736863,0.6033234746597707
1772790838250808600,2.50880859375,-14.56073720921278,1.0188558482542633,0.17332823941614478
1772790838260873500,2.51887353515625,-13.959555276626348,0.9134957776382565,-0.6155977036908269
1772790838270938400,2.5289384765625,-12.920533715438841,0.7407277659207582,-1.4197630457773804
1772790838281004500,2.539004638671875,-11.523009681737422,0.43660044219493865,-2.1631915950894354
1772790838291069400,2.5490693359375,-9.49914823140502,0.12158990540504455,-2.6990546678081153
1772790838301134600,2.559134521484375,-7.227165422207117,-0.2461380760937929,-2.779653514394164
1772790838311199500,2.569199462890625,-5.075320566040277,-0.5978111409790814,-2.5502421166956424
1772790838321265400,2.579265380859375,-3.3129666103690862,-1.2969162721790373,-1.8348942912250756
1772790838331330600,2.58933056640625,-1.7993956923425196,-1.8478199699021876,-1.1321590598944573
1772790838341395500,2.5993955078125,-0.18425357458889483,-1.9910921302832663,-0.966785103951022
1772790838351460400,2.60946044921875,1.1773083343714474,-1.8915416227288544,-0.872457737872377
1772790838361526500,2.619526611328125,2.5783546969801185,-1.5606959495559334,-0.8765317823782562
1772790838371591700,2.629591796875,3.9365585276842117,-1.2437982838451862,-0.8964607639461756
1772790838381656300,2.63965625,5.531749159777164,-1.0473517287679015,-0.8420710021108389
1772790838391721500,2.649721435546875,6.932877355450391,-0.9917730494089424,-0.6969070366337895
1772790838401787400,2.659787353515625,8.119487186652421,-0.9809022574350237,-0.6432372596360743
1772790838411852500,2.6698525390625,9.023450289052724,-0.9026314154051244,-0.42146574569884687
1772790838421917400,2.67991748046875,9.722441438484191,-0.9367691011980176,-0.18808259482514111
1772790838431982600,2.689982666015625,10.164884761488437,-1.0182876199122517,0.07171458878684789
1772790838442048500,2.700048583984375,10.52495492171049,-1.1835732399851082,0.18042853640802203
1772790838452113400,2.710113525390625,10.760507890903948,-1.4067954276546835,0.2964385775878094
1772790838462178600,2.720178466796875,10.672563065469264,-1.5444227140165865,0.3324785350717604
1772790838472243500,2.730243408203125,10.562536172086,-1.5086960054665803,0.2965283930294216
1772790838482309600,2.7403095703125,10.505929903244972,-1.3515060866311193,0.4193334098452702
1772790838492374500,2.75037451171875,10.094570285290478,-1.2387065136641264,0.7653536000680178
1772790838502439400,2.760439453125,9.784400174269079,-1.0147373800847679,1.0934241094391792
1772790838512504600,2.770504638671875,9.444563239258526,-0.9424182130008936,1.4123795113973319
1772790838522570500,2.780570556640625,8.965202682745456,-0.9848833629604429,1.5590389761291443
1772790838532635400,2.790635498046875,8.413089024710654,-1.0217379064965992,1.6711866610586643
1772790838542700500,2.800700439453125,7.7889651924759145,-1.1922951833620667,1.6986933844044803
1772790838552765400,2.810765380859375,7.024295409953594,-1.426270820236206,1.7909109187223016
1772790838562831400,2.820831298828125,6.204829038360715,-1.6497503436677157,1.5791048819497226
1772790838572896500,2.830896484375,5.445979924815893,-1.642223601424694,1.1661162014886737
1772790838582961700,2.840961669921875,4.443259511065483,-1.644771240080893,0.6983125195175409
1772790838593026300,2.8510263671875,3.166461459416151,-1.6181282939575612,0.2624855093805119
1772790838603095300,2.86109521484375,2.072243496185541,-1.5014038026317953,-0.1665573205091059
1772790838613160400,2.871160400390625,1.1556740101903675,-1.3559915614821016,-0.5300389331424609
1772790838623225300,2.881225341796875,0.1880237407773733,-1.1808706299629061,-1.0735369942516089
1772790838633290200,2.891290283203125,-0.5882856261342764,-0.9656010817982256,-1.4908068591631949
1772790838643356400,2.9013564453125,-1.0145751021951437,-0.7631198496665805,-1.571778484584391
1772790838653421300,2.91142138671875,-1.6924100663512944,-0.777443485508114,-1.3190715514943003
1772790838663486200,2.921486328125,-2.6574925311028954,-1.0811292029462753,-0.7273397304289042
1772790838673551400,2.93155126953125,-3.662278060689568,-1.382331140744686,-0.19752974720411
1772790838683617300,2.9416171875,-5.098430807992815,-1.7188986986957489,0.08399265374280512
1772790838693682400,2.951682373046875,-6.960041256707906,-2.0182696216747162,-0.06692734537716023
1772790838703747300,2.961747314453125,-8.81701995396912,-1.8212372295334933,-0.5600733848676085
1772790838713812200,2.971812255859375,-10.262712683033943,-1.2762450939416885,-0.6529205953910946
1772790838723878400,2.98187841796875,-11.511652421420813,-0.4566495430111885,-0.6240889070518314
1772790838733943600,2.991943603515625,-13.025008819913863,0.17338935848623513,-0.39798878932576626
1772790838744008200,3.00200830078125,-14.770461325144767,0.2975083439774811,0.17105916197299956
1772790838754073300,3.0120732421875,-15.893168885278701,0.10028978161439299,0.5337627394385636
1772790838764139500,3.022139404296875,-16.71153109502196,0.20813407026156783,0.4681249863473698
1772790838774204200,3.0322041015625,-17.50877335984707,0.6936025882609188,0.17830933403065427
1772790838784269300,3.042269287109375,-17.644978650581837,1.4009792887218295,-0.4776367283951491
1772790838794334500,3.05233447265625,-16.977080558550355,1.9536095179766415,-1.470875977899134
1772790838804400400,3.062400390625,-15.686270348161457,2.0632479965642094,-2.2599900274567304
1772790838814465300,3.07246533203125,-13.796633828401564,1.8278341435804961,-2.7149311591148373
1772790838824530400,3.082530517578125,-11.548856070655583,1.1307356760278344,-2.5665178364530203
1772790838834595300,3.09259521484375,-9.072236824053526,0.1861401189878583,-2.004901313796639
1772790838844661500,3.10266162109375,-6.199676477903127,-0.6891688435971737,-1.2071980073310433
1772790838854726400,3.112726318359375,-3.0784634424895048,-1.1370391600862144,-0.6013241906013339
1772790838864791300,3.122791259765625,0.015633622461557386,-1.2815515297867357,-0.08585928786490112
1772790838874856400,3.1328564453125,2.841750781866908,-1.5522792727358639,0.47791200167257336
1772790838884922400,3.14292236328125,5.293805496054888,-1.7395707537159322,0.710235304762423
1772790838894987300,3.1529873046875,7.390263980564475,-1.6437556332975625,0.9394111401394009
1772790838905052400,3.163052490234375,9.01859057406187,-1.329675801486522,1.0758359919089824
1772790838915117300,3.173117431640625,10.387935976505279,-0.8265928624719381,1.0819644847266376
1772790838925183200,3.183183349609375,11.519755063855648,-0.5276832733944058,1.2247322027169167
1772790838935248400,3.193248291015625,12.22997955496311,-0.5586518276318907,1.4446316757045685
1772790838945313500,3.2033134765625,12.725191176080703,-0.6704942460045218,1.8177667769439518
1772790838955378200,3.213378173828125,12.97889354994893,-0.777639300341159,2.0956875001370907
1772790838965444400,3.2234443359375,12.992224156165122,-0.8219277932703495,2.2643745261512693
1772790838975509500,3.233509521484375,12.781174344587326,-0.8350479716062545,2.388850508386642
1772790838985574100,3.24357421875,12.263316007375716,-0.7732677341934293,2.5010002391427752
1772790838995639300,3.253639404296875,11.791382385993003,-0.643250338313356,2.4448731321208177
1772790839005704400,3.263704345703125,11.692925518894194,-0.6442424180906265,2.440131052160263
1772790839015770400,3.273770263671875,11.132476578712463,-0.5972716272749007,2.34455529345572
1772790839025835300,3.283835205078125,10.450456437826157,-0.4379152511205524,2.1760165898710486
1772790839035900400,3.293900390625,9.930554612088203,-0.2671833483405411,2.099471110329032
1772790839045965300,3.30396533203125,9.467083114102483,-0.24837241101711988,2.095000394655764
1772790839056031500,3.314031494140625,8.863685843554139,-0.31984877060130235,2.052074714512378
1772790839066096400,3.324096435546875,8.24108819797337,-0.613765446762368,2.1615169398754834
1772790839076161300,3.334161376953125,7.638365465685725,-1.3003545760646462,2.262606201304495
1772790839086226400,3.344226318359375,6.879057502457499,-0.9421453874088823,2.151230231399834
1772790839096292400,3.354292236328125,6.328992593646049,0.046847018305584784,1.9909847243860364
1772790839106357200,3.364357177734375,5.597887811595201,-0.5172395477261394,1.5958664855279028
1772790839116422400,3.37442236328125,5.015547357600927,-0.7296058487299829,1.4252603280194103
1772790839126487300,3.3844873046875,4.679610352638363,-0.2508820557504892,1.3603645158693194
1772790839136553200,3.39455322265625,3.7324183493643996,-0.19408369840346276,1.2944532430663704
1772790839146618400,3.404618408203125,2.4959903020262715,-0.504068662116304,1.024628221110627
1772790839156683500,3.41468359375,1.1826286526113747,-0.5512540455307812,0.5929891276501119
1772790839166748200,3.424748046875,-0.7199754852712154,-0.3900521876402199,0.3306822262395173
1772790839176814300,3.434814453125,-2.9524709182113407,-0.22584530271477996,0.1182364302586764
1772790839186879500,3.44487939453125,-4.59951448713839,-0.21754837981685995,-0.24306539065018296
1772790839196944400,3.4549443359375,-6.644634414076805,-0.9293974033862352,-0.25851876117400824
1772790839207009300,3.46500927734375,-9.454318909597397,-1.8841753317445515,-0.042006154145672915
1772790839217075500,3.475075439453125,-11.854003385078906,-2.1193147517010567,-0.3139232895424589
1772790839227140400,3.485140380859375,-13.165168985754251,-1.488986365737766,-1.0771196019787341
1772790839237205200,3.495205322265625,-13.726046965003013,-0.24708690125122665,-2.115002733720839
1772790839247270400,3.5052705078125,-13.909320296382903,1.3573871074937283,-3.002466829001903
1772790839257336300,3.51533642578125,-13.977517634296417,1.8836616831339894,-2.951192568838596
1772790839267401500,3.5254013671875,-14.273334810316562,1.2815483149163425,-2.155988531842828
1772790839277466400,3.53546630859375,-14.581740249752997,0.7014990405991673,-1.2616503130085766
1772790839287531300,3.54553125,-14.469243166863917,0.14336422257870435,-0.479017442163825
1772790839297597400,3.555597412109375,-14.567753809976576,-0.34932606336772437,-0.10620677797268144
1772790839307662300,3.565662353515625,-14.472180973881482,-0.26218261744379995,-0.6323412601556628
1772790839317727200,3.575727294921875,-14.336144025450944,0.22354805862307547,-1.7162731724977491
1772790839327792400,3.58579248046875,-13.780709114038943,0.43877807849496603,-2.580892691025138
1772790839337857300,3.595857177734375,-12.85563541907072,0.6340368850924074,-3.117256991264224
1772790839347923200,3.605923095703125,-11.394494360983371,0.8705316651806235,-3.5148777144625782
1772790839357988400,3.61598828125,-9.475524194711447,0.8121854208044708,-3.228637929604947
1772790839368053500,3.626053466796875,-7.582618444022536,0.31710210224166513,-2.718736688877642
1772790839378118400,3.636118408203125,-5.2900505274355405,-0.07777677490264177,-2.0796879669725894
1772790839388184300,3.646184326171875,-3.055006579056382,-0.2439285833507776,-1.6049693910464644
1772790839398249500,3.65624951171875,-0.7858113547503948,-0.26523981305733324,-1.297852237854898
1772790839408314400,3.666314453125,1.3365017019838095,-0.11343567891344428,-1.2476786324098705
1772790839418379300,3.676379150390625,3.283290434029698,-0.003814151460677385,-1.1127439461328088
1772790839428445400,3.686445556640625,4.923177701461315,0.04106529309898615,-0.632231808431819
1772790839438510300,3.69651025390625,6.238624924978613,0.00002557283267378807,0.041959465459734197
1772790839448575200,3.7065751953125,7.324204239201546,-0.031246640526503323,0.6880940539725124
1772790839458640400,3.716640380859375,8.215835683295131,-0.18689049896374343,1.3360286776445804
1772790839468706300,3.726706298828125,9.103492963060736,-0.4019235349588096,1.8737804867193102
1772790839478771500,3.736771484375,9.887551336663961,-0.5291165210679173,2.1831628083638845
1772790839488836400,3.74683642578125,10.439571471196412,-0.5291089222833514,2.2275848645448684
1772790839498901200,3.7569013671875,10.914693074965477,-0.4900451782651245,2.078110926914215
1772790839508967400,3.766967529296875,11.339451103675366,-0.5001360719077289,1.7216417137935756
1772790839519032300,3.7770322265625,11.705237887978553,-0.4513827085241675,1.3882820119731127
1772790839529097200,3.78709716796875,11.75998187007904,-0.38076924937963486,1.116389901419729
1772790839539162400,3.797162353515625,11.752114205443858,-0.398403544139117,0.9096390291448682
1772790839549228500,3.807228515625,11.729666226792334,-0.5548924750983715,0.9954911200840025
1772790839559293200,3.817293212890625,11.629130799853801,-0.7093854099348187,1.1431532590523361
1772790839569358300,3.8273583984375,11.341985590589045,-0.7206759616907685,1.2531380668595433
1772790839579423500,3.837423583984375,10.858925010514259,-0.8308617719627917,1.3165791501566766
1772790839589489400,3.847489501953125,10.192743074750899,-1.0460674611110239,1.5331507938958704
1772790839599554600,3.857554443359375,9.228061007493734,-1.3089993625521659,1.2846291836664079
1772790839609619700,3.86761962890625,8.380952011215687,-1.5635571842059492,1.0055860323145984
1772790839619684600,3.8776845703125,7.319172674775123,-1.700902000364661,0.8174786318417638
1772790839629749500,3.88774951171875,5.917561079499126,-1.6191725423134862,0.5645792449194937
1772790839639815700,3.897815673828125,4.608055520990491,-1.3768509557679294,0.18940467374175785
1772790839649880600,3.907880615234375,3.339616132363677,-1.14449853618145,-0.16362426273189484
1772790839659945700,3.91794580078125,2.294694407221675,-0.9595938772726803,-0.5176159798230976
1772790839670010600,3.9280107421875,1.606044034540653,-0.8342279604602605,-0.736342901900038
1772790839680076500,3.93807666015625,0.8754682447999715,-0.7492720146432519,-0.8084034180477261
1772790839690141700,3.9481416015625,-0.04050912052094936,-0.6934186099961399,-0.717921913742274
1772790839700206600,3.95820654296875,-1.229820611897111,-0.5963638647802174,-0.5211583286050707
1772790839710271500,3.968271484375,-2.60352947024703,-0.6504499674938619,-0.331722529072687
1772790839720337700,3.978337646484375,-4.127342380824685,-0.7624471380367874,-0.19973025292307137
1772790839730402800,3.98840283203125,-6.08279080466628,-0.9431723923690617,-0.2891200164690614
1772790839740467500,3.998467529296875,-8.408722646194695,-0.9722576170779764,-0.665252399828285
1772790839750532600,4.00853271484375,-10.070220272409916,-0.6249129367858172,-1.178908243848756
1772790839760597800,4.01859765625,-10.998692377644776,0.2528084937684238,-1.9494111895039676
1772790839770662700,4.02866259765625,-11.99094517339468,1.5203252145923674,-2.705463658067584
1772790839780728600,4.038728515625,-13.406902689409256,2.2028885224446655,-2.8154385290026664
1772790839790793700,4.048793701171875,-14.838653986883163,1.9113864331446586,-2.4292988386310634
1772790839800858600,4.058858642578125,-15.798752233481407,1.5537601589433847,-1.92944187592566
1772790839810923500,4.068923583984375,-16.085291878068446,1.4727829805642365,-1.507361249731481
1772790839820989700,4.07898974609375,-15.97360844964981,1.481409939134121,-1.3533572674557566
1772790839831054600,4.0890546875,-15.705753631788491,1.590204952634871,-1.5914952847063542
1772790839841119500,4.099119384765625,-14.905245058643818,1.864334612981975,-2.0566180570304393
1772790839851184600,4.1091845703125,-13.546785791873932,1.837116643449664,-2.3976680210925636
1772790839861250600,4.11925048828125,-11.803554469823837,1.4338587911471723,-2.5777687137857077
1772790839871315700,4.129315673828125,-9.8096310616374,0.7233218730896711,-2.4191144214861096
1772790839881380600,4.139380615234375,-7.697987282955646,-0.053747080017626285,-1.9631173510342834
1772790839891445800,4.14944580078125,-5.847143142926693,-0.5790221232265234,-1.57480645410344
1772790839901511700,4.15951171875,-4.046169826003909,-0.8175396413139998,-1.176829172552377
1772790839911576600,4.16957666015625,-2.0711182915478945,-0.7680196774721145,-0.8729374111481011
1772790839921641500,4.179641357421875,0.1444184078067541,-0.7864765406608581,-0.5433686260432005
1772790839931706600,4.18970654296875,2.0451760410398245,-1.0931282682977617,0.06980141210928559
1772790839941772800,4.199772705078125,3.758760412845015,-1.3251441494062541,0.4278465693097561
1772790839951837400,4.20983740234375,5.424188364246487,-1.4248210598193107,0.4892579734101891
1772790839961902600,4.219902587890625,6.623312224584818,-1.5183762724816798,0.6638087768912315
1772790839971967700,4.2299677734375,7.591385103324055,-1.5545741056747733,0.8528240129239857
1772790839982033400,4.240033447265625,8.531932261756062,-1.6797170273862778,1.1507296856559812
1772790839992098600,4.2500986328125,9.47298093996942,-1.963862616443634,1.7518581344895063
1772790840002163700,4.260163818359375,10.369931533259154,-2.1295998527415096,2.4219687880039213
1772790840012228600,4.270228515625,10.930374628221989,-1.9978784294225274,2.8683240237548944
1772790840022293500,4.28029345703125,11.102780528628825,-1.8142828803509472,3.02140300014019
1772790840032359700,4.290359619140625,11.287227579963206,-1.7636004486009478,3.1662992545917628
1772790840042424600,4.300424560546875,11.253791758829355,-1.6441308963507413,3.21488763667196
1772790840052489500,4.310489501953125,10.924206753242014,-1.419648479487002,3.1274703422427175
1772790840062554600,4.3205546875,10.50098835518956,-1.2139610717251896,3.056638271911442
1772790840072620500,4.33062060546875,9.918014279466867,-1.1037176129817963,3.000397913773358
1772790840082685700,4.340685791015625,9.34446328112781,-1.015810343078524,2.9342221448153256
1772790840092750600,4.35075048828125,8.682955182394386,-1.1505180887319146,2.8734648937746883
1772790840102815700,4.360815673828125,8.155152374273538,-0.8021860048376024,2.9814681723758576
1772790840112881700,4.370881591796875,7.924616940981149,-0.00006035188511013984,2.7846932621270417
1772790840122946600,4.380946533203125,6.940021381986141,-0.5682072992235422,2.422229192505777
1772790840133011500,4.391011474609375,6.446875461226702,-1.0694283898890018,2.6343738135829566
1772790840143076600,4.40107666015625,5.50859215607345,-1.2766582047872244,2.523323714631796
1772790840153142800,4.411142822265625,4.205874065747857,-1.5990128207296133,2.503671504178643
1772790840163207400,4.42120751953125,3.3363276122123002,-1.9612021650627254,2.1534531681463123
1772790840173272600,4.4312724609375,2.260993213149905,-2.0246312656611205,1.6016254874460398
1772790840183337700,4.441337646484375,1.3441273745566606,-1.9848539665460585,1.2458455717638135
1772790840193402600,4.451402587890625,0.30167993057370185,-1.7901508941352366,0.782035197212547
1772790840203468500,4.461468505859375,-1.0640127945810556,-1.574348627333343,0.1651557831481099
1772790840213533700,4.47153369140625,-2.258020334818959,-1.5337012673854826,-0.012735238705505617
1772790840223598600,4.4815986328125,-3.8368256493002173,-1.5686172440744937,-0.1437003774642013
1772790840233663500,4.49166357421875,-5.689048091945052,-1.4312592761732637,-0.30264596259426324
1772790840243729700,4.501729736328125,-7.149225857958197,-1.213549422184378,-0.6963983564592897
1772790840253794600,4.511794677734375,-9.038274348697065,-0.9976211909152567,-0.9467942361280322
1772790840263859500,4.521859375,-10.875922907066345,-0.550789277563244,-0.9599364071000367
1772790840273924600,4.531924560546875,-11.46473168029189,-0.2541813895568251,-1.208453121958673
1772790840283990500,4.541990478515625,-11.69282147399783,0.03583411444723606,-1.4685782223507762
1772790840294055700,4.5520556640625,-12.051207042133807,1.076289215569198,-1.8547820639997719
1772790840304120600,4.56212060546875,-12.460205191653966,2.2258900433257223,-2.088059489476681
1772790840314185700,4.572185791015625,-12.592233488965034,2.2551871572196482,-1.8862413243636489
1772790840324251600,4.582251708984375,-12.63012102881074,1.9436264686226843,-1.3291241589531302
1772790840334316500,4.592316650390625,-12.575015812182425,1.6828031568333506,-0.6343585913274437
1772790840344381700,4.602381591796875,-12.267236980211734,1.32898475048244,-0.3627165830776095
1772790840354446600,4.612446533203125,-11.841576449704169,1.1207485350206494,-0.30651743373274803
1772790840364511500,4.622511474609375,-11.015442436915636,1.194403846079111,-0.36905667281933124
1772790840374577400,4.632577392578125,-10.131342557370662,1.1997916765972971,-0.5587929166030139
1772790840384642600,4.642642578125,-8.818944784551858,0.9149851394131779,-0.7034504669278859
1772790840394707700,4.652707763671875,-7.162581598615646,0.4003913569554686,-0.6484708494406193
1772790840404772600,4.662772705078125,-5.396919249048829,0.21292261971235274,-0.7439467279672622
1772790840414838500,4.672838623046875,-3.707790688586235,0.29654607481658457,-0.5780062607148662
1772790840424903700,4.682903564453125,-2.348085221147537,0.37752749097943306,-0.3858882363611832
1772790840434968800,4.69296875,-0.9615390930563211,0.5341477932333946,-0.4761408638142049
1772790840445033500,4.703033447265625,0.578052985933423,0.6608258155576885,-0.4951773169891909
1772790840455099600,4.713099609375,1.4714660527467727,0.9868497676625847,-0.4084383602129295
1772790840465164500,4.72316455078125,2.6610440861046314,1.3587376453198492,-0.3526306578710675
1772790840475229400,4.7332294921875,4.077094541099667,1.572943290580064,-0.031567771372804414
1772790840485294600,4.743294677734375,5.357862080901861,1.5732529410511253,0.4815003815533593
1772790840495360500,4.753360595703125,6.181626441949605,1.5574046529255807,0.10179632285297847
1772790840505425700,4.76342578125,7.390786543133855,0.8895132828958332,0.6143854783568531
1772790840515490600,4.773490478515625,8.37932177966535,0.1244113925665617,1.1859842466495931
1772790840525555700,4.7835556640625,9.198671831402182,-0.5139223129369318,1.5833287832550704
1772790840535620600,4.79362060546875,9.949668477880953,-0.8984887626424432,1.746222028298676
1772790840545686800,4.803686767578125,10.426378812146186,-0.9978186131834983,1.478852655866742
1772790840555751700,4.813751708984375,10.64347725623846,-0.9961690924108028,1.4739512936912476
1772790840565816600,4.823816650390625,10.415272896242142,-0.7493076704785228,1.041370754662156
1772790840575881700,4.8338818359375,10.36780971879959,-0.6163873927637934,0.999424148683995
1772790840585947400,4.843947509765625,10.179567951357365,-0.5522758628591895,0.9818480138525366
1772790840596012500,4.854012451171875,9.921076005125045,-0.2043393541537225,0.982379125054553
1772790840606073600,4.864073486328125,9.576063128781318,-0.03540390633642673,1.0079220009814946
1772790840616138800,4.874138671875,9.145513657188415,-0.18158727798908947,0.8369554857280105
1772790840626204400,4.884204345703125,7.8786384491384025,-0.3232245306447148,0.9558511105477809
1772790840636269600,4.89426953125,8.315563885504007,-0.35277708060443397,1.7394355830289423
1772790840646334700,4.904334716796875,8.193896823209524,-0.19102613746374844,1.8596790422610938
1772790840656399600,4.914399658203125,6.916279856392741,-0.129233698156476,1.6459009747631848
1772790840666465500,4.924465576171875,6.306842136636376,-0.24824761559367178,1.464173265390098
1772790840676530700,4.93453076171875,5.259804442253708,-0.05900251632779836,1.1331604189567268
1772790840686595600,4.944595703125,4.290771778571606,0.1268263447538018,0.9448043774850666
1772790840696660500,4.954660400390625,3.3220150092214342,0.11947335164248943,0.3992477764109149
1772790840706725600,4.9647255859375,2.1464882975697517,0.014128770856559275,-0.028889291144860905
1772790840716791600,4.97479150390625,1.149628884807229,-0.3236468477100134,-0.1584868450445123
1772790840726856700,4.984856689453125,0.17783961589336394,-0.43389352132380005,-0.46793037709072227
1772790840736921600,4.994921630859375,-0.938431773713231,-0.5890645015522837,-0.5512173667822032
1772790840746986800,5.00498681640625,-2.301142852708697,-1.1915250757724045,-0.5101262816548348
1772790840757052700,5.015052734375,-4.064989092764258,-1.9895982384636997,-0.257535796284955
1772790840767117600,5.02511767578125,-6.641829293528199,-2.3138696478128433,-0.3913106998013332
1772790840777182500,5.035182373046875,-9.157751207470893,-1.288953768867254,-1.2564663344994187
1772790840787247600,5.04524755859375,-10.68723105776906,-0.5906070548191666,-2.083122325335443
1772790840797313800,5.055313720703125,-11.786606842154264,-0.8683215879157185,-2.527258715993166
1772790840807378400,5.06537841796875,-12.65477499307394,-1.1486524409905075,-2.6642197935312986
1772790840817443600,5.075443603515625,-13.335346688717603,-0.9963964714258908,-2.402790478672832
1772790840827508700,5.0855087890625,-13.536145155394076,-1.4350366027548909,-1.774796819267422
1772790840837573600,5.09557373046875,-13.304921155315636,-1.661054558622837,-1.4072553002513943
1772790840847639600,5.1056396484375,-13.23702659974098,-2.005753838972747,-1.2760538091532885
1772790840857704700,5.11570458984375,-13.244760993385315,-2.638559867095947,-1.276436232599616
1772790840867769600,5.12576953125,-12.948186276996134,-2.855023520416021,-1.4579945767551659
1772790840877834500,5.13583447265625,-12.433054149878025,-2.5848689011797306,-1.7169602779790758
1772790840887900700,5.145900634765625,-11.470080055582523,-2.39161836566478,-2.0686815659202633
1772790840897965600,5.155965576171875,-9.991218631887435,-2.589109315228462,-2.0233448791123925
1772790840908030500,5.166030517578125,-8.080592515590787,-3.0689167387261986,-1.8632814506672322
1772790840918095600,5.176095703125,-6.305181509947777,-3.3436528405338524,-1.7185960624873637
1772790840928161500,5.18616162109375,-4.479246185725927,-3.2460990597546098,-1.4641422857299446
1772790840938226700,5.196226806640625,-2.9308967997848985,-2.694596227094531,-1.210551628607884
1772790840948291600,5.20629150390625,-1.5777695416927338,-1.8747414407059548,-0.9297402254745364
1772790840958356700,5.216356689453125,-0.16851006201207636,-1.1492968763738869,-0.5397385989777743
1772790840968421600,5.226421630859375,1.1687737302601338,-0.484310287874937,-0.22911541042663155
1772790840978487600,5.236487548828125,2.355682836669683,0.08368366085886955,-0.18076039871089158
1772790840988552400,5.246552490234375,3.461318265971541,0.25214871468544003,-0.29358561757579443
1772790840998617600,5.25661767578125,4.5556712537586685,0.12090163087993859,-0.1873602353673428
1772790841008682800,5.266682861328125,5.104049816918373,0.16776128947138785,0.12026450202018021
1772790841018748400,5.27674853515625,5.516939713180065,0.25707828004211186,0.5428596536077559
1772790841028813600,5.2868134765625,5.980321779316664,0.3103516050681472,0.881332752919197
1772790841038878700,5.296878662109375,6.247655203652381,0.3375575919017195,1.113004204504192
1772790841048943600,5.306943603515625,6.674972269195318,0.44512072551995513,1.355301679521799
1772790841059009500,5.317009521484375,7.049694639626145,0.6759384828850626,1.5438890455313026
1772790841069074700,5.32707470703125,7.359982239547372,0.9068626232340932,1.5595491176083682
1772790841079139600,5.3371396484375,7.578353187793493,1.1412097237691283,1.446234726987034
1772790841089204500,5.34720458984375,7.865623484742641,1.2656859982654451,1.332880588877201
1772790841099270700,5.357270751953125,8.110578488531708,1.4104440132901073,1.2631537033088505
1772790841109335600,5.36733544921875,8.25902951285541,1.6780238136023282,1.1751664269719273
1772790841119400400,5.377400390625,8.493903852134942,1.7901318971738218,1.078107370907068
1772790841129465600,5.387465576171875,8.537035137853026,1.7244006571128963,0.8499062257811426
1772790841139530800,5.39753076171875,8.445297934398054,1.712163399091363,0.6744362616285682
1772790841149596700,5.4075966796875,8.409895781627297,1.7325141132026909,0.5597738173991441
1772790841159661600,5.41766162109375,8.326504966235161,1.7919649578198789,0.6464272878490388
1772790841169726700,5.427726806640625,8.03416744902432,1.949305975563824,0.5590429823739453
1772790841179791600,5.43779150390625,7.533464829275012,1.9333236857950686,0.38032117681857197
1772790841189857800,5.44785791015625,7.107943999499082,1.9039932541534303,0.08909589516595005
1772790841199922700,5.457922607421875,6.3737020884662865,2.0132117537632586,-0.18174718125853687
1772790841209987600,5.467987548828125,5.6564148193657395,2.093340060228109,-0.40074057225193827
1772790841220052700,5.478052734375,4.998559982442855,2.0151491515666247,-0.40446288071069864
1772790841230118400,5.488118408203125,4.1954117084443565,1.8534046381667255,-0.5722169367237017
1772790841240183600,5.49818359375,3.0900860757440327,1.672488975828886,-1.0064302280537782
1772790841250248700,5.508248779296875,1.6500152782142161,1.3427663153365255,-1.260391691249609
1772790841260313600,5.518313720703125,0.09187865775227547,0.5205217112019658,-0.9048105860751122
1772790841270378500,5.52837841796875,-1.401805656543374,-0.38399113403558727,-0.7726870847612619
1772790841280444700,5.538444580078125,-2.5012860703468323,-1.2195388718575237,-0.4774410596925765
1772790841290509800,5.548509765625,-3.6767683583348987,-1.7770865376397966,-0.4430168851085007
1772790841300574500,5.558574462890625,-5.40978574488461,-1.4721037661284206,-1.3241579148478806
1772790841310639600,5.5686396484375,-6.841703631097078,-1.0360668030351399,-2.1048916740730403
1772790841320705500,5.57870556640625,-7.5198559906393285,-1.1975398060172795,-2.4369041990682483
1772790841330770400,5.5887705078125,-8.119151086565852,-1.7659920199126005,-1.9307225633859633
1772790841340835600,5.598835693359375,-8.61030554124713,-2.135771673244238,-1.2145763540793209
1772790841350900700,5.608900634765625,-9.401035063177346,-2.3329139555007217,-0.2788774576623924
1772790841360965400,5.61896533203125,-9.83083985388279,-2.7458400921195745,0.38916448155287653
1772790841371031600,5.629031494140625,-10.371544813674689,-2.8619775773376226,0.37345066999457777
1772790841381096700,5.6390966796875,-11.249860264599322,-3.276673646238446,0.7155602261122316
1772790841391161600,5.64916162109375,-10.965658707571029,-4.124382361975312,0.6303222484834492
1772790841401226500,5.6592265625,-9.987206473636627,-4.2344829051166775,-0.04864692560071125
1772790841411292700,5.669292724609375,-9.066590927121043,-3.752267543694377,-0.3650990212347358
1772790841421357600,5.679357666015625,-7.781390373307466,-3.813298643240332,-0.4386756410337984
1772790841431422700,5.689422607421875,-6.391624698647856,-4.051950747492909,-0.2605399830696173
1772790841441487600,5.699487548828125,-4.716833875617384,-3.703195177489519,-0.2335466526060365
1772790841451553500,5.709553466796875,-2.7400527408897877,-2.7893820044651627,-0.4327814684286713
1772790841461618700,5.71961865234375,-1.0730769755244254,-1.89920075917989,-0.5220699635572731
1772790841471683600,5.72968359375,-0.005723638343811035,-1.0002619146823883,-0.5460480013202875
1772790841481748500,5.73974853515625,0.5426268677651882,-0.6281687237113713,-0.4015542632550001
1772790841491813600,5.749813720703125,0.45282209367752074,-0.9844298470392823,-0.5511379814030603
1772790841501879800,5.7598798828125,0.6623194151163101,-1.1163760190248488,-0.7651726174779235
1772790841511944400,5.7699443359375,1.1311357812613247,-0.43875089822709556,-1.1837361754618585
1772790841522009600,5.780009521484375,1.2585773353040217,0.4626598893418908,-1.5275421602338553
1772790841532074800,5.79007470703125,1.7146780122607945,1.2313266325458883,-1.5331317969344556
1772790841542140700,5.800140625,2.4764468126446006,1.8582362961068748,-1.1630395705223082
1772790841552205600,5.81020556640625,3.061263885885477,1.9802096478715538,-0.3550705253038555
1772790841562270700,5.820270751953125,3.3792987389326092,1.841167672406137,0.3881280146446079
1772790841572335600,5.830335693359375,3.8854929418355226,2.0596651696413755,0.8091438611514866
1772790841582401500,5.840401611328125,4.477940948346257,2.3757743153229356,0.9813761585570872
1772790841592466700,5.850466796875,4.990300688141584,2.490484690347314,1.0137296643469482
1772790841602531800,5.86053173828125,5.341471502593159,2.5755907852247355,0.9399491925388574
1772790841612597000,5.870596923828125,5.741895885035396,2.5306422209516164,0.8565988552875816
1772790841622662000,5.880661865234375,6.188492820587754,2.5348858498707414,0.7529851899474859
1772790841632727800,5.890727783203125,6.404104240992665,2.9602628872618078,0.6756574009213596
1772790841642793000,5.90079296875,6.546752131995558,2.812166667725146,0.7803017244834453
1772790841652858000,5.910858154296875,6.588007102447748,2.769560282664001,0.4840463762417435
1772790841662922800,5.9209228515625,6.727085902792215,2.9942455286234617,0.5783207700241356
1772790841672989000,5.930989013671875,6.819552589565515,3.0261557476252317,0.705642204818502
1772790841683054000,5.94105419921875,6.6050032454341645,2.991260083071887,0.8393434037778527
1772790841693118700,5.95111865234375,6.450660240462422,2.9242250669360157,0.7031577675916254
1772790841703184000,5.961183837890625,6.524548483493923,2.9183135048046704,0.4494095818202942
1772790841713249000,5.9712490234375,6.24450579971075,3.06717047958076,0.29032778482362626
1772790841723315000,5.98131494140625,5.528554747650027,2.9552859756320715,0.2971071427654475
1772790841733379800,5.9913798828125,5.056282103571295,2.575491416503489,0.3125434890892356
1772790841743445000,6.001445068359375,4.402393832191825,2.0936977876245972,0.3239020645800978
1772790841753510000,6.011510009765625,3.4698563772141933,1.5874226284399628,0.6266142608109861
1772790841763575800,6.021575927734375,3.0983009463816877,2.060951410059631,0.5432911038275807
1772790841773641000,6.031640869140625,2.48672446103096,1.5464426755368708,-0.21399404833614824
1772790841783705900,6.041705810546875,1.21022100841403,0.7804916210323571,0.002104205737635493
1772790841793770800,6.051770751953125,0.18295359790623186,-0.4572030852407217,0.843593535503
1772790841803837000,6.0618369140625,-0.9316840530186891,-1.258341772982478,1.2769634713441134
1772790841813901800,6.07190185546875,-2.788040818989277,-1.1458704090565441,1.0342437523264438
1772790841823967000,6.081967041015625,-4.225772359916568,-1.7035031227737665,0.4840657750619575
1772790841834031900,6.092031982421875,-5.173950451618433,-2.7646125971287487,0.09002112025208771
1772790841844097000,6.102096923828125,-6.598498101323843,-3.4817116501808165,0.2568536409733817
1772790841854163000,6.112162841796875,-7.886413759315014,-3.434991984581947,0.5588518071833998
1772790841864228000,6.12222802734375,-9.148051651233434,-3.228099292683601,0.31546485642865296
1772790841874292700,6.132292724609375,-9.78977017686963,-3.7574861551254988,0.2664412247363478
1772790841884358000,6.14235791015625,-9.553751928251982,-4.41279130756557,0.48148916603960096
1772790841894424000,6.152424072265625,-9.314783013135195,-4.785732639798522,0.45118923177868125
1772790841904488700,6.16248876953125,-9.013307080700994,-5.521346423706412,0.683662647396326
1772790841914553900,6.172553955078125,-8.487073129332066,-6.313655323782563,0.9145741474594921
1772790841924619000,6.182618896484375,-8.01279148351848,-6.606965485417843,1.0387762081243097
1772790841934684000,6.192683837890625,-7.276773794984817,-6.302603183892369,0.689910309614241
1772790841944749800,6.202749755859375,-6.235846107915044,-5.767768577438592,-0.104297190624848
1772790841954815000,6.21281494140625,-4.989989722496271,-4.800769465410709,-0.7975760998893529
1772790841964880000,6.2228798828125,-3.642254094314575,-3.4276451289504766,-1.4032454800881444
1772790841974944800,6.23294482421875,-2.2196961571216582,-2.1081366473436356,-1.6093142883829772
1772790841985011000,6.243010986328125,-0.8786743473649025,-1.1321341446489095,-1.5943325539588926
1772790841995075800,6.253075927734375,0.27390286585390566,-0.3442904072880745,-1.4776685606487094
1772790842005140700,6.263140625,1.2686533236384392,0.4111234711110592,-1.2448986463025211
1772790842015206000,6.273205810546875,1.9834435152262448,1.0655272907972335,-1.2122060447514056
1772790842025271800,6.283271728515625,2.3064187472850084,1.5024977353483437,-1.1642432472236455
1772790842035337000,6.2933369140625,2.481966452848911,1.6086188534647226,-0.7552046195626259
1772790842045401900,6.30340185546875,2.7995722668290135,1.4932310175701975,-0.1094217670969665
1772790842055467000,6.313467041015625,2.7042653881937264,1.4263532378226518,0.7208949382036924
1772790842065532000,6.323531982421875,2.6730507502406833,1.4557628721803426,1.3301185768179595
1772790842075598000,6.33359814453125,3.0831466318696736,1.5558987784072755,1.7134530005104838
1772790842085662700,6.343662841796875,3.517380929455161,1.7233952794626355,2.0225283020325002
1772790842095727900,6.353727783203125,3.7796295978724954,1.8393614997670054,2.056430717764795
1772790842105793000,6.36379296875,4.156767797273397,1.8942504432961345,2.267936164155602
1772790842115858700,6.373858642578125,4.6565813592284915,1.911843675392866,2.4749159498155118
1772790842125923800,6.383923828125,5.076036020833254,1.8994962349951265,2.338797460581362
1772790842135989000,6.393989013671875,5.4406940933674575,2.0574977624744175,2.3039397899508476
1772790842146054000,6.404053955078125,5.743907224857807,2.3166928885400293,2.123723215793073
1772790842156118800,6.414118896484375,6.030723348298668,2.4380063150912523,1.8244984232865273
1772790842166185000,6.42418505859375,6.267003462722897,2.552802614833414,1.5924952555291354
1772790842176249900,6.434249755859375,6.416162343055009,2.810182800431549,1.3644361492224037
1772790842186314800,6.444314697265625,6.608577012267708,2.907288545182347,1.3297012281887233
1772790842196380000,6.4543798828125,6.46166737216711,2.9897715980798005,1.046842756332457
1772790842206445800,6.46444580078125,6.449943616625666,3.0746158271506427,0.5142680941672996
1772790842216511000,6.474510986328125,6.495166321665049,3.2089524014040824,0.388412238413468
1772790842226576000,6.484575927734375,6.348382353770733,3.225760620602965,-0.0073298679640516635
1772790842236641000,6.49464111328125,6.04920183879733,3.3331787927925585,-0.4845701809201389
1772790842246707000,6.50470703125,5.606645118546486,3.4105180530607697,-0.8462623163208365
1772790842256771800,6.514771728515625,4.949691029855608,3.3801936419457195,-1.2280752295345068
1772790842266837000,6.5248369140625,4.11558355396986,3.3557135729447007,-1.5411670732215046
1772790842276902000,6.53490185546875,3.097529962009191,3.2235753855183717,-1.6252347649618983
1772790842286966800,6.544966796875,2.3702514602482316,3.467821656516194,-1.7644053352430462
1772790842297033000,6.555032958984375,1.2866513371437787,2.73414468588978,-0.9861610547460615
1772790842307097900,6.565097900390625,-0.42686172299087044,1.5505609245106577,-0.9473619530133902
1772790842317163000,6.5751630859375,-0.9766209268540144,1.1671046280041337,-1.3636265864051877
1772790842327228000,6.585227783203125,-2.4643437023967505,2.1247169030055404,-0.8564456374872476
1772790842337293800,6.5952939453125,-3.835860019138455,2.4902801076859236,-1.127283343616873
1772790842347359000,6.60535888671875,-3.9029578713774677,1.586299177367985,-1.1119741308040916
1772790842357423900,6.615423828125,-3.824204068136215,0.5603878576442599,-0.34550964688472446
1772790842367488800,6.62548876953125,-4.350504070478678,-0.35505934632271524,0.6002962357930839
1772790842377554000,6.635553955078125,-5.391002718481421,-1.571207991220057,1.5163374601304531
1772790842387620000,6.6456201171875,-7.039143434995412,-3.0573990271508693,2.7231746713250873
1772790842397684700,6.655684814453125,-8.613722071692347,-4.253796677395701,3.4439810544624923
1772790842407750000,6.66575,-9.09158566764593,-4.825388650621473,3.5185230852276086
1772790842417815000,6.67581494140625,-9.383131157696246,-4.808100246690214,3.2802357226341963
1772790842427881000,6.685880859375,-9.714507722875476,-4.38913249181956,2.7047911656334995
1772790842437945900,6.69594580078125,-9.73900445075035,-3.8070468893691896,1.994535256474465
1772790842448011000,6.706010986328125,-9.203835497775673,-3.3347102401435373,1.4394927053809166
1772790842458076000,6.716075927734375,-8.353551963114738,-3.0247908890128135,1.0654703729782253
1772790842468140800,6.726140869140625,-7.513394685670733,-3.107980336613953,0.7404520177192986
1772790842478207000,6.73620703125,-6.153292912390828,-3.2498283094108102,0.45641843766905366
1772790842488272000,6.74627197265625,-4.450933114433289,-3.157020846375823,0.15311072323042899
1772790842498336800,6.756336669921875,-2.7356606434106827,-2.8416233560949564,-0.23366889074621722
1772790842508402000,6.76640185546875,-1.0427268454462288,-2.4857348654717204,-0.6254378374427557
1772790842518467800,6.7764677734375,0.5650760154604911,-2.1614763156041503,-1.0425872908450662
1772790842528533000,6.786532958984375,2.0097820715755224,-1.889601448446512,-1.2629318772517144
1772790842538598000,6.796597900390625,3.1695266922056673,-1.7146271588563917,-1.1510069682274013
1772790842548662800,6.806662841796875,4.125367281359434,-1.5825683202765881,-0.9431876630034297
1772790842558728000,6.81672802734375,5.110707521241903,-1.5652124040670692,-0.6853567379631101
1772790842568794000,6.826794189453125,5.942894842720031,-1.5488324932828545,-0.3680453403523192
1772790842578858800,6.836858642578125,6.48635991487503,-1.5367361050367354,-0.1398882352975197
1772790842588924000,6.846923828125,6.866966082647442,-1.5056505002908407,0.06511588464155793
1772790842598989000,6.856989013671875,7.0309601285398005,-1.6193308016151189,0.15766654163757338
1772790842609054700,6.8670546875,6.838464795306325,-1.8538678717643022,0.19266405913019552
1772790842619119900,6.877119873046875,6.285142346003651,-1.9207593877762554,0.18500855767466126
1772790842629185000,6.88718505859375,5.360640313443541,-2.0362791794873774,0.2218088320066221
1772790842639250000,6.89725,4.738077739176154,-2.313229450213164,0.325397600367479
1772790842649314800,6.907314697265625,4.3510394925296305,-2.5819585666909814,0.33846977484319357
1772790842659381000,6.917381103515625,3.907708280774951,-2.4788731630086898,0.22146979104429482
1772790842669446000,6.92744580078125,3.497973049151897,-2.5831015992462634,0.22869249057313426
1772790842679510800,6.9375107421875,3.3338889868885278,-2.9600930836528536,0.16865239309221505
1772790842689576000,6.947575927734375,3.1866397395700212,-3.124746470236778,0.021650617728754876
1772790842699641900,6.957641845703125,2.454987845030427,-3.204488407732546,0.09942663457957096
1772790842709706800,6.967706787109375,1.6952426594287155,-3.3313515773653983,0.16488266529515386
1772790842719772000,6.97777197265625,1.4719453606963158,-3.3045410195901987,0.08116416145176626
1772790842729837000,6.987837158203125,1.1520289316862822,-3.1265193251281973,0.0438215238714125
1772790842739903000,6.997903076171875,0.5845324110805988,-2.905626749449968,-0.05454356415756047
1772790842749968000,7.0079677734375,-0.04598199897408485,-2.5431121186852454,-0.24990352957453577
1772790842760032800,7.01803271484375,-0.553614125725627,-2.1976810169294474,-0.571950906198658
1772790842770098000,7.028097900390625,-0.9124065210968255,-1.6828773911133408,-0.9010597821742296
1772790842780162800,7.038162841796875,-1.2342039415478705,-1.131179474272579,-1.2167184076093136
1772790842790228700,7.048228759765625,-1.7189993825912475,-0.6140856186274438,-1.5503233163625
1772790842800294000,7.0582939453125,-2.496447982665896,0.0024096914902329443,-1.8571425095207987
1772790842810359000,7.068359130859375,-3.693499128383398,0.38714583520684387,-1.9254029757983981
1772790842820424000,7.078423828125,-5.305520483767986,0.6161490539632737,-1.9910658267982302
1772790842830488800,7.08848876953125,-7.102710775020718,1.0975861244894562,-2.0564102594986555
1772790842840555000,7.098554931640625,-8.695378026115893,1.7816751806043087,-1.9125345802664755
1772790842850620000,7.108619873046875,-9.806790285253523,2.1037823976568877,-1.867314797836542
1772790842860684800,7.118684814453125,-10.746881516611575,2.056911487019062,-1.5176463507719338
1772790842870750000,7.12875,-11.952651975357531,2.5477073375210164,-1.2425383469119666
1772790842880815900,7.13881591796875,-13.592846116781233,3.2331177053675053,-1.1002505213931202
1772790842890880800,7.148880859375,-14.92241597367525,3.5670597371205686,-1.6216104369848965
1772790842900946000,7.15894580078125,-15.472013849496841,4.239781303785741,-2.3540270322866736
1772790842911011000,7.169010986328125,-15.212829829347132,4.765022444725036,-3.0771225492745637
1772790842921077000,7.179076904296875,-14.50413094037175,4.813821254685521,-3.888815656517446
1772790842931142000,7.189141845703125,-13.509773865818977,4.4488703366845845,-4.0861289114266635
1772790842941207000,7.19920703125,-12.134973705101013,3.7775028149768706,-3.6693747409522532
1772790842951272000,7.20927197265625,-10.415174696564673,2.8822181090727446,-2.9673841174438595
1772790842961336800,7.2193369140625,-8.491500882646442,2.111510361560434,-2.323067830399424
1772790842971403000,7.229403076171875,-6.258399300506711,1.4562848502278327,-1.721032934245467
1772790842981468000,7.239468017578125,-3.908974355188012,0.9051925711300224,-1.0389694656740873
1772790842991532800,7.24953271484375,-1.6605612221479416,0.3851774212107062,-0.511616629810445
1772790843001598000,7.259597900390625,0.6232640005350113,-0.13742157118935136,-0.27598478669449683
1772790843011664000,7.269663818359375,2.8964661223948,-0.4352689013302326,-0.15588866351116448
1772790843021729000,7.27972900390625,4.698430203920602,-0.5920355532523244,0.46439792864825574
1772790843031794000,7.2897939453125,6.486794214639067,-0.9654141809239983,0.38974279289748515
1772790843041858800,7.29985888671875,7.9257041516959665,-1.1289603369183838,0.4389456536142155
1772790843051924000,7.309924072265625,8.875684324383736,-1.2987953639239072,0.6815163560826331
1772790843061990000,7.319989990234375,9.708574825695157,-1.4215791552886365,0.8162587346579879
1772790843072054800,7.3300546875,10.342953509962559,-1.4632741245932877,0.9467072884969413
1772790843082120000,7.340119873046875,10.782260288506746,-1.5925697820700704,1.107210934990272
1772790843092184800,7.350184814453125,11.0804459472239,-1.7979685821488498,1.2214196441028267
1772790843102250800,7.360250732421875,11.299674389082194,-1.9451617153659462,1.4684297537907958
1772790843112316000,7.37031591796875,11.331401068210601,-2.062950474922359,1.610677977951616
1772790843122381000,7.380381103515625,11.521831285607814,-2.321190638350695,1.9375280056171118
1772790843132445700,7.39044580078125,11.546138043868542,-2.444636839146912,2.0109731810562312
1772790843142510800,7.4005107421875,11.346897912549972,-2.4745044464051724,2.085526902259141
1772790843152577000,7.410576904296875,11.291471208882331,-2.521840198075771,2.1889636035971343
1772790843162642000,7.420641845703125,11.005125625562668,-2.453167351604998,2.1413281383275984
1772790843172706800,7.430706787109375,10.772923135840893,-2.2313965317875146,2.0159666054293512
1772790843182772000,7.44077197265625,10.540496189713478,-2.1466429036095738,1.841815468790382
1772790843192838000,7.450837890625,10.111134466600417,-2.076865310767293,1.694239473735541
1772790843202902800,7.46090283203125,9.684950204479694,-1.8756291833259164,1.5450386539578438
1772790843212968000,7.470968017578125,9.084176852694153,-1.6507422773145137,1.3873358171641825
1772790843223032800,7.48103271484375,8.475485567390919,-1.3740069645136594,1.1844732575647532
1772790843233097700,7.49109765625,7.723193620404601,-1.2255945186346768,1.214297756333649
1772790843243164000,7.501163818359375,6.361655092319846,-1.2554627104148268,1.1446445935886354
1772790843253228800,7.511228759765625,4.63310345300734,-1.502856485658139,1.001083533263579
1772790843263294000,7.5212939453125,3.136471394822001,-1.6243819475248455,0.7101736377030611
1772790843273358800,7.53135888671875,1.8264871128857134,-1.0167042962435633,0.24837862156219778
1772790843283424800,7.5414248046875,0.5789958197414875,-0.23956819618418812,-0.13454393339380621
1772790843293490000,7.551489990234375,-1.2767863612115382,0.08215952003151178,-0.312915829532966
1772790843303555000,7.56155517578125,-4.114198821613193,0.061733402596414085,-0.25268033734411
1772790843313620000,7.571619873046875,-7.452733588480949,-0.1965413937538862,0.501363312147744
1772790843323684900,7.581684814453125,-10.648280857127904,-0.23088468512147664,0.9375828287336975
1772790843333751000,7.5917509765625,-12.655545392924546,0.31601079987362024,0.3327707229513675
1772790843343815700,7.601815673828125,-13.447870659613608,2.009485718977451,-0.7489497969515622
1772790843353880800,7.611880859375,-14.076264424252509,3.8809292871817944,-1.6779299978390334
1772790843363946000,7.621946044921875,-14.702343482208251,3.3235195685654877,-1.4200028458826244
1772790843374012000,7.632011962890625,-15.299846434020996,2.1208751328855753,-0.8109783100370317
1772790843384076800,7.642076904296875,-15.326718074333668,1.8137009888097644,-0.8066335588309913
1772790843394142000,7.652141845703125,-14.679130948925017,1.6744667056426406,-0.9524858718983829
1772790843404207000,7.66220703125,-13.942966545397043,1.385447811460495,-0.9726663440093397
1772790843414271700,7.672271728515625,-13.075953409731387,0.7578313148044049,-0.637556510585919
1772790843424338000,7.682337890625,-12.139915253156422,-0.14672200857400894,-0.05407614300863351
1772790843434402800,7.69240283203125,-10.559883611750601,-0.9033229048006236,0.4289345837421715
1772790843444467700,7.7024677734375,-8.255535240998864,-1.2327021586827933,0.7006127592839301
1772790843454532900,7.712532958984375,-5.877780857774615,-1.4195242685854434,1.039918290831521
1772790843464598800,7.722598876953125,-3.7258202662736175,-1.5820450270548463,1.3069662492893634
1772790843474664000,7.732663818359375,-1.8094097213566303,-1.7755813937738536,1.3669741432674227
1772790843484728800,7.742728759765625,-0.5086345817923545,-2.0535998782530425,1.0357006731364875
1772790843494794000,7.7527939453125,0.49441842491328714,-2.4143640120886265,0.6186828102245926
1772790843504859000,7.76285888671875,1.585771646362543,-2.5073756193935868,0.33813027722314
1772790843514925000,7.772925048828125,2.341921437820792,-2.4788570886567234,0.11521359357247128
1772790843524990000,7.782989990234375,2.7614111707389353,-2.247710537728667,-0.046814559074398125
1772790843535054800,7.793054931640625,3.3670839850038288,-1.990434250896424,-0.1727951189201325
1772790843545120000,7.8031201171875,4.017441744169592,-1.8038591014921663,-0.11742896806700154
1772790843555185000,7.813184814453125,4.380929019358754,-1.786950052267313,0.12926789268702268
1772790843565250800,7.823250732421875,4.902476274216175,-1.934856740581244,0.23921123597268013
1772790843575316000,7.83331591796875,5.665633314087986,-2.1463919975884256,0.49303120833858843
1772790843585380900,7.843380859375,6.436088109752536,-2.6392338208347557,0.8211924647331237
1772790843595445800,7.85344580078125,6.844920839577913,-3.1414243410542606,0.9441763087145983
1772790843605511200,7.86351123046875,7.231748073822259,-3.4462428619146346,1.1789447764668612
1772790843615576300,7.873576416015625,7.801134938219189,-3.668649933809042,1.3266791038885712
1772790843625641500,7.883641357421875,8.09048964022696,-3.81330331941545,1.4199404481709004
1772790843635706000,7.8937060546875,8.2506363630414,-3.7742134180426596,1.514803528561443
1772790843645772300,7.903772216796875,8.37796042818427,-3.6536411652475596,1.506751301139593
1772790843655837200,7.913837158203125,8.233788104093074,-3.6412928480669855,1.4249777116857467
1772790843665902000,7.923902099609375,8.004808083549142,-3.6715140910685062,1.4973128800563513
1772790843675967200,7.93396728515625,7.928353204900026,-3.585801846991479,1.4486067168153822
1772790843686032400,7.944032470703125,7.91903826406598,-3.4264415983796117,1.4600921335563062
1772790843696098300,7.954098388671875,7.988691646006703,-3.1937092395648357,1.4712031640268861
1772790843706163200,7.9641630859375,8.028928963848948,-3.084539547532797,1.500194134581089
1772790843716228400,7.974228271484375,7.790831570869684,-2.996180003817379,1.655956504831463
1772790843726293200,7.984293212890625,7.213405776923895,-2.654994284546375,1.8427131482824681
1772790843736358100,7.994358154296875,6.569307662674785,-2.397236205546558,2.086497646987438
1772790843746424300,8.00442431640625,6.018002982935309,-2.1533438625529406,2.3460503543190656
1772790843756489200,8.0144892578125,5.335408257031441,-1.8602564037576317,2.546100486846268
1772790843766554000,8.02455419921875,4.306269207432866,-1.8046721714407206,2.5242466746956107
1772790843776619300,8.034619384765625,2.9987627137869595,-1.476252702501416,2.4457277031235396
1772790843786685200,8.044685302734376,1.2252496507197619,-1.2229108325086533,2.3544480341777203
1772790843796750300,8.054750244140624,-1.664202793520689,-0.8787680169977247,2.34499339261204
1772790843806815200,8.064815185546875,-5.903446044906974,-0.41743024310506877,2.572479082944989
1772790843816880000,8.074880126953126,-9.905576822698116,0.13099983104616403,2.32495335188508
1772790843826945300,8.0849453125,-12.944852164137362,1.8484312336683273,1.1875057571284473
1772790843837011500,8.095011474609375,-15.041525168180465,4.712800382317602,-0.3717956693291664
1772790843847076000,8.105076171875,-16.541251685249804,7.088142151442169,-2.022964501492679
1772790843857141200,8.115141357421875,-18.30631840701103,8.418168519932031,-3.2573405847370624
1772790843867206400,8.125206298828125,-19.759112492513655,9.049198478293418,-3.527990586274862
1772790843877272000,8.13527197265625,-20.14617119742632,9.066816552570462,-3.2442721365883944
1772790843887337200,8.145337158203125,-19.677071338164804,8.297835336589813,-3.000586422082782
1772790843897402400,8.15540234375,-18.661978934097288,6.713913117486238,-3.224020791198313
1772790843907467000,8.165467041015624,-16.842953827655315,5.351083380547165,-3.183869105812907
1772790843917532200,8.1755322265625,-15.211611685729025,3.9656209560394284,-2.6991230568692086
1772790843927598300,8.185598388671876,-13.668417782855034,2.2624733687050638,-1.9370469441018998
1772790843937663200,8.195663330078125,-12.053386139738558,0.5480082685425878,-1.343754887982458
1772790843947728100,8.20572802734375,-10.296367115354537,-0.7211630145553499,-0.9759954153668134
1772790843957793300,8.215793212890626,-8.438468380638957,-1.387656865812093,-0.5475916505657136
1772790843967859200,8.225859130859375,-6.423670526728034,-1.8277251302480697,0.0038296412907540796
1772790843977924400,8.23592431640625,-4.2773476488530635,-2.088653948238492,0.4177335369005799
1772790843987989200,8.2459892578125,-2.0459645610690114,-2.0559017254546283,0.5348981001440435
1772790843998054100,8.25605419921875,0.26125965737998486,-2.01909715854004,0.3442555551704019
1772790844008119300,8.266119384765625,2.3121587522417304,-1.9080906064696608,0.11219875752963125
1772790844018185200,8.276185302734374,3.9943841091871257,-1.9586914974160492,0.12892792014293372
1772790844028250000,8.28625,5.601195620968937,-2.238046637326479,0.30751623551174995
1772790844038315300,8.296315185546876,6.916255890995264,-2.4615152009725567,0.33467860239930447
1772790844048380200,8.306380126953124,7.7149460165411226,-2.498490886670351,0.20698654419425874
1772790844058445300,8.3164453125,8.542468268817663,-2.45763952858299,0.06071103727873414
1772790844068511200,8.32651123046875,9.140386815693974,-2.423524054621905,0.23210655506663022
1772790844078576400,8.336576416015625,9.674113753166795,-2.319327474827319,0.5472952614350244
1772790844088641300,8.346641357421875,10.19643491500616,-2.223075862687826,1.0459459536232054
1772790844098706200,8.3567060546875,10.554127240180968,-2.2671588961727918,1.2517713085509836
1772790844108772400,8.3667724609375,10.808052901411056,-2.3413261022761462,1.4831814788512885
1772790844118837000,8.3768369140625,10.99902438607812,-2.381312367966771,1.7304567422814667
1772790844128902100,8.386902099609374,11.136357804059982,-2.4666031717613337,1.794543137744814
1772790844138967300,8.39696728515625,11.189129609304667,-2.479983754599094,1.7904260578148066
1772790844149033200,8.407033203125,11.056205824458598,-2.3724732279509304,1.835522067734599
1772790844159098000,8.41709814453125,10.786872166216373,-2.257460216718167,1.816901830677688
1772790844169163300,8.427163330078125,10.465969648778438,-2.4119318165056405,1.9052642970025537
1772790844179228400,8.437228515625,10.126028084349631,-2.846208345797658,1.9987864841781555
1772790844189293000,8.44729296875,9.596339608612656,-3.336195218004286,1.916054863347113
1772790844199359200,8.457359130859375,8.884566719019412,-3.872998201921582,1.8470654982730745
1772790844209424400,8.46742431640625,7.868779902946948,-4.285937198022007,1.9268354928195475
1772790844219489300,8.4774892578125,6.263132174247503,-4.505087313947081,1.9892523476354778
1772790844229554200,8.48755419921875,4.357290954139828,-4.876488431000709,1.621042866230011
1772790844239619300,8.497619384765626,2.6350176644444465,-5.0641766562134025,1.0458826060634105
1772790844249685200,8.507685302734375,0.4758101705551147,-4.751191487771273,0.6046349591171368
1772790844259750100,8.517750244140625,-1.811955898708105,-4.017589335946738,-0.04367140221046283
1772790844269815300,8.527815185546874,-4.160739038991927,-2.704228855575621,-0.8639844354942441
1772790844279880200,8.537880126953125,-6.411445835927128,-1.121045764401555,-1.5581420272894202
1772790844289946400,8.5479462890625,-8.113139278930426,-0.1841136546615511,-2.1628131171658636
1772790844300011300,8.55801123046875,-9.394790615829825,-0.24493469165340065,-2.5484683850213883
1772790844310076200,8.568076171875,-10.699196220850943,-0.4727832239493727,-2.5119869125813246
1772790844320141300,8.578141357421876,-12.206841840481758,-0.5256111432954669,-2.0342320376992222
1772790844330206200,8.588206298828124,-12.93623864957094,-0.21818375511094926,-1.9812299308300017
1772790844340272000,8.598272216796875,-12.524117984116076,0.25791619217097755,-2.008627933104336
1772790844350337300,8.608337158203126,-11.603944920670985,1.0263242844387888,-2.1473373156145215
1772790844360402400,8.61840234375,-11.075307999813557,1.575788012486696,-2.0536716283150014
1772790844370468000,8.628468017578125,-10.900545307147503,0.7665896446689963,-1.819259207458794
1772790844380533200,8.638533203125,-10.86589718761444,0.1596411113798618,-1.5097842390947043
1772790844390598400,8.648598388671875,-10.287257926225662,-0.3723524264290929,-1.1191446800205855
1772790844400663000,8.6586630859375,-9.602539047774671,-0.7511112127691507,-0.8361343055382371
1772790844410729200,8.668729248046875,-9.078984544748067,-1.087305991885066,-0.3715966396257281
1772790844420794400,8.67879443359375,-8.683108911651372,-1.1942252746418118,0.08807122829332947
1772790844430859300,8.688859375,-8.065780730906129,-1.1764771442443132,0.4234014995343983
1772790844440924200,8.698924072265624,-7.0340686159491534,-1.0953393684759736,0.4770225420195609
1772790844450990000,8.708989990234375,-5.81710222492814,-0.830005885785818,0.6918940307773649
1772790844461055200,8.71905517578125,-4.208908903399109,-0.3789212834253907,1.1467650928739457
1772790844471120100,8.7291201171875,-2.6353163551300764,0.15581921500414608,1.448337398354709
1772790844481185300,8.739185302734375,-1.260581660863757,0.5115504692390561,1.287900460422039
1772790844491250200,8.749250244140624,0.027137597772479056,0.9045107994109391,1.0456192789521068
1772790844501316400,8.75931640625,1.1596370686024426,1.3845461864456534,1.0013683415543286
1772790844511381200,8.76938134765625,2.197267467692494,1.5970578872695564,0.9489844396486878
1772790844521446100,8.779446044921874,3.0375024865478277,0.5297407904461026,0.6996320046182721
1772790844531511300,8.78951123046875,3.8622868382930755,1.077546522153914,0.83614504612796
1772790844541576200,8.799576171875,4.886749712774157,2.560315474681556,0.7755442277580499
1772790844551642000,8.80964208984375,5.8892772343009705,2.6289301612243055,0.38394349550157786
1772790844561707300,8.819707275390625,6.6446437664270395,2.571110132679343,0.34723446138333525
1772790844571772400,8.8297724609375,7.0078335199743504,2.6963950932100413,0.48777639308292414
1772790844581837000,8.839837158203125,7.380538705363869,2.550035488207638,0.5858746925350278
1772790844591903200,8.8499033203125,7.606547601142525,2.2888465579763055,0.6695028968796134
1772790844601968400,8.859968505859374,7.674297195288538,3.339865430949628,1.1601015443090348
1772790844612033000,8.870032958984375,7.738015926483273,3.551486320413649,0.8034929957829415
1772790844622098200,8.88009814453125,7.827093555340171,3.155929251746833,0.5311818560998887
1772790844632163300,8.890163330078124,8.071107478886843,3.1747128626719117,0.713009957107529
1772790844642229200,8.900229248046875,7.9844842574447386,3.1248812025323507,0.7701505520209669
1772790844652294100,8.910294189453126,7.614009023064375,2.7903035032242536,0.6238340555079281
1772790844662359300,8.920359375,7.381154791435599,2.7097005649849772,0.3388205975748598
1772790844672424200,8.930424072265625,6.993302890318632,2.7866555021107193,0.16283636375721544
1772790844682489000,8.940489013671876,6.709479518952965,2.5180633098855614,0.35521592512391503
1772790844692555300,8.95055517578125,6.514305906420946,2.7093872612521053,0.009025017976760863
1772790844702620200,8.9606201171875,6.477713667082786,3.1991803644523022,0.09218934026979841
1772790844712685300,8.970685302734376,6.291514803645015,3.748225282566249,-0.13717940559708514
1772790844722750200,8.980750244140625,5.921274547064304,4.389998753260076,-0.6034640156416222
1772790844732816100,8.990816162109375,5.947718317353725,4.572933354204893,-0.6634962768759578
1772790844742881300,9.00088134765625,5.857695516601204,4.677482985220849,-0.6315486484732479
1772790844752946200,9.0109462890625,5.441642187872529,4.79086415746808,-0.6676901483692228
1772790844763011300,9.02101123046875,5.037707751482725,4.792511632414162,-0.8064564486984163
1772790844773076200,9.031076171875,4.779641921707987,4.710918514093756,-0.8209048799633979
1772790844783142400,9.041142333984375,4.3184220020413395,4.40407287131995,-0.7459349791750312
1772790844793207300,9.051207275390626,4.013245461523533,4.271754651151597,-0.5489445995446294
1772790844803272200,9.061272216796874,4.175389495635033,3.3045208535850046,-0.23235523259807378
1772790844813337300,9.07133740234375,3.4928678349673747,1.2433382651180027,-0.6295015797503292
1772790844823402200,9.08140234375,1.1402058074235915,-1.0071820693343878,0.16343487763963638
1772790844833468200,9.09146826171875,-2.580972186002135,-2.2460820597440003,1.0888082862067967
1772790844843533300,9.101533203125,-4.545920844116806,-1.8183301099151372,1.7223673977196217
1772790844853598200,9.11159814453125,-5.624551362115144,-2.543826988956332,0.9145441176474094
1772790844863663000,9.1216630859375,-8.736909475421905,-4.19756800969541,-0.35251674916781484
1772790844873729300,9.131729248046875,-9.725188691365718,-4.346972389221191,-0.8790295174781233
1772790844883794400,9.14179443359375,-10.277012426543235,-3.985400592264533,-0.3932020299732685
1772790844893859000,9.151859130859375,-11.35361523810625,-4.804342063200473,-0.00007438041046261786
1772790844903924200,9.16192431640625,-11.985116321110725,-5.582794871881604,0.35252295971289277
1772790844913989400,9.1719892578125,-11.927051085633039,-5.514861737862229,0.8177589831531047
1772790844924055300,9.18205517578125,-11.679105083334445,-5.8311313348025084,0.8088542305551469
1772790844934120200,9.1921201171875,-11.171918946784734,-6.205927354991435,0.6135503427069634
1772790844944185300,9.202185302734375,-10.38441014046669,-6.839160376355052,0.5803778121517971
1772790844954250200,9.212250244140625,-9.421739997553825,-7.578753000766039,0.5345497981630265
1772790844964315100,9.222315185546876,-8.07467306241393,-7.739259204542637,0.165715535922721
1772790844974381300,9.23238134765625,-6.216770236045122,-6.991615960144996,-0.0007961370800621807
1772790844984446200,9.2424462890625,-4.4095419503808015,-5.8460851583063596,-0.01563937634890899
1772790844994511000,9.252510986328126,-2.879327940589189,-4.739713231423497,0.23796625914657488
1772790845004576300,9.262576171875,-1.617887032547593,-3.5911399931490418,0.5616602887328713
1772790845014642200,9.27264208984375,-0.2298994734764099,-2.253568323846161,0.5759758508658036
1772790845024707300,9.282707275390624,0.8949591272115707,-1.0306664052963257,0.3783110425725579
1772790845034772200,9.292772216796875,1.7162334250092506,-0.17370266221910713,0.001054185228049755
1772790845044837000,9.302837158203126,2.5668273407936093,0.6996086968079209,-0.12879150734692812
1772790845054902300,9.31290234375,3.3610873749375343,1.632251073464751,-0.050650136915594335
1772790845064968400,9.322968505859375,3.914026962402463,2.1413097258880733,0.3420054381560534
1772790845075033000,9.333033203125,4.310206546881795,2.191554935264587,1.098610426035896
1772790845085098200,9.34309814453125,4.781657353183627,1.921465490218997,1.590285032133758
1772790845095163400,9.353163330078125,5.1166901027828455,1.8494237518370151,1.9130881224960088
1772790845105229000,9.36322900390625,5.130251010623574,1.8883476489931343,1.8181632289156318
1772790845115294200,9.373294189453125,5.126535789492726,1.8215797593608498,1.5289216318935155
1772790845125359400,9.383359375,5.200366749379039,1.8819833746582268,1.2258130567561834
1772790845135424300,9.39342431640625,5.219038716623187,2.0366341304048894,1.0788109891317783
1772790845145489200,9.4034892578125,5.397452917534113,2.0762527318269015,1.0095965100649744
1772790845155555300,9.413555419921876,5.464388272687793,2.002296976517141,1.12926816075854
1772790845165620200,9.4236201171875,5.420158085817098,1.7659540259897708,1.337845225547254
1772790845175685000,9.43368505859375,5.42774517994523,1.4110346726596354,1.4867214895457028
1772790845185750300,9.443750244140626,5.383184738206863,1.2620099401012062,1.3637915677085517
1772790845195815400,9.4538154296875,5.223755808272958,1.4680948227480053,1.0661216764938086
1772790845205881000,9.463881103515625,5.081405438911914,0.589746638597548,0.4177977612432092
1772790845215946200,9.4739462890625,5.077117970851064,0.7172483983948826,0.5097519684497267
1772790845226011400,9.484011474609375,4.849851768487691,0.8670788943782448,0.3550379382085055
1772790845236076000,9.494075927734375,4.2612019852161405,1.0265329587534069,-0.29700580128282306
1772790845246142200,9.50414208984375,3.7945921892046925,0.7933852971360087,-0.8058663007855414
1772790845256207000,9.51420703125,3.204716079008579,0.36658027276843785,-1.1853759054929018
1772790845266272300,9.524272216796875,2.4189544086188075,0.15742518889605997,-1.426049432570487
1772790845276337200,9.534337158203124,1.4318623566329478,-0.3533522501438856,-1.7586618231549858
1772790845286402300,9.54440234375,0.25586510486006736,-0.9957070278570055,-1.9230685415014623
1772790845296468200,9.55446826171875,-1.0306582219898701,-1.186630289468169,-2.3802551139988
1772790845306533400,9.564533447265624,-1.6769827801167965,-1.0788204876124858,-3.020634646116197
1772790845316598300,9.574598388671875,-2.317398990982771,-1.047202821816504,-3.5445535985410213
1772790845326663200,9.5846630859375,-3.2546751649200916,-1.2304928120702505,-3.31583076762855
1772790845336728300,9.594728271484374,-3.8546389538884163,-1.7274278959795832,-2.553346220190823
1772790845346794200,9.604794189453125,-4.458039147046208,-1.7778133906096218,-2.1319804642677305
1772790845356859100,9.614859130859376,-5.330065142437816,-1.1262445020884275,-1.7846441134124993
1772790845366924300,9.62492431640625,-5.867018056219816,-0.9102093033134937,-1.5024745006032287
1772790845376989200,9.6349892578125,-5.6698278431683775,-1.0778215397030115,-0.940489363830164
1772790845387055000,9.64505517578125,-5.588852856746316,-0.9961112247437238,-0.27403473033895714
1772790845397120300,9.655120361328125,-5.694551365536451,-0.8219318849235773,0.01842712107102852
1772790845407185400,9.665185302734375,-5.918450721815228,-0.9278332228094339,0.30196269303783774
1772790845417250000,9.67525,-5.626729290676117,-1.7943331482559441,0.6785165897447616
1772790845427315200,9.685315185546875,-5.465086776345968,-2.843234882944822,1.1120528220634907
1772790845437381400,9.69538134765625,-5.450387804386019,-3.761833828940987,1.4042340527340769
1772790845447446300,9.7054462890625,-5.363501548093557,-4.667265834850072,1.3705708525851368
1772790845457511200,9.71551123046875,-5.362537086975574,-5.171498966813087,0.9827307149711996
1772790845467576300,9.725576416015626,-4.79767091487348,-5.160020125943422,0.4545382499456405
1772790845477641500,9.735641357421875,-4.056260427385569,-4.74246632952392,-0.03831343710757792
1772790845487707100,9.74570703125,-3.3373511100411415,-4.534132206645608,-0.40581769285313785
1772790845497772300,9.755772216796874,-2.286836679458618,-4.470986306902766,-0.7655861667148769
1772790845507837200,9.765837158203125,-1.0669804122149944,-4.167779605153203,-0.6760846864227205
1772790845517902000,9.775902099609375,0.1258627604186535,-3.4430426045686007,-0.3076542557429522
1772790845527968300,9.78596826171875,1.1775298681676387,-2.244230878919363,0.09223090525604784
1772790845538033200,9.796033203125,1.8381039009213447,-0.8656032688677311,0.3108914110332727
1772790845548098300,9.806098388671876,2.2657670034229755,0.1165209315776825,0.39171946326531465
1772790845558163200,9.8161630859375,1.8577689708560705,0.4648316804230213,-0.49369405616149303
1772790845568228400,9.826228271484375,1.089383382681012,1.0162591097593308,-0.909688202048838
1772790845578294300,9.836294189453126,1.18705757496953,1.6716507714390754,-1.3064184061482549
1772790845588359200,9.846359130859375,1.5859966872900724,2.373203295791149,-1.5871994872085748
1772790845598424300,9.85642431640625,2.0332301671802995,2.6394395725399256,-1.0175637626171112
1772790845608489500,9.866489501953126,2.4146394680291414,2.606291920697689,0.1199281096726656
1772790845618554600,9.8765546875,2.571760705542564,2.681110722577572,1.358038849400729
1772790845628620500,9.88662060546875,2.9751778400599953,2.954222145792842,2.285074930483103
1772790845638685400,9.896685546875,3.4086090045690534,3.4652988600403067,2.8186086834713815
1772790845648750600,9.90675048828125,3.7734301587104797,3.9476533376723526,2.9085160411506887
1772790845658815700,9.916815673828125,4.2427983135193585,4.231180356439948,2.718494112293422
1772790845668880400,9.92688037109375,4.63355178129673,4.350617467725277,2.6164588021859525
1772790845678946600,9.936946533203125,4.623334923186898,4.6422056278735395,2.4527727993294595
1772790845689011500,9.947011474609376,4.764518002334237,4.667768523675203,2.3157420175559817
1772790845699076400,9.957076416015624,4.328296914845705,5.020373754844069,2.040949070994556
1772790845709141500,9.9671416015625,4.086130080470443,5.0449645907431835,1.9280778940960763
1772790845719207400,9.97720751953125,4.000768841788172,4.689339134970307,1.7558914816588163
1772790845729272600,9.9872724609375,3.5369659198909997,4.660384258642792,1.218791706752032
1772790845739337500,9.99733740234375,3.437666756749153,4.838574003148079,0.8475064711630343
1772790845749402600,10.007402587890626,3.2735528838694092,5.0292760232239955,0.46519941775687035
1772790845759467500,10.017467529296875,2.7930893345505,4.993109900343418,0.22659648640826344
1772790845769533700,10.02753369140625,2.6343793665409088,4.637829312485456,0.05779514983203262
1772790845779598600,10.0375986328125,2.3828297867923975,4.2627848704934115,-0.05268474801573902
1772790845789663500,10.04766357421875,1.8734885180354117,3.8331232876509427,-0.09155370011422782
1772790845799728600,10.057728759765626,1.197815115827322,2.935212909418344,-0.18500766262551768
1772790845809793500,10.06779345703125,0.4864379475533962,1.8495856644004582,-0.5037365075524896
1772790845819859500,10.077859375,0.09603110125660896,0.9114151719719171,-0.8582285753812641
1772790845829924600,10.087924560546876,-0.10546996073126792,-0.019687866288423537,-0.6669818539693951
1772790845839989500,10.097989501953125,-0.7341518946617841,-1.0738228254556654,-0.27056204925971106
1772790845850054400,10.108054443359375,-1.9805641603976487,-1.530373584267497,0.47082222607471047
1772790845860120600,10.11812060546875,-3.3564673139214514,-1.0712474220097064,0.12033868150124326
1772790845870185700,10.128185791015625,-4.322656278610229,-1.131169099009037,-0.01940268353833817
1772790845880250400,10.13825048828125,-5.376559767109155,-1.978293877378106,0.5151214595936239
1772790845890315500,10.1483154296875,-6.1857356308341025,-2.1569360418260097,0.6949507149342448
1772790845900380700,10.158380615234375,-6.604458471032976,-2.011637928575277,0.8895477696873247
1772790845910446600,10.168446533203126,-6.334090209046006,-2.4146231014162303,1.132404632153362
1772790845920511500,10.178511474609374,-6.1120437871575355,-2.94309167996943,0.7291765904672444
1772790845930576600,10.18857666015625,-6.572402706080675,-4.141950751891732,1.483405204604566
1772790845940641500,10.1986416015625,-6.977433705535531,-5.789225791487097,2.328536178807914
1772790845950706400,10.20870654296875,-6.557647035497427,-6.75669252102673,1.9051962002024054
1772790845960772600,10.218772705078125,-6.251389714005589,-8.065445799863339,2.1961619906686245
1772790845970837500,10.22883740234375,-6.816681418043375,-9.804008545580507,2.018706551787257
1772790845980902400,10.23890234375,-6.086421854645013,-10.433921482610701,1.4344073649406432
1772790845990967600,10.248967529296875,-5.634134013974666,-8.86021436805129,0.6151050978682935
1772790846001033500,10.259033447265624,-4.29850208056271,-7.095292607718705,-0.5084302548592909
1772790846011098600,10.2690986328125,-3.2478450266391037,-5.136759077343345,-0.6091083782041445
1772790846021163500,10.27916357421875,-2.499135614314675,-2.843521883192658,-0.3642948287123814
1772790846031228400,10.289228515625,-1.3223270461589096,-1.4793027377218007,-1.0117930702611804
1772790846041293600,10.29929345703125,-0.15550795709788798,-1.0196347236722707,-1.8327451503671706
1772790846051359500,10.309359375,1.0104928013175725,-0.45961949873268604,-2.093920782725513
1772790846061424400,10.31942431640625,2.439990766906738,0.3951011415928602,-2.3514311705745756
1772790846071489500,10.329489501953125,3.686107849088311,1.2694453507989645,-2.4894904186129567
1772790846081554400,10.339554443359376,4.617597256317734,1.7479922528415917,-2.1835464008539915
1772790846091619600,10.34961962890625,5.339722613099217,1.68730835929811,-1.5395039623148739
1772790846101685500,10.359685546875,5.47239446901083,1.5153928727567194,-0.7138914891824126
1772790846111750700,10.369750732421876,5.429685792618989,1.8720856655001639,-0.06831042463285848
1772790846121815600,10.379815673828125,5.836524133756757,2.627094470229745,-0.030869550842419265
1772790846131880400,10.38988037109375,5.963546585604548,3.3567379475563763,-0.017789357457030565
1772790846141945600,10.399945556640626,5.953109362742304,3.879040989217162,0.2104980229139328
1772790846152011500,10.410011474609375,6.201503108808398,4.266097356042265,0.17160616486389188
1772790846162076400,10.420076416015625,6.435831504642963,4.356984080147743,0.38411161861009896
1772790846172141600,10.4301416015625,6.427552336597442,4.203335487180948,0.6276569747969508
1772790846182206700,10.440206787109375,6.420484297907352,4.27343778193295,0.5120132644452154
1772790846192272400,10.4502724609375,6.469626222217083,4.407729348000884,0.6672079178102314
1772790846202337500,10.460337646484374,6.439862367594242,4.444095961889625,0.8444923840388655
1772790846212402700,10.470402587890625,6.105477852770686,4.4473295369833705,0.5742554933466016
1772790846222467300,10.48046728515625,5.607033241081237,4.428331406524777,0.1483842244314961
1772790846232532500,10.490532470703124,5.273506804391741,4.3041877249836915,-0.09164932424211875
1772790846242598700,10.5005986328125,4.9615118160307405,3.9857384459167715,-0.16302295410418882
1772790846252663600,10.51066357421875,4.6361149097830054,3.5511639565914868,-0.17635788943562655
1772790846262728400,10.520728515625,4.002331853321194,3.0679619222193955,-0.18218065903866662
1772790846272793600,10.530793701171875,2.8254630794107913,2.973028553071618,-0.16344713433301075
1772790846282858500,10.5408583984375,1.461821441566944,2.503989484086633,-0.9418633555971085
1772790846292924700,10.550924560546875,0.7841057198762893,1.6400643775641917,-1.4702598918274044
1772790846302989600,10.560989501953125,0.020431378132104872,1.3594412635445594,-1.0825120356068014
1772790846313054500,10.571054443359374,-0.7264800448596477,0.573845597371459,-1.0786785949237645
1772790846323119600,10.58111962890625,-1.4611936650574207,-0.6015735622525215,-0.7481810045361519
1772790846333184500,10.5911845703125,-1.8512918837964534,-1.3102233513891697,-0.338563846334815
1772790846343250400,10.60125048828125,-2.618649882489443,-1.6183336072713135,-0.4780257642453536
1772790846353315600,10.611315673828125,-2.9560955384492873,-2.538931618130207,0.05187023502876982
1772790846363380500,10.62138037109375,-3.0896447617173193,-3.119298726224899,1.118093271271512
1772790846373445600,10.631445556640625,-3.5154438239127397,-2.942355182388425,1.6708086215265094
1772790846383511600,10.641511474609375,-4.8265784449279305,-3.3253806862622497,0.930450200374797
1772790846393576700,10.65157666015625,-11.182060401570796,-6.710243489062786,-5.164599270427226
1772790846403641300,10.661641357421875,-9.56022550818026,-7.583509839904308,-5.191902287894487
1772790846413706500,10.67170654296875,-5.369634351760149,-4.114667608168721,0.23633511428078635
1772790846423771600,10.681771728515624,-8.642143864056468,-5.9394438254833215,-1.41646283518821
1772790846433837300,10.69183740234375,-9.288485373318196,-5.252600794485211,-1.7350275573283434
1772790846443902500,10.70190234375,-7.997099408867955,-3.3410712996080516,-0.5240072152301669
1772790846453967600,10.711967529296874,-6.921284532812237,-2.640882464824617,0.26068028658945114
1772790846464032500,10.722032470703125,-5.873771037611365,-1.8741279849827288,-0.09007299656979739
1772790846474097400,10.732097412109376,-4.058299239736796,-1.4913722379609942,-0.3242699480444193
1772790846484163600,10.74216357421875,-2.4467414102107283,-1.0937392398029566,0.0014776713371276854
1772790846494228500,10.752228515625,-1.5831693549096584,-0.6077113343551754,0.3970247300665825
1772790846504293400,10.76229345703125,-0.8288561312288045,-0.13424801918715237,0.8274572242163121
1772790846514358500,10.772358642578125,-0.07745733368992805,0.1563479150533676,1.212402663302049
1772790846524423700,10.782423583984375,0.41965164548158645,0.4257569766193628,1.2624988926619292
1772790846534489600,10.792489501953124,0.8010971866875887,0.7269865330770612,0.9824327549379318
1772790846544554500,10.802554443359375,1.261029404631257,1.024598775820434,0.6448565314009785
1772790846554619600,10.81261962890625,1.7510849581599235,1.0765458206787706,0.6044468526665121
1772790846564684500,10.8226845703125,1.899685620087385,1.040240581588447,0.4416715349141508
1772790846574750500,10.83275048828125,1.6269757634103297,0.8682043912768364,0.4602591118104756
1772790846584815600,10.842815673828126,1.2630617872416972,0.6483633704781532,0.232387198638916
1772790846594880500,10.852880615234374,0.9270914645314217,0.4243453562557697,-0.18499745175875723
1772790846604945200,10.862945068359375,0.7454904502779245,0.3567816400706768,-0.43873043996095656
1772790846615010300,10.87301025390625,0.8422346682399511,0.2943020952820778,-0.6068387893043458
1772790846625076000,10.883075927734374,0.7718231614083051,0.2670177825152874,-0.6607659020639955
1772790846635141000,10.89314111328125,0.4073889607578516,0.5535352152705192,-0.6734856098402291
1772790846645206300,10.903206298828126,0.0848836842983961,0.9749059396296739,-0.809252143831551
1772790846655271200,10.913271240234375,-0.2703507263302803,1.3026204751700161,-0.8945719545248896
1772790846665336000,10.923336181640625,-0.7249111881077289,1.6607120287954806,-0.9110757839497178
1772790846675402200,10.93340234375,-1.046143375891447,2.0370237142443655,-0.8894482548356055
1772790846685467100,10.943467041015625,-1.3488883053481577,2.2448545637756583,-0.6704843091323971
1772790846695532000,10.953531982421875,-1.649953903415799,2.3759061250090596,-0.38137481405735013
1772790846705597200,10.96359716796875,-1.7574328658819198,2.366087910827994,0.06580625979220495
1772790846715663000,10.9736630859375,-1.7470324678987263,2.0840923394113777,0.4892475981466472
1772790846725728000,10.98372802734375,-1.5811925018787383,1.6788403906822205,0.6259542625322938
1772790846735793200,10.993793212890624,-1.1056944660127161,1.215034546175599,0.5051825781749562
1772790846745858300,11.0038583984375,-0.42858723160922524,0.7555524100869894,0.4550153659380972
1772790846755923000,11.0139228515625,0.12576397621929644,0.3601835574686527,0.39808465091567485
1772790846765989000,11.023989013671875,0.5888508588016033,0.09305120866298675,0.44967298199683425
1772790846776054000,11.034053955078125,0.847475491502881,-0.17267536499798297,0.5892626544728875
1772790846786119200,11.044119140625,1.0076303976237773,-0.38510815536677834,0.8496959440313279
1772790846796184000,11.05418408203125,1.2758464500129223,-0.5330360325992107,0.6920009982831776
1772790846806249200,11.064249267578125,1.5486837324619291,-0.646979807165265,0.5919708174530416
1772790846816315100,11.074315185546874,1.6006652641117571,-0.7371101599454879,0.4767381721202284
1772790846826380300,11.08438037109375,1.504263575977087,-0.7451216169655323,0.4780832300536334
1772790846836445200,11.094445068359375,1.373227796834707,-0.7444219442635774,0.3987574721433222
1772790846846510000,11.104510009765624,1.0776853461027145,-0.7752192335873842,0.1491427329149097
1772790846856575200,11.1145751953125,0.9773919112265109,-0.7613970444619655,0.13030853344690985
1772790846866641200,11.12464111328125,0.9131973792135715,-0.7446949159860611,0.21724400830911472
1772790846876706000,11.1347060546875,0.780810769984126,-0.5986018529653548,0.4835317047178745
1772790846886771200,11.144771240234375,0.5359563039600849,-0.3295861746311188,0.7770791822403669
1772790846896836000,11.154836181640626,0.1714367631137371,0.0614560469597578,0.8906526621893047
1772790846906901200,11.1649013671875,-0.040162499040365215,0.5079512757033109,0.9188700910877435
1772790846916967200,11.17496728515625,-0.2852297310322523,0.6764385413616896,0.8445104311522096
1772790846927032300,11.1850322265625,-0.482646738576889,0.7855863138228655,0.7836918783783913
1772790846937097000,11.195096923828125,-0.34980712488293647,0.9008411709874868,0.841608060774207
1772790846947162000,11.205162109375,0.12668927437067032,0.8948165038704872,0.6573050940856338
1772790846957228300,11.215228271484374,0.42443771071434017,0.6421586706191301,0.16477562472410498
1772790846967293200,11.225293212890625,0.5233937595069408,0.5791267526447773,-0.03273975602793507
1772790846977358000,11.235358154296875,0.7340116094082594,0.34724867257177827,-0.20839418250247835
1772790846987423200,11.24542333984375,0.794738757571578,0.1076625023394823,-0.3066744874579832
1772790846997488400,11.25548828125,0.7652963899880647,0.00023790040910243987,-0.39057047589328137
1772790847007554000,11.265553955078126,0.7879898678332566,-0.057306526064872736,-0.5818858420945704
1772790847017619200,11.275619140625,0.7741992428898811,-0.11370645867884159,-0.5019398333940654
1772790847027684000,11.28568408203125,0.8385796528637409,-0.24537644407153128,-0.7766070346839725
