time,seconds_elapsed,z,y,x
1772797648146506500,0.027506591796875,1.3763964176177979,1.7948291301727295,0.19236119091510773
1772797648156532500,0.037532470703125,1.4189761877059937,1.953702449798584,0.2732219398021698
1772797648166558500,0.047558349609375,1.5373960733413696,1.9963146448135376,0.14340269565582275
1772797648176585700,0.057585693359375,1.759508728981018,1.7162443399429321,-0.26169365644454956
1772797648186611700,0.06761181640625,1.9660680294036865,1.1161129474639893,-0.8127333521842957
1772797648196637700,0.0776376953125,2.141228199005127,0.5617735981941223,-1.2757105827331543
1772797648206664400,0.08766455078125,2.1525495052337646,0.33276811242103577,-1.5686184167861938
1772797648216690400,0.0976904296875,2.0163002014160156,0.7661413550376892,-1.3054906129837036
1772797648226716400,0.10771630859375,1.8676109313964844,1.4944539070129395,-0.450400710105896
1772797648236742400,0.117742431640625,1.9027996063232422,1.7385648488998413,0.5933906435966492
1772797648246769700,0.127769775390625,2.1092441082000732,1.5462446212768555,1.3708347082138062
1772797648256795600,0.137795654296875,2.358492612838745,1.352918267250061,1.6900484561920166
1772797648266821600,0.147821533203125,2.5139992237091064,1.3296992778778076,1.617945671081543
1772797648276848600,0.1578486328125,2.5764763355255127,1.3033480644226074,1.3039683103561401
1772797648286874600,0.16787451171875,2.599043369293213,1.2150347232818604,0.952053427696228
1772797648296900600,0.177900634765625,2.6111979484558105,1.031100869178772,0.8009382486343384
1772797648306926800,0.1879267578125,2.653499126434326,0.7815549373626709,0.8761214017868042
1772797648316953600,0.19795361328125,2.7099621295928955,0.4913707971572876,1.0174667835235596
1772797648326979600,0.2079794921875,2.718132734298706,0.26858752965927124,1.1475564241409302
1772797648337005600,0.218005615234375,2.670043706893921,0.18859681487083435,1.2256122827529907
1772797648347031600,0.228031494140625,2.5875346660614014,0.19291698932647705,1.2654542922973633
1772797648357058600,0.23805859375,2.499109983444214,0.25429806113243103,1.2442951202392578
1772797648367084500,0.24808447265625,2.3726911544799805,0.36093956232070923,1.1941763162612915
1772797648377110800,0.25811083984375,2.168203115463257,0.4396412968635559,1.1319528818130493
1772797648387137500,0.268137451171875,1.9336975812911987,0.5533843636512756,0.9548361897468567
1772797648397163500,0.27816357421875,1.709823727607727,0.6188291311264038,0.7084367871284485
1772797648407189500,0.288189453125,1.504522442817688,0.676858127117157,0.4522976875305176
1772797648417215500,0.298215576171875,1.3785754442214966,0.6977236866950989,0.16699831187725067
1772797648427242500,0.308242431640625,1.3010804653167725,0.6720950603485107,-0.050335872918367386
1772797648437268500,0.3182685546875,1.2612797021865845,0.5739418268203735,-0.20540136098861694
1772797648447294700,0.328294677734375,1.2440866231918335,0.44104450941085815,-0.3874819576740265
1772797648457321700,0.33832177734375,1.1995021104812622,0.32122090458869934,-0.5207363963127136
1772797648467347700,0.34834765625,1.1326615810394287,0.2131572812795639,-0.6558145880699158
1772797648477373700,0.358373779296875,1.01032292842865,0.1484813541173935,-0.7833040952682495
1772797648487399700,0.368399658203125,0.9231442809104919,0.11180748790502548,-0.9201399683952332
1772797648497426400,0.378426513671875,0.8617749810218811,0.10795203596353531,-1.0879590511322021
1772797648507452700,0.38845263671875,0.7932416796684265,0.13411758840084076,-1.2764322757720947
1772797648517478700,0.398478759765625,0.7673195600509644,0.18508996069431305,-1.462134599685669
1772797648527504600,0.408504638671875,0.7603061199188232,0.30390316247940063,-1.6582814455032349
1772797648537531600,0.41853173828125,0.7959749102592468,0.3698752522468567,-1.8451125621795654
1772797648547557600,0.4285576171875,0.840046226978302,0.42237573862075806,-1.9464335441589355
1772797648557583600,0.43858349609375,0.8990613222122192,0.4572064280509949,-2.0186259746551514
1772797648567610600,0.448610595703125,0.9578319787979126,0.4820518493652344,-2.0391249656677246
1772797648577636600,0.45863671875,1.0034340620040894,0.45276135206222534,-2.0241355895996094
1772797648587662600,0.46866259765625,1.0223777294158936,0.3747245967388153,-2.005681276321411
1772797648597688600,0.4786884765625,1.0421329736709595,0.31823575496673584,-1.986664891242981
1772797648607715600,0.488715576171875,1.0689507722854614,0.012720588594675064,-1.827575922012329
1772797648617741600,0.498741455078125,1.2612227201461792,-0.490222692489624,-1.341009497642517
1772797648627767600,0.508767578125,1.4082995653152466,-0.5351417064666748,-1.175659418106079
1772797648637794600,0.518794677734375,1.4986432790756226,-0.4067040979862213,-1.080564022064209
1772797648647820800,0.52882080078125,1.5901579856872559,-0.18781544268131256,-1.1730220317840576
1772797648657846800,0.5388466796875,1.7294487953186035,0.029091838747262955,-1.3153011798858643
1772797648667872800,0.548872802734375,1.8434786796569824,0.2169184684753418,-1.412746548652649
1772797648677899500,0.5588994140625,1.98875892162323,0.6373804807662964,-1.507507085800171
1772797648687925500,0.568925537109375,2.3232274055480957,1.0920891761779785,-2.0287926197052
1772797648697951500,0.578951416015625,2.86861515045166,0.6948863863945007,-3.254563808441162
1772797648707977500,0.5889775390625,3.3441693782806396,0.025230787694454193,-4.329209327697754
1772797648718004500,0.59900439453125,3.2116644382476807,-0.14100585877895355,-3.938506841659546
1772797648728030700,0.60903076171875,2.9471499919891357,0.29266276955604553,-1.8317512273788452
1772797648738056700,0.619056640625,2.6843905448913574,0.2260051667690277,0.8383902907371521
1772797648748083700,0.629083740234375,2.5792312622070312,-0.1735994815826416,2.74035382270813
1772797648758109700,0.639109619140625,2.855558395385742,-0.15565644204616547,3.4090867042541504
1772797648768135400,0.649135498046875,3.068331718444824,0.19422008097171783,3.198026180267334
1772797648778161400,0.659161376953125,3.0380234718322754,0.5519401431083679,2.564769983291626
1772797648788188400,0.6691884765625,2.88500714302063,0.6438676714897156,1.9620258808135986
1772797648798214700,0.679214599609375,2.719628095626831,0.6106647253036499,1.6301603317260742
1772797648808240600,0.68924072265625,2.5753655433654785,0.5300638675689697,1.5666502714157104
1772797648818267600,0.699267578125,2.4166786670684814,0.4237928092479706,1.6373378038406372
1772797648828293600,0.709293701171875,2.253833055496216,0.30353352427482605,1.7161660194396973
1772797648838319600,0.719319580078125,2.095693588256836,0.3383735120296478,1.7525384426116943
1772797648848345600,0.729345703125,1.9918652772903442,0.4392034709453583,1.7904982566833496
1772797648858372400,0.739372314453125,1.8690335750579834,0.4995938241481781,1.9047130346298218
1772797648868398600,0.749398681640625,1.7765750885009766,0.7675033211708069,1.9696019887924194
1772797648878424600,0.759424560546875,1.715668797492981,1.004796028137207,1.9533196687698364
1772797648888450600,0.769450439453125,1.6150306463241577,1.1426992416381836,1.9068965911865234
1772797648898477600,0.7794775390625,1.543796420097351,1.2391678094863892,1.8173365592956543
1772797648908503600,0.789503662109375,1.476051688194275,1.2644025087356567,1.6854603290557861
1772797648918529500,0.799529541015625,1.3719841241836548,1.215814471244812,1.5107250213623047
1772797648928556800,0.809556884765625,1.2483354806900024,1.1479835510253906,1.286713719367981
1772797648938582800,0.819582763671875,1.0674591064453125,1.1108614206314087,1.016150712966919
1772797648948608500,0.8296083984375,0.8725314736366272,1.1683112382888794,0.6550664901733398
1772797648958634500,0.839634521484375,0.7174689173698425,1.1695895195007324,0.26014769077301025
1772797648968661500,0.84966162109375,0.5869934558868408,1.150811791419983,-0.057188186794519424
1772797648978687500,0.8596875,0.5026487708091736,1.0126280784606934,-0.3011989891529083
1772797648988713500,0.86971337890625,0.4814918041229248,0.7854050993919373,-0.47343066334724426
1772797648998740700,0.87974072265625,0.493096262216568,0.44422832131385803,-0.6904748678207397
1772797649008766700,0.8897666015625,0.5232586860656738,0.07228058576583862,-0.8938567042350769
1772797649018792700,0.899792724609375,0.5274345278739929,-0.2213912457227707,-1.0973925590515137
1772797649028818700,0.909818603515625,0.5291141867637634,-0.44338729977607727,-1.2863459587097168
1772797649038845400,0.919845458984375,0.5705801248550415,-0.5917069911956787,-1.4436546564102173
1772797649048871400,0.929871337890625,0.6421078443527222,-0.684264063835144,-1.5338993072509766
1772797649058897400,0.9398974609375,0.7134344577789307,-0.7819765210151672,-1.5596163272857666
1772797649068924700,0.949924560546875,0.7527661919593811,-0.8751709461212158,-1.5195869207382202
1772797649078950700,0.95995068359375,0.7770169377326965,-0.8891405463218689,-1.4513250589370728
1772797649088976600,0.9699765625,0.7824409604072571,-0.7889696955680847,-1.3877646923065186
1772797649099002600,0.980002685546875,0.7347200512886047,-0.6572457551956177,-1.360466718673706
1772797649109029600,0.990029541015625,0.6612573266029358,-0.46725401282310486,-1.383552074432373
1772797649119055600,1.0000556640625,0.5860946178436279,-0.20549190044403076,-1.452070713043213
1772797649129081600,1.01008154296875,0.49834001064300537,0.027159715071320534,-1.5134515762329102
1772797649139108600,1.020108642578125,0.4333468973636627,0.16677327454090118,-1.5257399082183838
1772797649149134600,1.030134521484375,0.41930246353149414,0.22349780797958374,-1.526175856590271
1772797649159160600,1.04016064453125,0.4949980080127716,0.19148607552051544,-1.5433415174484253
1772797649169186600,1.0501865234375,0.6378917694091797,-0.026667030528187752,-1.463058352470398
1772797649179213600,1.060213623046875,0.8088529109954834,-0.403253972530365,-1.2184007167816162
1772797649189239600,1.070239501953125,0.9912477135658264,-0.5581804513931274,-0.8564121723175049
1772797649199265500,1.080265625,1.1510027647018433,-0.24891208112239838,-0.5113098621368408
1772797649209292500,1.09029248046875,1.3556851148605347,-0.010042780078947544,-0.5180511474609375
1772797649219318500,1.100318603515625,1.6395807266235352,-0.2105247527360916,-0.613427460193634
1772797649229344500,1.110344482421875,1.8276609182357788,-0.7657485604286194,-0.5161839723587036
1772797649239370500,1.12037060546875,1.744133710861206,-1.0495216846466064,-0.2191789597272873
1772797649249397500,1.1303974609375,1.4064888954162598,-0.31012165546417236,0.35177081823349
1772797649259423500,1.140423583984375,1.0986418724060059,1.1350882053375244,0.9818374514579773
1772797649269449500,1.150449462890625,1.2901049852371216,2.173814296722412,1.0365592241287231
1772797649279476700,1.160476806640625,1.7204670906066895,1.9387807846069336,1.1831835508346558
1772797649289502700,1.170502685546875,2.1269900798797607,0.9475340843200684,1.5366899967193604
1772797649299528700,1.18052880859375,2.4465465545654297,-0.05825718119740486,1.9359724521636963
1772797649309555500,1.190555419921875,2.6417620182037354,-0.6471731662750244,2.215818166732788
1772797649319581400,1.20058154296875,2.689833879470825,-0.8157526254653931,2.25449538230896
1772797649329607400,1.210607421875,2.5478265285491943,-0.6861042976379395,2.054593086242676
1772797649339633400,1.22063330078125,2.251713752746582,-0.4134352505207062,1.7783596515655518
1772797649349660700,1.23066064453125,1.920904517173767,-0.052431780844926834,1.584821343421936
1772797649359686700,1.240686767578125,1.597320318222046,0.25716841220855713,1.525368094444275
1772797649369712600,1.250712646484375,1.2820388078689575,0.4715275764465332,1.4533506631851196
1772797649379739600,1.26073974609375,1.0387425422668457,0.6032845377922058,1.3719063997268677
1772797649389765400,1.270765380859375,0.8708078861236572,0.7082871198654175,1.3189609050750732
1772797649399791400,1.280791259765625,0.8079407215118408,0.72266685962677,1.2603766918182373
1772797649409817300,1.2908173828125,0.8534619212150574,0.6665354371070862,1.1988970041275024
1772797649419844600,1.3008447265625,0.910580575466156,0.5019621849060059,1.1322938203811646
1772797649429870600,1.31087060546875,1.1601831912994385,0.13950276374816895,1.1978306770324707
1772797649439896600,1.320896484375,1.2114109992980957,-0.2493472397327423,1.2298352718353271
1772797649449923600,1.330923583984375,1.0947242975234985,-0.38137131929397583,1.2529791593551636
1772797649459949600,1.340949462890625,0.9011393785476685,-0.11301443725824356,1.1626546382904053
1772797649469975600,1.3509755859375,0.7396977543830872,0.27948862314224243,0.9698092937469482
1772797649480001800,1.361001708984375,0.6059839129447937,0.5861095786094666,0.7064756751060486
1772797649490028500,1.371028564453125,0.3758428692817688,0.7880032658576965,0.31316429376602173
1772797649500054500,1.381054443359375,0.2463940680027008,0.8248321413993835,-0.22499476373195648
1772797649510080500,1.39108056640625,-0.09917718172073364,0.8937965631484985,-0.4594717025756836
1772797649520107500,1.401107421875,-0.23381835222244263,0.9124512076377869,-0.9168009161949158
1772797649530133500,1.411133544921875,-0.3333111107349396,0.9345844388008118,-1.1444671154022217
1772797649540159500,1.421159423828125,-0.38391196727752686,0.6789973974227905,-1.3514673709869385
1772797649550185700,1.431185791015625,-0.34982991218566895,0.42797425389289856,-1.4021987915039062
1772797649560212700,1.441212646484375,-0.3961547911167145,0.12074825912714005,-1.3734185695648193
1772797649570238500,1.451238525390625,-0.38119396567344666,-0.037579067051410675,-1.3510397672653198
1772797649580264400,1.461264404296875,-0.29039427638053894,-0.003709783311933279,-1.357241153717041
1772797649590291500,1.47129150390625,-0.2360556721687317,0.039804670959711075,-1.3401583433151245
1772797649600317400,1.4813173828125,-0.2584057152271271,0.014141385443508625,-1.3386714458465576
1772797649610343400,1.491343505859375,-0.29131200909614563,0.012555472552776337,-1.318322777748108
1772797649620370700,1.50137060546875,-0.3123653531074524,0.061114486306905746,-1.2742128372192383
1772797649630396700,1.511396728515625,-0.2842476963996887,0.15322203934192657,-1.1545761823654175
1772797649640422700,1.521422607421875,-0.22823157906532288,0.22968672215938568,-0.9798099994659424
1772797649650448600,1.53144873046875,-0.20713934302330017,0.24250026047229767,-0.7688777446746826
1772797649660475400,1.541475341796875,-0.20388415455818176,0.2077540010213852,-0.5901767611503601
1772797649670501600,1.551501708984375,-0.20045453310012817,0.1561691015958786,-0.5026863217353821
1772797649680527600,1.561527587890625,-0.21912622451782227,0.1614978164434433,-0.54349285364151
1772797649690554600,1.5715546875,-0.34133973717689514,0.2312776893377304,-0.6959516406059265
1772797649700580900,1.581580810546875,-0.5291365385055542,0.21133354306221008,-0.6799255013465881
1772797649710606800,1.59160693359375,-0.5969350337982178,0.4900546669960022,-0.45423007011413574
1772797649720632800,1.6016328125,-0.5219026207923889,0.9000890254974365,-0.4878106713294983
1772797649730659800,1.611659912109375,-0.38891738653182983,0.4942885637283325,-1.2743241786956787
1772797649740685800,1.621685791015625,0.31148838996887207,0.8468610048294067,-1.8691824674606323
1772797649750711600,1.631711669921875,1.1308069229125977,0.9282996654510498,-1.6596037149429321
1772797649760738800,1.64173876953125,1.7728439569473267,0.45004892349243164,-0.24645638465881348
1772797649770764800,1.651764892578125,2.0824337005615234,-0.33788642287254333,1.7683908939361572
1772797649780790800,1.661790771484375,2.2452144622802734,-0.7254445552825928,3.2903664112091064
1772797649790816800,1.671816650390625,2.6533663272857666,-0.5193917751312256,3.827674388885498
1772797649800843800,1.68184375,2.888439178466797,-0.29596269130706787,3.5456228256225586
1772797649810869800,1.691869873046875,2.736204147338867,-0.23455578088760376,2.902008056640625
1772797649820895700,1.701895751953125,2.395688772201538,-0.11560223251581192,2.126767158508301
1772797649830922800,1.7119228515625,2.034435272216797,0.08031747490167618,1.4349747896194458
1772797649840948700,1.72194873046875,1.7395507097244263,0.26022040843963623,0.9567182660102844
1772797649850974700,1.731974609375,1.460208773612976,0.36406052112579346,0.6943521499633789
1772797649861000700,1.742000732421875,1.2013397216796875,0.44343629479408264,0.5629778504371643
1772797649871027700,1.75202783203125,0.9673711657524109,0.6321092844009399,0.45055732131004333
1772797649881053700,1.7620537109375,0.798133134841919,0.8217825293540955,0.4071480631828308
1772797649891079700,1.77207958984375,0.7678008079528809,0.9188952445983887,0.47629278898239136
1772797649901107000,1.78210693359375,0.8120995163917542,0.8883327841758728,0.6297145485877991
1772797649911133000,1.7921328125,0.9112026691436768,0.7934118509292603,0.7949913740158081
1772797649921159000,1.802158935546875,0.9749279022216797,0.6676539182662964,0.8986514806747437
1772797649931185700,1.812185546875,1.0354719161987305,0.527950644493103,0.9201722145080566
1772797649941211600,1.822211669921875,1.0915091037750244,0.3750250041484833,0.9398524165153503
1772797649951237600,1.832237548828125,1.1034307479858398,0.24245817959308624,0.9727033376693726
1772797649961263600,1.842263671875,1.107985496520996,0.0613725483417511,0.999201238155365
1772797649971291000,1.852290771484375,1.103047251701355,-0.10561910271644592,1.031008243560791
1772797649981316900,1.86231689453125,1.0601838827133179,-0.2138606160879135,0.9948238134384155
1772797649991342800,1.8723427734375,1.0131891965866089,-0.303581178188324,0.9044560790061951
1772797650001369600,1.88236962890625,0.9367054104804993,-0.3988110423088074,0.7506771683692932
1772797650011395600,1.8923955078125,0.8295613527297974,-0.47187912464141846,0.5150377750396729
1772797650021421600,1.902421630859375,0.7513619065284729,-0.4793868362903595,0.22626030445098877
1772797650031447600,1.912447509765625,0.6432974934577942,-0.43514588475227356,-0.05693864822387695
1772797650041474800,1.922474853515625,0.5026998519897461,-0.3725679814815521,-0.3215002715587616
1772797650051500800,1.932500732421875,0.36750611662864685,-0.2604430317878723,-0.5049595832824707
1772797650061526800,1.94252685546875,0.21313224732875824,-0.17866215109825134,-0.6062512993812561
1772797650071553800,1.9525537109375,0.029521141201257706,-0.17972634732723236,-0.7014800906181335
1772797650081579800,1.962579833984375,-0.11827817559242249,-0.07053009420633316,-0.7413726449012756
1772797650091605800,1.972605712890625,-0.23614835739135742,0.03278404474258423,-0.7831398248672485
1772797650101631700,1.9826318359375,-0.30262938141822815,0.09101193398237228,-0.8541207909584045
1772797650111658800,1.99265869140625,-0.316128134727478,0.12814359366893768,-0.9196038842201233
1772797650121684700,2.002684814453125,-0.29558265209198,0.14469432830810547,-0.9486960172653198
1772797650131710700,2.012710693359375,-0.2848663628101349,0.16708166897296906,-0.9715038537979126
1772797650141737700,2.02273779296875,-0.29266250133514404,0.19895172119140625,-0.9735174775123596
1772797650151763700,2.032763671875,-0.3312559723854065,0.2427830845117569,-0.9648078680038452
1772797650161789700,2.042789794921875,-0.3566156327724457,0.29220709204673767,-0.932849109172821
1772797650171815700,2.052815673828125,-0.3558880686759949,0.3686363399028778,-0.8976634740829468
1772797650181842700,2.0628427734375,-0.3191350996494293,0.4653852581977844,-0.8794649839401245
1772797650191868700,2.07286865234375,-0.2698591649532318,0.5841161608695984,-0.8693282008171082
1772797650201894700,2.082894775390625,-0.1927310973405838,0.608647882938385,-0.8756366968154907
1772797650211921700,2.092921630859375,-0.15427932143211365,0.4742645025253296,-0.7850458025932312
1772797650221947600,2.10294775390625,-0.12620986998081207,0.13313515484333038,-0.5561548471450806
1772797650231973600,2.1129736328125,-0.17117467522621155,-0.22308900952339172,-0.2107764184474945
1772797650241999600,2.12299951171875,-0.12321726977825165,-0.25824540853500366,0.18134023249149323
1772797650252027000,2.13302685546875,0.08828219026327133,-0.11762116849422455,-0.029748840257525444
1772797650262052900,2.143052978515625,0.42553719878196716,-0.08916396647691727,-1.2324308156967163
1772797650272078800,2.153078857421875,0.8224033117294312,0.4074593782424927,-2.367406129837036
1772797650282105600,2.163105712890625,1.3186160326004028,0.5516964793205261,-3.023463249206543
1772797650292131600,2.173131591796875,1.7772653102874756,0.34648817777633667,-2.872588634490967
1772797650302157600,2.183157470703125,2.012734889984131,0.34147876501083374,-1.5904514789581299
1772797650312184800,2.193184814453125,2.2047369480133057,0.9197799563407898,0.014801050536334515
1772797650322210800,2.2032109375,2.7076632976531982,1.4327197074890137,0.9702844023704529
1772797650332236800,2.21323681640625,3.2685930728912354,1.3317770957946777,1.242025375366211
1772797650342262800,2.2232626953125,3.393876075744629,0.8349214792251587,1.1802096366882324
1772797650352289800,2.233289794921875,3.223004102706909,0.4054180681705475,0.8423767685890198
1772797650362315800,2.243315673828125,3.015592336654663,0.34466391801834106,0.3513665497303009
1772797650372341800,2.253341796875,2.8623838424682617,0.5725966691970825,-0.12999235093593597
1772797650382368800,2.26336865234375,2.76163911819458,0.8054874539375305,-0.3752647042274475
1772797650392394800,2.273394775390625,2.7300403118133545,0.8893876671791077,-0.3501524031162262
1772797650402420700,2.283420654296875,2.836829900741577,0.884364664554596,-0.1555642932653427
1772797650412446700,2.29344677734375,3.0744314193725586,0.8369484543800354,0.1057533249258995
1772797650422473700,2.3034736328125,3.3817436695098877,0.7413638830184937,0.32647478580474854
1772797650432499700,2.313499755859375,3.577955722808838,0.5745663642883301,0.4248993694782257
1772797650442525700,2.323525634765625,3.591517686843872,0.2623400092124939,0.5223401784896851
1772797650452552700,2.333552734375,3.4078288078308105,-0.09968531131744385,0.8082185387611389
1772797650462578700,2.34357861328125,3.1142284870147705,-0.408595472574234,1.1734238862991333
1772797650472604700,2.353604736328125,2.7006306648254395,-0.5740292072296143,1.4595412015914917
1772797650482630700,2.363630615234375,2.304631471633911,-0.5628998279571533,1.595738410949707
1772797650492657700,2.37365771484375,1.9761608839035034,-0.42700591683387756,1.6256550550460815
1772797650502683600,2.38368359375,1.7580530643463135,-0.2102469801902771,1.4259538650512695
1772797650512709600,2.393709716796875,1.623841404914856,0.09598112106323242,1.077636957168579
1772797650522737000,2.40373681640625,1.5023573637008667,0.402461439371109,0.5708256959915161
1772797650532763000,2.413762939453125,1.281098484992981,0.5958580374717712,0.039332758635282516
1772797650542788900,2.423788818359375,1.0518532991409302,0.6642693281173706,-0.4119100570678711
1772797650552814800,2.43381494140625,0.8827225565910339,0.6053096055984497,-0.7989890575408936
1772797650562841600,2.443841552734375,0.7651602625846863,0.5001443028450012,-1.1199194192886353
1772797650572867600,2.45386767578125,0.7250024676322937,0.39183300733566284,-1.412541389465332
1772797650582893800,2.463893798828125,0.6932554244995117,0.28320881724357605,-1.6624056100845337
1772797650592920800,2.4739208984375,0.6824967861175537,0.158849835395813,-1.8118219375610352
1772797650602946800,2.48394677734375,0.661914587020874,0.04162760451436043,-1.848512887954712
1772797650612972800,2.493972900390625,0.6577070355415344,-0.025789786130189896,-1.7966209650039673
1772797650622998800,2.503998779296875,0.6590372920036316,-0.06863764673471451,-1.6857212781906128
1772797650633025500,2.514025634765625,0.6772059202194214,-0.18964742124080658,-1.589158535003662
1772797650643051500,2.524051513671875,0.7110296487808228,-0.24687182903289795,-1.5030015707015991
1772797650653077800,2.534077880859375,0.7204396724700928,-0.1853586733341217,-1.4322293996810913
1772797650663104800,2.544104736328125,0.7222726941108704,-0.06284793466329575,-1.3499515056610107
1772797650673131500,2.554131591796875,0.7338958382606506,0.09290943294763565,-1.213707685470581
1772797650683157500,2.564157470703125,0.7661120891571045,0.18360339105129242,-1.0601059198379517
1772797650693183500,2.57418359375,0.8329827189445496,0.17329801619052887,-0.8587221503257751
1772797650703210200,2.584210205078125,0.9265283942222595,0.05915972590446472,-0.558129608631134
1772797650713236200,2.594236328125,1.0567654371261597,-0.06902620196342468,-0.2295951098203659
1772797650723262200,2.60426220703125,1.132336974143982,-0.22473271191120148,0.018879948183894157
1772797650733289200,2.614289306640625,1.1207244396209717,-0.36873915791511536,0.0970434620976448
1772797650743315500,2.6243154296875,1.1301254034042358,-0.26183560490608215,0.059232696890830994
1772797650753341400,2.634341552734375,1.1644765138626099,0.009823069907724857,-0.024282436817884445
1772797650763367400,2.644367431640625,1.2304712533950806,0.26579198241233826,-0.02670857682824135
1772797650773394400,2.65439453125,1.3860325813293457,0.5549404621124268,0.08447227627038956
1772797650783420400,2.66442041015625,1.686456322669983,0.6817694902420044,-0.1067831739783287
1772797650793446400,2.6744462890625,1.9698054790496826,0.52585369348526,-0.5519393086433411
1772797650803473400,2.684473388671875,2.228034257888794,0.24618101119995117,-0.7855126857757568
1772797650813499400,2.69449951171875,2.371180295944214,-0.4044095277786255,-0.8957643508911133
1772797650823525400,2.704525390625,2.3037376403808594,-0.6786120533943176,-0.6220276355743408
1772797650833551400,2.71455126953125,2.0394978523254395,-0.13378655910491943,0.2719998359680176
1772797650843578400,2.724578369140625,2.0038766860961914,0.9817340970039368,1.1899621486663818
1772797650853604400,2.734604248046875,2.29384183883667,1.6401586532592773,1.4996532201766968
1772797650863630300,2.74463037109375,2.5726089477539062,1.427318811416626,1.7030589580535889
1772797650873657300,2.7546572265625,2.76515793800354,0.6082750558853149,1.9386709928512573
1772797650883683300,2.764683349609375,2.8813397884368896,-0.21979095041751862,2.1369118690490723
1772797650893709300,2.774709228515625,2.890737533569336,-0.5932130217552185,2.146552801132202
1772797650903735300,2.7847353515625,2.742535352706909,-0.5134326815605164,1.9832535982131958
1772797650913762300,2.79476220703125,2.4389514923095703,-0.15415681898593903,1.681681513786316
1772797650923788300,2.804788330078125,2.074662685394287,0.33270204067230225,1.3230136632919312
1772797650933814300,2.814814208984375,1.7861387729644775,0.802306592464447,1.0079143047332764
1772797650943841500,2.824841552734375,1.6322088241577148,1.1119751930236816,0.875843346118927
1772797650953867500,2.834867431640625,1.605757713317871,1.2098138332366943,0.9976062774658203
1772797650963893500,2.8448935546875,1.664042592048645,1.1462393999099731,1.2623138427734375
1772797650973919500,2.85491943359375,1.7277265787124634,1.0548008680343628,1.5374641418457031
1772797650983946200,2.8649462890625,1.8364365100860596,0.935239851474762,1.7464450597763062
1772797650993972200,2.87497216796875,1.9198081493377686,0.9008017182350159,1.7996073961257935
1772797651003998200,2.884998291015625,2.001483678817749,0.8103426694869995,1.7317659854888916
1772797651014025500,2.895025390625,1.9871509075164795,0.6799635887145996,1.6553058624267578
1772797651024051500,2.905051513671875,1.9712738990783691,0.5524125695228577,1.53119695186615
1772797651034077400,2.915077392578125,1.9529881477355957,0.5297623872756958,1.3652772903442383
1772797651044103400,2.925103515625,1.944374442100525,0.5200410485267639,1.1897560358047485
1772797651054130400,2.93513037109375,1.865919828414917,0.4982798397541046,0.9960685968399048
1772797651064156400,2.945156494140625,1.7268221378326416,0.46546968817710876,0.7108834385871887
1772797651074182100,2.95518212890625,1.5951759815216064,0.43093007802963257,0.33109137415885925
1772797651084209400,2.96520947265625,1.417785406112671,0.4436053931713104,-0.11172759532928467
1772797651094235400,2.9752353515625,1.2167668342590332,0.505538284778595,-0.5272403955459595
1772797651104261400,2.985261474609375,1.0791916847229004,0.5493313074111938,-0.8989825248718262
1772797651114287400,2.995287353515625,0.9898455739021301,0.5308042168617249,-1.1844151020050049
1772797651124314400,3.005314453125,0.9724367260932922,0.45173177123069763,-1.404557228088379
1772797651134340400,3.01534033203125,1.0126183032989502,0.3531327545642853,-1.5644441843032837
1772797651144366300,3.025366455078125,1.0803041458129883,0.2457176148891449,-1.6588399410247803
1772797651154392300,3.035392333984375,1.1453752517700195,0.11313028633594513,-1.6349990367889404
1772797651164419300,3.04541943359375,1.1922937631607056,0.018622420728206635,-1.5026830434799194
1772797651174445300,3.0554453125,1.2506030797958374,0.04280232638120651,-1.3785216808319092
1772797651184471300,3.06547119140625,1.3368525505065918,0.15239113569259644,-1.3007233142852783
1772797651194498300,3.075498291015625,1.3273698091506958,0.2587428689002991,-1.296884298324585
1772797651204524300,3.085524169921875,1.2295489311218262,0.38811925053596497,-1.3901700973510742
1772797651214550300,3.09555029296875,1.1119872331619263,0.5697723627090454,-1.549852967262268
1772797651224576500,3.105576416015625,1.0673593282699585,0.668123185634613,-1.7023860216140747
1772797651234603500,3.115603515625,1.0639985799789429,0.595206618309021,-1.8675429821014404
1772797651244629500,3.12562939453125,1.0899250507354736,0.3711410462856293,-2.005937337875366
1772797651254655500,3.135655517578125,1.189205288887024,0.17251957952976227,-2.082827568054199
1772797651264682200,3.14568212890625,1.4018139839172363,-0.09698539972305298,-2.0449345111846924
1772797651274708200,3.155708251953125,1.6888790130615234,-0.42104336619377136,-1.743986964225769
1772797651284734200,3.165734130859375,1.9220120906829834,-0.505832314491272,-1.1768321990966797
1772797651294760400,3.175760498046875,2.1912214756011963,-0.39653509855270386,-0.682610273361206
1772797651304787500,3.185787353515625,2.4912116527557373,-0.40205609798431396,-0.5590390563011169
1772797651314813400,3.1958134765625,2.753382682800293,-0.5415180921554565,-0.6516768336296082
1772797651324839400,3.20583935546875,2.9314582347869873,-0.6578463315963745,-0.674094021320343
1772797651334866200,3.2158662109375,2.7927658557891846,-0.40599438548088074,-0.5716986656188965
1772797651344892200,3.22589208984375,2.2889328002929688,0.1484869420528412,-0.4939311444759369
1772797651354918100,3.235918212890625,1.874739170074463,0.918125331401825,-0.39250439405441284
1772797651364944400,3.2459443359375,1.8489121198654175,0.9335599541664124,-0.1868007779121399
1772797651374971400,3.255971435546875,2.0397632122039795,0.3981550931930542,0.25890374183654785
1772797651384997400,3.265997314453125,2.16247296333313,-0.12100125849246979,0.8432379961013794
1772797651395023400,3.2760234375,2.0806002616882324,-0.41829872131347656,1.220947504043579
1772797651405049300,3.28604931640625,1.8434147834777832,-0.5133908987045288,1.2554963827133179
1772797651415076400,3.296076416015625,1.5141913890838623,-0.42706531286239624,1.1915662288665771
1772797651425102600,3.3061025390625,1.2412793636322021,-0.2455466389656067,1.1915220022201538
1772797651435128600,3.316128662109375,1.0473741292953491,-0.11328687518835068,1.3306303024291992
1772797651445155300,3.3261552734375,0.9589766263961792,0.01065131276845932,1.5264374017715454
1772797651455181300,3.336181396484375,0.9367240071296692,0.17230306565761566,1.7574186325073242
1772797651465207300,3.346207275390625,0.9355341196060181,0.3536534011363983,1.9661859273910522
1772797651475233300,3.3562333984375,0.9298053979873657,0.5153499245643616,2.183505058288574
1772797651485260300,3.36626025390625,0.902143120765686,0.7072786092758179,2.421966552734375
1772797651495286500,3.37628662109375,0.9040946960449219,0.8494160175323486,2.574852466583252
1772797651505312500,3.3863125,0.9363810420036316,0.7914541959762573,2.623431444168091
1772797651515339300,3.39633935546875,0.971102774143219,0.6441699266433716,2.5057008266448975
1772797651525365200,3.406365234375,0.9849685430526733,0.298194944858551,2.245713949203491
1772797651535391200,3.41639111328125,0.9791958332061768,0.07834646850824356,2.0054752826690674
1772797651545417200,3.426417236328125,0.9879757761955261,-0.01212697010487318,1.7590293884277344
1772797651555444500,3.436444580078125,1.0040823221206665,0.02262941189110279,1.5428440570831299
1772797651565470500,3.446470458984375,0.9812694191932678,0.043787695467472076,1.3266565799713135
1772797651575496400,3.456496337890625,0.9048542380332947,-0.015081214718520641,1.0277601480484009
1772797651585522400,3.4665224609375,0.8272577524185181,-0.004751345608383417,0.6626408100128174
1772797651595549400,3.476549560546875,0.7395159006118774,0.07839387655258179,0.2925080358982086
1772797651605575400,3.486575439453125,0.6667303442955017,0.13488751649856567,-0.1049748882651329
1772797651615601400,3.496601318359375,0.6363652944564819,0.14050917327404022,-0.4818270802497864
1772797651625628400,3.50662841796875,0.6536592841148376,0.1286381334066391,-0.8399050831794739
1772797651635654400,3.516654296875,0.7063587307929993,0.07468701899051666,-1.1251647472381592
1772797651645680400,3.526680419921875,0.7593809366226196,-0.04601915553212166,-1.3170636892318726
1772797651655706400,3.536706298828125,0.8054341673851013,-0.14910879731178284,-1.3784053325653076
1772797651665733400,3.5467333984375,0.835631787776947,-0.21197935938835144,-1.3605674505233765
1772797651675759600,3.556759521484375,0.8745192289352417,-0.137497678399086,-1.3773030042648315
1772797651685785600,3.56678564453125,0.8623341917991638,-0.03160932660102844,-1.4617425203323364
1772797651695811600,3.5768115234375,0.7968431115150452,0.11002184450626373,-1.575342059135437
1772797651705838300,3.58683837890625,0.6910495758056641,0.2939578592777252,-1.6415876150131226
1772797651715864300,3.5968642578125,0.585330605506897,0.550365686416626,-1.6622521877288818
1772797651725890300,3.606890380859375,0.5093109011650085,0.7821738719940186,-1.6603376865386963
1772797651735917300,3.616917236328125,0.5115327835083008,0.8472084999084473,-1.6121608018875122
1772797651745943600,3.626943603515625,0.5326681733131409,0.7130944132804871,-1.4984105825424194
1772797651755969500,3.636969482421875,0.5489025115966797,0.3570878207683563,-1.2876484394073486
1772797651765995500,3.64699560546875,0.5606721043586731,-0.14254942536354065,-0.9818866848945618
1772797651776022500,3.6570224609375,0.634204626083374,-0.5680296421051025,-0.6823282241821289
1772797651786048500,3.667048583984375,0.7771782875061035,-0.9003713726997375,-0.5583668947219849
1772797651796074500,3.677074462890625,0.8292127251625061,-1.0729148387908936,-0.49420198798179626
1772797651806100500,3.6871005859375,0.770187497138977,-0.9106695055961609,-0.3792527914047241
1772797651816127500,3.69712744140625,0.7181535959243774,-0.5866451263427734,-0.5498218536376953
1772797651826153500,3.707153564453125,0.7341054081916809,-0.2842881977558136,-1.0866714715957642
1772797651836179500,3.717179443359375,0.659087598323822,-0.012464126572012901,-1.731735110282898
1772797651846206500,3.72720654296875,0.4186159074306488,0.2514279782772064,-2.275336265563965
1772797651856232400,3.737232421875,0.04092319682240486,0.6252194046974182,-2.586059093475342
1772797651866258400,3.747258544921875,-0.18756696581840515,1.3266326189041138,-2.470944404602051
1772797651876284400,3.757284423828125,0.006140716839581728,2.1104509830474854,-1.879223108291626
1772797651886311400,3.7673115234375,0.5960812568664551,2.034391403198242,-0.8567793965339661
1772797651896337400,3.77733740234375,1.371720552444458,0.829667866230011,0.485209584236145
1772797651906363400,3.78736328125,2.150749444961548,-0.6033692359924316,1.6898367404937744
1772797651916389400,3.797389404296875,2.4830331802368164,-1.3831400871276855,2.5486271381378174
1772797651926416400,3.80741650390625,2.3964641094207764,-1.3739293813705444,2.9479246139526367
1772797651936442400,3.8174423828125,2.1986067295074463,-0.8975548148155212,2.7135608196258545
1772797651946468400,3.82746826171875,1.9394350051879883,-0.42851778864860535,2.183802366256714
1772797651956495600,3.83749560546875,1.6283962726593018,-0.1813540756702423,1.7731318473815918
1772797651966521600,3.847521484375,1.2692071199417114,0.012664929032325745,1.580868124961853
1772797651976547600,3.857547607421875,0.9194496870040894,0.22496414184570312,1.5441758632659912
1772797651986573600,3.867573486328125,0.6023428440093994,0.5124081969261169,1.5838884115219116
1772797651996600300,3.877600341796875,0.3374198377132416,0.8032490611076355,1.6444486379623413
1772797652006626300,3.887626220703125,0.15642422437667847,1.0483347177505493,1.7267065048217773
1772797652016652300,3.89765234375,0.13159823417663574,1.2150545120239258,1.8189342021942139
1772797652026678500,3.907678466796875,0.32824817299842834,1.195841908454895,1.9093849658966064
1772797652036705500,3.91770556640625,0.4552482068538666,0.897050142288208,1.92510986328125
1772797652046731500,3.9277314453125,0.4904717206954956,0.532208263874054,1.816152572631836
1772797652056757500,3.937757568359375,0.42584559321403503,0.3021007478237152,1.5791373252868652
1772797652066784300,3.9477841796875,0.26196104288101196,0.18607239425182343,1.2686591148376465
1772797652076810200,3.957810302734375,0.11049188673496246,0.12837927043437958,0.9798102378845215
1772797652086836200,3.967836181640625,0.007125553674995899,0.1316070258617401,0.7123753428459167
1772797652096862500,3.977862548828125,-0.06851886957883835,0.11036086082458496,0.4603108763694763
1772797652106889500,3.987889404296875,-0.13743482530117035,0.05823188275098801,0.2058362513780594
1772797652116915500,3.99791552734375,-0.19098220765590668,-0.026137061417102814,-0.0670703798532486
1772797652126941400,4.00794140625,-0.24395275115966797,-0.09111765772104263,-0.3245951235294342
1772797652136967400,4.017967529296875,-0.2855087220668793,-0.1466192603111267,-0.5296515822410583
1772797652146994400,4.027994384765625,-0.2947336435317993,-0.21705640852451324,-0.6838153600692749
1772797652157020400,4.0380205078125,-0.2505704462528229,-0.26013410091400146,-0.8081527352333069
1772797652167046700,4.048046630859375,-0.18836325407028198,-0.30499932169914246,-0.8938596248626709
1772797652177072600,4.05807275390625,-0.15470249950885773,-0.3155995011329651,-0.9133132696151733
1772797652187099400,4.068099365234375,-0.09646742045879364,-0.35891902446746826,-0.9246761798858643
1772797652197125400,4.07812548828125,-0.03263304382562637,-0.4172017574310303,-0.9243733286857605
1772797652207151400,4.0881513671875,0.01974201388657093,-0.512028694152832,-0.9121201634407043
1772797652217178400,4.098178466796875,0.03396196290850639,-0.5923408269882202,-0.9021463394165039
1772797652227204600,4.10820458984375,0.023454992100596428,-0.5754960775375366,-0.9483029246330261
1772797652237230600,4.118230712890625,-0.027528030797839165,-0.4564138650894165,-1.02877676486969
1772797652247256600,4.128256591796875,-0.11513271182775497,-0.2500990629196167,-1.1633316278457642
1772797652257283300,4.138283447265625,-0.24144645035266876,-0.050029877573251724,-1.3565548658370972
1772797652267309300,4.148309326171875,-0.3394515812397003,-0.00586534570902586,-1.5244386196136475
1772797652277335300,4.158335205078125,-0.35237908363342285,-0.15181083977222443,-1.5739740133285522
1772797652287361300,4.168361328125,-0.3105938136577606,-0.2807464599609375,-1.5578869581222534
1772797652297388500,4.178388427734375,-0.23209156095981598,-0.3699519634246826,-1.5357882976531982
1772797652307414500,4.18841455078125,-0.10240999609231949,-0.5497244000434875,-1.4983474016189575
1772797652317440500,4.1984404296875,0.11125089228153229,-0.8233979940414429,-1.4761992692947388
1772797652327467500,4.208467529296875,0.4866490066051483,-1.1472663879394531,-1.4800525903701782
1772797652337493500,4.218493408203125,0.9368566274642944,-1.485983967781067,-1.4929797649383545
1772797652347519500,4.22851953125,1.5796979665756226,-2.1418099403381348,-1.2977287769317627
1772797652357545500,4.23854541015625,2.1259288787841797,-2.941930055618286,-0.7753300666809082
1772797652367572500,4.248572509765625,2.0958333015441895,-3.4493680000305176,-0.41966545581817627
1772797652377598500,4.258598388671875,1.5285694599151611,-2.974905014038086,-0.7284405827522278
1772797652387624400,4.26862451171875,0.9352558255195618,-1.193686604499817,-1.023331880569458
1772797652397650400,4.278650390625,0.41115397214889526,0.960343599319458,-0.9636555314064026
1772797652407677400,4.288677490234375,-0.12972603738307953,2.133019208908081,-0.817559003829956
1772797652417703400,4.298703369140625,-0.19909845292568207,2.4216980934143066,-0.4262927174568176
1772797652427729400,4.3087294921875,0.3585725426673889,1.888035774230957,0.18993638455867767
1772797652437755400,4.31875537109375,0.942265510559082,0.6507748365402222,0.8667553067207336
1772797652447782400,4.328782470703125,1.2256325483322144,-0.2558371126651764,1.496138095855713
1772797652457808400,4.338808349609375,1.305543303489685,-0.38099023699760437,1.8281588554382324
1772797652467834400,4.34883447265625,1.282209038734436,0.011832158081233501,1.8518575429916382
1772797652477860400,4.3588603515625,1.1579355001449585,0.40613579750061035,1.7560007572174072
1772797652487887400,4.368887451171875,0.9234143495559692,0.6859714388847351,1.8081028461456299
1772797652497913300,4.378913330078125,0.6906013488769531,0.8964090943336487,2.056084632873535
1772797652507939300,4.388939208984375,0.5263473987579346,1.0617344379425049,2.439061403274536
1772797652517966600,4.398966552734375,0.458205908536911,1.1197258234024048,2.849583387374878
1772797652527992600,4.40899267578125,0.4817381501197815,1.1212570667266846,3.142885684967041
1772797652538018600,4.4190185546875,0.5105096101760864,1.1029380559921265,3.2330827713012695
1772797652548044500,4.42904443359375,0.4863099753856659,1.1234155893325806,3.0202364921569824
1772797652558071300,4.4390712890625,0.4632827043533325,1.2601100206375122,2.5313637256622314
1772797652568097300,4.44909716796875,0.43094632029533386,1.43007493019104,1.9438929557800293
1772797652578123300,4.459123291015625,0.3522898852825165,1.3761645555496216,1.5402040481567383
1772797652588149500,4.4691494140625,0.26868578791618347,1.0877412557601929,1.2965394258499146
1772797652598176500,4.479176513671875,0.25446903705596924,0.722068190574646,1.0974739789962769
1772797652608202500,4.489202392578125,0.2555020749568939,0.3922215700149536,0.8845282196998596
1772797652618228500,4.499228515625,0.21465611457824707,0.1239302009344101,0.6233847737312317
1772797652628254500,4.50925439453125,0.12940379977226257,-0.029046032577753067,0.28738224506378174
1772797652638281500,4.519281494140625,0.008098406717181206,-0.06245512142777443,-0.12597045302391052
1772797652648307500,4.529307373046875,-0.11151720583438873,-0.008343417197465897,-0.5375806093215942
1772797652658333400,4.53933349609375,-0.20761418342590332,0.05293458700180054,-0.8835585713386536
1772797652668360400,4.5493603515625,-0.26703062653541565,0.04295119643211365,-1.1757283210754395
1772797652678385700,4.5593857421875,-0.3138743042945862,0.029772276058793068,-1.446974277496338
1772797652688411600,4.56941162109375,-0.3317781984806061,-0.012842562049627304,-1.7327580451965332
1772797652698437600,4.579437744140625,-0.33728456497192383,-0.02268693596124649,-1.9525649547576904
1772797652708464600,4.589464599609375,-0.32416343688964844,-0.010203635320067406,-2.0587871074676514
1772797652718490600,4.59949072265625,-0.31159597635269165,-0.08113373816013336,-2.070974349975586
1772797652728516600,4.6095166015625,-0.2548607885837555,-0.18212932348251343,-2.034313917160034
1772797652738542800,4.61954296875,-0.16638125479221344,-0.2678335905075073,-2.0145273208618164
1772797652748569600,4.629569580078125,-0.06871727854013443,-0.34609082341194153,-1.9953811168670654
1772797652758595600,4.639595703125,-0.0031435952987521887,-0.33773916959762573,-1.9987564086914062
1772797652768621600,4.64962158203125,0.03809145838022232,-0.2225918024778366,-2.043196439743042
1772797652778647600,4.6596474609375,0.06273635476827621,-0.08886542171239853,-2.1050586700439453
1772797652788674600,4.669674560546875,0.1140751764178276,-0.005279982928186655,-2.1378891468048096
1772797652798700800,4.67970068359375,0.22735698521137238,-0.06138186901807785,-2.102694511413574
1772797652808726800,4.689726806640625,0.38269278407096863,-0.24117986857891083,-1.9851011037826538
1772797652818752800,4.699752685546875,0.6099088788032532,-0.4660063087940216,-1.8645696640014648
1772797652828779800,4.70977978515625,0.8655763268470764,-0.797828733921051,-1.7186204195022583
1772797652838805800,4.7198056640625,1.2253491878509521,-1.2417761087417603,-1.414621114730835
1772797652848831700,4.729831787109375,1.6011906862258911,-1.525131106376648,-1.0358977317810059
1772797652858858500,4.7398583984375,1.8880776166915894,-1.4917843341827393,-0.8501262664794922
1772797652868884700,4.749884765625,1.9816474914550781,-1.0908536911010742,-0.985891580581665
1772797652878910700,4.75991064453125,1.9206222295761108,-0.6688252091407776,-1.4839277267456055
1772797652888936700,4.769936767578125,1.6881250143051147,-0.599460780620575,-1.9470058679580688
1772797652898963700,4.779963623046875,1.015475869178772,-0.3019159138202667,-2.081669807434082
1772797652908989700,4.78998974609375,0.3399074971675873,0.09125987440347672,-1.7822006940841675
1772797652919015700,4.800015625,-0.0020578245166689157,-0.01555099617689848,-1.0750467777252197
1772797652929041700,4.810041748046875,-0.04535390064120293,-0.1290389448404312,-0.08747552335262299
1772797652939068700,4.820068603515625,0.3699074685573578,0.008709069341421127,0.8594830632209778
1772797652949094700,4.8300947265625,0.7142102718353271,0.3942146897315979,1.5376801490783691
1772797652959120600,4.84012060546875,0.7266001105308533,0.5956940054893494,2.036569118499756
1772797652969146600,4.850146728515625,0.6916431784629822,0.7290928363800049,2.3664543628692627
1772797652979173600,4.860173583984375,0.7100937962532043,0.7251137495040894,2.5378713607788086
1772797652989199600,4.87019970703125,0.5924489498138428,0.579281747341156,2.662609338760376
1772797652999225600,4.8802255859375,0.36031851172447205,0.43010610342025757,2.7526707649230957
1772797653009251600,4.89025146484375,0.14876897633075714,0.4584836959838867,2.795642137527466
1772797653019278800,4.90027880859375,-0.0006439523422159255,0.5797142386436462,2.7690396308898926
1772797653029304800,4.910304931640625,-0.10467847436666489,0.6860883235931396,2.8384459018707275
1772797653039330800,4.920330810546875,-0.14863981306552887,0.8542273044586182,2.976518154144287
1772797653049356800,4.930356689453125,-0.1245347410440445,1.0065391063690186,3.164731740951538
1772797653059383600,4.940383544921875,-0.08279474824666977,1.1416460275650024,3.347468852996826
1772797653069409500,4.950409423828125,0.016803480684757233,1.1713846921920776,3.4280846118927
1772797653079435500,4.960435546875,0.1410798877477646,1.1527642011642456,3.406541585922241
1772797653089461800,4.970461669921875,0.24707023799419403,1.0592923164367676,3.2400619983673096
1772797653099488800,4.98048876953125,0.3095024526119232,0.9460552334785461,2.9670181274414062
1772797653109514800,4.9905146484375,0.3696366250514984,0.8669188618659973,2.622982978820801
1772797653119540700,5.000540771484375,0.4248114824295044,0.771235466003418,2.2491395473480225
1772797653129567700,5.010567626953125,0.44218355417251587,0.6883451342582703,1.8836466073989868
1772797653139593700,5.02059375,0.43631207942962646,0.6057940125465393,1.5158768892288208
1772797653149619500,5.030619384765625,0.4156467318534851,0.5695204734802246,1.197341799736023
1772797653159645700,5.040645751953125,0.3656216561794281,0.5452465415000916,0.8868097066879272
1772797653169671700,5.050671630859375,0.2908720374107361,0.5233129858970642,0.5635520219802856
1772797653179698700,5.06069873046875,0.21207498013973236,0.5572507381439209,0.20748580992221832
1772797653189724700,5.070724609375,0.1271347850561142,0.648172914981842,-0.17059437930583954
1772797653199750700,5.080750732421875,0.10978029668331146,0.7005980610847473,-0.49970221519470215
1772797653209777700,5.090777587890625,0.13454769551753998,0.6126599311828613,-0.8646522164344788
1772797653219804000,5.100803955078125,0.1429760605096817,0.45084306597709656,-1.1828123331069946
1772797653229830000,5.110829833984375,0.16067223250865936,0.14656494557857513,-1.431578278541565
1772797653239855900,5.12085595703125,0.1816808432340622,-0.18289151787757874,-1.5747854709625244
1772797653249882600,5.130882568359375,0.1760551929473877,-0.5402403473854065,-1.6217540502548218
1772797653259908600,5.14090869140625,0.18176686763763428,-0.6289377212524414,-1.6349366903305054
1772797653269934600,5.1509345703125,0.2042713761329651,-0.5677675604820251,-1.7034534215927124
1772797653279960600,5.160960693359375,0.2890123724937439,-0.5367404222488403,-1.791201114654541
1772797653289987800,5.17098779296875,0.3618980348110199,-0.5733919143676758,-1.8599351644515991
1772797653300013800,5.181013916015625,0.41774052381515503,-0.7100618481636047,-1.939426064491272
1772797653310039800,5.191039794921875,0.39304450154304504,-0.8089807033538818,-2.0215365886688232
1772797653320065800,5.201065673828125,0.28933992981910706,-0.8066595196723938,-2.161118745803833
1772797653330092500,5.211092529296875,0.15286864340305328,-0.6491564512252808,-2.3653464317321777
1772797653340118500,5.221118408203125,0.021506890654563904,-0.4003436863422394,-2.6154396533966064
1772797653350144500,5.23114453125,-0.048282310366630554,-0.1541498899459839,-2.840216636657715
1772797653360170500,5.24117041015625,-0.08066421747207642,0.036866672337055206,-3.0133891105651855
1772797653370197800,5.25119775390625,-0.029951507225632668,0.010726413689553738,-3.040963649749756
1772797653380223700,5.2612236328125,0.0996035560965538,-0.3504405617713928,-2.9016196727752686
1772797653390249700,5.271249755859375,0.4221384525299072,-1.0520849227905273,-2.5696470737457275
1772797653400275700,5.281275634765625,0.7967285513877869,-1.9647026062011719,-2.0886075496673584
1772797653410302700,5.291302734375,1.2111265659332275,-2.661874532699585,-1.5061733722686768
1772797653420328700,5.30132861328125,1.6143895387649536,-2.8127501010894775,-1.2169718742370605
1772797653430354700,5.311354736328125,1.8669265508651733,-2.4594037532806396,-1.6745599508285522
1772797653440381000,5.321380859375,1.7171812057495117,-1.8317317962646484,-2.638556718826294
1772797653450407700,5.33140771484375,1.1767590045928955,-0.6026089191436768,-2.87532639503479
1772797653460433700,5.34143359375,0.5696735978126526,0.5854552388191223,-2.0196688175201416
1772797653470459600,5.351459716796875,0.10726626962423325,1.1415303945541382,-0.9879246354103088
1772797653480485600,5.361485595703125,0.04767670854926109,1.3617395162582397,-0.12234588712453842
1772797653490512600,5.3715126953125,0.4500278830528259,1.375622034072876,0.9300147294998169
1772797653500538600,5.38153857421875,1.0087358951568604,1.0756163597106934,1.827743411064148
1772797653510564900,5.39156494140625,1.3522131443023682,0.661986231803894,2.3946359157562256
1772797653520590800,5.4015908203125,1.4769833087921143,0.3129272758960724,2.542853832244873
1772797653530617600,5.41161767578125,1.4498465061187744,0.029984530061483383,2.3778367042541504
1772797653540643600,5.4216435546875,1.3043851852416992,-0.21464838087558746,2.1333327293395996
1772797653550669600,5.431669677734375,1.0942859649658203,-0.31838276982307434,1.9177303314208984
1772797653560695600,5.441695556640625,0.9064130187034607,-0.2824207842350006,1.7824989557266235
1772797653570722600,5.45172265625,0.7542109489440918,-0.12892815470695496,1.7514121532440186
1772797653580748800,5.461748779296875,0.6609803438186646,0.09926533699035645,1.7963570356369019
1772797653590774800,5.47177490234375,0.6257293820381165,0.33713942766189575,1.9482547044754028
1772797653600800800,5.48180078125,0.6196984052658081,0.516370415687561,2.1946334838867188
1772797653610827800,5.491827880859375,0.6279792189598083,0.6047564744949341,2.4891860485076904
1772797653620853800,5.501853759765625,0.6731006503105164,0.6549309492111206,2.750973701477051
1772797653630879700,5.511879638671875,0.6927947402000427,0.65369713306427,2.9598147869110107
1772797653640905700,5.52190576171875,0.7001599669456482,0.6869608163833618,3.0570905208587646
1772797653650932700,5.5319326171875,0.7181759476661682,0.711988627910614,3.044325113296509
1772797653660958700,5.541958740234375,0.7368383407592773,0.8152183890342712,2.9024477005004883
1772797653670984700,5.551984619140625,0.7473359704017639,0.8471523523330688,2.6754026412963867
1772797653681010400,5.562010498046875,0.766830325126648,0.8952391743659973,2.418717861175537
1772797653691037700,5.57203759765625,0.814789891242981,0.9015873670578003,2.1714396476745605
1772797653701063700,5.582063720703125,0.8499606251716614,0.8224632143974304,1.9300711154937744
1772797653711089700,5.592089599609375,0.8691732287406921,0.7343229651451111,1.7648123502731323
1772797653721115600,5.60211572265625,0.8104228377342224,0.6762152314186096,1.6304359436035156
1772797653731142400,5.612142333984375,0.7000235915184021,0.6979812383651733,1.403420090675354
1772797653741168400,5.62216845703125,0.5839430689811707,0.747541606426239,1.0705641508102417
1772797653751194400,5.6321943359375,0.4738815426826477,0.7240170836448669,0.6995663642883301
1772797653761220400,5.642220458984375,0.36830586194992065,0.6786839365959167,0.30072253942489624
1772797653771247600,5.65224755859375,0.3221202492713928,0.5415801405906677,-0.14121438562870026
1772797653781273600,5.662273681640625,0.29282495379447937,0.3246161639690399,-0.5337462425231934
1772797653791299600,5.672299560546875,0.26505082845687866,0.13634373247623444,-0.8584843277931213
1772797653801325600,5.68232568359375,0.24350959062576294,0.015422631986439228,-1.1302881240844727
1772797653811352600,5.6923525390625,0.21952304244041443,-0.06054456904530525,-1.3973560333251953
1772797653821378600,5.702378662109375,0.20029528439044952,-0.10687904804944992,-1.643723487854004
1772797653831404800,5.71240478515625,0.18369312584400177,-0.1177535280585289,-1.8433948755264282
1772797653841430800,5.7224306640625,0.1756328046321869,-0.09330597519874573,-1.9812541007995605
1772797653851457500,5.73245751953125,0.18996647000312805,-0.07088296115398407,-2.0784971714019775
1772797653861483500,5.7424833984375,0.22705498337745667,-0.09274432063102722,-2.153686046600342
1772797653871509500,5.752509521484375,0.2804606854915619,-0.12891244888305664,-2.2094578742980957
1772797653881535500,5.762535400390625,0.36062130331993103,-0.21739409863948822,-2.228576898574829
1772797653891562500,5.7725625,0.4599694609642029,-0.36696523427963257,-2.1627566814422607
1772797653901588700,5.782588623046875,0.5747972726821899,-0.5211073756217957,-2.055216073989868
1772797653911614700,5.79261474609375,0.7171211242675781,-0.5875242352485657,-1.9671343564987183
1772797653921640700,5.802640625,0.8694525957107544,-0.5451030135154724,-1.917698860168457
1772797653931667500,5.81266748046875,1.009523630142212,-0.44975170493125916,-1.975990891456604
1772797653941693400,5.822693359375,1.1193723678588867,-0.4742085933685303,-2.181720733642578
1772797653951719400,5.832719482421875,1.2266197204589844,-0.4694865345954895,-2.405256986618042
1772797653961745400,5.842745361328125,1.425687551498413,-0.47536972165107727,-2.7023003101348877
1772797653971772700,5.852772705078125,1.7238348722457886,-0.4595729112625122,-3.086972236633301
1772797653981798700,5.862798583984375,2.134108066558838,-0.25852423906326294,-3.566699504852295
1772797653991824600,5.87282470703125,2.3983616828918457,-0.5230882167816162,-3.3796896934509277
1772797654001850600,5.8828505859375,2.624516010284424,-0.6603483557701111,-2.718893527984619
1772797654011877600,5.892877685546875,2.7409722805023193,-0.6240518689155579,-1.888942837715149
1772797654021903600,5.902903564453125,2.665238857269287,-0.4240599274635315,-1.1671793460845947
1772797654031929600,5.9129296875,2.609290361404419,-0.37237435579299927,-0.38889262080192566
1772797654041955600,5.92295556640625,2.6590373516082764,-0.26439037919044495,0.4858223497867584
1772797654051982600,5.932982666015625,2.7891440391540527,-0.18811637163162231,1.298356533050537
1772797654062008600,5.943008544921875,2.8848137855529785,-0.1865278035402298,1.8894771337509155
1772797654072034600,5.95303466796875,2.92970871925354,-0.15088431537151337,2.113140344619751
1772797654082060500,5.963060546875,2.847341775894165,-0.06981316953897476,2.0627307891845703
1772797654092087600,5.973087646484375,2.6263577938079834,0.03441816195845604,1.887581706047058
1772797654102113500,5.983113525390625,2.2876474857330322,0.10296739637851715,1.6718894243240356
1772797654112139500,5.993139404296875,1.9380217790603638,0.20505967736244202,1.4866801500320435
1772797654122165800,6.003165771484375,1.669103741645813,0.30627310276031494,1.371589183807373
1772797654132192500,6.013192626953125,1.4884865283966064,0.35701218247413635,1.3610140085220337
1772797654142218500,6.023218505859375,1.3856016397476196,0.35834643244743347,1.4226372241973877
1772797654152244500,6.033244384765625,1.3507342338562012,0.3527785539627075,1.5729244947433472
1772797654162270500,6.0432705078125,1.3666328191757202,0.4181916415691376,1.790297508239746
1772797654172297500,6.05329736328125,1.4130280017852783,0.47834739089012146,2.071521282196045
1772797654182323500,6.063323486328125,1.4703069925308228,0.5522866249084473,2.333911180496216
1772797654192349700,6.073349609375,1.539330244064331,0.6592596769332886,2.511430501937866
1772797654202375700,6.083375732421875,1.6140912771224976,0.6312509179115295,2.572632074356079
1772797654212402700,6.093402587890625,1.6964285373687744,0.5159509778022766,2.53348445892334
1772797654222428700,6.1034287109375,1.7790616750717163,0.4587382972240448,2.3689284324645996
1772797654232454700,6.11345458984375,1.8347547054290771,0.34968796372413635,2.1858160495758057
1772797654242480600,6.123480712890625,1.881524920463562,0.27767980098724365,1.958507776260376
1772797654252507600,6.133507568359375,1.8778287172317505,0.290237158536911,1.709391713142395
1772797654262533600,6.14353369140625,1.8385406732559204,0.3506956994533539,1.4680923223495483
1772797654272559600,6.1535595703125,1.6937861442565918,0.4778645634651184,1.2059427499771118
1772797654282585600,6.163585693359375,1.4509333372116089,0.6046488881111145,0.897204577922821
1772797654292612600,6.173612548828125,1.2134273052215576,0.8646416068077087,0.5473634600639343
1772797654302638600,6.183638671875,1.1058837175369263,1.0614566802978516,0.17982488870620728
1772797654312664600,6.19366455078125,1.0540426969528198,1.1279374361038208,-0.09233392775058746
1772797654322690600,6.203690673828125,1.0710214376449585,1.1743507385253906,-0.34842243790626526
1772797654332717600,6.213717529296875,1.135705590248108,1.1216936111450195,-0.5294846296310425
1772797654342743600,6.22374365234375,1.1983481645584106,0.8860547542572021,-0.6651670932769775
1772797654352769500,6.23376953125,1.264600157737732,0.5964916348457336,-0.7709318399429321
1772797654362795500,6.24379541015625,1.3254395723342896,0.3168959319591522,-0.8470122814178467
1772797654372822500,6.253822509765625,1.317487120628357,0.016775518655776978,-0.9217770099639893
1772797654382848500,6.2638486328125,1.3368016481399536,-0.11949044466018677,-1.0297600030899048
1772797654392874500,6.27387451171875,1.3290947675704956,-0.13593493402004242,-1.1515675783157349
1772797654402900500,6.283900390625,1.2921327352523804,-0.0015036207623779774,-1.2794768810272217
1772797654412927700,6.293927734375,1.2775734663009644,0.25997671484947205,-1.4111735820770264
1772797654422953700,6.30395361328125,1.2806060314178467,0.5640252828598022,-1.5466609001159668
1772797654432979500,6.3139794921875,1.3290574550628662,0.7660092711448669,-1.639312744140625
1772797654443005400,6.32400537109375,1.3950865268707275,0.8139603137969971,-1.6529008150100708
1772797654453032400,6.334032470703125,1.4406458139419556,0.6911017298698425,-1.6480900049209595
1772797654463058400,6.344058349609375,1.4714521169662476,0.41380542516708374,-1.6558595895767212
1772797654473084400,6.35408447265625,1.5030715465545654,0.09997586905956268,-1.6817326545715332
1772797654483110700,6.364110595703125,1.651252031326294,-0.2663206458091736,-1.7567718029022217
1772797654493136600,6.37413671875,1.9151651859283447,-0.697778582572937,-1.7949202060699463
1772797654503163600,6.38416357421875,2.2509472370147705,-1.163482904434204,-1.7189258337020874
1772797654513189600,6.394189697265625,2.5552425384521484,-1.642507553100586,-1.7399733066558838
1772797654523215600,6.404215576171875,2.978461742401123,-2.09820818901062,-1.9403692483901978
1772797654533241600,6.41424169921875,3.4703896045684814,-2.25146746635437,-2.507894515991211
1772797654543268600,6.4242685546875,3.8676908016204834,-2.257725238800049,-3.2246148586273193
1772797654553294600,6.434294677734375,3.424872636795044,-1.5256540775299072,-3.310023784637451
1772797654563320600,6.444320556640625,2.432426929473877,-0.10315434634685516,-2.5774264335632324
1772797654573346600,6.4543466796875,1.770807147026062,0.8406313061714172,-1.4221922159194946
1772797654583373600,6.46437353515625,1.7035175561904907,0.8923792243003845,0.4054574966430664
1772797654593399600,6.474399658203125,1.9628269672393799,0.6816451549530029,1.993912696838379
1772797654603425500,6.484425537109375,2.272162437438965,0.6922945976257324,2.6665616035461426
1772797654613451500,6.494451416015625,2.5466113090515137,0.9324855804443359,3.030259370803833
1772797654623478500,6.504478515625,2.624404191970825,1.0344401597976685,3.2547404766082764
1772797654633504500,6.51450439453125,2.4116904735565186,1.0531702041625977,3.117656707763672
1772797654643530500,6.524530517578125,2.058227062225342,0.9433393478393555,2.636375904083252
1772797654653556500,6.534556396484375,1.7570303678512573,0.8201401829719543,2.106149196624756
1772797654663583500,6.54458349609375,1.556438684463501,0.7465564608573914,1.7530412673950195
1772797654673609500,6.554609375,1.4155638217926025,0.6213349103927612,1.6501563787460327
1772797654683635700,6.5646357421875,1.346624493598938,0.4409811198711395,1.6808756589889526
1772797654693661700,6.57466162109375,1.3327720165252686,0.40495947003364563,1.705108880996704
1772797654703688700,6.584688720703125,1.333318829536438,0.48476189374923706,1.7169770002365112
1772797654713714700,6.594714599609375,1.3255993127822876,0.6175143718719482,1.696459412574768
1772797654723740700,6.60474072265625,1.3331384658813477,0.7105838656425476,1.738686203956604
1772797654733767000,6.614766845703125,1.2968523502349854,0.6649513840675354,1.8602858781814575
1772797654743793000,6.62479296875,1.2872018814086914,0.5426079034805298,1.927699327468872
1772797654753819600,6.634819580078125,1.3056634664535522,0.5058653354644775,1.8427753448486328
1772797654763845600,6.644845703125,1.29941725730896,0.6039907932281494,1.6347968578338623
1772797654773871600,6.65487158203125,1.3020490407943726,0.7635788917541504,1.370100975036621
1772797654783897600,6.664897705078125,1.2827978134155273,0.8742483854293823,1.083768367767334
1772797654793924900,6.6749248046875,1.2759788036346436,0.8511760830879211,0.7985978722572327
1772797654803950800,6.684950927734375,1.2989929914474487,0.7330952882766724,0.5746872425079346
1772797654813976800,6.694976806640625,1.2911713123321533,0.5991124510765076,0.3540046811103821
1772797654824002800,6.7050029296875,1.2665506601333618,0.510911762714386,0.06828904151916504
1772797654834029600,6.715029541015625,1.230833649635315,0.4344542622566223,-0.20112484693527222
1772797654844055600,6.7250556640625,1.209083914756775,0.28526395559310913,-0.44746485352516174
1772797654854081500,6.73508154296875,1.2001527547836304,0.11065381020307541,-0.6750002503395081
1772797654864107500,6.745107421875,1.1845109462738037,-0.0759940966963768,-0.839221179485321
1772797654874134800,6.755134765625,1.1568787097930908,-0.19550824165344238,-0.9584144353866577
1772797654884160800,6.765160888671875,1.1120880842208862,-0.1312035620212555,-1.0707961320877075
1772797654894186800,6.775186767578125,1.1047157049179077,0.015410115011036396,-1.2105436325073242
1772797654904212700,6.785212646484375,1.1147680282592773,0.16584515571594238,-1.3773008584976196
1772797654914239700,6.79523974609375,1.1338248252868652,0.27189648151397705,-1.5622014999389648
1772797654924265700,6.805265625,1.1476600170135498,0.34382209181785583,-1.7235008478164673
1772797654934291700,6.815291748046875,1.144140362739563,0.3674890697002411,-1.8487049341201782
1772797654944317700,6.825317626953125,1.1190557479858398,0.31514862179756165,-1.932111382484436
1772797654954344700,6.8353447265625,1.0972633361816406,0.23937903344631195,-1.982401967048645
1772797654964370700,6.84537060546875,1.1195788383483887,0.15087446570396423,-1.9840185642242432
1772797654974396700,6.855396728515625,1.1917259693145752,0.023861655965447426,-1.9156769514083862
1772797654984422700,6.865422607421875,1.2559260129928589,-0.0991596058011055,-1.7834500074386597
1772797654994448600,6.87544873046875,1.3553260564804077,-0.274920254945755,-1.6010171175003052
1772797655004475600,6.8854755859375,1.4512451887130737,-0.5021376609802246,-1.4141957759857178
1772797655014502000,6.895501953125,1.5354670286178589,-0.7651229500770569,-1.3174327611923218
1772797655024528000,6.90552783203125,1.6882438659667969,-1.1204185485839844,-1.332871675491333
1772797655034553900,6.915553955078125,1.961793065071106,-1.5086545944213867,-1.483141541481018
1772797655044580600,6.92558056640625,2.3893959522247314,-2.0133354663848877,-1.728432297706604
1772797655054606600,6.935606689453125,3.031273603439331,-2.92795467376709,-2.166016101837158
1772797655064632600,6.945632568359375,3.393752336502075,-3.930741310119629,-2.993067979812622
1772797655074658600,6.955658447265625,3.1622612476348877,-3.7291064262390137,-4.147120952606201
1772797655084685800,6.965685791015625,2.362781524658203,-1.659926176071167,-4.951620578765869
1772797655094711800,6.9757119140625,0.9144272208213806,1.2349812984466553,-4.9726691246032715
1772797655104737800,6.98573779296875,-0.2407710701227188,3.3682820796966553,-3.5578904151916504
1772797655114763800,6.995763671875,-0.09981660544872284,3.1789791584014893,-0.9380130171775818
1772797655124790800,7.005790771484375,0.6055530309677124,1.4791451692581177,1.629197597503662
1772797655134816800,7.015816650390625,1.1437158584594727,0.27114975452423096,3.863906145095825
1772797655144842800,7.0258427734375,1.4136000871658325,0.14064659178256989,5.027798175811768
1772797655154868500,7.035868408203125,1.3194849491119385,0.38007915019989014,4.829319953918457
1772797655164894500,7.04589453125,0.9734777808189392,0.6815937161445618,3.7418055534362793
1772797655174921700,7.055921630859375,0.5939943790435791,1.0628864765167236,2.558032751083374
1772797655184947700,7.06594775390625,0.24805694818496704,1.4284253120422363,1.7538628578186035
1772797655194973700,7.0759736328125,0.0785539299249649,1.5287498235702515,1.4018560647964478
1772797655204999700,7.085999755859375,0.06254034489393234,1.2494946718215942,1.3330445289611816
1772797655215026700,7.096026611328125,0.1780048906803131,0.6914732456207275,1.4249267578125
1772797655225052700,7.106052734375,0.3437933325767517,0.04902506619691849,1.5599777698516846
1772797655235079000,7.116078857421875,0.5095189213752747,-0.3557668924331665,1.5614997148513794
1772797655245105000,7.12610498046875,0.5800202488899231,-0.4374715983867645,1.3698041439056396
1772797655255131600,7.136131591796875,0.5731889605522156,-0.2671206593513489,1.1447269916534424
1772797655265157600,7.14615771484375,0.54483962059021,-0.054004646837711334,0.950402557849884
1772797655275183600,7.15618359375,0.5126007199287415,0.08841215074062347,0.9371064305305481
1772797655285209600,7.166209716796875,0.48125317692756653,0.18145793676376343,1.1019039154052734
1772797655295236600,7.176236572265625,0.42178958654403687,0.32469019293785095,1.2824233770370483
1772797655305262800,7.186262939453125,0.36141812801361084,0.4842662811279297,1.3952492475509644
1772797655315288800,7.196288818359375,0.2948087453842163,0.6491103768348694,1.353133201599121
1772797655325314800,7.206314697265625,0.2602209448814392,0.7169874310493469,1.1782833337783813
1772797655335340800,7.2163408203125,0.20783309638500214,0.6536566615104675,0.9479785561561584
1772797655345367600,7.226367431640625,0.17818838357925415,0.49343153834342957,0.7881050109863281
1772797655355393500,7.2363935546875,0.12429478764533997,0.30573248863220215,0.7325884699821472
1772797655365419500,7.24641943359375,0.08352339267730713,0.06592575460672379,0.7608246207237244
1772797655375445500,7.256445556640625,0.03681261092424393,-0.1652344912290573,0.7386884689331055
1772797655385472800,7.26647265625,-0.005847236607223749,-0.36410418152809143,0.6625680923461914
1772797655395498800,7.276498779296875,-0.046905722469091415,-0.460488498210907,0.5892619490623474
1772797655405524700,7.286524658203125,-0.10289495438337326,-0.4720554053783417,0.4231400787830353
1772797655415550700,7.29655078125,-0.10593096166849136,-0.4502348005771637,0.2513435482978821
1772797655425577700,7.30657763671875,-0.10048266500234604,-0.4250045418739319,0.06189772114157677
1772797655435603700,7.316603759765625,-0.02412451058626175,-0.36525067687034607,-0.12600666284561157
1772797655445629700,7.326629638671875,0.05765637010335922,-0.2729915976524353,-0.2989664673805237
1772797655455655700,7.33665576171875,0.1499844342470169,-0.18824180960655212,-0.45243164896965027
1772797655465682700,7.3466826171875,0.255684494972229,-0.150741308927536,-0.5708339214324951
1772797655475708700,7.356708740234375,0.35031193494796753,-0.17952954769134521,-0.6708268523216248
1772797655485734700,7.366734619140625,0.4080199897289276,-0.25793778896331787,-0.7560485005378723
1772797655495760600,7.3767607421875,0.44309622049331665,-0.32811370491981506,-0.7701691389083862
1772797655505786600,7.38678662109375,0.4321146607398987,-0.4024803340435028,-0.7011775374412537
1772797655515813600,7.396813720703125,0.41772133111953735,-0.43726733326911926,-0.5577538013458252
1772797655525840000,7.40683984375,0.39276939630508423,-0.430484801530838,-0.3857745826244354
1772797655535865900,7.416865966796875,0.36187830567359924,-0.3627720773220062,-0.2480739802122116
1772797655545891800,7.426891845703125,0.3544107973575592,-0.2971581816673279,-0.18864475190639496
1772797655555918600,7.436918701171875,0.37332484126091003,-0.27235880494117737,-0.16988597810268402
1772797655565944600,7.446944580078125,0.380569189786911,-0.20022444427013397,-0.0289435014128685
1772797655575970600,7.456970458984375,0.3300607204437256,-0.17584505677223206,0.1646432727575302
1772797655585996500,7.46699658203125,0.24695493280887604,-0.2105761468410492,0.19420622289180756
1772797655596023800,7.47702392578125,0.10712405294179916,-0.15272189676761627,-0.25771862268447876
1772797655606049800,7.4870498046875,-0.06464716792106628,0.18466971814632416,-1.2034484148025513
1772797655616075800,7.49707568359375,-0.21730782091617584,0.6000754237174988,-2.2755978107452393
1772797655626101800,7.507101806640625,-0.29102757573127747,0.7682183980941772,-2.73412823677063
1772797655636127700,7.517127685546875,-0.2518455684185028,0.8183305263519287,-2.082085132598877
1772797655646154800,7.52715478515625,-0.1442469209432602,0.597743809223175,-0.49480733275413513
1772797655656180700,7.5371806640625,0.08768723905086517,0.12291660159826279,1.1123656034469604
1772797655666206700,7.547206787109375,0.3380123972892761,-0.0879860445857048,1.9943307638168335
1772797655676232700,7.557232666015625,0.5359792709350586,0.12743625044822693,2.116694688796997
1772797655686259500,7.567259521484375,0.5751959085464478,0.6214238405227661,1.793747901916504
1772797655696285400,7.577285400390625,0.509199321269989,1.0829523801803589,1.3194581270217896
1772797655706311400,7.5873115234375,0.36729490756988525,1.3367899656295776,0.9393653273582458
1772797655716337700,7.597337646484375,0.1905318647623062,1.2914693355560303,0.6839376091957092
1772797655726364700,7.60736474609375,0.05025677755475044,1.0869598388671875,0.529146134853363
1772797655736390700,7.617390625,-0.060071058571338654,0.7887550592422485,0.4005783200263977
1772797655746416600,7.627416748046875,-0.12913428246974945,0.48993560671806335,0.292965829372406
1772797655756442600,7.637442626953125,-0.1983698159456253,0.332076758146286,0.1941918432712555
1772797655766468600,7.647468505859375,-0.25470659136772156,0.3245549201965332,0.1623353809118271
1772797655776495400,7.657495361328125,-0.2896081209182739,0.36390233039855957,0.21545292437076569
1772797655786521600,7.667521484375,-0.3147347867488861,0.3902457654476166,0.36473962664604187
1772797655796547600,7.677547607421875,-0.33530476689338684,0.3893597424030304,0.5655614137649536
1772797655806573600,7.687573486328125,-0.3628799319267273,0.3912034332752228,0.7565992474555969
1772797655816600600,7.6976005859375,-0.3784964382648468,0.3532741665840149,0.8968815207481384
1772797655826626600,7.70762646484375,-0.38823163509368896,0.2879215478897095,0.9082527160644531
1772797655836652500,7.717652587890625,-0.4242554008960724,0.204051673412323,0.792461633682251
1772797655846678500,7.727678466796875,-0.47408396005630493,0.1114165410399437,0.6118082404136658
1772797655856705800,7.737705810546875,-0.5403383374214172,0.03982943668961525,0.44097232818603516
1772797655866731500,7.7477314453125,-0.586829423904419,-0.03802487999200821,0.33581289649009705
1772797655876757500,7.757757568359375,-0.6135814189910889,-0.11678733676671982,0.26468679308891296
1772797655886783500,7.767783447265625,-0.6278857588768005,-0.19274495542049408,0.20226629078388214
1772797655896809500,7.7778095703125,-0.6226121783256531,-0.24870169162750244,0.12625859677791595
1772797655906836500,7.78783642578125,-0.6195088028907776,-0.30891042947769165,0.03844885528087616
1772797655916862500,7.797862548828125,-0.6033857464790344,-0.3775254487991333,-0.06668581813573837
1772797655926888400,7.807888427734375,-0.568827211856842,-0.41038593649864197,-0.2319759726524353
1772797655936914700,7.817914794921875,-0.5624058246612549,-0.4417036473751068,-0.4090482294559479
1772797655946941700,7.827941650390625,-0.5382038354873657,-0.4586602449417114,-0.5797699093818665
1772797655956967700,7.8379677734375,-0.5336636304855347,-0.4451487064361572,-0.716090977191925
1772797655966993700,7.84799365234375,-0.549241840839386,-0.4051440358161926,-0.7859054803848267
1772797655977019600,7.85801953125,-0.5714470148086548,-0.3630325198173523,-0.8142497539520264
1772797655987045600,7.868045654296875,-0.600735604763031,-0.31054428219795227,-0.82750004529953
1772797655997072400,7.878072265625,-0.6182480454444885,-0.23647725582122803,-0.8515697121620178
1772797656007098600,7.8880986328125,-0.6504757404327393,-0.18521219491958618,-0.8577018976211548
1772797656017124600,7.89812451171875,-0.6987327933311462,-0.20684079825878143,-0.8449733257293701
1772797656027150600,7.908150634765625,-0.7586983442306519,-0.3055966794490814,-0.858941912651062
1772797656037177600,7.918177490234375,-0.8179265260696411,-0.46465688943862915,-0.8600678443908691
1772797656047203600,7.92820361328125,-0.8644285202026367,-0.6004064679145813,-0.8051297664642334
1772797656057229600,7.9382294921875,-0.8814980387687683,-0.5860427021980286,-0.6524579524993896
1772797656067255600,7.948255615234375,-0.8778764009475708,-0.5394288897514343,-0.4889979064464569
1772797656077282600,7.958282470703125,-0.7880426645278931,-0.43452322483062744,-0.37910178303718567
1772797656087308500,7.96830859375,-0.6612093448638916,-0.28455156087875366,-0.4862407445907593
1772797656097334500,7.97833447265625,-0.48384150862693787,-0.2300553023815155,-0.8223162293434143
1772797656107360500,7.988360595703125,-0.318189412355423,-0.48427560925483704,-1.2826542854309082
1772797656117386500,7.998386474609375,-0.10591897368431091,-1.1842395067214966,-2.067087411880493
1772797656127413500,8.00841357421875,0.11490368098020554,-2.143476724624634,-3.113280773162842
1772797656137439500,8.018439453125,-0.08651837706565857,-2.3154666423797607,-4.134437561035156
1772797656147465500,8.028465576171875,-0.8350224494934082,-1.1674137115478516,-4.603353500366211
1772797656157491700,8.03849169921875,-1.6362740993499756,0.28581151366233826,-3.367506265640259
1772797656167518700,8.048518798828125,-1.971357822418213,0.7048546075820923,-0.9879634976387024
1772797656177544700,8.058544677734375,-1.8488655090332031,0.13424596190452576,1.4455907344818115
1772797656187570700,8.06857080078125,-1.4574899673461914,-0.3211303651332855,2.9282069206237793
1772797656197596700,8.0785966796875,-1.080471396446228,-0.4271145761013031,3.3675479888916016
1772797656207622700,8.08862255859375,-0.9643726944923401,-0.17211264371871948,3.0728566646575928
1772797656217649400,8.0986494140625,-1.1278319358825684,0.3570531904697418,2.4135732650756836
1772797656227675600,8.108675537109375,-1.4531311988830566,0.7825648188591003,1.764884352684021
1772797656237701600,8.11870166015625,-1.7379390001296997,0.9835080504417419,1.2817448377609253
1772797656247727600,8.1287275390625,-1.8860043287277222,0.9600618481636047,1.0329903364181519
1772797656257754600,8.138754638671875,-1.8886631727218628,0.72662353515625,0.9895760416984558
1772797656267780600,8.148780517578125,-1.7836155891418457,0.4416612982749939,1.0521217584609985
1772797656277806600,8.158806640625,-1.6678757667541504,0.20295178890228271,1.1101384162902832
1772797656287832600,8.16883251953125,-1.6080334186553955,-0.03689277172088623,1.08939528465271
1772797656297858600,8.178858642578126,-1.5623037815093994,-0.19668403267860413,0.919627845287323
1772797656307885600,8.188885498046876,-1.4987170696258545,-0.24143579602241516,0.7758459448814392
1772797656317911600,8.19891162109375,-1.4394150972366333,-0.16083069145679474,0.7156297564506531
1772797656327937500,8.2089375,-1.370554804801941,-0.10523667186498642,0.8032706379890442
1772797656337963500,8.218963623046875,-1.2863582372665405,-0.16345471143722534,0.9683064818382263
1772797656347990500,8.228990478515625,-1.2464323043823242,-0.2520681917667389,1.0581988096237183
1772797656358016500,8.2390166015625,-1.1796634197235107,-0.31732895970344543,1.0220221281051636
1772797656368042500,8.24904248046875,-1.166497826576233,-0.3567567765712738,0.8998845219612122
1772797656378068700,8.25906884765625,-1.186806082725525,-0.3107011616230011,0.7259782552719116
1772797656388095700,8.269095703125,-1.1607030630111694,-0.32937631011009216,0.5429463982582092
1772797656398121500,8.27912158203125,-1.147425889968872,-0.3802195191383362,0.41284456849098206
1772797656408147500,8.2891474609375,-1.1190171241760254,-0.5003999471664429,0.34100818634033203
1772797656418173400,8.29917333984375,-1.0769740343093872,-0.5634487271308899,0.29240497946739197
1772797656428199400,8.309199462890625,-1.0119907855987549,-0.6306184530258179,0.20918570458889008
1772797656438226400,8.319226318359375,-0.9721390008926392,-0.624869704246521,0.05986439809203148
1772797656448252700,8.329252685546875,-0.9470994472503662,-0.633073091506958,-0.14146950840950012
1772797656458278700,8.339278564453124,-0.9471489787101746,-0.6411262154579163,-0.35323023796081543
1772797656468304600,8.3493046875,-0.9301832914352417,-0.6773755550384521,-0.5454457402229309
1772797656478330600,8.35933056640625,-0.910951554775238,-0.6854339838027954,-0.6833242774009705
1772797656488357600,8.369357666015626,-0.8964461088180542,-0.6893989443778992,-0.7418967485427856
1772797656498383600,8.379383544921875,-0.8848901391029358,-0.6943351030349731,-0.7043222188949585
1772797656508409600,8.38940966796875,-0.8287421464920044,-0.733130693435669,-0.5755000710487366
1772797656518435600,8.399435546875,-0.7862359881401062,-0.7681493759155273,-0.4190787672996521
1772797656528462600,8.409462646484375,-0.767868161201477,-0.8640437126159668,-0.23078128695487976
1772797656538488600,8.419488525390625,-0.7932475805282593,-0.851704478263855,-0.20420905947685242
1772797656548514600,8.4295146484375,-0.8665071129798889,-0.7364652156829834,-0.18628385663032532
1772797656558540500,8.43954052734375,-1.0137757062911987,-0.6117547154426575,-0.18858535587787628
1772797656568567600,8.449567626953124,-1.1713546514511108,-0.5754235982894897,-0.09940008819103241
1772797656578593500,8.459593505859376,-1.2734287977218628,-0.5659584999084473,0.07310723513364792
