time,seconds_elapsed,z,y,x
1772797648146506500,0.027506591796875,1.3785892724990845,1.8005090951919556,0.19491583108901978
1772797648156532500,0.037532470703125,1.4211690425872803,1.95938241481781,0.27577659487724304
1772797648166558500,0.047558349609375,1.5395874977111816,2.0019960403442383,0.1459541618824005
1772797648176585700,0.057585693359375,1.76170015335083,1.7219258546829224,-0.2591421902179718
1772797648186611700,0.06761181640625,1.9682612419128418,1.1217923164367676,-0.8101776242256165
1772797648196637700,0.0776376953125,2.1434214115142822,0.5674530267715454,-1.273154854774475
1772797648206664400,0.08766455078125,2.154743194580078,0.3384471535682678,-1.5660619735717773
1772797648216690400,0.0976904296875,2.018493890762329,0.7718204259872437,-1.302934169769287
1772797648226716400,0.10771630859375,1.8698036670684814,1.500133991241455,-0.44784632325172424
1772797648236742400,0.117742431640625,1.9049923419952393,1.744244933128357,0.5959450006484985
1772797648246769700,0.127769775390625,2.1114377975463867,1.5519235134124756,1.3733915090560913
1772797648256795600,0.137795654296875,2.3606863021850586,1.3585971593856812,1.6926052570343018
1772797648266821600,0.147821533203125,2.516190767288208,1.3353806734085083,1.620497465133667
1772797648276848600,0.1578486328125,2.5786678791046143,1.309029459953308,1.3065201044082642
1772797648286874600,0.16787451171875,2.6012356281280518,1.2207151651382446,0.9546070098876953
1772797648296900600,0.177900634765625,2.6133902072906494,1.0367813110351562,0.8034918308258057
1772797648306926800,0.1879267578125,2.655693531036377,0.7872330546379089,0.8786797523498535
1772797648316953600,0.19795361328125,2.7121565341949463,0.497048944234848,1.0200251340866089
1772797648326979600,0.2079794921875,2.720327138900757,0.2742655575275421,1.1501150131225586
1772797648337005600,0.218005615234375,2.6722381114959717,0.19427482783794403,1.2281708717346191
1772797648347031600,0.228031494140625,2.5897281169891357,0.1985962837934494,1.2680102586746216
1772797648357058600,0.23805859375,2.5013034343719482,0.2599773705005646,1.2468510866165161
1772797648367084500,0.24808447265625,2.3748855590820312,0.3666178286075592,1.1967344284057617
1772797648377110800,0.25811083984375,2.1703975200653076,0.4453195631504059,1.1345109939575195
1772797648387137500,0.268137451171875,1.9358917474746704,0.5590627789497375,0.957394003868103
1772797648397163500,0.27816357421875,1.7120178937911987,0.6245075464248657,0.7109946012496948
1772797648407189500,0.288189453125,1.5067179203033447,0.6825351119041443,0.4548584222793579
1772797648417215500,0.298215576171875,1.3807709217071533,0.7034006714820862,0.169559046626091
1772797648427242500,0.308242431640625,1.30327570438385,0.6777722835540771,-0.047775667160749435
1772797648437268500,0.3182685546875,1.263474941253662,0.5796190500259399,-0.2028411477804184
1772797648447294700,0.328294677734375,1.2462822198867798,0.44672125577926636,-0.3849206864833832
1772797648457321700,0.33832177734375,1.2016977071762085,0.32689765095710754,-0.5181751251220703
1772797648467347700,0.34834765625,1.134857416152954,0.21883375942707062,-0.6532527804374695
1772797648477373700,0.358373779296875,1.0125187635421753,0.1541578322649002,-0.7807422876358032
1772797648487399700,0.368399658203125,0.925337553024292,0.11748691648244858,-0.917584240436554
1772797648497426400,0.378426513671875,0.8639682531356812,0.1136314645409584,-1.085403323173523
1772797648507452700,0.38845263671875,0.7954338192939758,0.13979829847812653,-1.2738791704177856
1772797648517478700,0.398478759765625,0.7695116996765137,0.19077067077159882,-1.4595814943313599
1772797648527504600,0.408504638671875,0.7624984979629517,0.3095836043357849,-1.6557278633117676
1772797648537531600,0.41853173828125,0.7981672883033752,0.37555569410324097,-1.8425589799880981
1772797648547557600,0.4285576171875,0.8422405123710632,0.42805400490760803,-1.9438754320144653
1772797648557583600,0.43858349609375,0.9012556076049805,0.46288469433784485,-2.0160679817199707
1772797648567610600,0.448610595703125,0.9600247740745544,0.48773178458213806,-2.0365703105926514
1772797648577636600,0.45863671875,1.005626916885376,0.45844128727912903,-2.021580934524536
1772797648587662600,0.46866259765625,1.0245709419250488,0.3804040253162384,-2.0031256675720215
1772797648597688600,0.4786884765625,1.0443261861801147,0.32391518354415894,-1.9841091632843018
1772797648607715600,0.488715576171875,1.0711462497711182,0.018397580832242966,-1.8250151872634888
1772797648617741600,0.498741455078125,1.263418197631836,-0.4845457077026367,-1.3384487628936768
1772797648627767600,0.508767578125,1.4104952812194824,-0.5294650793075562,-1.173097848892212
1772797648637794600,0.518794677734375,1.5008389949798584,-0.40102750062942505,-1.0780024528503418
1772797648647820800,0.52882080078125,1.5923511981964111,-0.18213601410388947,-1.1704663038253784
1772797648657846800,0.5388466796875,1.7316420078277588,0.03477126732468605,-1.312745451927185
1772797648667872800,0.548872802734375,1.8456734418869019,0.22259622812271118,-1.4101873636245728
1772797648677899500,0.5588994140625,1.9909536838531494,0.6430582404136658,-1.5049479007720947
1772797648687925500,0.568925537109375,2.3254199028015137,1.0977694988250732,-2.0262386798858643
1772797648697951500,0.578951416015625,2.870807647705078,0.7005667090415955,-3.252009868621826
1772797648707977500,0.5889775390625,3.3463640213012695,0.030908677726984024,-4.326650619506836
1772797648718004500,0.59900439453125,3.2138590812683105,-0.13532796502113342,-3.935947895050049
1772797648728030700,0.60903076171875,2.949345827102661,0.2983393669128418,-1.829189658164978
1772797648738056700,0.619056640625,2.686586380004883,0.23168177902698517,0.8409518003463745
1772797648748083700,0.629083740234375,2.581423759460449,-0.16791915893554688,2.742907762527466
1772797648758109700,0.639109619140625,2.85775089263916,-0.14997611939907074,3.4116406440734863
1772797648768135400,0.649135498046875,3.070523977279663,0.1999005377292633,3.200579881668091
1772797648778161400,0.659161376953125,3.0402157306671143,0.5576205849647522,2.567323684692383
1772797648788188400,0.6691884765625,2.8872008323669434,0.64954674243927,1.9645823240280151
1772797648798214700,0.679214599609375,2.7218217849731445,0.6163437962532043,1.6327167749404907
1772797648808240600,0.68924072265625,2.5775580406188965,0.5357441902160645,1.5692040920257568
1772797648818267600,0.699267578125,2.4188711643218994,0.4294731318950653,1.6398916244506836
1772797648828293600,0.709293701171875,2.2560250759124756,0.3092142343521118,1.7187191247940063
1772797648838319600,0.719319580078125,2.0978856086730957,0.3440542221069336,1.7550915479660034
1772797648848345600,0.729345703125,1.9940567016601562,0.4448849558830261,1.793049693107605
1772797648858372400,0.739372314453125,1.8712249994277954,0.505275309085846,1.9072644710540771
1772797648868398600,0.749398681640625,1.7787702083587646,0.7731807231903076,1.972161889076233
1772797648878424600,0.759424560546875,1.717863917350769,1.010473370552063,1.95587956905365
1772797648888450600,0.769450439453125,1.617223858833313,1.148378610610962,1.9094523191452026
1772797648898477600,0.7794775390625,1.5459896326065063,1.2448471784591675,1.8198922872543335
1772797648908503600,0.789503662109375,1.4782438278198242,1.2700831890106201,1.6880134344100952
1772797648918529500,0.799529541015625,1.374176263809204,1.2214951515197754,1.5132781267166138
1772797648928556800,0.809556884765625,1.2505266666412354,1.15366530418396,1.2892646789550781
1772797648938582800,0.819582763671875,1.0696502923965454,1.116543173789978,1.0187016725540161
1772797648948608500,0.8296083984375,0.8747236132621765,1.1739919185638428,0.6576195359230042
1772797648958634500,0.839634521484375,0.7196610569953918,1.1752701997756958,0.26270073652267456
1772797648968661500,0.84966162109375,0.5891863703727722,1.1564916372299194,-0.05463327467441559
1772797648978687500,0.8596875,0.504841685295105,1.0183079242706299,-0.2986440658569336
1772797648988713500,0.86971337890625,0.4836847186088562,0.791084885597229,-0.47087574005126953
1772797648998740700,0.87974072265625,0.4952891767024994,0.44990813732147217,-0.6879199743270874
1772797649008766700,0.8897666015625,0.5254523158073425,0.07795962691307068,-0.8913002014160156
1772797649018792700,0.899792724609375,0.5296281576156616,-0.21571220457553864,-1.0948361158370972
1772797649028818700,0.909818603515625,0.5313064455986023,-0.43770670890808105,-1.2837926149368286
1772797649038845400,0.919845458984375,0.5727723836898804,-0.5860264301300049,-1.441101312637329
1772797649048871400,0.929871337890625,0.6443009972572327,-0.6785845160484314,-1.5313438177108765
1772797649058897400,0.9398974609375,0.7156276106834412,-0.7762969732284546,-1.5570608377456665
1772797649068924700,0.949924560546875,0.7549600005149841,-0.8694921731948853,-1.517029881477356
1772797649078950700,0.95995068359375,0.7792107462882996,-0.8834617733955383,-1.4487680196762085
1772797649088976600,0.9699765625,0.7846320867538452,-0.7832878232002258,-1.3852139711380005
1772797649099002600,0.980002685546875,0.7369111776351929,-0.6515638828277588,-1.357915997505188
1772797649109029600,0.990029541015625,0.6634494662284851,-0.4615733027458191,-1.380998969078064
1772797649119055600,1.0000556640625,0.5882867574691772,-0.199811190366745,-1.4495176076889038
1772797649129081600,1.01008154296875,0.5005337595939636,0.03283863142132759,-1.510894775390625
1772797649139108600,1.020108642578125,0.4355406165122986,0.1724521964788437,-1.5231831073760986
1772797649149134600,1.030134521484375,0.42149460315704346,0.2291785180568695,-1.523622751235962
1772797649159160600,1.04016064453125,0.4971901476383209,0.1971667855978012,-1.5407884120941162
1772797649169186600,1.0501865234375,0.6400835514068604,-0.020985934883356094,-1.4605060815811157
1772797649179213600,1.060213623046875,0.8110446929931641,-0.3975728750228882,-1.215848445892334
1772797649189239600,1.070239501953125,0.993439257144928,-0.5524991154670715,-0.8538604378700256
1772797649199265500,1.080265625,1.1531943082809448,-0.24323073029518127,-0.5087581276893616
1772797649209292500,1.09029248046875,1.3578752279281616,-0.004359758924692869,-0.5155028700828552
1772797649219318500,1.100318603515625,1.641770839691162,-0.2048417329788208,-0.6108791828155518
1772797649229344500,1.110344482421875,1.829852819442749,-0.7600675821304321,-0.5136314630508423
1772797649239370500,1.12037060546875,1.7463256120681763,-1.043840765953064,-0.21662643551826477
1772797649249397500,1.1303974609375,1.4086804389953613,-0.30444028973579407,0.35432255268096924
1772797649259423500,1.140423583984375,1.1008334159851074,1.140769600868225,0.9843891859054565
1772797649269449500,1.150449462890625,1.292296290397644,2.1794958114624023,1.0391104221343994
1772797649279476700,1.160476806640625,1.722658395767212,1.9444624185562134,1.185734748840332
1772797649289502700,1.170502685546875,2.1291816234588623,0.9532154202461243,1.5392417907714844
1772797649299528700,1.18052880859375,2.4487380981445312,-0.05257582664489746,1.9385242462158203
1772797649309555500,1.190555419921875,2.643951177597046,-0.6414889693260193,2.2183640003204346
1772797649319581400,1.20058154296875,2.6920230388641357,-0.8100684285163879,2.2570412158966064
1772797649329607400,1.210607421875,2.550017833709717,-0.6804225444793701,2.0571439266204834
1772797649339633400,1.22063330078125,2.2539050579071045,-0.40775352716445923,1.780910611152649
1772797649349660700,1.23066064453125,1.9230974912643433,-0.046751968562603,1.5873762369155884
1772797649359686700,1.240686767578125,1.599513292312622,0.26284822821617126,1.5279229879379272
1772797649369712600,1.250712646484375,1.284231185913086,0.4772080183029175,1.455904245376587
1772797649379739600,1.26073974609375,1.0409349203109741,0.6089649796485901,1.374459981918335
1772797649389765400,1.270765380859375,0.8730000257492065,0.7139678597450256,1.3215140104293823
1772797649399791400,1.280791259765625,0.8101328611373901,0.7283475995063782,1.2629297971725464
1772797649409817300,1.2908173828125,0.8556532263755798,0.672217071056366,1.2014482021331787
1772797649419844600,1.3008447265625,0.9127718806266785,0.5076438188552856,1.1348450183868408
1772797649429870600,1.31087060546875,1.1623718738555908,0.14518733322620392,1.2003757953643799
1772797649439896600,1.320896484375,1.213599681854248,-0.24366267025470734,1.2323803901672363
1772797649449923600,1.330923583984375,1.0969158411026,-0.37568995356559753,1.2555309534072876
1772797649459949600,1.340949462890625,0.90333092212677,-0.10733308643102646,1.1652064323425293
1772797649469975600,1.3509755859375,0.7418909072875977,0.2851681709289551,0.9723647236824036
1772797649480001800,1.361001708984375,0.6081770658493042,0.5917891263961792,0.7090311050415039
1772797649490028500,1.371028564453125,0.37803158164024353,0.7936878204345703,0.3157094120979309
1772797649500054500,1.381054443359375,0.24858278036117554,0.8305166959762573,-0.2224496304988861
1772797649510080500,1.39108056640625,-0.09698573499917984,0.899478018283844,-0.45692023634910583
1772797649520107500,1.401107421875,-0.23162689805030823,0.9181326627731323,-0.9142494201660156
1772797649530133500,1.411133544921875,-0.3311184048652649,0.9402645230293274,-1.1419126987457275
1772797649540159500,1.421159423828125,-0.3817192614078522,0.6846774816513062,-1.3489129543304443
1772797649550185700,1.431185791015625,-0.34763801097869873,0.4336552321910858,-1.399646282196045
1772797649560212700,1.441212646484375,-0.39396288990974426,0.1264292299747467,-1.370866060256958
1772797649570238500,1.451238525390625,-0.3790017366409302,-0.031898483633995056,-1.3484864234924316
1772797649580264400,1.461264404296875,-0.28820204734802246,0.0019707991741597652,-1.3546878099441528
1772797649590291500,1.47129150390625,-0.23386479914188385,0.04548679292201996,-1.3376082181930542
1772797649600317400,1.4813173828125,-0.25621482729911804,0.019823508337140083,-1.3361213207244873
1772797649610343400,1.491343505859375,-0.2891209125518799,0.018237337470054626,-1.3157720565795898
1772797649620370700,1.50137060546875,-0.31017425656318665,0.06679635494947433,-1.2716621160507202
1772797649630396700,1.511396728515625,-0.2820577323436737,0.15890519320964813,-1.152028203010559
1772797649640422700,1.521422607421875,-0.22604161500930786,0.23536987602710724,-0.9772619605064392
1772797649650448600,1.53144873046875,-0.20494697988033295,0.24818071722984314,-0.7663241624832153
1772797649660475400,1.541475341796875,-0.20169179141521454,0.21343445777893066,-0.5876231789588928
1772797649670501600,1.551501708984375,-0.19826410710811615,0.16185173392295837,-0.500137209892273
1772797649680527600,1.561527587890625,-0.21693579852581024,0.16718044877052307,-0.5409437417984009
1772797649690554600,1.5715546875,-0.3391488492488861,0.2369598150253296,-0.6934015154838562
1772797649700580900,1.581580810546875,-0.5269456505775452,0.21701566874980927,-0.6773753762245178
1772797649710606800,1.59160693359375,-0.5947446227073669,0.49573731422424316,-0.451680988073349
1772797649720632800,1.6016328125,-0.5197122097015381,0.9057716727256775,-0.48526158928871155
1772797649730659800,1.611659912109375,-0.38672617077827454,0.49997028708457947,-1.2717732191085815
1772797649740685800,1.621685791015625,0.31367960572242737,0.8525427579879761,-1.8666315078735352
1772797649750711600,1.631711669921875,1.1329973936080933,0.9339823126792908,-1.6570546627044678
1772797649760738800,1.64173876953125,1.7750344276428223,0.4557315707206726,-0.24390728771686554
1772797649770764800,1.651764892578125,2.084625720977783,-0.332205593585968,1.7709436416625977
1772797649780790800,1.661790771484375,2.247406482696533,-0.7197636961936951,3.292919158935547
1772797649790816800,1.671816650390625,2.655559778213501,-0.513712465763092,3.830230474472046
1772797649800843800,1.68184375,2.8906326293945312,-0.2902833819389343,3.5481789112091064
1772797649810869800,1.691869873046875,2.7383944988250732,-0.228873148560524,2.904557228088379
1772797649820895700,1.701895751953125,2.397879123687744,-0.10991959273815155,2.1293163299560547
1772797649830922800,1.7119228515625,2.0366246700286865,0.08600126951932907,1.4375214576721191
1772797649840948700,1.72194873046875,1.741740107536316,0.26590418815612793,0.9592649936676025
1772797649850974700,1.731974609375,1.462399959564209,0.3697422444820404,0.6969031095504761
1772797649861000700,1.742000732421875,1.2035309076309204,0.4491180181503296,0.5655288100242615
1772797649871027700,1.75202783203125,0.9695605635643005,0.6377930641174316,0.45310404896736145
1772797649881053700,1.7620537109375,0.8003225326538086,0.8274663090705872,0.4096947908401489
1772797649891079700,1.77207958984375,0.7699914574623108,0.9245776534080505,0.4788424074649811
1772797649901107000,1.78210693359375,0.8142901659011841,0.8940151929855347,0.6322641968727112
1772797649911133000,1.7921328125,0.9133936762809753,0.7990938425064087,0.7975417971611023
1772797649921159000,1.802158935546875,0.9771189093589783,0.6733359098434448,0.9012019038200378
1772797649931185700,1.812185546875,1.0376615524291992,0.5336341857910156,0.9227194786071777
1772797649941211600,1.822211669921875,1.0936987400054932,0.3807085454463959,0.9423996806144714
1772797649951237600,1.832237548828125,1.1056209802627563,0.2481410652399063,0.9752519130706787
1772797649961263600,1.842263671875,1.1101757287979126,0.06705544143915176,1.0017497539520264
1772797649971291000,1.852290771484375,1.1052383184432983,-0.09993723779916763,1.033558964729309
1772797649981316900,1.86231689453125,1.0623749494552612,-0.20817874372005463,0.9973744750022888
1772797649991342800,1.8723427734375,1.015381932258606,-0.29790109395980835,0.9070104360580444
1772797650001369600,1.88236962890625,0.9388980865478516,-0.39313095808029175,0.7532315254211426
1772797650011395600,1.8923955078125,0.8317517638206482,-0.4661964774131775,0.517586886882782
1772797650021421600,1.902421630859375,0.7535523176193237,-0.47370418906211853,0.2288094013929367
1772797650031447600,1.912447509765625,0.6454889178276062,-0.4294643998146057,-0.0543871745467186
1772797650041474800,1.922474853515625,0.5048912763595581,-0.3668864965438843,-0.31894880533218384
1772797650051500800,1.932500732421875,0.3696965277194977,-0.25476038455963135,-0.5024104714393616
1772797650061526800,1.94252685546875,0.21532267332077026,-0.17297951877117157,-0.603702187538147
1772797650071553800,1.9525537109375,0.031712815165519714,-0.1740451157093048,-0.6989281177520752
1772797650081579800,1.962579833984375,-0.11608649790287018,-0.0648488700389862,-0.7388206720352173
1772797650091605800,1.972605712890625,-0.23395849764347076,0.038467321544885635,-0.7805920243263245
1772797650101631700,1.9826318359375,-0.3004395365715027,0.09669521450996399,-0.8515729904174805
1772797650111658800,1.99265869140625,-0.313935786485672,0.13382405042648315,-0.917050302028656
1772797650121684700,2.002684814453125,-0.29339030385017395,0.15037478506565094,-0.9461424350738525
1772797650131710700,2.012710693359375,-0.28267526626586914,0.17276354134082794,-0.9689531922340393
1772797650141737700,2.02273779296875,-0.2904714047908783,0.20463359355926514,-0.9709668159484863
1772797650151763700,2.032763671875,-0.3290643095970154,0.24846431612968445,-0.9622558951377869
1772797650161789700,2.042789794921875,-0.35442396998405457,0.29788830876350403,-0.9302971363067627
1772797650171815700,2.052815673828125,-0.35369765758514404,0.3743189871311188,-0.8951143622398376
1772797650181842700,2.0628427734375,-0.3169446885585785,0.4710679054260254,-0.8769158720970154
1772797650191868700,2.07286865234375,-0.26766669750213623,0.5897964835166931,-0.866774320602417
1772797650201894700,2.082894775390625,-0.19053862988948822,0.6143282055854797,-0.8730828166007996
1772797650211921700,2.092921630859375,-0.1520877629518509,0.4799458682537079,-0.782494068145752
1772797650221947600,2.10294775390625,-0.12401831150054932,0.13881650567054749,-0.5536031126976013
1772797650231973600,2.1129736328125,-0.1689831167459488,-0.21740765869617462,-0.20822468400001526
1772797650241999600,2.12299951171875,-0.12102571129798889,-0.25256404280662537,0.18389196693897247
1772797650252027000,2.13302685546875,0.09047374874353409,-0.11193981766700745,-0.027197103947401047
1772797650262052900,2.143052978515625,0.4277287721633911,-0.08348261564970016,-1.2298790216445923
1772797650272078800,2.153078857421875,0.8245944380760193,0.41314125061035156,-2.3648555278778076
1772797650282105600,2.163105712890625,1.3208070993423462,0.557378351688385,-3.0209126472473145
1772797650292131600,2.173131591796875,1.7794570922851562,0.3521692752838135,-2.8700363636016846
1772797650302157600,2.183157470703125,2.0149266719818115,0.34715986251831055,-1.5878992080688477
1772797650312184800,2.193184814453125,2.206928014755249,0.9254618287086487,0.017351729795336723
1772797650322210800,2.2032109375,2.7098543643951416,1.4384015798568726,0.9728350639343262
1772797650332236800,2.21323681640625,3.270784378051758,1.337458848953247,1.244576334953308
1772797650342262800,2.2232626953125,3.3960673809051514,0.840603232383728,1.1827605962753296
1772797650352289800,2.233289794921875,3.225196599960327,0.41109827160835266,0.84493088722229
1772797650362315800,2.243315673828125,3.017784833908081,0.35034412145614624,0.35392066836357117
1772797650372341800,2.253341796875,2.8645758628845215,0.5782776474952698,-0.12743982672691345
1772797650382368800,2.26336865234375,2.76383113861084,0.8111684322357178,-0.3727121651172638
1772797650392394800,2.273394775390625,2.7322330474853516,0.8950677514076233,-0.34759801626205444
1772797650402420700,2.283420654296875,2.839022636413574,0.8900447487831116,-0.15300990641117096
1772797650412446700,2.29344677734375,3.0766217708587646,0.8426311016082764,0.10830242186784744
1772797650422473700,2.3034736328125,3.3839340209960938,0.7470465302467346,0.3290238678455353
1772797650432499700,2.313499755859375,3.580148458480835,0.5802463293075562,0.42745402455329895
1772797650442525700,2.323525634765625,3.593710422515869,0.2680199444293976,0.5248948335647583
1772797650452552700,2.333552734375,3.410020351409912,-0.09400396049022675,0.8107702732086182
1772797650462578700,2.34357861328125,3.116420030593872,-0.4029141068458557,1.1759756803512573
1772797650472604700,2.353604736328125,2.702824115753174,-0.5683500170707703,1.462097406387329
1772797650482630700,2.363630615234375,2.3068249225616455,-0.5572206377983093,1.5982946157455444
1772797650492657700,2.37365771484375,1.978352427482605,-0.42132455110549927,1.6282068490982056
1772797650502683600,2.38368359375,1.760244607925415,-0.20456562936306,1.4285056591033936
1772797650512709600,2.393709716796875,1.6260324716567993,0.10166298598051071,1.0801876783370972
1772797650522737000,2.40373681640625,1.50454843044281,0.4081433117389679,0.5733763575553894
1772797650532763000,2.413762939453125,1.2832927703857422,0.6015363335609436,0.04189084470272064
1772797650542788900,2.423788818359375,1.0540475845336914,0.669947624206543,-0.40935197472572327
1772797650552814800,2.43381494140625,0.884915828704834,0.6109890341758728,-0.7964333295822144
1772797650562841600,2.443841552734375,0.7673535346984863,0.5058237314224243,-1.117363691329956
1772797650572867600,2.45386767578125,0.7271944880485535,0.39751383662223816,-1.4099886417388916
1772797650582893800,2.463893798828125,0.6954474449157715,0.28888964653015137,-1.6598528623580933
1772797650592920800,2.4739208984375,0.6846883296966553,0.1645311862230301,-1.8092701435089111
1772797650602946800,2.48394677734375,0.6641061305999756,0.04730895906686783,-1.845961093902588
1772797650612972800,2.493972900390625,0.6599003076553345,-0.0201103575527668,-1.794065237045288
1772797650622998800,2.503998779296875,0.6612305641174316,-0.06295821815729141,-1.6831655502319336
1772797650633025500,2.514025634765625,0.6793972253799438,-0.18396581709384918,-1.5866073369979858
1772797650643051500,2.524051513671875,0.7132209539413452,-0.24119022488594055,-1.5004503726959229
1772797650653077800,2.534077880859375,0.7226313352584839,-0.17967745661735535,-1.4296773672103882
1772797650663104800,2.544104736328125,0.7244643568992615,-0.05716671049594879,-1.3473994731903076
1772797650673131500,2.554131591796875,0.7360866069793701,0.09859168529510498,-1.2111577987670898
1772797650683157500,2.564157470703125,0.768302857875824,0.18928563594818115,-1.0575560331344604
1772797650693183500,2.57418359375,0.8351762294769287,0.17897719144821167,-0.856165885925293
1772797650703210200,2.584210205078125,0.9287219047546387,0.06483890116214752,-0.5555733442306519
1772797650713236200,2.594236328125,1.0589570999145508,-0.06334497779607773,-0.22704310715198517
1772797650723262200,2.60426220703125,1.134528636932373,-0.21905148029327393,0.021431948989629745
1772797650733289200,2.614289306640625,1.1229168176651,-0.3630587160587311,0.09959705173969269
1772797650743315500,2.6243154296875,1.1323177814483643,-0.2561551630496979,0.061786286532878876
1772797650753341400,2.634341552734375,1.1666680574417114,0.015504422597587109,-0.021730700507760048
1772797650763367400,2.644367431640625,1.2326627969741821,0.27147334814071655,-0.02415684051811695
1772797650773394400,2.65439453125,1.3882253170013428,0.5606205463409424,0.08702665567398071
1772797650783420400,2.66442041015625,1.68864905834198,0.68744957447052,-0.10422879457473755
1772797650793446400,2.6744462890625,1.9719980955123901,0.5315338969230652,-0.5493851900100708
1772797650803473400,2.684473388671875,2.230226755142212,0.25186121463775635,-0.7829585671424866
1772797650813499400,2.69449951171875,2.3733720779418945,-0.3987284302711487,-0.893212080001831
1772797650823525400,2.704525390625,2.30592942237854,-0.6729309558868408,-0.6194753646850586
1772797650833551400,2.71455126953125,2.041691541671753,-0.12810763716697693,0.27455660700798035
1772797650843578400,2.724578369140625,2.006070375442505,0.9874129891395569,1.192518949508667
1772797650853604400,2.734604248046875,2.2960360050201416,1.6458370685577393,1.502211093902588
1772797650863630300,2.74463037109375,2.574803113937378,1.432997226715088,1.70561683177948
1772797650873657300,2.7546572265625,2.7673513889312744,0.6139542460441589,1.9412271976470947
1772797650883683300,2.764683349609375,2.883533239364624,-0.21411177515983582,2.139468193054199
1772797650893709300,2.774709228515625,2.8929309844970703,-0.587533712387085,2.14910888671875
1772797650903735300,2.7847353515625,2.7447288036346436,-0.5077533721923828,1.985809564590454
1772797650913762300,2.79476220703125,2.441143035888672,-0.14847546815872192,1.68423330783844
1772797650923788300,2.804788330078125,2.0768542289733887,0.33838340640068054,1.3255654573440552
1772797650933814300,2.814814208984375,1.7883329391479492,0.8079850077629089,1.0104721784591675
1772797650943841500,2.824841552734375,1.6344029903411865,1.1176536083221436,0.8784011602401733
1772797650953867500,2.834867431640625,1.6079516410827637,1.2154924869537354,1.0001635551452637
1772797650963893500,2.8448935546875,1.6662365198135376,1.1519180536270142,1.2648711204528809
1772797650973919500,2.85491943359375,1.7299197912216187,1.0604802370071411,1.5400198698043823
1772797650983946200,2.8649462890625,1.8386297225952148,0.9409192800521851,1.7490007877349854
1772797650993972200,2.87497216796875,1.9220014810562134,0.9064810276031494,1.8021633625030518
1772797651003998200,2.884998291015625,2.0036771297454834,0.8160219788551331,1.73432195186615
1772797651014025500,2.895025390625,1.9893447160720825,0.6856423616409302,1.657862901687622
1772797651024051500,2.905051513671875,1.9734677076339722,0.5580913424491882,1.5337539911270142
1772797651034077400,2.915077392578125,1.9551801681518555,0.5354432463645935,1.3678300380706787
1772797651044103400,2.925103515625,1.9465664625167847,0.5257219076156616,1.192308783531189
1772797651054130400,2.93513037109375,1.8681144714355469,0.5039577484130859,0.9986274838447571
1772797651064156400,2.945156494140625,1.7290167808532715,0.4711475670337677,0.713442325592041
1772797651074182100,2.95518212890625,1.5973695516586304,0.4366091191768646,0.33364787697792053
1772797651084209400,2.96520947265625,1.4199789762496948,0.4492844343185425,-0.10917109251022339
1772797651094235400,2.9752353515625,1.2189617156982422,0.5112159252166748,-0.5246809720993042
1772797651104261400,2.985261474609375,1.0813865661621094,0.5550089478492737,-0.8964231014251709
1772797651114287400,2.995287353515625,0.9920375943183899,0.5364850759506226,-1.1818623542785645
1772797651124314400,3.005314453125,0.974628746509552,0.45741260051727295,-1.4020044803619385
1772797651134340400,3.01534033203125,1.0148121118545532,0.35881152749061584,-1.5618871450424194
1772797651144366300,3.025366455078125,1.0824979543685913,0.25139638781547546,-1.656282901763916
1772797651154392300,3.035392333984375,1.1475684642791748,0.11880971491336823,-1.6324433088302612
1772797651164419300,3.04541943359375,1.1944869756698608,0.02430184930562973,-1.5001273155212402
1772797651174445300,3.0554453125,1.2527952194213867,0.04848303645849228,-1.3759685754776
1772797651184471300,3.06547119140625,1.3390446901321411,0.1580718457698822,-1.2981702089309692
1772797651194498300,3.075498291015625,1.3295625448226929,0.2644229531288147,-1.2943298816680908
1772797651204524300,3.085524169921875,1.2317416667938232,0.3937993049621582,-1.38761568069458
1772797651214550300,3.09555029296875,1.1141819953918457,0.5754501223564148,-1.547293782234192
1772797651224576500,3.105576416015625,1.069554090499878,0.6738009452819824,-1.6998268365859985
1772797651234603500,3.115603515625,1.0661916732788086,0.6008862853050232,-1.864987850189209
1772797651244629500,3.12562939453125,1.0921181440353394,0.37682074308395386,-2.0033822059631348
1772797651254655500,3.135655517578125,1.1913996934890747,0.1781977266073227,-2.0802690982818604
1772797651264682200,3.14568212890625,1.404008388519287,-0.09130725264549255,-2.0423760414123535
1772797651274708200,3.155708251953125,1.6910722255706787,-0.41536393761634827,-1.7414312362670898
1772797651284734200,3.165734130859375,1.9242053031921387,-0.5001528859138489,-1.1742764711380005
1772797651294760400,3.175760498046875,2.193415880203247,-0.3908568322658539,-0.6800521612167358
1772797651304787500,3.185787353515625,2.493406057357788,-0.396377831697464,-0.5564809441566467
1772797651314813400,3.1958134765625,2.7555766105651855,-0.5358394384384155,-0.6491195559501648
1772797651324839400,3.20583935546875,2.93365216255188,-0.6521676778793335,-0.6715367436408997
1772797651334866200,3.2158662109375,2.79495906829834,-0.40031495690345764,-0.5691429376602173
1772797651344892200,3.22589208984375,2.291126012802124,0.15416637063026428,-0.4913754463195801
1772797651354918100,3.235918212890625,1.8769323825836182,0.923804759979248,-0.38994869589805603
1772797651364944400,3.2459443359375,1.8511053323745728,0.9392393827438354,-0.18424507975578308
1772797651374971400,3.255971435546875,2.041957139968872,0.40383386611938477,0.2614607810974121
1772797651384997400,3.265997314453125,2.1646668910980225,-0.11532247066497803,0.8457950353622437
1772797651395023400,3.2760234375,2.082794427871704,-0.41262030601501465,1.2235053777694702
1772797651405049300,3.28604931640625,1.8456089496612549,-0.5077124834060669,1.258054256439209
1772797651415076400,3.296076416015625,1.5163863897323608,-0.42138782143592834,1.1941258907318115
1772797651425102600,3.3061025390625,1.2434743642807007,-0.2398691326379776,1.1940816640853882
1772797651435128600,3.316128662109375,1.0495679378509521,-0.10760808736085892,1.3331873416900635
1772797651445155300,3.3261552734375,0.9611704349517822,0.01633010059595108,1.5289944410324097
1772797651455181300,3.336181396484375,0.9389180541038513,0.17798160016536713,1.7599761486053467
1772797651465207300,3.346207275390625,0.9377281665802002,0.3593319356441498,1.9687434434890747
1772797651475233300,3.3562333984375,0.931998074054718,0.5210300087928772,2.1860594749450684
1772797651485260300,3.36626025390625,0.9043357968330383,0.7129586935043335,2.424520969390869
1772797651495286500,3.37628662109375,0.9062892198562622,0.8550940155982971,2.57741117477417
1772797651505312500,3.3863125,0.9385755658149719,0.7971321940422058,2.625990152359009
1772797651515339300,3.39633935546875,0.9732969403266907,0.6498483419418335,2.508258581161499
1772797651525365200,3.406365234375,0.987162709236145,0.30387336015701294,2.2482717037200928
1772797651535391200,3.41639111328125,0.981388509273529,0.08402653783559799,2.0080296993255615
1772797651545417200,3.426417236328125,0.9901684522628784,-0.006446900777518749,1.7615838050842285
1772797651555444500,3.436444580078125,1.0062776803970337,0.02830653265118599,1.5454045534133911
1772797651565470500,3.446470458984375,0.9834647178649902,0.049464814364910126,1.3292170763015747
1772797651575496400,3.456496337890625,0.9070477485656738,-0.00940204318612814,1.0303163528442383
1772797651585522400,3.4665224609375,0.8294512629508972,0.0009278259240090847,0.6651970744132996
1772797651595549400,3.476549560546875,0.7417115569114685,0.0840706154704094,0.29506930708885193
1772797651605575400,3.486575439453125,0.6689260005950928,0.14056424796581268,-0.10241362452507019
1772797651615601400,3.496601318359375,0.6385600566864014,0.1461869329214096,-0.4792679250240326
1772797651625628400,3.50662841796875,0.6558540463447571,0.13431589305400848,-0.8373459577560425
1772797651635654400,3.516654296875,0.7085536122322083,0.0803646519780159,-1.122605323791504
1772797651645680400,3.526680419921875,0.7615758180618286,-0.04034152254462242,-1.3145042657852173
1772797651655706400,3.536706298828125,0.8076268434524536,-0.1434287279844284,-1.3758509159088135
1772797651665733400,3.5467333984375,0.8378244638442993,-0.206299290060997,-1.3580130338668823
1772797651675759600,3.556759521484375,0.8767147660255432,-0.13182081282138824,-1.374742031097412
1772797651685785600,3.56678564453125,0.8645297288894653,-0.025932462885975838,-1.459181547164917
1772797651695811600,3.5768115234375,0.7990387678146362,0.11569858342409134,-1.5727808475494385
1772797651705838300,3.58683837890625,0.6932452321052551,0.2996346056461334,-1.639026403427124
1772797651715864300,3.5968642578125,0.587525486946106,0.5560433268547058,-1.6596927642822266
1772797651725890300,3.606890380859375,0.5115057826042175,0.7878515124320984,-1.657778263092041
1772797651735917300,3.616917236328125,0.5137274265289307,0.8528863787651062,-1.6096019744873047
1772797651745943600,3.626943603515625,0.5348628163337708,0.718772292137146,-1.495851755142212
1772797651755969500,3.636969482421875,0.5510976910591125,0.3627650737762451,-1.2850881814956665
1772797651765995500,3.64699560546875,0.562867283821106,-0.13687217235565186,-0.9793264865875244
1772797651776022500,3.6570224609375,0.6363978981971741,-0.5623502135276794,-0.6797724962234497
1772797651786048500,3.667048583984375,0.7793715596199036,-0.8946919441223145,-0.5558111667633057
1772797651796074500,3.677074462890625,0.8314077854156494,-1.0672374963760376,-0.4916420578956604
1772797651806100500,3.6871005859375,0.7723825573921204,-0.9049921035766602,-0.37669286131858826
1772797651816127500,3.69712744140625,0.7203487753868103,-0.580967903137207,-0.547261655330658
1772797651826153500,3.707153564453125,0.7363005876541138,-0.2786109447479248,-1.084111213684082
1772797651836179500,3.717179443359375,0.6612822413444519,-0.006786237005144358,-1.7291762828826904
1772797651846206500,3.72720654296875,0.4208105504512787,0.25710585713386536,-2.2727773189544678
1772797651856232400,3.737232421875,0.04311566799879074,0.6308997273445129,-2.583505153656006
1772797651866258400,3.747258544921875,-0.18537449836730957,1.3323129415512085,-2.468390464782715
1772797651876284400,3.757284423828125,0.008336707949638367,2.1161272525787354,-1.8766610622406006
1772797651886311400,3.7673115234375,0.5982772707939148,2.040067672729492,-0.8542173504829407
1772797651896337400,3.77733740234375,1.3739174604415894,0.8353431820869446,0.4877737760543823
1772797651906363400,3.78736328125,2.1529462337493896,-0.597693920135498,1.6924009323120117
1772797651916389400,3.797389404296875,2.485229253768921,-1.377463698387146,2.5511891841888428
1772797651926416400,3.80741650390625,2.398660182952881,-1.3682529926300049,2.950486660003662
1772797651936442400,3.8174423828125,2.20080304145813,-0.8918788433074951,2.716123580932617
1772797651946468400,3.82746826171875,1.9416313171386719,-0.4228418171405792,2.1863651275634766
1772797651956495600,3.83749560546875,1.630591869354248,-0.17567721009254456,1.7756928205490112
1772797651966521600,3.847521484375,1.2714025974273682,0.01834179274737835,1.5834290981292725
1772797651976547600,3.857547607421875,0.9216451048851013,0.23064112663269043,1.5467365980148315
1772797651986573600,3.867573486328125,0.6045382618904114,0.5180851817131042,1.586449146270752
1772797651996600300,3.877600341796875,0.33961570262908936,0.8089255690574646,1.6470104455947876
1772797652006626300,3.887626220703125,0.15862010419368744,1.0540112257003784,1.7292683124542236
1772797652016652300,3.89765234375,0.133795365691185,1.2207295894622803,1.8214988708496094
1772797652026678500,3.907678466796875,0.3304452896118164,1.2015169858932495,1.911949634552002
1772797652036705500,3.91770556640625,0.45744431018829346,0.9027263522148132,1.9276721477508545
1772797652046731500,3.9277314453125,0.4926678240299225,0.5378844738006592,1.8187148571014404
1772797652056757500,3.937757568359375,0.4280405640602112,0.3077782392501831,1.5816969871520996
1772797652066784300,3.9477841796875,0.2641560137271881,0.19174990057945251,1.2712187767028809
1772797652076810200,3.957810302734375,0.11268651485443115,0.1340571641921997,0.9823691248893738
1772797652086836200,3.967836181640625,0.009320182725787163,0.13728491961956024,0.714934229850769
1772797652096862500,3.977862548828125,-0.06632503867149353,0.11603964865207672,0.4628679156303406
1772797652106889500,3.987889404296875,-0.13524098694324493,0.06391067057847977,0.20839327573776245
1772797652116915500,3.99791552734375,-0.1887882649898529,-0.02045840211212635,-0.06451308727264404
1772797652126941400,4.00794140625,-0.2417588084936142,-0.08543899655342102,-0.32203781604766846
1772797652136967400,4.017967529296875,-0.2833119332790375,-0.14094381034374237,-0.5270876884460449
1772797652146994400,4.027994384765625,-0.2925368547439575,-0.2113809585571289,-0.6812514662742615
1772797652157020400,4.0380205078125,-0.2483745664358139,-0.25445762276649475,-0.8055909276008606
1772797652167046700,4.048046630859375,-0.186167374253273,-0.29932284355163574,-0.8912978172302246
1772797652177072600,4.05807275390625,-0.15250718593597412,-0.30992236733436584,-0.9107527732849121
1772797652187099400,4.068099365234375,-0.09427210688591003,-0.353241890668869,-0.922115683555603
1772797652197125400,4.07812548828125,-0.03043830208480358,-0.4115239977836609,-0.9218142032623291
1772797652207151400,4.0881513671875,0.021936755627393723,-0.5063509345054626,-0.909561038017273
1772797652217178400,4.098178466796875,0.03615716099739075,-0.5866636037826538,-0.8995861411094666
1772797652227204600,4.10820458984375,0.025650188326835632,-0.5698188543319702,-0.9457427263259888
1772797652237230600,4.118230712890625,-0.025331584736704826,-0.45073801279067993,-1.0262136459350586
1772797652247256600,4.128256591796875,-0.11293626576662064,-0.24442322552204132,-1.1607685089111328
1772797652257283300,4.138283447265625,-0.23925012350082397,-0.0443539097905159,-1.353991985321045
1772797652267309300,4.148309326171875,-0.33725523948669434,-0.00018937885761260986,-1.5218757390975952
1772797652277335300,4.158335205078125,-0.3501828610897064,-0.14613474905490875,-1.571411371231079
1772797652287361300,4.168361328125,-0.3083975911140442,-0.2750703692436218,-1.5553243160247803
1772797652297388500,4.178388427734375,-0.22989489138126373,-0.36427637934684753,-1.5332247018814087
1772797652307414500,4.18841455078125,-0.10021332651376724,-0.5440488457679749,-1.495783805847168
1772797652317440500,4.1984404296875,0.11344563215970993,-0.8177202343940735,-1.4736400842666626
1772797652327467500,4.208467529296875,0.48884373903274536,-1.141588568687439,-1.477493405342102
1772797652337493500,4.218493408203125,0.9390539526939392,-1.4803091287612915,-1.4904145002365112
1772797652347519500,4.22851953125,1.581895351409912,-2.1361351013183594,-1.2951635122299194
1772797652357545500,4.23854541015625,2.128122568130493,-2.936250925064087,-0.7727735638618469
1772797652367572500,4.248572509765625,2.098026990890503,-3.4436888694763184,-0.417108952999115
1772797652377598500,4.258598388671875,1.530765175819397,-2.969228506088257,-0.7258790731430054
1772797652387624400,4.26862451171875,0.9374516010284424,-1.1880099773406982,-1.0207703113555908
1772797652397650400,4.278650390625,0.41335222125053406,0.9660173654556274,-0.9610881805419922
1772797652407677400,4.288677490234375,-0.12752777338027954,2.13869309425354,-0.8149916529655457
1772797652417703400,4.298703369140625,-0.19690018892288208,2.4273719787597656,-0.4237253665924072
1772797652427729400,4.3087294921875,0.3607707917690277,1.8937095403671265,0.19250375032424927
1772797652437755400,4.31875537109375,0.9444626569747925,0.6564499139785767,0.8693200349807739
1772797652447782400,4.328782470703125,1.2278296947479248,-0.2501620352268219,1.4987027645111084
1772797652457808400,4.338808349609375,1.3077369928359985,-0.37531131505966187,1.8307156562805176
1772797652467834400,4.34883447265625,1.2844027280807495,0.017511073499917984,1.8544143438339233
1772797652477860400,4.3588603515625,1.1601325273513794,0.4118109941482544,1.7585651874542236
1772797652487887400,4.368887451171875,0.9256113767623901,0.6916466355323792,1.8106672763824463
1772797652497913300,4.378913330078125,0.6927980184555054,0.9020846486091614,2.0586483478546143
1772797652507939300,4.388939208984375,0.5285440683364868,1.0674099922180176,2.4416251182556152
1772797652517966600,4.398966552734375,0.4604014456272125,1.1254026889801025,2.852144479751587
1772797652527992600,4.40899267578125,0.483933687210083,1.1269339323043823,3.14544677734375
1772797652538018600,4.4190185546875,0.5127061605453491,1.1086137294769287,3.2356462478637695
1772797652548044500,4.42904443359375,0.4885065257549286,1.1290912628173828,3.0227999687194824
1772797652558071300,4.4390712890625,0.4654794931411743,1.2657854557037354,2.5339276790618896
1772797652568097300,4.44909716796875,0.43314310908317566,1.4357503652572632,1.9464569091796875
1772797652578123300,4.459123291015625,0.35448724031448364,1.381839394569397,1.5427693128585815
1772797652588149500,4.4691494140625,0.27088314294815063,1.0934160947799683,1.2991046905517578
1772797652598176500,4.479176513671875,0.25666287541389465,0.7277469635009766,1.1000310182571411
1772797652608202500,4.489202392578125,0.25769591331481934,0.3979003429412842,0.8870852589607239
1772797652618228500,4.499228515625,0.2168544977903366,0.12960386276245117,0.625952422618866
1772797652628254500,4.50925439453125,0.1316021829843521,-0.02337237074971199,0.28994986414909363
1772797652638281500,4.519281494140625,0.010296101681888103,-0.05678069218993187,-0.12340441346168518
1772797652648307500,4.529307373046875,-0.10931950807571411,-0.002668987028300762,-0.5350145697593689
1772797652658333400,4.53933349609375,-0.20541761815547943,0.05861029773950577,-0.8809952139854431
1772797652668360400,4.5493603515625,-0.26483407616615295,0.04862690716981888,-1.173164963722229
1772797652678385700,4.5593857421875,-0.31167763471603394,0.035447858273983,-1.4444106817245483
1772797652688411600,4.56941162109375,-0.32958152890205383,-0.007166979368776083,-1.7301944494247437
1772797652698437600,4.579437744140625,-0.3350870907306671,-0.017012249678373337,-1.949999451637268
1772797652708464600,4.589464599609375,-0.3219659626483917,-0.004528949037194252,-2.0562214851379395
1772797652718490600,4.59949072265625,-0.30939817428588867,-0.07545943558216095,-2.0684080123901367
1772797652728516600,4.6095166015625,-0.2526629865169525,-0.17645502090454102,-2.031747579574585
1772797652738542800,4.61954296875,-0.16418424248695374,-0.2621583938598633,-2.011962890625
1772797652748569600,4.629569580078125,-0.06652026623487473,-0.3404156267642975,-1.992816686630249
1772797652758595600,4.639595703125,-0.000948058208450675,-0.332062304019928,-1.9961954355239868
1772797652768621600,4.64962158203125,0.040286995470523834,-0.21691493690013885,-2.040635347366333
1772797652778647600,4.6596474609375,0.06493359804153442,-0.08319047838449478,-2.1024937629699707
1772797652788674600,4.669674560546875,0.11627241969108582,0.0003949594683945179,-2.135324239730835
1772797652798700800,4.67970068359375,0.22955331206321716,-0.055705901235342026,-2.1001317501068115
1772797652808726800,4.689726806640625,0.3848891258239746,-0.2355038970708847,-1.9825382232666016
1772797652818752800,4.699752685546875,0.6121061444282532,-0.46033138036727905,-1.8620046377182007
1772797652828779800,4.70977978515625,0.8677735924720764,-0.7921537756919861,-1.7160553932189941
1772797652838805800,4.7198056640625,1.2275465726852417,-1.2361012697219849,-1.4120558500289917
1772797652848831700,4.729831787109375,1.6033880710601807,-1.5194562673568726,-1.0333324670791626
1772797652858858500,4.7398583984375,1.8902751207351685,-1.4861096143722534,-0.8475607633590698
1772797652868884700,4.749884765625,1.9838449954986572,-1.0851789712905884,-0.9833260774612427
1772797652878910700,4.75991064453125,1.9228177070617676,-0.6631482243537903,-1.4813669919967651
1772797652888936700,4.769936767578125,1.6903204917907715,-0.5937837958335876,-1.9444451332092285
1772797652898963700,4.779963623046875,1.0176727771759033,-0.29624059796333313,-2.0791056156158447
1772797652908989700,4.78998974609375,0.34210440516471863,0.0969351977109909,-1.7796365022659302
1772797652919015700,4.800015625,0.00013907556422054768,-0.009875670075416565,-1.0724825859069824
1772797652929041700,4.810041748046875,-0.043157000094652176,-0.12336362153291702,-0.08491133898496628
1772797652939068700,4.820068603515625,0.37210652232170105,0.014381962828338146,0.8620522618293762
1772797652949094700,4.8300947265625,0.7164093255996704,0.3998875916004181,1.5402493476867676
1772797652959120600,4.84012060546875,0.7287938594818115,0.6013728976249695,2.039125919342041
1772797652969146600,4.850146728515625,0.6938369274139404,0.734771728515625,2.369011163711548
1772797652979173600,4.860173583984375,0.7122926115989685,0.730786919593811,2.540440082550049
1772797652989199600,4.87019970703125,0.5946477651596069,0.5849549174308777,2.665178060531616
1772797652999225600,4.8802255859375,0.3625171184539795,0.43577951192855835,2.7552390098571777
1772797653009251600,4.89025146484375,0.1509675830602646,0.4641571044921875,2.798210382461548
1772797653019278800,4.90027880859375,0.0015532884281128645,0.5853891968727112,2.771604537963867
1772797653029304800,4.910304931640625,-0.10248123109340668,0.6917632818222046,2.841010808944702
1772797653039330800,4.920330810546875,-0.1464405357837677,0.8598999381065369,2.9790878295898438
1772797653049356800,4.930356689453125,-0.12233545631170273,1.012211799621582,3.1673014163970947
1772797653059383600,4.940383544921875,-0.0805971696972847,1.1473206281661987,3.350034713745117
1772797653069409500,4.950409423828125,0.019001062959432602,1.177059292793274,3.430650472640991
1772797653079435500,4.960435546875,0.1432773619890213,1.1584389209747314,3.409107208251953
1772797653089461800,4.970461669921875,0.24926771223545074,1.0649670362472534,3.2426276206970215
1772797653099488800,4.98048876953125,0.3116985559463501,0.9517314434051514,2.9695804119110107
1772797653109514800,4.9905146484375,0.3718327283859253,0.8725950717926025,2.6255452632904053
1772797653119540700,5.000540771484375,0.4270067811012268,0.7769125699996948,2.251699924468994
1772797653129567700,5.010567626953125,0.4443788528442383,0.6940222382545471,1.886207103729248
1772797653139593700,5.02059375,0.43851056694984436,0.6114675402641296,1.5184447765350342
1772797653149619500,5.030619384765625,0.417845219373703,0.5751940011978149,1.1999096870422363
1772797653159645700,5.040645751953125,0.36781787872314453,0.5509226322174072,0.8893722891807556
1772797653169671700,5.050671630859375,0.2930682599544525,0.5289890766143799,0.566114604473114
1772797653179698700,5.06069873046875,0.2142733633518219,0.5629243850708008,0.2100534439086914
1772797653189724700,5.070724609375,0.12933316826820374,0.6538465619087219,-0.16802674531936646
1772797653199750700,5.080750732421875,0.11197640001773834,0.7062742710113525,-0.49713990092277527
1772797653209777700,5.090777587890625,0.13674379885196686,0.6183361411094666,-0.8620898723602295
1772797653219804000,5.100803955078125,0.1451760232448578,0.4565149247646332,-1.1802409887313843
1772797653229830000,5.110829833984375,0.16287219524383545,0.15223681926727295,-1.4290069341659546
1772797653239855900,5.12085595703125,0.18387967348098755,-0.17721836268901825,-1.5722167491912842
1772797653249882600,5.130882568359375,0.17825402319431305,-0.5345671772956848,-1.6191853284835815
1772797653259908600,5.14090869140625,0.18396569788455963,-0.6232645511627197,-1.6323679685592651
1772797653269934600,5.1509345703125,0.20647020637989044,-0.5620943903923035,-1.7008846998214722
1772797653279960600,5.160960693359375,0.2912091612815857,-0.5310649871826172,-1.7886371612548828
1772797653289987800,5.17098779296875,0.3640948235988617,-0.5677164793014526,-1.857371211051941
1772797653300013800,5.181013916015625,0.41994014382362366,-0.7043895721435547,-1.9368555545806885
1772797653310039800,5.191039794921875,0.39524412155151367,-0.8033084273338318,-2.01896595954895
1772797653320065800,5.201065673828125,0.29153716564178467,-0.8009845614433289,-2.1585538387298584
1772797653330092500,5.211092529296875,0.1550658792257309,-0.6434814929962158,-2.362781524658203
1772797653340118500,5.221118408203125,0.02370651625096798,-0.3946714401245117,-2.6128690242767334
1772797653350144500,5.23114453125,-0.04608268663287163,-0.14847764372825623,-2.837646007537842
1772797653360170500,5.24117041015625,-0.07846584171056747,0.04254033416509628,-3.010821580886841
1772797653370197800,5.25119775390625,-0.027753131464123726,0.01640007458627224,-3.038396120071411
1772797653380223700,5.2612236328125,0.10180113464593887,-0.3447659909725189,-2.8990538120269775
1772797653390249700,5.271249755859375,0.4243360459804535,-1.046410322189331,-2.5670812129974365
1772797653400275700,5.281275634765625,0.7989267110824585,-1.959028720855713,-2.086040496826172
1772797653410302700,5.291302734375,1.2133246660232544,-2.656200647354126,-1.5036063194274902
1772797653420328700,5.30132861328125,1.616588830947876,-2.807077407836914,-1.2144020795822144
1772797653430354700,5.311354736328125,1.8691258430480957,-2.453731060028076,-1.671990156173706
1772797653440381000,5.321380859375,1.7193784713745117,-1.8260568380355835,-2.6359918117523193
1772797653450407700,5.33140771484375,1.1789562702178955,-0.5969339609146118,-2.8727614879608154
1772797653460433700,5.34143359375,0.5718716382980347,0.5911293029785156,-2.017102003097534
1772797653470459600,5.351459716796875,0.10946430265903473,1.1472043991088867,-0.9853578209877014
1772797653480485600,5.361485595703125,0.04987610504031181,1.3674119710922241,-0.11977587640285492
1772797653490512600,5.3715126953125,0.45222729444503784,1.3812944889068604,0.9325847625732422
1772797653500538600,5.38153857421875,1.0109326839447021,1.0812917947769165,1.8303073644638062
1772797653510564900,5.39156494140625,1.35440993309021,0.6676616668701172,2.397199869155884
1772797653520590800,5.4015908203125,1.4791831970214844,0.31859928369522095,2.5454249382019043
1772797653530617600,5.41161767578125,1.4520463943481445,0.03565652668476105,2.3804078102111816
1772797653540643600,5.4216435546875,1.306583046913147,-0.20897407829761505,2.135899066925049
1772797653550669600,5.431669677734375,1.096483826637268,-0.31270846724510193,1.9202966690063477
1772797653560695600,5.441695556640625,0.9086121916770935,-0.27674803137779236,1.785068392753601
1772797653570722600,5.45172265625,0.7564101219177246,-0.12325538694858551,1.753981590270996
1772797653580748800,5.461748779296875,0.6631787419319153,0.10493899881839752,1.7989246845245361
1772797653590774800,5.47177490234375,0.6279277801513672,0.34281307458877563,1.950822353363037
1772797653600800800,5.48180078125,0.6218982338905334,0.5220423936843872,2.19720458984375
1772797653610827800,5.491827880859375,0.6301790475845337,0.6104284524917603,2.4917571544647217
1772797653620853800,5.501853759765625,0.6753009557723999,0.6606024503707886,2.7535457611083984
1772797653630879700,5.511879638671875,0.6949950456619263,0.659368634223938,2.9623868465423584
1772797653640905700,5.52190576171875,0.7023587822914124,0.6926339864730835,3.059659242630005
1772797653650932700,5.5319326171875,0.7203747630119324,0.7176617980003357,3.046893835067749
1772797653660958700,5.541958740234375,0.7390367388725281,0.8208920359611511,2.905015230178833
1772797653670984700,5.551984619140625,0.7495343685150146,0.8528259992599487,2.6779701709747314
1772797653681010400,5.562010498046875,0.7690284848213196,0.9009131193161011,2.4212849140167236
1772797653691037700,5.57203759765625,0.8169880509376526,0.907261312007904,2.174006700515747
1772797653701063700,5.582063720703125,0.8521581888198853,0.8281377553939819,1.9326368570327759
1772797653711089700,5.592089599609375,0.871370792388916,0.7399975061416626,1.7673780918121338
1772797653721115600,5.60211572265625,0.8126206398010254,0.681889533996582,1.6330022811889648
1772797653731142400,5.612142333984375,0.7022213935852051,0.7036555409431458,1.4059864282608032
1772797653741168400,5.62216845703125,0.5861413478851318,0.7532153725624084,1.0731315612792969
1772797653751194400,5.6321943359375,0.4760797917842865,0.7296908497810364,0.7021337151527405
1772797653761220400,5.642220458984375,0.37050458788871765,0.684357225894928,0.3032909631729126
1772797653771247600,5.65224755859375,0.3243189752101898,0.547253429889679,-0.1386459618806839
1772797653781273600,5.662273681640625,0.2950252592563629,0.3302876353263855,-0.5311741232872009
1772797653791299600,5.672299560546875,0.2672511339187622,0.1420152187347412,-0.8559122085571289
1772797653801325600,5.68232568359375,0.2457088679075241,0.021095268428325653,-1.1277183294296265
1772797653811352600,5.6923525390625,0.2217223197221756,-0.05487193167209625,-1.3947862386703491
1772797653821378600,5.702378662109375,0.2024952471256256,-0.1012071818113327,-1.6411521434783936
1772797653831404800,5.71240478515625,0.18589308857917786,-0.11208166182041168,-1.8408235311508179
1772797653841430800,5.7224306640625,0.17783333361148834,-0.08763474971055984,-1.9786814451217651
1772797653851457500,5.73245751953125,0.1921669989824295,-0.06521173566579819,-2.0759243965148926
1772797653861483500,5.7424833984375,0.22925403714179993,-0.08707142621278763,-2.1511168479919434
1772797653871509500,5.752509521484375,0.28265973925590515,-0.12323955446481705,-2.2068886756896973
1772797653881535500,5.762535400390625,0.3628210425376892,-0.2117219716310501,-2.226006031036377
1772797653891562500,5.7725625,0.46216920018196106,-0.36129310727119446,-2.1601858139038086
1772797653901588700,5.782588623046875,0.5769950747489929,-0.5154330730438232,-2.052649736404419
1772797653911614700,5.79261474609375,0.7193189263343811,-0.5818499326705933,-1.964568018913269
1772797653921640700,5.802640625,0.8716521263122559,-0.5394306182861328,-1.9151285886764526
1772797653931667500,5.81266748046875,1.0117231607437134,-0.44407930970191956,-1.9734206199645996
1772797653941693400,5.822693359375,1.1215707063674927,-0.4685349464416504,-2.1791532039642334
1772797653951719400,5.832719482421875,1.2288180589675903,-0.4638128876686096,-2.4026894569396973
1772797653961745400,5.842745361328125,1.4278854131698608,-0.46969541907310486,-2.6997339725494385
1772797653971772700,5.852772705078125,1.7260327339172363,-0.4538986086845398,-3.0844058990478516
1772797653981798700,5.862798583984375,2.1363072395324707,-0.25285160541534424,-3.5641298294067383
1772797653991824600,5.87282470703125,2.4005608558654785,-0.5174155831336975,-3.377120018005371
1772797654001850600,5.8828505859375,2.6267151832580566,-0.6546756029129028,-2.7163240909576416
1772797654011877600,5.892877685546875,2.743171453475952,-0.6183791160583496,-1.8863734006881714
1772797654021903600,5.902903564453125,2.667437791824341,-0.4183867871761322,-1.1646106243133545
1772797654031929600,5.9129296875,2.6114892959594727,-0.3667012155056,-0.3863239288330078
1772797654041955600,5.92295556640625,2.661238670349121,-0.25871992111206055,0.48839661478996277
1772797654051982600,5.932982666015625,2.7913453578948975,-0.18244591355323792,1.3009307384490967
1772797654062008600,5.943008544921875,2.887014150619507,-0.18085645139217377,1.8920495510101318
1772797654072034600,5.95303466796875,2.9319090843200684,-0.14521296322345734,2.1157126426696777
1772797654082060500,5.963060546875,2.849545478820801,-0.06414539366960526,2.0653107166290283
1772797654092087600,5.973087646484375,2.628561496734619,0.040085937827825546,1.8901615142822266
1772797654102113500,5.983113525390625,2.289846897125244,0.1086399033665657,1.674459457397461
1772797654112139500,5.993139404296875,1.9402211904525757,0.21073219180107117,1.4892501831054688
1772797654122165800,6.003165771484375,1.6713041067123413,0.31194445490837097,1.3741616010665894
1772797654132192500,6.013192626953125,1.4906868934631348,0.3626835346221924,1.36358642578125
1772797654142218500,6.023218505859375,1.3878016471862793,0.3640182912349701,1.425208568572998
1772797654152244500,6.033244384765625,1.3529342412948608,0.35845041275024414,1.5754958391189575
1772797654162270500,6.0432705078125,1.3688342571258545,0.42386186122894287,1.7928723096847534
1772797654172297500,6.05329736328125,1.4152294397354126,0.48401761054992676,2.0740959644317627
1772797654182323500,6.063323486328125,1.4725074768066406,0.5579578280448914,2.336483955383301
1772797654192349700,6.073349609375,1.541530728340149,0.6649308800697327,2.514003276824951
1772797654202375700,6.083375732421875,1.6162904500961304,0.6369236707687378,2.5752015113830566
1772797654212402700,6.093402587890625,1.6986277103424072,0.5216237306594849,2.5360538959503174
1772797654222428700,6.1034287109375,1.7812620401382446,0.46440964937210083,2.3715007305145264
1772797654232454700,6.11345458984375,1.8369550704956055,0.3553593158721924,2.1883883476257324
1772797654242480600,6.123480712890625,1.8837260007858276,0.2833503782749176,1.9610817432403564
1772797654252507600,6.133507568359375,1.8800297975540161,0.29590773582458496,1.7119656801223755
1772797654262533600,6.14353369140625,1.8407410383224487,0.3563670516014099,1.4706647396087646
1772797654272559600,6.1535595703125,1.6959865093231201,0.48353591561317444,1.2085151672363281
1772797654282585600,6.163585693359375,1.4531320333480835,0.6103221774101257,0.8997730016708374
1772797654292612600,6.173612548828125,1.2156260013580322,0.87031489610672,0.5499318838119507
1772797654302638600,6.183638671875,1.1080838441848755,1.0671284198760986,0.18239650130271912
1772797654312664600,6.19366455078125,1.056242823600769,1.1336091756820679,-0.08976232260465622
1772797654322690600,6.203690673828125,1.0732225179672241,1.1800212860107422,-0.3458484411239624
1772797654332717600,6.213717529296875,1.1379066705703735,1.127364158630371,-0.526910662651062
1772797654342743600,6.22374365234375,1.2005478143692017,0.8917270302772522,-0.6625965237617493
1772797654352769500,6.23376953125,1.266799807548523,0.6021639108657837,-0.7683612704277039
1772797654362795500,6.24379541015625,1.3276420831680298,0.3225649893283844,-0.8444350957870483
1772797654372822500,6.253822509765625,1.3196896314620972,0.022444574162364006,-0.9191998243331909
1772797654382848500,6.2638486328125,1.339002013206482,-0.11381908506155014,-1.0271875858306885
1772797654392874500,6.27387451171875,1.331295132637024,-0.1302635818719864,-1.1489951610565186
1772797654402900500,6.283900390625,1.2943336963653564,0.0041670966893434525,-1.2769031524658203
1772797654412927700,6.293927734375,1.2797744274139404,0.26564744114875793,-1.408599853515625
1772797654422953700,6.30395361328125,1.2828059196472168,0.5696972608566284,-1.5440897941589355
1772797654432979500,6.3139794921875,1.3312573432922363,0.7716812491416931,-1.6367416381835938
1772797654443005400,6.32400537109375,1.3972868919372559,0.8196316957473755,-1.6503283977508545
1772797654453032400,6.334032470703125,1.4428461790084839,0.696773111820221,-1.6455175876617432
1772797654463058400,6.344058349609375,1.4736515283584595,0.4194779396057129,-1.653289556503296
1772797654473084400,6.35408447265625,1.5052709579467773,0.10564837604761124,-1.679162621498108
1772797654483110700,6.364110595703125,1.653454303741455,-0.2606513500213623,-1.754195213317871
1772797654493136600,6.37413671875,1.9173674583435059,-0.6921092867851257,-1.7923436164855957
1772797654503163600,6.38416357421875,2.2531485557556152,-1.1578125953674316,-1.7163512706756592
1772797654513189600,6.394189697265625,2.557443857192993,-1.6368372440338135,-1.7373987436294556
1772797654523215600,6.404215576171875,2.9806628227233887,-2.0925374031066895,-1.9377955198287964
1772797654533241600,6.41424169921875,3.472590684890747,-2.2457966804504395,-2.5053207874298096
1772797654543268600,6.4242685546875,3.8698902130126953,-2.2520527839660645,-3.2220444679260254
1772797654553294600,6.434294677734375,3.427072048187256,-1.5199817419052124,-3.3074533939361572
1772797654563320600,6.444320556640625,2.434628486633301,-0.09748439490795135,-2.5748510360717773
1772797654573346600,6.4543466796875,1.7730088233947754,0.846301257610321,-1.419616937637329
1772797654583373600,6.46437353515625,1.7057180404663086,0.8980504274368286,0.4080301523208618
1772797654593399600,6.474399658203125,1.9650274515151978,0.687316358089447,1.9964853525161743
1772797654603425500,6.484425537109375,2.274366855621338,0.6979614496231079,2.6691431999206543
1772797654613451500,6.494451416015625,2.5488157272338867,0.9381524324417114,3.0328409671783447
1772797654623478500,6.504478515625,2.6266064643859863,1.0401095151901245,3.257317066192627
1772797654633504500,6.51450439453125,2.4138927459716797,1.0588395595550537,3.1202332973480225
1772797654643530500,6.524530517578125,2.060426712036133,0.9490114450454712,2.638946771621704
1772797654653556500,6.534556396484375,1.759230136871338,0.8258122801780701,2.108720064163208
1772797654663583500,6.54458349609375,1.5586421489715576,0.7522243857383728,1.7556208372116089
1772797654673609500,6.554609375,1.4177672863006592,0.6270028352737427,1.652735948562622
1772797654683635700,6.5646357421875,1.348825216293335,0.4466520845890045,1.6834489107131958
1772797654693661700,6.57466162109375,1.3349727392196655,0.4106304347515106,1.7076821327209473
1772797654703688700,6.584688720703125,1.3355177640914917,0.4904349148273468,1.7195459604263306
1772797654713714700,6.594714599609375,1.3277982473373413,0.6231874227523804,1.6990283727645874
1772797654723740700,6.60474072265625,1.3353408575057983,0.7162530422210693,1.7412631511688232
1772797654733767000,6.614766845703125,1.299054741859436,0.6706205606460571,1.8628628253936768
1772797654743793000,6.62479296875,1.2894035577774048,0.5482778549194336,1.9302746057510376
1772797654753819600,6.634819580078125,1.3078651428222656,0.5115352869033813,1.8453506231307983
1772797654763845600,6.644845703125,1.3016178607940674,0.609661877155304,1.6373697519302368
1772797654773871600,6.65487158203125,1.30424964427948,0.7692499756813049,1.3726738691329956
1772797654783897600,6.664897705078125,1.2849992513656616,0.8799185752868652,1.0863431692123413
1772797654793924900,6.6749248046875,1.2781802415847778,0.856846272945404,0.80117267370224
1772797654803950800,6.684950927734375,1.3011935949325562,0.7387663722038269,0.5772601962089539
1772797654813976800,6.694976806640625,1.2933719158172607,0.6047835350036621,0.356577605009079
1772797654824002800,6.7050029296875,1.2687537670135498,0.5165800452232361,0.07086781412363052
1772797654834029600,6.715029541015625,1.233036756515503,0.4401225447654724,-0.19854606688022614
1772797654844055600,6.7250556640625,1.2112852334976196,0.290934294462204,-0.4448903203010559
1772797654854081500,6.73508154296875,1.202354073524475,0.11632414162158966,-0.6724257469177246
1772797654864107500,6.745107421875,1.1867104768753052,-0.0703217163681984,-0.8366509079933167
1772797654874134800,6.755134765625,1.1590782403945923,-0.18983586132526398,-0.9558441638946533
1772797654884160800,6.765160888671875,1.1142884492874146,-0.12553220987319946,-1.0682237148284912
1772797654894186800,6.775186767578125,1.106916069984436,0.02108147367835045,-1.207971215248108
1772797654904212700,6.785212646484375,1.1169694662094116,0.1715153604745865,-1.3747260570526123
1772797654914239700,6.79523974609375,1.1360262632369995,0.27756670117378235,-1.5596266984939575
1772797654924265700,6.805265625,1.1498597860336304,0.34949421882629395,-1.7209299802780151
1772797654934291700,6.815291748046875,1.1463401317596436,0.3731611967086792,-1.846134066581726
1772797654944317700,6.825317626953125,1.1212584972381592,0.3208172917366028,-1.9295333623886108
1772797654954344700,6.8353447265625,1.09946608543396,0.2450477033853531,-1.9798239469528198
1772797654964370700,6.84537060546875,1.1217797994613647,0.15654517710208893,-1.9814448356628418
1772797654974396700,6.855396728515625,1.1939269304275513,0.02953237295150757,-1.9131032228469849
1772797654984422700,6.865422607421875,1.2581279277801514,-0.09348991513252258,-1.7808741331100464
1772797654994448600,6.87544873046875,1.3575279712677002,-0.2692505717277527,-1.598441243171692
1772797655004475600,6.8854755859375,1.4534469842910767,-0.49646782875061035,-1.4116201400756836
1772797655014502000,6.895501953125,1.5376688241958618,-0.7594531178474426,-1.3148571252822876
1772797655024528000,6.90552783203125,1.6904443502426147,-1.1147472858428955,-1.3302990198135376
1772797655034553900,6.915553955078125,1.9639935493469238,-1.5029833316802979,-1.4805688858032227
1772797655044580600,6.92558056640625,2.39159893989563,-2.007666826248169,-1.7258540391921997
1772797655054606600,6.935606689453125,3.0334765911102295,-2.922286033630371,-2.163437843322754
1772797655064632600,6.945632568359375,3.395953893661499,-3.9250714778900146,-2.990492582321167
1772797655074658600,6.955658447265625,3.1644628047943115,-3.7234365940093994,-4.144545555114746
1772797655084685800,6.965685791015625,2.3649814128875732,-1.6542543172836304,-4.949049472808838
1772797655094711800,6.9757119140625,0.9166271686553955,1.240653157234192,-4.97009801864624
1772797655104737800,6.98573779296875,-0.238569974899292,3.373952627182007,-3.55531644821167
1772797655114763800,6.995763671875,-0.09761550277471542,3.184649705886841,-0.9354390501976013
1772797655124790800,7.005790771484375,0.6077542304992676,1.4848155975341797,1.6317718029022217
1772797655134816800,7.015816650390625,1.1459170579910278,0.27682021260261536,3.8664803504943848
1772797655144842800,7.0258427734375,1.4158025979995728,0.14631564915180206,5.0303754806518555
1772797655154868500,7.035868408203125,1.3216874599456787,0.3857482075691223,4.831897258758545
1772797655164894500,7.04589453125,0.9756790995597839,0.6872640252113342,3.744379997253418
1772797655174921700,7.055921630859375,0.5961956977844238,1.068556785583496,2.5606071949005127
1772797655184947700,7.06594775390625,0.2502566874027252,1.434097409248352,1.7564337253570557
1772797655194973700,7.0759736328125,0.08075366914272308,1.5344219207763672,1.4044269323349
1772797655204999700,7.085999755859375,0.064742811024189,1.2551636695861816,1.33562171459198
1772797655215026700,7.096026611328125,0.18020735681056976,0.6971423029899597,1.4275039434432983
1772797655225052700,7.106052734375,0.345994770526886,0.05469527095556259,1.562552571296692
1772797655235079000,7.116078857421875,0.5117203593254089,-0.3500966727733612,1.5640745162963867
1772797655245105000,7.12610498046875,0.5822230577468872,-0.4318029284477234,1.3723821640014648
1772797655255131600,7.136131591796875,0.5753917694091797,-0.26145198941230774,1.1473050117492676
1772797655265157600,7.14615771484375,0.5470391511917114,-0.04833226650953293,0.9529728293418884
1772797655275183600,7.15618359375,0.5148002505302429,0.09408453106880188,0.9396767020225525
1772797655285209600,7.166209716796875,0.48345518112182617,0.1871275007724762,1.1044800281524658
1772797655295236600,7.176236572265625,0.4239915907382965,0.3303597569465637,1.2849994897842407
1772797655305262800,7.186262939453125,0.36361944675445557,0.48993661999702454,1.3978238105773926
1772797655315288800,7.196288818359375,0.29701006412506104,0.6547806859016418,1.3557077646255493
1772797655325314800,7.206314697265625,0.2624218165874481,0.7226582765579224,1.1808568239212036
1772797655335340800,7.2163408203125,0.21003396809101105,0.659327507019043,0.9505520462989807
1772797655345367600,7.226367431640625,0.18039266765117645,0.499098539352417,0.7906864285469055
1772797655355393500,7.2363935546875,0.12649907171726227,0.3113994896411896,0.7351698875427246
1772797655365419500,7.24641943359375,0.08572529256343842,0.0715954452753067,0.7634004950523376
1772797655375445500,7.256445556640625,0.039014507085084915,-0.1595647931098938,0.7412643432617188
1772797655385472800,7.26647265625,-0.0036432957276701927,-0.35843679308891296,0.6651487350463867
1772797655395498800,7.276498779296875,-0.04470178112387657,-0.4548211097717285,0.5918425917625427
1772797655405524700,7.286524658203125,-0.10069430619478226,-0.46638429164886475,0.4257130026817322
1772797655415550700,7.29655078125,-0.10373031347990036,-0.44456368684768677,0.253916472196579
1772797655425577700,7.30657763671875,-0.09827883541584015,-0.41933703422546387,0.06447809189558029
1772797655435603700,7.316603759765625,-0.02192068286240101,-0.35958316922187805,-0.12342629581689835
1772797655445629700,7.326629638671875,0.05985905975103378,-0.2673228085041046,-0.29638874530792236
1772797655455655700,7.33665576171875,0.15218712389469147,-0.18257300555706024,-0.44985392689704895
1772797655465682700,7.3466826171875,0.2578873038291931,-0.14507263898849487,-0.5682559609413147
1772797655475708700,7.356708740234375,0.35251474380493164,-0.17386087775230408,-0.6682488918304443
1772797655485734700,7.366734619140625,0.41022199392318726,-0.2522682249546051,-0.7534723877906799
1772797655495760600,7.3767607421875,0.4452982246875763,-0.3224441409111023,-0.7675930261611938
1772797655505786600,7.38678662109375,0.434319406747818,-0.39681383967399597,-0.6985950469970703
1772797655515813600,7.396813720703125,0.41992607712745667,-0.4316008388996124,-0.5551713109016418
1772797655525840000,7.40683984375,0.3949747085571289,-0.4248189330101013,-0.38319075107574463
1772797655535865900,7.416865966796875,0.3640836179256439,-0.35710620880126953,-0.245490163564682
1772797655545891800,7.426891845703125,0.3566136062145233,-0.29148951172828674,-0.18606677651405334
1772797655555918600,7.436918701171875,0.37552765011787415,-0.26669013500213623,-0.1673080027103424
1772797655565944600,7.446944580078125,0.3827723264694214,-0.19455616176128387,-0.026364728808403015
1772797655575970600,7.456970458984375,0.33226385712623596,-0.17017677426338196,0.1672220528125763
1772797655585996500,7.46699658203125,0.24915626645088196,-0.20490580797195435,0.1967807412147522
1772797655596023800,7.47702392578125,0.10932537913322449,-0.14705155789852142,-0.2551440894603729
1772797655606049800,7.4870498046875,-0.06244254484772682,0.19033634662628174,-1.2008662223815918
1772797655616075800,7.49707568359375,-0.21510319411754608,0.6057420372962952,-2.2730154991149902
1772797655626101800,7.507101806640625,-0.2888239622116089,0.7738862037658691,-2.731548309326172
1772797655636127700,7.517127685546875,-0.24964196979999542,0.8239983320236206,-2.079505205154419
1772797655646154800,7.52715478515625,-0.14204514026641846,0.6034136414527893,-0.4922317564487457
1772797655656180700,7.5371806640625,0.08988901972770691,0.12858642637729645,1.1149412393569946
1772797655666206700,7.547206787109375,0.34021371603012085,-0.08231571316719055,1.9969053268432617
1772797655676232700,7.557232666015625,0.5381805896759033,0.13310658931732178,2.1192691326141357
1772797655686259500,7.567259521484375,0.5773977041244507,0.6270936727523804,1.796323537826538
1772797655696285400,7.577285400390625,0.5114011168479919,1.0886222124099731,1.3220337629318237
1772797655706311400,7.5873115234375,0.3694975972175598,1.342458724975586,0.9419430494308472
1772797655716337700,7.597337646484375,0.19273455440998077,1.2971380949020386,0.6865153312683105
1772797655726364700,7.60736474609375,0.05246014893054962,1.0926278829574585,0.5317254662513733
1772797655736390700,7.617390625,-0.057867687195539474,0.7944231033325195,0.40315762162208557
1772797655746416600,7.627416748046875,-0.1269298940896988,0.49560248851776123,0.2955475151538849
1772797655756442600,7.637442626953125,-0.19616542756557465,0.3377436399459839,0.19677354395389557
1772797655766468600,7.647468505859375,-0.25250059366226196,0.3302200138568878,0.16492079198360443
1772797655776495400,7.657495361328125,-0.28740212321281433,0.3695674240589142,0.21803833544254303
1772797655786521600,7.667521484375,-0.3125309646129608,0.3959132730960846,0.3673200011253357
1772797655796547600,7.677547607421875,-0.33310094475746155,0.3950272500514984,0.568141758441925
1772797655806573600,7.687573486328125,-0.3606750965118408,0.39686980843544006,0.7591820359230042
1772797655816600600,7.6976005859375,-0.3762916028499603,0.3589405417442322,0.8994643092155457
1772797655826626600,7.70762646484375,-0.3860284984111786,0.29358983039855957,0.9108315110206604
1772797655836652500,7.717652587890625,-0.422052264213562,0.2097199559211731,0.7950404286384583
1772797655846678500,7.727678466796875,-0.47187796235084534,0.11708163470029831,0.6143936514854431
1772797655856705800,7.737705810546875,-0.53813236951828,0.045494530349969864,0.4435577392578125
1772797655866731500,7.7477314453125,-0.5846248865127563,-0.03235812485218048,0.3383948504924774
1772797655876757500,7.757757568359375,-0.6113768815994263,-0.11112058162689209,0.26726874709129333
1772797655886783500,7.767783447265625,-0.6256810426712036,-0.18707846105098724,0.2048487812280655
1772797655896809500,7.7778095703125,-0.6204074621200562,-0.2430351972579956,0.1288410872220993
1772797655906836500,7.78783642578125,-0.6173054575920105,-0.30324238538742065,0.041028160601854324
1772797655916862500,7.797862548828125,-0.6011824011802673,-0.3718574047088623,-0.0641065165400505
1772797655926888400,7.807888427734375,-0.5666233897209167,-0.40471842885017395,-0.22939559817314148
1772797655936914700,7.817914794921875,-0.5602020025253296,-0.4360361397266388,-0.40646785497665405
1772797655946941700,7.827941650390625,-0.5359986424446106,-0.4529942572116852,-0.5771863460540771
1772797655956967700,7.8379677734375,-0.5314584374427795,-0.439482718706131,-0.7135074138641357
1772797655966993700,7.84799365234375,-0.5470389127731323,-0.39947548508644104,-0.7833272218704224
1772797655977019600,7.85801953125,-0.5692440867424011,-0.3573639690876007,-0.8116714954376221
1772797655987045600,7.868045654296875,-0.5985305309295654,-0.3048781752586365,-0.8249167799949646
1772797655997072400,7.878072265625,-0.616042971611023,-0.23081113398075104,-0.8489864468574524
1772797656007098600,7.8880986328125,-0.6482723951339722,-0.17954416573047638,-0.8551225662231445
1772797656017124600,7.89812451171875,-0.6965294480323792,-0.20117276906967163,-0.8423939943313599
1772797656027150600,7.908150634765625,-0.7564930319786072,-0.2999308109283447,-0.8563581109046936
1772797656037177600,7.918177490234375,-0.8157212138175964,-0.45899102091789246,-0.8574840426445007
1772797656047203600,7.92820361328125,-0.8622252345085144,-0.5947383046150208,-0.802550733089447
1772797656057229600,7.9382294921875,-0.879294753074646,-0.580374538898468,-0.6498789191246033
1772797656067255600,7.948255615234375,-0.875672459602356,-0.5337615013122559,-0.4864172637462616
1772797656077282600,7.958282470703125,-0.7858387231826782,-0.428855836391449,-0.37652114033699036
1772797656087308500,7.96830859375,-0.6590037941932678,-0.27888596057891846,-0.4836563766002655
1772797656097334500,7.97833447265625,-0.4816359877586365,-0.2243897020816803,-0.8197318911552429
1772797656107360500,7.988360595703125,-0.31598353385925293,-0.47861039638519287,-1.28006911277771
1772797656117386500,7.998386474609375,-0.10371310263872147,-1.1785743236541748,-2.064502239227295
1772797656127413500,8.00841357421875,0.11710751056671143,-2.1378092765808105,-3.1107003688812256
1772797656137439500,8.018439453125,-0.08431454747915268,-2.3097991943359375,-4.131857395172119
1772797656147465500,8.028465576171875,-0.8328172564506531,-1.161747694015503,-4.600769996643066
1772797656157491700,8.03849169921875,-1.6340689659118652,0.2914775013923645,-3.3649227619171143
1772797656167518700,8.048518798828125,-1.9691534042358398,0.7105214595794678,-0.9853817820549011
1772797656177544700,8.058544677734375,-1.84666109085083,0.13991284370422363,1.4481724500656128
1772797656187570700,8.06857080078125,-1.455284595489502,-0.31546464562416077,2.930790901184082
1772797656197596700,8.0785966796875,-1.0782660245895386,-0.42144885659217834,3.3701319694519043
1772797656207622700,8.08862255859375,-0.9621681571006775,-0.16644589602947235,3.0754387378692627
1772797656217649400,8.0986494140625,-1.1256273984909058,0.36271995306015015,2.4161553382873535
1772797656227675600,8.108675537109375,-1.4509276151657104,0.7882326245307922,1.7674641609191895
1772797656237701600,8.11870166015625,-1.7357354164123535,0.9891758561134338,1.2843246459960938
1772797656247727600,8.1287275390625,-1.8837993144989014,0.9657281041145325,1.0355733633041382
1772797656257754600,8.138754638671875,-1.886458158493042,0.7322897911071777,0.9921590685844421
1772797656267780600,8.148780517578125,-1.7814104557037354,0.4473274052143097,1.054705023765564
1772797656277806600,8.158806640625,-1.66567063331604,0.2086179107427597,1.1127216815948486
1772797656287832600,8.16883251953125,-1.6058300733566284,-0.03122473880648613,1.0919746160507202
1772797656297858600,8.178858642578126,-1.5601004362106323,-0.19101600348949432,0.9222071766853333
1772797656307885600,8.188885498046876,-1.4965132474899292,-0.23576827347278595,0.7784262895584106
1772797656317911600,8.19891162109375,-1.437211275100708,-0.15516316890716553,0.7182101011276245
1772797656327937500,8.2089375,-1.3683496713638306,-0.09957055747509003,0.8058539032936096
1772797656337963500,8.218963623046875,-1.2841531038284302,-0.15778858959674835,0.9708897471427917
1772797656347990500,8.228990478515625,-1.2442275285720825,-0.24640169739723206,1.0607813596725464
1772797656358016500,8.2390166015625,-1.177458643913269,-0.3116624653339386,1.0246046781539917
1772797656368042500,8.24904248046875,-1.1642929315567017,-0.3510904014110565,0.9024673104286194
1772797656378068700,8.25906884765625,-1.1846011877059937,-0.3050347864627838,0.7285610437393188
1772797656388095700,8.269095703125,-1.1584967374801636,-0.3237116038799286,0.5455325841903687
1772797656398121500,8.27912158203125,-1.1452195644378662,-0.3745548129081726,0.41543078422546387
1772797656408147500,8.2891474609375,-1.1168097257614136,-0.49473637342453003,0.34359678626060486
1772797656418173400,8.29917333984375,-1.0747666358947754,-0.557785153388977,0.2949935793876648
1772797656428199400,8.309199462890625,-1.0097862482070923,-0.6249517202377319,0.21176767349243164
1772797656438226400,8.319226318359375,-0.9699344635009766,-0.6192029714584351,0.06244635954499245
1772797656448252700,8.329252685546875,-0.9448956251144409,-0.62740558385849,-0.1388891339302063
1772797656458278700,8.339278564453124,-0.9449451565742493,-0.6354587078094482,-0.3506498634815216
1772797656468304600,8.3493046875,-0.9279792308807373,-0.6717082858085632,-0.5428648591041565
1772797656478330600,8.35933056640625,-0.9087474942207336,-0.6797667145729065,-0.680743396282196
1772797656488357600,8.369357666015626,-0.8942421674728394,-0.6837315559387207,-0.7393161058425903
1772797656498383600,8.379383544921875,-0.882686197757721,-0.6886677145957947,-0.7017415761947632
1772797656508409600,8.38940966796875,-0.8265388607978821,-0.7274625301361084,-0.5729210376739502
1772797656518435600,8.399435546875,-0.7840327024459839,-0.7624812126159668,-0.4164997339248657
1772797656528462600,8.409462646484375,-0.7656636238098145,-0.8583769798278809,-0.2281993180513382
1772797656538488600,8.419488525390625,-0.7910430431365967,-0.846037745475769,-0.20162709057331085
1772797656548514600,8.4295146484375,-0.8643020391464233,-0.7307990789413452,-0.1837005615234375
1772797656558540500,8.43954052734375,-1.0115705728530884,-0.6060885787010193,-0.18600206077098846
1772797656568567600,8.449567626953124,-1.1691495180130005,-0.5697575807571411,-0.0968165323138237
