time,seconds_elapsed,z,y,x
1772789585186929700,0.0809296875,-0.12874328429102896,0.006058057929947972,0.01755346634192392
1772789585196995800,0.090995849609375,-0.04045417546331882,0.0013309198101982473,0.01752945527867414
1772789585207061800,0.101061767578125,-0.05766717607080936,-0.012603862844221294,0.01812305552395992
1772789585217126700,0.111126708984375,-0.1538824017226696,-0.01737023699581623,0.01775886185406707
1772789585227192600,0.121192626953125,-0.1815671119838953,-0.018963935928046703,0.02031724109998904
1772789585237258800,0.1312587890625,-0.11976911971867084,-0.004844261693395674,0.024165112167177722
1772789585247324700,0.14132470703125,-0.06291384455263614,0.0025708368686959146,0.01923202141285874
1772789585257390800,0.151390869140625,-0.10317103613913059,0.001491480666771531,0.029950289706187322
1772789585267456800,0.161456787109375,-0.17021102071106434,0.0026067849649116397,0.024373768215486778
1772789585277522700,0.171522705078125,-0.14447569095194338,-0.0008085399039089679,0.015768427822366357
1772789585287588600,0.181588623046875,-0.07026420731544494,-0.01598623529151082,0.014909153245063497
1772789585297653800,0.19165380859375,-0.06876841579973697,-0.015971403048560023,0.007245276686828583
1772789585307719700,0.2017197265625,-0.12203764917254448,-0.00898691445607692,0.004863733578845859
1772789585317785900,0.211785888671875,-0.16662673248350618,-0.002574417065270245,-0.008622665987256913
1772789585327851500,0.2218515625,-0.11888824523091315,0.0036064635267481207,-0.011127351417718454
1772789585337917400,0.23191748046875,-0.07100128941833972,0.013711714488267898,-0.010474650529492646
1772789585347983600,0.241983642578125,-0.09554185643494129,0.0009667261403053998,-0.0050107043014839285
1772789585358048800,0.252048828125,-0.1462707576751709,-0.017884798921830952,-0.0037743583064060657
1772789585368114700,0.26211474609375,-0.1555512117177248,-0.021703736155480144,0.0002119987828657031
1772789585378180900,0.272180908203125,-0.10931611476540565,-0.010203633302077651,-0.013192759514926001
1772789585388246800,0.282246826171875,-0.07325812843441963,-0.0009107581693679094,-0.007737188389617949
1772789585398312700,0.292312744140625,-0.101236268684268,0.008312668456323445,-0.0005409384762868285
1772789585408379000,0.30237890625,-0.14238193354308604,0.007296805944666266,0.0026987832304555923
1772789585418444800,0.31244482421875,-0.1298135438710451,0.006559650776535272,0.010403832049295306
1772789585428510700,0.3225107421875,-0.08148059785664082,0.002939925909414887,0.019327134084096177
1772789585438575900,0.332575927734375,-0.08118190717101097,-0.0129050012152642,0.02094600399020128
1772789585448641800,0.342641845703125,-0.11679624138772488,-0.0067857876826077695,0.028035743055446073
1772789585458707700,0.352707763671875,-0.13759236117899418,-0.006319704540818929,0.03460196057008579
1772789585468774000,0.36277392578125,-0.11544365773499012,0.008877426199615,0.0293798602739349
1772789585478839800,0.37283984375,-0.08491992465555667,0.014244761919043957,0.023051095643825827
1772789585488905700,0.38290576171875,-0.09225275176167487,0.007521445013396442,0.02110789828733541
1772789585498971600,0.3929716796875,-0.1351987440407276,-0.001961509331315756,0.016343213769327847
1772789585509036800,0.403036865234375,-0.1350549516558647,-0.011975976736843585,0.009557243423629552
1772789585519102700,0.413102783203125,-0.1045347257077694,-0.011159618852660058,0.0018225483851972966
1772789585529169000,0.4231689453125,-0.08718027080297469,-0.0016054259026423096,-0.0004985423729754984
1772789585539234800,0.43323486328125,-0.10274141255021095,-0.000762654935568571,0.0006277582432143389
1772789585549300700,0.44330078125,-0.13611118271052836,0.0040119755877181884,-0.006909130934486165
1772789585559366700,0.45336669921875,-0.11680500921607016,0.0024426439117640254,-0.004482908434560522
1772789585569432800,0.463432861328125,-0.0986959365516901,-0.006004720307514071,-0.0012809614549390972
1772789585579497700,0.473497802734375,-0.10289455728530883,-0.007378821672312915,-0.007572371483035385
1772789585589564000,0.48356396484375,-0.11381517975032329,-0.008994695903733372,-0.004352605718933046
1772789585599629800,0.4936298828125,-0.1296791038364172,-0.005658573750965297,-0.008015375143336131
1772789585609695700,0.50369580078125,-0.11277063913345337,-0.003971716642566025,-0.0009324037455953657
1772789585619761700,0.51376171875,-0.1084334867119789,0.0038225539628416296,0.005201943424111232
1772789585629827800,0.523827880859375,-0.11202771181166171,0.008542422091588377,0.02015018657054752
1772789585639893800,0.533893798828125,-0.12609481560885905,0.0016863456517457961,0.017855682425200938
1772789585649959000,0.543958984375,-0.13581892176568508,-0.0030429478924721477,0.01649490633285604
1772789585660024800,0.55402490234375,-0.10858429335951804,-0.009185213507153093,0.014708296910719945
1772789585670090800,0.5640908203125,-0.08942951103448868,0.004877141049690544,0.02077298551085405
1772789585680156700,0.57415673828125,-0.12160276488661766,0.005079604819230735,0.019333152832929044
1772789585690222800,0.584222900390625,-0.1227992811948061,0.003106879974156618,0.021279857320757583
1772789585700288800,0.594288818359375,-0.1235439620822668,0.002805485874786973,0.015610031523415818
1772789585710354700,0.604354736328125,-0.11172843660414218,0.0019262553548440337,0.009905965529754757
1772789585720419800,0.614419921875,-0.10320260032117366,-0.009354249931126832,0.011211641300842165
1772789585730485800,0.62448583984375,-0.12055997783541679,-0.015704641871154307,0.0002895666642580181
1772789585740551700,0.6345517578125,-0.11516893244683742,-0.007608356111869215,0.0014871789509896189
1772789585750617900,0.644617919921875,-0.10903320617079734,-0.003303863850980997,-0.003197700062766671
1772789585760683800,0.654683837890625,-0.10918225925266742,-0.006912336671724915,-0.007967462614690885
1772789585770749700,0.664749755859375,-0.11696224560439586,-0.005000365570560097,-0.004261155442660675
1772789585780816000,0.67481591796875,-0.11980419103205203,-0.008594882931187748,-0.008058474499545991
1772789585790880800,0.684880859375,-0.11142506974339485,-0.007391315827704966,-0.003608856413234025
1772789585800946700,0.69494677734375,-0.10903262164890766,-0.006303082199580967,0.0020730616807006297
1772789585811012900,0.705012939453125,-0.12309563379287719,-0.010410773246735333,-0.0058199839909095314
1772789585821078800,0.715078857421875,-0.10723054066300391,-0.008736373761110007,0.002073381341109052
1772789585831144700,0.725144775390625,-0.11097148075699806,0.00008406155426055192,-0.0018099354987964032
1772789585841211000,0.7352109375,-0.10753215395808219,0.008359576337970792,0.009646602207515387
1772789585851276800,0.74527685546875,-0.10483692352473735,0.00560242311693728,0.026089002034999427
1772789585861342700,0.7553427734375,-0.10977028827369212,0.004443243144452572,0.018987015409534794
1772789585871407900,0.765407958984375,-0.11575929955542087,-0.0016178104601800442,0.01828652985682711
1772789585881473800,0.775473876953125,-0.10782441490292549,-0.006233377964235842,0.019928269181866198
1772789585891539700,0.785539794921875,-0.11141571739315986,-0.006950659388117492,0.020451735933544112
1772789585901606000,0.79560595703125,-0.1015361284136772,0.008932517387717961,0.014130707085318862
1772789585911671800,0.805671875,-0.10736731878519058,0.0017904270807281135,0.008089572890708222
1772789585921737700,0.81573779296875,-0.12202829682230949,0.007104936634376645,0.002365605753334239
1772789585931803600,0.8258037109375,-0.108856680560112,-0.006314407311193645,0.00520082004610449
1772789585941868800,0.835868896484375,-0.11648469122052192,-0.01756594223100692,0.0010986910900566726
1772789585951934700,0.845934814453125,-0.10765957973003387,-0.005976005669683217,-0.0023162958520464598
1772789585962001000,0.8560009765625,-0.10841302844583987,-0.004060015980526805,-0.005546637809090316
1772789585972066800,0.86606689453125,-0.11140753408670424,-0.005335954200476408,-0.01135151556241326
1772789585982132700,0.8761328125,-0.09988426955342292,-0.006726824036985635,-0.0029847057660575952
1772789585992198700,0.88619873046875,-0.11080723010599612,-0.001050093574821949,0.007811705797398463
1772789586002264800,0.896264892578125,-0.11903379118144511,0.0009871844064444303,0.0016365608264226465
1772789586012330800,0.906330810546875,-0.1007785880446434,-0.008387194997258485,-0.0015524718726985156
1772789586022396000,0.91639599609375,-0.10990472830832004,-0.0025937062876299024,0.0005433404959272593
1772789586032461800,0.9264619140625,-0.1178401974827051,0.004520582696981728,0.0003772266814019531
1772789586042527700,0.93652783203125,-0.11934417230486868,0.001008811716362834,0.004274900840222836
1772789586052593700,0.94659375,-0.10662672955095767,-0.007968531193770468,0.01399095155475661
1772789586062659800,0.956659912109375,-0.10243746116757392,0.003096395112760365,0.024870721419574693
1772789586072725800,0.966725830078125,-0.11994564532935618,-0.0006277399769052863,0.017380192134249954
1772789586082791700,0.976791748046875,-0.11500760440528392,-0.0031598888030275702,0.020225416364381087
1772789586092856800,0.98685693359375,-0.11545768626034258,0.002569192900881171,0.017555210774438456
1772789586102922800,0.9969228515625,-0.11979893033504485,-0.006078625793941319,0.02082131816460751
1772789586112988700,1.00698876953125,-0.10917232238054275,-0.0038640915496274825,0.015385182392131536
1772789586123054800,1.017054931640625,-0.11186638377010821,-0.003664038932882249,-0.0002491159228608012
1772789586133120800,1.027120849609375,-0.11500468179583549,-0.002697897314466536,-0.00762850385075435
1772789586143186700,1.037186767578125,-0.10363280843198298,-0.005332483601756394,0.006122601932985708
1772789586153252900,1.0472529296875,-0.10377776986062526,0.006501015924476087,-0.0022488109732512382
1772789586163318800,1.05731884765625,-0.10332768800556659,0.00036773733384907244,-0.00019528511008247732
1772789586173383700,1.0673837890625,-0.10751286473572254,-0.005433423225581646,-0.0007206058921292424
1772789586183449900,1.077449951171875,-0.1100543659120798,0.0015108794869855046,-0.008254471995681524
1772789586193515800,1.087515869140625,-0.10975333713889121,-0.0027241277342662214,-0.00868978553987108
1772789586203581700,1.097581787109375,-0.11768529918193817,-0.002410897066630423,-0.0014011994342785327
1772789586213648000,1.10764794921875,-0.11589140150249004,0.0013887874772772193,0.0005354677167255431
1772789586223713800,1.1177138671875,-0.11454524759054183,-0.008270838608592748,0.010879824663745239
1772789586233779700,1.12777978515625,-0.10930617789328098,-0.004601392848230898,0.010087980166310444
1772789586243845600,1.137845703125,-0.10466565861105918,-0.005988865151256323,0.01743937497558072
1772789586253910800,1.147910888671875,-0.10451894361674785,-0.006790354259870946,0.014918103736499324
1772789586263976700,1.157976806640625,-0.10587152726948261,-0.005029372469335794,0.018768778682127594
1772789586274043000,1.16804296875,-0.1166466037839651,-0.0018452260078862309,0.025976143644517287
1772789586284108800,1.17810888671875,-0.11006488730609416,0.0005855448029935359,0.01837324915905483
1772789586294174700,1.1881748046875,-0.1120107606768608,-0.009326119815185666,0.026939691447047515
1772789586304240600,1.19824072265625,-0.11126432622373103,-0.008254216267354786,0.009480287463590501
1772789586314306800,1.208306884765625,-0.11186346116065979,-0.00431928797122091,0.013130617531528695
1772789586324372700,1.218372802734375,-0.1144073004245758,-0.003555719720199704,0.009002194223599509
1772789586334438000,1.22843798828125,-0.11351590454280376,-0.00774542649500072,0.0063425191608257585
1772789586344503800,1.23850390625,-0.10857669457495212,0.000025718963146209716,-0.0046863403184805065
1772789586354569700,1.24856982421875,-0.11575871503353118,-0.010797799802944064,0.0160330153089948
1772789586364635600,1.2586357421875,-0.10902151573300362,-0.007664579811133444,-0.0035322109804488714
1772789586374701800,1.268701904296875,-0.11844517763853073,-0.006524615995772183,-0.00430649242172949
1772789586384767700,1.278767822265625,-0.12682780605852603,0.0010065832266584038,-0.002292138658324256
1772789586394834000,1.288833984375,-0.11605097597837448,-0.0069125193348154425,0.0011675550751853734
1772789586404899800,1.29889990234375,-0.09748831432759761,-0.004729805000871419,0.012601743952371179
1772789586414965800,1.3089658203125,-0.10796820728778839,-0.00969933704175055,0.004693866037810221
1772789586425030700,1.31903076171875,-0.11589081698060034,-0.006260192905925214,0.006007231925008818
1772789586435096800,1.329096923828125,-0.1117015485972166,-0.0053559375425800675,0.005398498042672872
1772789586445162800,1.339162841796875,-0.11125088222026824,-0.002990961976908147,0.013081006236141546
1772789586455229000,1.34922900390625,-0.10945640001893042,-0.0020794731551781295,0.01406247328785248
1772789586465294800,1.359294921875,-0.11319441750347614,0.0030633330933749676,0.014046271071722731
1772789586475360800,1.36936083984375,-0.10705810670554637,-0.0013401625625789164,0.02094407689459622
1772789586485426700,1.3794267578125,-0.11050094063580035,-0.004737805644236505,0.0107975349414628
1772789586495492600,1.38949267578125,-0.11199614762961864,-0.010452931888028979,0.014736536624515429
1772789586505557800,1.399557861328125,-0.11394260552227496,-0.0018737214500084518,0.014732362772896884
1772789586515623700,1.409623779296875,-0.11005085878074168,-0.0025838059481233357,0.007837689622025936
1772789586525689900,1.41968994140625,-0.12081833651065825,-0.008756393635831772,0.01205745360837318
1772789586535755800,1.429755859375,-0.11408230625391005,-0.002096132029034197,-0.0010985084269661456
1772789586545821700,1.43982177734375,-0.10300795453190803,0.00298679725844413,0.007363779366808012
1772789586555887600,1.4498876953125,-0.10719546934962272,0.000936111806333065,0.0017315182340331375
1772789586565953800,1.459953857421875,-0.11482464905381203,-0.009739267193339764,-0.0010588522700127213
1772789586576019700,1.470019775390625,-0.11273089164495467,-0.016442345028556883,0.004777306537562981
1772789586586086000,1.4800859375,-0.1050964512437582,-0.006340382002666592,-0.001906573406839743
1772789586596150800,1.49015087890625,-0.11407470746934413,-0.011099705358967184,-0.0024549554040655492
1772789586606216700,1.500216796875,-0.10899053607285022,-0.00022807313483208416,-0.0015637056527659295
1772789586616282600,1.51028271484375,-0.10928688867092132,0.006263919232971966,-0.002464737012563273
1772789586626348800,1.520348876953125,-0.10853986969590186,-0.0020865970157086847,0.011727408803254366
1772789586636414700,1.530414794921875,-0.10539338836371898,0.001434124456346035,0.010069101935904472
1772789586646481000,1.54048095703125,-0.10569441713690757,-0.009447481172531842,0.004209827114222571
1772789586656546800,1.550546875,-0.12304828751981257,-0.008050254660472274,0.012197802793979645
1772789586666612700,1.56061279296875,-0.11826514489650726,-0.005623502437584102,0.010730059195822103
1772789586676677600,1.570677734375,-0.1043465096592903,-0.0008497486971318721,0.016115971751557663
1772789586686743800,1.580743896484375,-0.11497428665757178,-0.0006261325417086482,0.015155556621029973
1772789586696809700,1.590809814453125,-0.11916297051906585,0.005779825510457158,0.01563471844010055
1772789586706876000,1.6008759765625,-0.11826397585272788,-0.0014070172537118196,0.008209865668974817
1772789586716941800,1.61094189453125,-0.10315350048243999,-0.006087101361341774,0.005557634127140045
1772789586727007700,1.6210078125,-0.09672259065210818,-0.008395926292985677,0.012401873998716473
1772789586737073700,1.63107373046875,-0.09567337386012077,0.00011467588823288679,0.008126434302376582
1772789586747139600,1.6411396484375,-0.11392974604070186,-0.005909625902585685,0.009038498512841761
1772789586757205800,1.651205810546875,-0.11632277865707874,-0.014010368641279638,0.00220723685384728
1772789586767271700,1.661271728515625,-0.09477554823756218,-0.0023092267904430627,0.004452933421405032
1772789586777336800,1.6713369140625,-0.11182663628160953,-0.0059573009692132466,0.008572926827706396
1772789586787402800,1.68140283203125,-0.11765607308745384,-0.0013643471557646988,-0.002473815368162468
1772789586797468700,1.69146875,-0.12768939132392407,-0.004021108742244542,-0.00543308529886417
1772789586807534600,1.70153466796875,-0.10509703576564788,-0.007951287798024714,-0.0019356716371607035
1772789586817600800,1.711600830078125,-0.10331482852399348,-0.0032271818855777383,0.002287489882670343
1772789586827666700,1.721666748046875,-0.09748305363059043,0.0033249797042459246,-0.0017922445784788578
1772789586837732900,1.73173291015625,-0.12921031728088855,-0.007239997723512351,0.0017886461155954747
1772789586847798800,1.741798828125,-0.12681728466451167,-0.0016714403435587881,0.010154871390061453
1772789586857865000,1.751864990234375,-0.10227905573546886,-0.008888166789337992,0.009985223044734448
1772789586867929600,1.7619296875,-0.10287643710672854,-0.005763312767073512,0.010925864895712584
1772789586877995800,1.771995849609375,-0.10841302844583987,-0.009505823763646185,0.017959608590556307
1772789586888061700,1.782061767578125,-0.12292144626975059,-0.011875365906581281,0.016179319311352445
1772789586898128000,1.7921279296875,-0.11454349402487277,0.0024024214992299673,0.013645882710441946
1772789586908193800,1.80219384765625,-0.11110182913839817,-0.0015018559303134678,0.019907975312508642
1772789586918260000,1.812260009765625,-0.10032616810202598,-0.0011022621534764767,0.015123197854543104
1772789586928326000,1.822325927734375,-0.10302198305726051,0.0005498524351045489,0.013496181174600497
1772789586938391800,1.832391845703125,-0.11738485493063926,0.0006352291636168956,0.008864767647441476
1772789586948457700,1.842457763671875,-0.11827741985619067,-0.014824936427175998,0.010862197675509378
1772789586958523000,1.85252294921875,-0.11423428194522857,-0.007180084229819477,0.015758353952923788
1772789586968588800,1.8625888671875,-0.10630056633651255,-0.0006529840160161256,0.0018183836667332797
1772789586978655000,1.872655029296875,-0.10615268229842185,-0.00018909283131361007,0.0011092398835346102
1772789586988721000,1.882720947265625,-0.11153729794621467,-0.00806501383818686,-0.00255564843271859
1772789586998786600,1.89278662109375,-0.10928279701769351,-0.00550926494076848,0.00483097295355983
1772789587008852700,1.902852783203125,-0.11676117007434367,-0.009166508806683123,0.0040755697426851836
1772789587018918700,1.912918701171875,-0.11077683496773243,-0.0010245572747662663,-0.009167604785226284
1772789587028984800,1.92298486328125,-0.11481938835680484,-0.007117540387623011,-0.005820267118699848
1772789587039050800,1.93305078125,-0.11422083794176578,-0.01131820694785565,0.00358222413463518
1772789587049117000,1.943116943359375,-0.10943068105578421,-0.009284509163163602,-0.00034279468883760273
1772789587059181600,1.953181640625,-0.10434534061551093,-0.006892609057947993,0.014067112930351868
1772789587069247700,1.963247802734375,-0.09716098206937313,-0.00409326066300273,0.01949125687093474
1772789587079313700,1.973313720703125,-0.10538871218860149,-0.0043520942622795695,0.016978789992816747
1772789587089379800,1.9833798828125,-0.11137012468576431,-0.00042889293655753134,0.014955823664693162
1772789587099445800,1.99344580078125,-0.10298983435332774,-0.008989435206726192,0.023751699927542357
1772789587109512000,2.003511962890625,-0.1004512557864189,-0.008833112133853138,0.022656059311097487
1772789587119577900,2.013577880859375,-0.11317103662788867,-0.009543525425530969,0.014773544166656211
1772789587129643800,2.023643798828125,-0.1152700547337532,-0.009321882031485438,0.007766980739682913
1772789587139709700,2.033709716796875,-0.11033084476590156,-0.005326674915477633,0.01208635090929456
1772789587149775600,2.043775634765625,-0.10629062946438789,-0.007160575811751187,0.007627234342275187
1772789587159840800,2.0538408203125,-0.1101765309870243,-0.0023394027329981327,0.013535809932090342
1772789587169907000,2.063906982421875,-0.11616145061552524,-0.008472315997444092,0.012230051962612195
1772789587179972900,2.073972900390625,-0.11467267336249351,-0.009470825515501201,-0.0029664668564684687
1772789587190038800,2.084038818359375,-0.11108078635036944,-0.005857822650112211,-0.0030264260159339755
1772789587200104700,2.094104736328125,-0.11227554909288882,-0.00859407921358943,-0.0005568392983172089
1772789587210170600,2.104170654296875,-0.11452303575873374,-0.0025673662699759003,-0.0014193926780950276
1772789587220236800,2.11423681640625,-0.12604337768256663,-0.004106777731701731,0.002341923483647406
1772789587230302700,2.124302734375,-0.11407236938178539,-0.00771788090094924,0.003943166401516646
1772789587240369000,2.134368896484375,-0.1142196688979864,-0.003435710069723427,0.006096033586468547
1772789587250434800,2.144434814453125,-0.10374445211291312,-0.0016428718362003563,0.005985632014553994
1772789587260499700,2.154499755859375,-0.1031482397854328,-0.0035731457790359853,0.011511838956968858
1772789587270565600,2.164565673828125,-0.1092833815395832,-0.0025067951891571284,0.010942322840169072
1772789587280631800,2.1746318359375,-0.11272679999172687,-0.0006859364375472069,0.012520933801122009
1772789587290697700,2.18469775390625,-0.10494389103054999,-0.005668656753562391,0.008986320801032706
1772789587300764000,2.194763916015625,-0.11780921782255172,-0.0030699089646339414,0.020243326480407265
1772789587310829800,2.204829833984375,-0.11990472879707813,-0.003492518290877342,0.012170750390272586
1772789587320895700,2.214895751953125,-0.11750585096180438,-0.0006333294674754142,0.010127033535065128
1772789587330961700,2.224961669921875,-0.10822539691925048,-0.0074373834591358896,0.014975743074715137
1772789587341027800,2.23502783203125,-0.10837328095734118,-0.010452164703048765,0.01352634798400104
1772789587351093800,2.24509375,-0.12228840906322001,-0.008493212655000389,0.016972515515657143
1772789587361159700,2.25515966796875,-0.12258300809562206,0.0021605390347540377,0.014492590067116543
1772789587371224800,2.265224853515625,-0.10327800364494323,-0.0017635025411844253,0.012903521644230932
1772789587381291300,2.275291259765625,-0.10522212345004081,-0.004025236928090453,-0.0017085392172448337
1772789587391357200,2.285357177734375,-0.10956102943718432,-0.00849781576488167,-0.0010173877484630793
1772789587401423000,2.295423095703125,-0.11748889982700347,-0.0051044469995424144,0.003724500415846705
1772789587411489300,2.3054892578125,-0.11270166555047034,-0.0049291634978726505,0.0016212171268183736
1772789587421555200,2.31555517578125,-0.10626900215446948,-0.013418795956298708,0.00845619597970508
1772789587431621400,2.325621337890625,-0.1067126542687416,-0.006125314479880035,0.010606158821517601
1772789587441687000,2.33568701171875,-0.10700608425736427,-0.0064574325110763305,0.010626553155574947
1772789587451753200,2.345753173828125,-0.1230167233377695,-0.012437127975188195,0.005909689834667369
1772789587461819100,2.355819091796875,-0.12151742469072341,-0.005336100330948829,0.007591478042304515
1772789587471885300,2.36588525390625,-0.10865092885494232,-0.00020706687942147255,0.01335545752965845
1772789587481950200,2.3759501953125,-0.1074538280248642,-0.007944090872257947,0.013151212794985621
1772789587492016000,2.38601611328125,-0.10221709641516208,-0.009255794525332749,0.012902590062469244
1772789587502082000,2.39608203125,-0.113287941005826,-0.01037672484666109,0.0200545259100385
1772789587512148200,2.406148193359375,-0.11358487812578677,-0.0041795141743496056,0.010761184986447915
1772789587522214100,2.416214111328125,-0.11388298428952694,-0.0017981354631483554,0.006918154491158202
1772789587532280300,2.4262802734375,-0.1080465332210064,-0.004370214440859854,0.00029907427811995147
1772789587542346200,2.43634619140625,-0.10714578498899936,-0.010157200344465673,0.015412262195302173
1772789587552412200,2.446412109375,-0.11582476600706576,-0.008213665061257779,0.016007679938338695
1772789587562478300,2.456478271484375,-0.12106208213865756,-0.007216543782688677,0.002855489895818755
1772789587572544000,2.4665439453125,-0.11327566604614257,-0.003922799466922879,0.004096941324276849
1772789587582610200,2.476610107421875,-0.10669278052449226,-0.007071618886664509,0.00023425628044642508
1772789587592675300,2.48667529296875,-0.1090875667065382,-0.004516600641608238,0.004872839333908632
1772789587602741200,2.4967412109375,-0.12045827102661132,-0.012271306421607732,0.002829177277628332
1772789587612807200,2.50680712890625,-0.10848843176960944,-0.004345189597457647,0.000654728448530659
1772789587622873300,2.516873291015625,-0.10848726272583008,-0.002260894136689603,0.00820344506134279
1772789587632939000,2.52693896484375,-0.11566577605307102,-0.012997867130488156,0.007325703245587647
1772789587643005200,2.537005126953125,-0.1078852051794529,-0.008822371544130146,0.0026151418013032526
1772789587653071000,2.547071044921875,-0.11521218706667423,-0.0008585895907133817,0.004214101430540904
1772789587663137300,2.55713720703125,-0.11461539021730423,-0.01416917593218386,-0.0026457835347391662
1772789587673203200,2.567203125,-0.10952654264569282,-0.01378072460386902,0.01048180178948678
1772789587683269400,2.577269287109375,-0.11431728405356406,-0.005912804240360856,0.006749985716864466
1772789587693335300,2.587335205078125,-0.10998188519775867,-0.002900288018770516,0.014106358095351606
1772789587703400200,2.597400146484375,-0.11162906788289546,-0.007493607158400118,0.015323560998542233
1772789587713466000,2.607466064453125,-0.10818389586508273,-0.010060754232667385,0.021465506952814756
1772789587723532300,2.6175322265625,-0.12284604294598102,-0.002793868502229452,0.007859508728189394
1772789587733598200,2.62759814453125,-0.11835223865807055,-0.0020485665602609513,0.00862367976740934
1772789587743664400,2.637664306640625,-0.09904664968550204,-0.005122019188851118,0.016199576648091896
1772789587753730300,2.647730224609375,-0.10667875199913977,-0.008246361754462122,0.0056003224913962184
1772789587763796000,2.6577958984375,-0.12418693616092204,-0.007488565657101571,0.0027280641238670795
1772789587773862100,2.667862060546875,-0.10428455033898353,-0.005295147266052663,0.0120881318744272
1772789587783928000,2.677927978515625,-0.1113181022375822,0.0002906535096466541,0.013181370471231638
1772789587793994200,2.687994140625,-0.10952011290490626,-0.003530146887525916,0.005380368730938062
1772789587804060200,2.69806005859375,-0.10592471876144409,-0.003910122648440301,0.0019388317086268215
1772789587814125300,2.708125244140625,-0.11310615469813347,-0.012765446614101528,0.00435888019609265
1772789587824191000,2.71819091796875,-0.11220832907557486,-0.011737893664650619,-0.01156247316566296
1772789587834257200,2.728257080078125,-0.11445464669764041,-0.003617679040506482,0.0024761443225666878
1772789587844323000,2.738322998046875,-0.11310790826380253,-0.004870199852250516,0.004409523537941277
1772789587854389200,2.74838916015625,-0.11445756930708885,-0.0098387455124408,0.0013455602569039911
1772789587864455200,2.758455078125,-0.11805647058188914,-0.010486140037886798,0.011561568983364849
1772789587874521300,2.768521240234375,-0.10878244628012179,-0.005905278521031141,0.013466032631509006
1772789587884587300,2.778587158203125,-0.11357201864421367,-0.007188961656019091,0.01428211652105674
1772789587894653200,2.788653076171875,-0.112525139939785,-0.005513758452795446,0.016693579843267796
1772789587904719000,2.798718994140625,-0.10743746141195297,-0.008652166076377034,0.012372410442214458
1772789587914785000,2.808784912109375,-0.12824410259723662,-0.0009146671595051884,0.02066332372445613
1772789587924851200,2.818851318359375,-0.12165829446613788,-0.000347461730800569,0.011733117024833336
1772789587934916400,2.828916259765625,-0.11507190181314944,-0.0023916809095069764,0.007053389110229909
1772789587944982300,2.838982177734375,-0.11297639083862304,-0.009941804028116166,0.01037540053925477
1772789587955048200,2.849048095703125,-0.11133271528482437,-0.0064782195707783095,0.01382555012628436
1772789587965114000,2.859114013671875,-0.11672259162962435,-0.00032415392044931647,0.017830940709589047
1772789587975180000,2.869179931640625,-0.10790332535803318,-0.007092259815894067,0.009208576116431505
1772789587985246200,2.87924609375,-0.1088040735900402,-0.008462086864374578,0.004065632870560511
1772789587995312000,2.88931201171875,-0.10835457625687121,-0.007321794255450368,0.008917529881140217
1772789588005378300,2.89937841796875,-0.11179682566523551,0.0000636763533577323,0.0042316644866950805
1772789588015444200,2.9094443359375,-0.11119652168452739,0.003770568047277629,0.0038018399683758613
1772789588025510400,2.919510498046875,-0.10880232002437114,-0.004907280459627509,0.011915423922333865
1772789588035576000,2.929576171875,-0.10745733515620232,-0.007070230647176504,0.009567901814961805
1772789588045642200,2.939642333984375,-0.10296879156529903,0.0014816533925011753,0.005112164515117183
1772789588055708200,2.949708251953125,-0.10985329038202762,0.002527911042422056,0.00874365288526751
1772789588065773300,2.959773193359375,-0.10506722514927387,-0.0058125587362796065,0.004023894354375079
1772789588075839200,2.969839111328125,-0.1198836860090494,-0.003049194970168173,0.0010001260864082723
1772789588085905400,2.979905517578125,-0.11285013411045074,-0.0028378537744283673,0.0027108024618122725
1772789588095971000,2.98997119140625,-0.10327391199171543,-0.003998896910436451,0.010844305825792253
1772789588106037200,3.000037353515625,-0.10895838736891746,0.001913505471125245,0.01167252767770551
1772789588116103200,3.010103271484375,-0.11569441762566565,0.0001562865402549505,0.010383940038736909
1772789588126169000,3.020169189453125,-0.11838847901523113,-0.00828172532878816,0.01784881429299712
1772789588136235300,3.0302353515625,-0.10941256087720394,-0.004812149522081017,0.002756833560625091
1772789588146301200,3.04030126953125,-0.11061492240428925,-0.007972878575325013,0.005209496542904526
1772789588156367400,3.050367431640625,-0.10732523320913315,-0.010438647634349763,0.010171174070890993
1772789588166433000,3.06043310546875,-0.10687632039785384,-0.006240976748801768,0.010039218254294246
1772789588176499200,3.070499267578125,-0.1082242278754711,-0.00560249618217349,0.004189478445937857
1772789588186564000,3.080564208984375,-0.11047054549753665,0.00019157704934477806,0.010346010047988966
1772789588196630300,3.09063037109375,-0.1124117426931858,-0.006384001948684453,0.0028134317192249
1772789588206696200,3.1006962890625,-0.1064297456741333,-0.005527275521494448,0.008496473191166296
1772789588216762400,3.110762451171875,-0.11286299359202384,-0.005112666838616132,-0.004646592829981818
1772789588226828000,3.120828125,-0.1167553248554468,-0.01224346856661141,-0.004239473333815112
1772789588236894200,3.130894287109375,-0.11990063714385032,-0.007554251304455101,-0.0007340498955920338
1772789588246960000,3.140960205078125,-0.11795885542631149,-0.0047553778335452076,0.0004278517569415271
1772789588257026300,3.1510263671875,-0.11751169618070124,-0.008718509310856461,0.005281639330508187
1772789588267092200,3.16109228515625,-0.10763912146389484,-0.006689487701281905,-0.007927742525655776
1772789588277158100,3.171158203125,-0.11796236255764961,-0.010039967172965406,0.008792524395138024
1772789588287224300,3.181224365234375,-0.1065904891937971,-0.008871873241662978,0.011078260712139307
1772789588297290000,3.1912900390625,-0.11377192513048648,0.006155088563635945,0.004673818763624877
1772789588307356200,3.201356201171875,-0.10628770685493945,-0.004562120283767581,0.011200014795130117
1772789588317421300,3.21142138671875,-0.11885785009264946,-0.0021771248433738945,0.011565003049466758
1772789588327487200,3.2214873046875,-0.10868249303698539,-0.0023535773888230323,0.012567677285987884
1772789588337553200,3.23155322265625,-0.11211889722645282,-0.002507306645810604,0.014384307387052103
1772789588347619300,3.241619384765625,-0.1142114855915308,-0.006486220214143395,0.011805506407609209
1772789588357685000,3.25168505859375,-0.12154372817575931,-0.01082322650514543,0.013322733436990529
1772789588367751200,3.261751220703125,-0.10897300041615962,-0.012009440615028143,0.011199174544913693
1772789588377816600,3.271816650390625,-0.11794599594473838,0.0016117460455745457,0.009438886874122544
1772789588387882800,3.2818828125,-0.10746551846265792,-0.0011220628324896096,0.0029989169545006004
1772789588397948700,3.29194873046875,-0.11464987700879573,-0.007391315827704966,0.0027334983508102593
1772789588408014800,3.302014892578125,-0.11031330910921096,-0.005962561666220426,0.007628339453972875
1772789588418080800,3.312080810546875,-0.11913958964347839,-0.008125548386387526,-0.0008711659444961697
1772789588428147000,3.32214697265625,-0.11554945619702338,-0.006651895637251436,0.005716642347443849
1772789588438212900,3.332212890625,-0.11240648199617861,-0.005351005639135837,0.0023684735638555138
1772789588448278800,3.34227880859375,-0.10971417417228221,-0.004438859230279923,-0.0014386362346820532
1772789588458343700,3.35234375,-0.10432663591504096,0.0012339622417464851,-0.0006676335958763957
1772789588468409900,3.362409912109375,-0.11151216350495814,-0.0033707550747320053,0.0013619542692787944
1772789588478475800,3.372475830078125,-0.10882219376862048,-0.004875752810202538,-0.0015744462424889206
1772789588488542000,3.3825419921875,-0.11256138029694557,-0.0026619857508689165,0.006578985664667561
1772789588498607900,3.39260791015625,-0.10837503452301024,-0.0005944952944293618,0.014367365385405718
1772789588508673800,3.402673828125,-0.10762918459177016,-0.012642806615121661,0.006151590565452352
1772789588518739700,3.41273974609375,-0.11017477742135524,-0.007244564300775528,0.004908257707161828
1772789588528805600,3.4228056640625,-0.11556348472237586,-0.007488529124483466,0.013598289842205121
1772789588538871800,3.432871826171875,-0.13217325873970984,-0.0038549218624830245,0.013108314368175342
1772789588548937700,3.442937744140625,-0.10493746128976345,0.0004383548846468329,0.010138066385732962
1772789588559004000,3.45300390625,-0.0986526819318533,0.0005294307015836239,0.010758938230434433
1772789588569069800,3.46306982421875,-0.12214461667835712,-0.0011881503386422991,0.016805159592116252
1772789588579136000,3.473135986328125,-0.12798106774687767,-0.002484839085675776,0.019249639267940072
1772789588589200600,3.48320068359375,-0.11466624362170695,-0.009013985126093029,0.012871747399633749
1772789588599266800,3.493266845703125,-0.10928688867092132,-0.00488346119262278,0.008856310346350073
1772789588609332700,3.503332763671875,-0.11407529199123381,-0.004318593851476907,0.017573796743899583
1772789588619399000,3.51339892578125,-0.10988134743273258,-0.01100523200854659,0.0041783177311066535
1772789588629464800,3.52346484375,-0.11721125192940235,0.0037483196828514333,-0.0044545225902926176
1772789588639530800,3.53353076171875,-0.11227438004910945,0.0001623144222423434,0.0005528481097891926
1772789588649596700,3.5435966796875,-0.11990589784085749,-0.009673252752423285,0.006795012168679386
1772789588659662800,3.553662841796875,-0.10793488954007625,-0.008309965042583644,0.011602248053625225
1772789588669728800,3.563728759765625,-0.11466916623115539,-0.007261917294375598,0.01140447872551158
1772789588679794700,3.573794677734375,-0.11691314576566218,-0.0034090047258883713,0.017497242642659692
1772789588689860900,3.58386083984375,-0.1181102465957403,-0.004509549846313894,0.012437447635596618
1772789588699926800,3.5939267578125,-0.11900222699940204,-0.00854717133194208,0.008946673777233809
1772789588709993000,3.603992919921875,-0.1082329957038164,0.00014094284065067767,0.006872817512089386
1772789588720058600,3.61405859375,-0.11796353160142897,-0.00842193751707673,-0.0012586034926585852
1772789588730123800,3.624123779296875,-0.12575170125961302,0.0029892814764752983,0.005264021475426852
1772789588740189700,3.634189697265625,-0.10315642309188842,-0.0025790932403877377,0.010590075336396694
1772789588750255900,3.644255859375,-0.09956512060165405,-0.0018525690641254186,0.009186939673358574
1772789588760321800,3.65432177734375,-0.1137795239150524,0.0021526114566251635,0.00903544803922996
1772789588770388000,3.664387939453125,-0.10748948386013507,-0.0071184171704575415,0.006687560605676844
1772789588780453600,3.67445361328125,-0.09596972645819186,-0.004213818302750587,0.0021686036102008073
1772789588790519800,3.684519775390625,-0.11273556782007217,-0.00822217716127634,0.004971605266956612
1772789588800585700,3.694585693359375,-0.11363456248641013,-0.011575177383609116,0.0055422812943812455
1772789588810652000,3.70465185546875,-0.1212695874094963,-0.0084676398223266,0.007947798932995647
1772789588820717800,3.7147177734375,-0.12500935845971106,-0.00594159194342792,0.007392996328137814
1772789588830783700,3.72478369140625,-0.11258826830387114,-0.006821005126461386,0.00033040099814534183
1772789588840850000,3.734849853515625,-0.126053899076581,-0.0041700887588784095,0.0007059928448870777
1772789588850915600,3.74491552734375,-0.10570727661848067,0.0008971680354326963,0.015211625056667252
1772789588860981800,3.754981689453125,-0.10391922415792941,-0.005184234237484634,0.00911194734154269
1772789588871047700,3.765047607421875,-0.11409984191060066,-0.009071341336518525,-0.0009385503585916012
1772789588881112800,3.77511279296875,-0.12412673040628433,-0.007122362693212926,0.009931054305238649
1772789588891178800,3.7851787109375,-0.10721943474709987,-0.003961450976878405,0.014764264881657435
1772789588901245000,3.795244873046875,-0.11095979031920432,-0.0005129179581999778,0.008838884287513792
1772789588911310600,3.805310546875,-0.1156008941233158,-0.00043232700265944003,0.014239976146072149
1772789588921376800,3.815376708984375,-0.1164987197458744,0.0005575242849066854,0.0037862040078267454
1772789588931442700,3.825442626953125,-0.12188625800311564,-0.0016610650800168514,0.004686285519553348
1772789588941508900,3.8355087890625,-0.11245908896625041,-0.008832125753164291,0.006053089493885636
1772789588951574800,3.84557470703125,-0.11171090094745159,-0.008332213407009839,0.0031954624399077145
1772789588961641000,3.855640869140625,-0.11395020430684089,-0.004794723463244736,0.0056434492470696564
1772789588971707000,3.865706787109375,-0.11843582528829574,-0.003724208154901862,0.006369452833523973
1772789588981772500,3.8757724609375,-0.11154840386211871,-0.0053233869798481465,0.007762441561883315
1772789588991838700,3.885838623046875,-0.10332242730855941,-0.004950023622810841,0.01373930574809201
1772789589001904600,3.895904541015625,-0.10437047505676746,-0.004373940767906606,0.009473254934605211
1772789589011970800,3.905970703125,-0.10676350767314434,0.002316533314064145,0.009580240706726908
1772789589022036700,3.91603662109375,-0.12008125440776347,-0.008342040681280196,0.006798902892507612
1772789589032102000,3.926101806640625,-0.11783552130758762,-0.0011919131983071565,0.0035119262442458417
1772789589042167600,3.93616748046875,-0.11005962660908698,-0.00029047084655612704,0.01231979433898814
1772789589052233700,3.946233642578125,-0.10048281996846198,-0.004144114067405462,0.000005379428016021847
1772789589062299600,3.956299560546875,-0.10542612158954143,-0.002027523772232234,0.0062891632720828055
1772789589072365800,3.96636572265625,-0.10917173785865306,-0.00566021771878004,0.01308848628969863
1772789589082431700,3.976431640625,-0.11201485233008861,-0.008483494978584348,-0.004661662534950301
1772789589092498000,3.986497802734375,-0.10693360354304313,-0.005781177217327058,0.007216945641487837
1772789589102563800,3.996563720703125,-0.11456921298801899,-0.002861417313106358,0.003796451407205313
1772789589112628700,4.006628662109375,-0.11995908933281897,-0.0009784165780991315,0.017994049716275183
1772789589122694700,4.016694580078125,-0.11113748497366904,-0.000010083002597093581,0.004044087759032845
1772789589132760800,4.0267607421875,-0.10964169345796107,0.0011007643161341548,0.009869204582786187
1772789589142826800,4.03682666015625,-0.10799684886038302,-0.0062185822539031505,0.015623192399088293
1772789589152893000,4.046892822265625,-0.11114157662689685,-0.01503496244866401,0.013566259869281201
1772789589162958800,4.056958740234375,-0.11398293753266334,-0.012391973659209906,0.009676933413697407
1772789589173024800,4.067024658203125,-0.11772212406098842,-0.00497398902028799,0.0060702689575497055
1772789589183090700,4.077090576171875,-0.11352993306815623,-0.005193038598448038,0.004715886073373258
1772789589193156600,4.087156494140625,-0.11053250481784344,0.0017211612368002534,0.005081650645844638
1772789589203222800,4.097222900390625,-0.10828794076144695,0.0030776538796722886,0.01376938122594729
1772789589213288700,4.107288818359375,-0.11441723729670047,-0.01277180328965187,0.005208345765434205
1772789589223355000,4.11735498046875,-0.12369827586114406,-0.004921418582834303,0.0022596063619013873
1772789589233420800,4.1274208984375,-0.1118763206422329,-0.012418861666135489,0.009930570248048751
1772789589243487000,4.137487060546875,-0.11052782864272594,-0.005309833378531038,0.004640007825568318
1772789589253552600,4.147552734375,-0.11786065574884413,0.0019922697957605122,-0.0004468030525837093
1772789589263617800,4.15761767578125,-0.12458733365535736,-0.0008864639783278107,0.007754897576244548
1772789589273683700,4.16768359375,-0.1084253034055233,-0.000603299655392766,0.011551842173794284
1772789589283750000,4.17775,-0.10468319426774977,-0.004789316635765135,0.00968654149225913
1772789589293815800,4.18781591796875,-0.09869242942035197,0.0006278130421414971,0.008581521126115694
1772789589303882000,4.197882080078125,-0.11889292140603065,-0.0036435076015070077,0.006962797350483015
1772789589313947600,4.20794775390625,-0.11634908214211463,-0.003383249230124056,0.010441780306352302
1772789589324013800,4.218013916015625,-0.12008826867043972,-0.0038565292976796626,0.012773319393303244
1772789589334079700,4.228079833984375,-0.11066343772113323,0.0021806685073301195,0.012390092229377477
1772789589344145700,4.238145751953125,-0.11156009429991244,-0.0027881328811869025,0.009115171345090493
1772789589354211800,4.2482119140625,-0.11843933241963386,-0.004701674884930253,0.003626163741061464
1772789589364277800,4.25827783203125,-0.11364566840231417,-0.0034554742161184548,0.004689737851964309
1772789589374344000,4.268343994140625,-0.11768646822571754,-0.000762654935568571,0.01180389897241257
1772789589384409600,4.27840966796875,-0.11948211947083473,-0.0013865589875727891,0.00593487907485105
1772789589394475800,4.288475830078125,-0.12412439231872557,0.0009842617969959974,0.003122095809597522
1772789589404541700,4.298541748046875,-0.11454817019999027,-0.011009908183664083,-0.0003057414809241891
1772789589414608000,4.30860791015625,-0.12008125440776347,-0.006483443735167384,-0.0010511164881289005
1772789589424672800,4.3186728515625,-0.11873568501770496,0.007003668216988444,0.0023631672010757027
1772789589434739000,4.328739013671875,-0.11664134308695792,-0.0007645546317100524,0.0025195268065668643
1772789589444804600,4.3388046875,-0.10900924077332019,-0.0023998642159625888,0.0036329588080290702
1772789589454870800,4.348870849609375,-0.11214695427715778,-0.0009152151487767696,0.0074817340575158596
1772789589464936700,4.358936767578125,-0.11229776092469691,-0.005922339253686368,0.0005443360097706318
1772789589475003000,4.3690029296875,-0.11050561681091785,-0.0023988778352737427,0.009167476921062916
1772789589485068800,4.37906884765625,-0.11230769779682159,-0.007652524047158658,0.012431565884081647
1772789589495134700,4.389134765625,-0.12473287960588932,-0.008735825771838426,0.009598927140887826
1772789589505201000,4.399200927734375,-0.10976678114235401,-0.005218063441850245,0.016473635215964167
1772789589515266800,4.409266845703125,-0.11275661060810088,-0.010379391727782785,0.013218533276999369
1772789589525332700,4.419332763671875,-0.12502280246317385,-0.005741868120245635,0.0007754139524418861
1772789589535398700,4.429398681640625,-0.10631401033997535,-0.006743592508696019,0.010868015494942665
1772789589545464800,4.43946484375,-0.10915712481141089,-0.00789630620777607,0.008290502290287986
1772789589555530800,4.44953076171875,-0.11589490863382816,-0.013212204000912607,0.011430179422348736
1772789589565597000,4.459596923828125,-0.12457155156433582,-0.006536452564038336,0.012804463450238108
1772789589575662800,4.469662841796875,-0.11050152515769004,-0.009920651642233132,0.0015020842591766267
1772789589585728800,4.479728759765625,-0.11633622266054153,-0.0029068638900294898,0.0036454894960392266
1772789589595793700,4.489793701171875,-0.11319500202536582,-0.004983231772668659,0.008701156317256391
1772789589605859800,4.49985986328125,-0.11274492017030716,-0.00848053583651781,0.0008696863734629005
1772789589615925800,4.50992578125,-0.10780512568056583,-0.006377170349098742,0.0002781958868727088
1772789589625992000,4.519991943359375,-0.1116927807688713,-0.0010751914834603667,0.008814334368146956
1772789589636057900,4.530057861328125,-0.10870587391257286,-0.0033197920724749564,-0.0036859128379728642
1772789589646123800,4.540123779296875,-0.11035305659770965,-0.004324804396554828,-0.004088328759558499
1772789589656189700,4.550189697265625,-0.11229951449036597,-0.0041046223072335125,-0.0013122973081190138
1772789589666255600,4.560255615234375,-0.11633972979187965,-0.006457724772021174,-0.001057217435352504
1772789589676321800,4.57032177734375,-0.11140285791158676,0.0010534911083057523,0.006531337997503578
1772789589686387700,4.5803876953125,-0.11080664558410644,-0.00871701147351414,0.014245492571406065
1772789589696454000,4.590453857421875,-0.0989835213214159,-0.005305193736031651,0.008947861087322234
1772789589706519800,4.600519775390625,-0.11588906341493128,-0.0043650268090888854,0.010261089977202936
1772789589716586000,4.6105859375,-0.12306816126406192,-0.005819719129428267,0.010887341249920426
1772789589726651600,4.620651611328125,-0.11663140621483326,-0.006695369452796876,0.017565512972744182
1772789589736717800,4.6307177734375,-0.10601298156678676,0.007333119367063045,0.01156582503337413
1772789589746783700,4.64078369140625,-0.119627080899477,-0.0014410291211679577,0.016041289946995673
1772789589756849700,4.650849609375,-0.11678513547182083,0.0013255495153367519,0.008642868525069207
1772789589766914800,4.660914794921875,-0.10766367138326167,-0.008760375691205262,0.013064557424839585
1772789589776981000,4.67098095703125,-0.11574293294250965,-0.006994315866753458,0.00980576569144614
1772789589787046700,4.681046630859375,-0.1100549504339695,0.0001562865402549505,0.011222856814600527
1772789589797112600,4.691112548828125,-0.10032792166769504,0.005968443417735398,0.003536284367367625
1772789589807178800,4.7011787109375,-0.10616554177999496,0.0037647593609988687,0.004704095170879736
1772789589817244700,4.71124462890625,-0.1123030216217041,-0.002637472364120185,-0.002245468238694593
1772789589827310800,4.721310791015625,-0.10481821882426738,-0.00634867490697652,0.010160378682240843
1772789589837376800,4.731376708984375,-0.11170037955343723,-0.005615720989927649,0.004969203247316182
1772789589847443000,4.74144287109375,-0.1133487312823534,-0.008072064633481204,0.00290753974346444
1772789589857508600,4.751508544921875,-0.10826222179830074,0.000015197569131851195,0.00718190172757022
1772789589867574800,4.76157470703125,-0.11649170548319816,-0.0020942323328927157,0.00359376844195649
1772789589877640700,4.771640625,-0.10931026954650878,-0.0033077728411182758,0.005431578328367322
1772789589887707000,4.781706787109375,-0.11095979031920432,-0.0020446575701236723,0.011145115403272211
1772789589897772800,4.791772705078125,-0.11201017615497112,-0.001971373138204217,0.006005688421893865
1772789589907838700,4.801838623046875,-0.11051263107359409,-0.0037818566262722013,0.007240271718148142
1772789589917905000,4.81190478515625,-0.10243278499245644,-0.0027624869832769037,0.008039705866994335
1772789589927970800,4.821970703125,-0.10722118831276893,-0.00556165271513164,0.008582717569358647
1772789589938035700,4.83203564453125,-0.10333236418068409,-0.014928031475469469,0.01367582119097933
1772789589948101600,4.8421015625,-0.12114216163754463,-0.009740509302355349,0.013571200905879958
1772789589958167800,4.852167724609375,-0.11964052490293979,-0.000599755991436541,0.0039034097798634317
1772789589968233700,4.862233642578125,-0.11096037484109401,0.000977028338611126,0.00023902378710918126
1772789589978300000,4.8722998046875,-0.11141162573993206,0.004029620842263102,0.00920252996813506
1772789589988365800,4.88236572265625,-0.11186521472632885,0.005330583905614912,0.0029456341309938576
1772789589998431700,4.892431640625,-0.11156301690936088,-0.010329268975742162,0.007268831092352047
1772789590008497700,4.90249755859375,-0.11186579924821853,-0.01084090829230845,0.005708331176824868
1772789590018563800,4.912563720703125,-0.11007423965632915,-0.008666085003875196,0.0025792941697873172
1772789590028629800,4.922629638671875,-0.11471768154799937,-0.004515577728301286,0.0021875549058429896
1772789590038696000,4.932696044921875,-0.11038052912652492,0.0028656550968065857,-0.0008338570082560181
1772789590048761900,4.942761962890625,-0.10902969903945922,-0.00003729980308562517,0.0026299740442540494
1772789590058827800,4.952827880859375,-0.10349135413467883,-0.008607559749670327,0.013580726786050944
1772789590068893700,4.962893798828125,-0.10169453384578227,-0.009140059191174804,0.0025310345812700687
1772789590078959600,4.972959716796875,-0.10079729274511337,-0.005468458006344735,0.004716790255671367
1772789590089025800,4.98302587890625,-0.10678571950495243,-0.0038542277427390218,0.008075462166965008
1772789590099091700,4.993091796875,-0.12040098788142203,-0.004637340944446623,0.0030185897693503646
1772789590109158000,5.003157958984375,-0.11546820765435695,0.0007992606189101934,0.012971024789335206
1772789590119222800,5.013222900390625,-0.1136754790186882,0.003569748245552182,0.011435449252510443
1772789590129288700,5.023288818359375,-0.1171177284270525,-0.00027647885382175443,0.009587318901484832
1772789590139354600,5.033354736328125,-0.10679799446463584,-0.010028751659207046,-0.00008148600468412041
1772789590149420800,5.0434208984375,-0.11891571775972842,-0.0025209333123639224,0.01313175917584449
1772789590159486700,5.05348681640625,-0.120419692581892,-0.004674348486587405,0.0008819978657644242
1772789590169553000,5.063552978515625,-0.11728081003427505,-0.007582198757305741,0.01668251045998186
1772789590179618800,5.073618896484375,-0.1231172611027956,-0.0017390987522900104,0.014396838075062259
1772789590189685000,5.08368505859375,-0.11024901170134543,0.00026325404606759547,0.009707657345524057
1772789590199750700,5.093750732421875,-0.10561726024746894,-0.0054061698924750086,0.007794626798434182
1772789590209816600,5.103816650390625,-0.11264964310228824,-0.001857062576152384,0.003968921897280961
1772789590219882800,5.1138828125,-0.11803776588141918,-0.007664579811133444,0.00006157572781667113
1772789590229948700,5.12394873046875,-0.1160895544230938,-0.009863258899189532,0.003339218292152509
1772789590240014800,5.134014892578125,-0.1159410858631134,0.0016728651156648993,0.003886814838089049
1772789590250080800,5.144080810546875,-0.10861176588833331,-0.0018507059006020426,-0.0023318952799774705
1772789590260147000,5.15414697265625,-0.11294950283169745,-0.003273943636752665,0.0009180464266799389
1772789590270212900,5.164212890625,-0.10980243697762489,-0.005575535110011696,0.003614208441786468
1772789590280278800,5.17427880859375,-0.10485913535654544,-0.005304426551051437,0.008658467953000216
1772789590290344700,5.1843447265625,-0.10710545297861099,-0.00717909784913063,0.005978261558851227
1772789590300410600,5.19441064453125,-0.10710662202239037,-0.005086509484052658,0.005164908482506871
1772789590310475800,5.204475830078125,-0.11727788742482662,-0.006996398225985467,0.009690258686151355
1772789590320542000,5.2145419921875,-0.11562895117402076,-0.001669102256000042,0.009613394057657569
1772789590330607900,5.22460791015625,-0.11577741973400116,0.0011957125905901194,0.002860640994971618
1772789590340673800,5.234673828125,-0.11428338178396225,0.006515007917210459,0.004091534496797248
1772789590350739700,5.24473974609375,-0.11099836876392363,-0.007906681471318006,0.008054647707799449
1772789590360805600,5.2548056640625,-0.10441431419849395,-0.0034916780406609176,0.0012191391319502144
1772789590370871800,5.264871826171875,-0.11593524064421654,-0.003993891941756009,0.002070422199042514
1772789590380938000,5.27493798828125,-0.11070026260018348,-0.007078340888395905,0.008745872241817415
1772789590391004200,5.285004150390625,-0.09902794498503208,0.006041143327765166,0.000580859494721517
1772789590401070000,5.295070068359375,-0.10964987676441669,0.0017309154458343982,0.01003114454569295
1772789590411136300,5.30513623046875,-0.11517945384085178,0.005143390770442784,0.0140286897492595
1772789590421202200,5.3152021484375,-0.11263561457693576,-0.0038884953385218976,0.005690521525498479
1772789590431268000,5.32526806640625,-0.10905074182748795,-0.009750592304952442,0.007718794216401875
1772789590441334300,5.335334228515625,-0.11518354549407958,0.0009634382046759128,0.0038498986274935303
1772789590451400000,5.34539990234375,-0.11712824982106684,0.004782083177380264,0.005057593916822225
1772789590461466000,5.355466064453125,-0.10964403154551983,-0.0029101883582770822,0.005845565956737846
1772789590471532000,5.365531982421875,-0.10605623618662356,0.0011270678011700511,0.0022101959959138183
1772789590481598200,5.37559814453125,-0.10845160689055919,-0.0010288681237027048,0.00606540098618716
1772789590491664100,5.3856640625,-0.12057459088265896,-0.00275287890471518,0.00725304900133051
1772789590501729300,5.395729248046875,-0.10904957278370857,-0.0036274332495406267,-0.001482110050227493
1772789590511795000,5.405794921875,-0.10770575695931911,-0.01041135776862502,-0.0005784118093084544
1772789590521861000,5.415861083984375,-0.12296820802092552,-0.002998122370056808,0.0028898488231468944
1772789590531927000,5.425927001953125,-0.1144417872160673,-0.004473784413188696,0.0010594733245205133
1772789590541993200,5.4359931640625,-0.10860475162565708,0.003591156359761953,0.010522910118009895
1772789590552059100,5.44605908203125,-0.10680559324920177,-0.004301277390494942,0.01114972764630802
1772789590562125300,5.456125244140625,-0.12311550753712654,-0.0022472674701362848,0.013482947233691811
1772789590572191200,5.466191162109375,-0.11563304282724857,0.00266450650151819,-0.002537126395339146
1772789590582257200,5.476257080078125,-0.1029138465076685,0.0039904578756541015,0.01114238459006883
1772789590592323000,5.486322998046875,-0.10680617777109146,-0.004043685900233685,0.005907771872216835
1772789590602389000,5.496388916015625,-0.1118973634302616,-0.001354154555313289,0.008970429112156852
1772789590612455200,5.506455078125,-0.1017237599402666,0.002445456923358142,0.009276745981816202
1772789590622521000,5.51652099609375,-0.11354571515917777,-0.0014267814001068472,0.0006148896284867077
1772789590632587300,5.526587158203125,-0.11025310335457324,-0.007448635505512356,0.008356671994831413
1772789590642653200,5.536653076171875,-0.12342062796354293,-0.00364946241825819,0.0082394570896402
1772789590652719400,5.54671923828125,-0.11998071664273738,-0.004087634639814495,-0.003975251173367724
1772789590662785000,5.556784912109375,-0.10710662202239037,-0.00226641056202352,0.005679260345967486
1772789590672851200,5.566851318359375,-0.10904957278370857,-0.002746376098692417,0.0010230137716513126
1772789590682917000,5.576917236328125,-0.11323767212331294,-0.005034487035870552,0.006555221196589991
1772789590692983000,5.586983154296875,-0.10814707098603248,-0.0066990592472255224,0.0061581573035567995
1772789590703048200,5.597048095703125,-0.10694587850272655,0.003630392391607165,0.00014842289420776068
1772789590713114400,5.6071142578125,-0.10484978300631045,-0.0008004296626895666,0.007329822298279031
1772789590723180000,5.617179931640625,-0.10021101728975772,-0.0005608122205361724,0.013471768252551555
1772789590733246200,5.62724609375,-0.1078407815158367,-0.011706877471879124,0.0066979267360642546
1772789590743312100,5.63731201171875,-0.10544190368056297,-0.003537818737328052,0.0076436648872680955
1772789590753378000,5.6473779296875,-0.11711363677382468,-0.004579911668784916,0.013786980814719572
1772789590763444200,5.6574443359375,-0.10723697040379047,0.005261683387868106,0.012409527582209557
1772789590773510100,5.66751025390625,-0.11426643064916134,0.0011189575599506497,0.011977465441031381
1772789590783576300,5.677576416015625,-0.11426292351782322,-0.00442797251008451,0.010490852745622396
1772789590793642000,5.68764208984375,-0.10528642085790633,-0.004240596711821854,0.008681127309380098
1772789590803708200,5.697708251953125,-0.11097264980077742,-0.0049327071618288755,0.00612565240659751
1772789590813774000,5.707774169921875,-0.11232231084406376,0.0014139219185337424,0.002581915385136381
1772789590823840300,5.71784033203125,-0.10768471417129039,-0.00443776325173676,0.0014007245102431625
1772789590833906200,5.72790625,-0.12130056706964969,-0.008402246435917913,0.006563660231372341
1772789590843972000,5.73797216796875,-0.12459200983047485,-0.006750424108281731,0.00033535116789862513
1772789590854038300,5.748038330078125,-0.11546645408868789,-0.006261763808503747,-0.0014242058505304156
1772789590864104200,5.758104248046875,-0.11127835474908351,-0.012481003649532795,0.006104600485414266
1772789590874170000,5.768170166015625,-0.105296357730031,-0.00906988003179431,-0.00509216290670447
1772789590884236000,5.778236083984375,-0.11187690516412258,-0.004072364005446433,-0.002956639582198113
1772789590894302200,5.78830224609375,-0.10184709405899048,-0.008511990420706569,-0.006472246487718075
1772789590904368000,5.7983681640625,-0.11815350121557712,0.003223857417330146,-0.002630659030843526
1772789590914433300,5.808433349609375,-0.11396715544164181,-0.002077025469765067,0.00704444775194861
1772789590924499000,5.8184990234375,-0.1073836853981018,0.0011215513758361338,0.00548792989179492
1772789590934565000,5.828565185546875,-0.10423545050024986,0.0030371026735752818,0.008341008634818717
1772789590944631000,5.838631103515625,-0.10558277345597743,-0.0019036781968548894,0.011611289876606314
1772789590954697200,5.848697265625,-0.10887713882625102,-0.0035865897824987765,0.007335174326831474
1772789590964763100,5.85876318359375,-0.11157412282526492,-0.005256422690860927,0.00797168213208206
1772789590974829300,5.868829345703125,-0.11022738439142703,-0.0012221256734803317,0.012602081879088654
1772789590984895200,5.878895263671875,-0.10723697040379047,-0.0028172493778169153,0.009427187303174286
1772789590994961200,5.888961181640625,-0.10978665488660334,0.0018386501366272569,0.0028078878944274035
1772789591005027000,5.899027099609375,-0.1090349597364664,-0.00705967272054404,-0.004753660800494253
1772789591015093000,5.909093017578125,-0.11636252614557742,-0.010079641596227883,0.004440950722666457
1772789591025159200,5.9191591796875,-0.11292261482477188,-0.004437945914827287,0.014141036683088167
1772789591035225000,5.92922509765625,-0.12385083607435225,-0.012952968542836606,0.0034298648508265615
1772789591045291300,5.939291259765625,-0.11232990962862968,0.0035101270128041506,-0.002029405202064663
1772789591055357200,5.949357177734375,-0.10410977829396724,-0.004445910025574267,0.01266925623062998
1772789591065423400,5.95942333984375,-0.11488427028656005,-0.005219743942283093,0.0007512293592561036
1772789591075489000,5.969489013671875,-0.11638298441171645,-0.0015342968951910733,0.004257301251450553
1772789591085555200,5.97955517578125,-0.11712532721161842,0.0009728636201471089,0.009027401730092241
1772789591095621000,5.98962109375,-0.11996727263927459,-0.006881393544189631,0.008032655071699991
1772789591105687000,5.99968701171875,-0.1053010339051485,-0.003158975487574935,-0.006242246257280931
1772789591115753200,6.009753173828125,-0.11233166319429874,0.0014261968782171607,0.008765745986066758
1772789591125819100,6.019819091796875,-0.10125964955985546,-0.003329582814127207,-0.0024647735451813787
1772789591135884000,6.029884033203125,-0.10230535922050475,-0.0010004092141985893,0.003951477572135627
1772789591145950000,6.039949951171875,-0.10560323172211647,-0.004004705596715212,0.01807329809810035
1772789591156016000,6.05001611328125,-0.10441080706715583,-0.005815590943582355,0.008425654710968955
1772789591166082000,6.06008203125,-0.10890227326750755,-0.002906498563848436,0.015892264264589173
1772789591176148200,6.070148193359375,-0.11474632312059402,0.0021171017518267035,0.011238739370321854
1772789591186214100,6.080214111328125,-0.11758768402636051,0.004175678249448538,0.01397420134935528
1772789591196280300,6.0902802734375,-0.1141413429647684,-0.0008775134868919849,0.012692701038299128
1772789591206346000,6.100345947265625,-0.11443711104094982,-0.0004961494864895939,-0.003943878787569702
1772789591216412200,6.110412109375,-0.11668109057545661,-0.0031003771681338546,0.010732159821363165
1772789591226478000,6.12047802734375,-0.11233984650075435,-0.0016822174658998846,0.0043776122960261996
1772789591236544300,6.130544189453125,-0.11324176377654074,-0.0004214402824640274,0.014129355378448963
1772789591246610200,6.140610107421875,-0.11428805795907973,0.0013030819552019238,0.008507588240224868
1772789591256676000,6.150676025390625,-0.11608078659474849,0.00023552578892558813,-0.0015193093886133283
1772789591266742300,6.1607421875,-0.11428396630585193,0.006481142180226743,-0.0006327814782038331
1772789591276808200,6.17080810546875,-0.1123375084131956,-0.0052548883209005,0.001536854178458452
1772789591286874000,6.1808740234375,-0.11413140609264373,-0.011923260168917477,-0.002851242978964001
1772789591296940000,6.19093994140625,-0.12026128714978694,-0.006084872871637344,-0.00012439356464892626
1772789591307006200,6.201006103515625,-0.10170037906467914,-0.003895546133816242,0.0025447525793686507
1772789591317072100,6.211072021484375,-0.11202654276788233,0.0018035788232460617,0.005018019958259537
1772789591327138300,6.22113818359375,-0.10469897635877132,-0.006015643560327589,0.0071490132381208235
1772789591337204200,6.231204345703125,-0.1026040499061346,-0.008991188772395253,0.006300260054832324
1772789591347270100,6.241270263671875,-0.1041033485531807,-0.004133775336481631,0.00536081464709714
1772789591357335000,6.2513349609375,-0.11921966914236545,0.003155103030055761,0.006585534136462956
1772789591367401200,6.261401123046875,-0.10859364570975304,-0.0024271175490692258,0.006600329846795648
1772789591377467100,6.271467041015625,-0.10799743338227272,0.004925108377262949,0.007066549985902383
1772789591387533300,6.281533203125,-0.10679857898652553,-0.0075256097318604585,0.01370912980553694
1772789591397599000,6.291598876953125,-0.11054127264618872,-0.005970050852932036,0.00623643757100217
1772789591407665000,6.301664794921875,-0.10873626905083655,-0.00531173307467252,0.0035231691574677823
1772789591417731000,6.31173095703125,-0.10544190368056297,-0.0007203866964206099,0.003294009177247062
1772789591427797000,6.321796875,-0.10993044727146625,-0.0012226005975157022,0.003968428706936538
1772789591437863200,6.33186328125,-0.10828735623955726,-0.006355214245617389,-0.003054921458056196
1772789591447929000,6.34192919921875,-0.10754209083020687,-0.00942735169995576,0.0012442644400522112
1772789591457995300,6.351995361328125,-0.12415303389132022,0.0016231442224234342,0.001259425476565957
1772789591468061000,6.36206103515625,-0.11083645620048045,0.0012171572374179958,0.0003684314535930753
1772789591478127000,6.372127197265625,-0.10006079516410828,-0.0037545302279293536,0.010880144324153662
1772789591488193000,6.382193115234375,-0.10379881264865398,-0.01293915921319276,0.001237734234565869
1772789591498259000,6.392259033203125,-0.11113280879855156,-0.002145085737295449,0.0016063026854768393
1772789591508325000,6.4023251953125,-0.1078413660377264,-0.002233896531909704,0.004430137067707255
1772789591518391000,6.41239111328125,-0.11936229248344897,-0.0028237156512215733,0.007968522060615942
1772789591528457200,6.422457275390625,-0.11113163975477218,-0.007604629784822464,0.007748102509276941
1772789591538523000,6.43252294921875,-0.10784604221284388,-0.0003464388174936175,-0.0059502045081462705
1772789591548589000,6.442589111328125,-0.1142851353496313,-0.002606748432293534,0.004321251599444076
1772789591558655000,6.452655029296875,-0.10515431891083717,-0.0012141980953514575,0.01387486002757214
1772789591568721200,6.46272119140625,-0.11443243486583232,-0.008371668634563683,0.006115341075137257
1772789591578786000,6.4727861328125,-0.1041115318596363,-0.003612272213026881,0.0031095651215873655
1772789591588852200,6.482852294921875,-0.1145855796009302,-0.004189743307419121,0.015039209365518762
1772789591598918000,6.49291796875,-0.10560556980967521,-0.00020896657556295392,0.012171773303579539
1772789591608984000,6.502984130859375,-0.11189093368947506,-0.0018983444346114993,0.013597276062052696
1772789591619050000,6.513050048828125,-0.1249123278260231,0.002445603053830564,0.013889290411723777
1772789591629116200,6.5231162109375,-0.11757891619801521,-0.00047269554566591976,0.00857737467396073
1772789591639182000,6.53318212890625,-0.11563479639291763,0.0005443360097706318,0.0004700560640078038
1772789591649248000,6.543248046875,-0.12460954548716545,0.003280263779684901,0.00553653654018417
1772789591659314200,6.553314208984375,-0.12236556595265864,-0.0003333966728299856,0.008733944342005997
1772789591669380000,6.563380126953125,-0.12026947045624256,-0.006315247561410069,-0.003571629675384611
1772789591679446000,6.573446044921875,-0.11473813981413841,-0.003348068318888545,-0.0017266045968979595
1772789591689512000,6.583511962890625,-0.12132102533578872,-0.006967683588154613,0.00726797257582657
1772789591699578000,6.593578125,-0.11937281387746333,-0.008858136977255343,0.0015709756437689065
1772789591709644000,6.60364404296875,-0.10890519587695598,-0.008122881505265831,-0.0008659783127252012
1772789591719710200,6.613710205078125,-0.11847498825490474,-0.01174169305693358,0.010129755215113981
1772789591729776000,6.623776123046875,-0.1124941602796316,-0.0037154768591746686,-0.0017885365177411584
1772789591739842300,6.63384228515625,-0.11414017392098903,-0.007883483258821069,0.006490668060397729
1772789591749908000,6.643907958984375,-0.11039923382699489,-0.007147606732323765,0.0030126623520627615
1772789591759974000,6.653973876953125,-0.11623217776417731,-0.0001517930282279849,0.0040268900290597225
1772789591770040000,6.6640400390625,-0.11039981834888457,-0.010042926315031946,-0.0012797284790780396
1772789591780106000,6.67410595703125,-0.12072539753019809,0.0012226005975157022,0.0019153321020305156
1772789591790171100,6.684171142578125,-0.1147387243360281,0.004118577767349779,0.008082028905069455
1772789591800237000,6.694237060546875,-0.10202186610400676,-0.004717493508569896,0.0011207841908559201
1772789591810303000,6.704302978515625,-0.11473930885791778,-0.004080583844520151,0.010842442662268876
1772789591820369000,6.714368896484375,-0.11144611253142356,-0.006808912829868495,0.006542690508579835
1772789591830435000,6.72443505859375,-0.11159575013518333,-0.00012717004362493753,0.006849527968047186
1772789591840501000,6.7345009765625,-0.11084990020394325,-0.0025015710247680545,0.0077456822233274575
1772789591850567200,6.744567138671875,-0.10980477506518363,0.0006824658388271928,0.007506137846410274
1772789591860633000,6.754633056640625,-0.11175181747972965,0.0038057489585131402,0.0017966741584241389
1772789591870699300,6.76469921875,-0.10681377655565738,-0.005648417683131992,0.013233621248276903
1772789591880765000,6.774764892578125,-0.11563888804614543,-0.004907682318426669,0.004473282089689746
1772789591890831000,6.7848310546875,-0.10651157873868941,-0.003997252942621708,-0.0009392901441082358
1772789591900897000,6.79489697265625,-0.09723521634936332,0.005915142327919602,0.005617629819223657
1772789591910963000,6.804962890625,-0.11579320182502269,-0.0015568375205621122,0.00979527169689536
1772789591921029000,6.815029052734375,-0.11205518434047698,0.00048376492895185947,0.004984218153357506
1772789591931095000,6.825094970703125,-0.10996025788784027,-0.0008807648899033665,-0.0022090360852889714
1772789591941161200,6.8351611328125,-0.11056289995610713,-0.0031931334855034945,0.0023143687564413993
1772789591951227100,6.84522705078125,-0.1141460191398859,-0.0047526013545691964,-0.0020812541203107686
1772789591961293000,6.85529296875,-0.11908113745450973,-0.0012954101053997873,0.0014054098185151815
1772789591971359000,6.86535888671875,-0.11773322997689246,-0.007206460780091583,0.005778948727622628
1772789591981425200,6.875425048828125,-0.11115209802091121,-0.002662314544431865,0.007182184855360537
1772789591991491000,6.885490966796875,-0.11115326706469059,-0.0037343642227351662,-0.006125762004451826
1772789592001556200,6.89555615234375,-0.12043138301968574,-0.0028152766164392233,0.008389268223335966
1772789592011622000,6.905621826171875,-0.1105599773466587,-0.005967968493700027,0.0074667374177835874
1772789592021688000,6.91568798828125,-0.11939268762171268,0.008990640783123671,0.008289470243826508
1772789592031754000,6.92575390625,-0.11086802038252352,-0.0009195259977132082,0.00834771237024106
1772789592041820200,6.935820068359375,-0.11640461172163485,-0.008446414371207356,0.0017972404140047728
1772789592051886000,6.945885986328125,-0.11805120988488196,-0.004981514739617705,-0.0002637929021846503
1772789592061952000,6.955951904296875,-0.1225374153882265,-0.004493621624819934,-0.0031973986686673014
1772789592072018200,6.96601806640625,-0.11999825229942798,-0.0006972980817779898,0.0032017186507582664
1772789592082084000,6.976083984375,-0.11565934631228446,0.000763714381493628,0.006207357606990263
1772789592092150000,6.98614990234375,-0.10593816276490688,-0.0022099676670506597,-0.0041222310291603205
1772789592102216000,6.9962158203125,-0.10414718769490718,-0.0018006927464157341,-0.0010704787757247686
1772789592112282000,7.0062822265625,-0.11313128913938998,-0.002278722054325044,0.006545887112664058
1772789592122348000,7.01634814453125,-0.11807283719480037,-0.012022811553254723,0.007192240458494052
1772789592132414200,7.026414306640625,-0.1119371109187603,0.003197115540876984,-0.0009307597777806222
1772789592142480100,7.036480224609375,-0.1285463004142046,-0.00022916911337524652,0.003050775005901232
1772789592152546000,7.046546142578125,-0.12480419127643108,-0.004374634887650609,-0.0015643997725099325
1772789592162612000,7.056612060546875,-0.12002163317501545,0.0039975086709484456,0.0011850998650304973
1772789592172678000,7.066677978515625,-0.10820961482822894,-0.006251169349253178,0.0013208276744466273
1772789592182744000,7.076744140625,-0.10461597425043583,-0.00766110921241343,0.0015174827577080577
1772789592192809200,7.086809326171875,-0.126014736109972,0.0005658537218347191,0.006546964824898168
1772789592202875100,7.096875244140625,-0.12496142766475676,0.001150777470320463,0.0037438444371335204
1772789592212941000,7.106941162109375,-0.11434241849482059,-0.010234576429612934,0.011620934487786143
1772789592223007000,7.117007080078125,-0.11434241849482059,-0.006186689278297126,0.007563201795890927
1772789592233073000,7.127072998046875,-0.10580664533972739,-0.0014654329100623727,0.0030552045858465134
1772789592243139000,7.13713916015625,-0.10475918211340904,-0.007794087942317128,-0.001689944114629179
1772789592253205000,7.147205078125,-0.10670154835283756,-0.0020569325298070906,0.00862169787287712
1772789592263271200,7.157271240234375,-0.1099935756355524,-0.00325487361010164,0.007876605993462725
1772789592273337000,7.167337158203125,-0.11387538550496101,-0.013062895190715788,0.0028918124513700604
1772789592283403300,7.1774033203125,-0.11626491098999976,-0.004039338518679142,0.0021053565151058135
1772789592293469000,7.187468994140625,-0.11147533862590789,-0.004538154886290431,-0.006478904557367786
1772789592303535000,7.19753515625,-0.11027589970827102,-0.005374715308286249,0.0035366314272396266
1772789592313601000,7.20760107421875,-0.1135708496004343,-0.004055522468499839,0.005246613682899624
1772789592323667000,7.2176669921875,-0.12001169630289077,-0.003304923296906054,0.0006258768133819103
1772789592333733000,7.227733154296875,-0.11163082144856452,0.000424691685475409,0.0021744122964795676
1772789592343799000,7.237799072265625,-0.1101373680204153,-0.004151128330081701,-0.004176856426382437
1772789592353865200,7.247865234375,-0.1258481473714113,-0.006755027218163013,-0.00839581669513136
1772789592363930000,7.25793017578125,-0.1215045652091503,-0.009283157456293701,0.0038549766614101827
1772789592373996000,7.26799609375,-0.11656652428507804,-0.0019355346398428081,0.005525613287370652
1772789592384061700,7.278061767578125,-0.11656886237263679,-0.007064750754460692,0.008880586271081119
1772789592394128000,7.2881279296875,-0.11761632559895514,0.0034050592031329868,0.0048326077882200474
1772789592404193800,7.29819384765625,-0.10250234309732914,-0.004673179442808032,0.008179233068693429
1772789592414260000,7.308260009765625,-0.11402619215250015,-0.004332257050648331,0.005173438848834484
1772789592424326000,7.318325927734375,-0.11283493654131889,0.0009433817973360419,0.003522675967123359
1772789592434392000,7.32839208984375,-0.12196166132688521,-0.009262187733501195,0.00027602219609543677
1772789592444458000,7.3384580078125,-0.1092442185729742,-0.011306406912207603,0.0038201976089738306
1772789592454524000,7.34852392578125,-0.10490648162961005,-0.0063201794648543,0.0024710388891864567
1772789592464589800,7.35858984375,-0.11643149972856044,0.001842486061528325,-0.0026530626588966697
1772789592474655700,7.36865576171875,-0.11837561953365802,-0.004333024235628545,0.0015244696209207177
1772789592484722000,7.378721923828125,-0.1237578970938921,-0.003958820628374815,0.005293512431392445
1772789592494787800,7.388787841796875,-0.11896423307657242,-0.006626249739341438,0.0046761385848745705
1772789592504854000,7.39885400390625,-0.10773965922892093,-0.0003916296660900116,-0.0029642383667640385
1772789592514919000,7.4089189453125,-0.10997545545697211,-0.0007477130947634577,0.0024540877543855455
1772789592524984800,7.41898486328125,-0.11491641899049282,-0.005326601850241423,-0.0016862817196641117
1772789592535050800,7.42905078125,-0.12104630004763603,-0.0019194237552583216,0.004706999514019116
1772789592545117000,7.439116943359375,-0.1104208611369133,-0.008379888473637402,-0.0015238211669493466
1772789592555182800,7.449182861328125,-0.10383096135258674,-0.0022574600705876943,0.00030744024766609073
1772789592565249000,7.4592490234375,-0.11520049662888049,0.0008458031743764876,0.012122244206583126
1772789592575315000,7.46931494140625,-0.12462357401251792,0.0017569632025435566,-0.0007625818703323602
1772789592585380900,7.479380859375,-0.1193833352714777,-0.0074443977218121285,0.002239175495225936
1772789592595446800,7.48944677734375,-0.1159405013412237,-0.007748933626338839,0.004108540430525318
1772789592605513000,7.499512939453125,-0.1165419743657112,-0.004853796706721186,0.007906891533872112
1772789592615579000,7.509578857421875,-0.12132979316413402,-0.0017081921573728323,0.001094663368910551
1772789592625644800,7.519644775390625,-0.11579904704391955,-0.00709120036996901,0.001162084315624088
1772789592635711000,7.5297109375,-0.1030786816805601,-0.006576967237517237,0.007953543687192723
1772789592645777000,7.53977685546875,-0.11340659894943236,-0.0051507703593000765,0.005206327338283881
1772789592655843000,7.549843017578125,-0.11415244888067244,-0.008041084973327815,0.005870444669667631
1772789592665908700,7.55990869140625,-0.11834113274216651,-0.01273899699859321,0.010623228687327355
1772789592675974000,7.569973876953125,-0.10771627835333347,-0.009319470878690481,0.0033976065490394828
1772789592686039800,7.580039794921875,-0.11789163540899752,-0.008417736265994609,0.004021218340098858
1772789592696106000,7.59010595703125,-0.11055062499642372,0.0013374226162210106,0.002993528393330052
1772789592706172000,7.600171875,-0.11728548620939254,-0.0065347355309873815,-0.0001210690964013338
1772789592716238000,7.610238037109375,-0.11968202595710754,-0.009905271410010755,-0.0016157281009480356
1772789592726303700,7.6203037109375,-0.11967676526010036,-0.011725545639730989,-0.012257524491427465
1772789592736370000,7.630369873046875,-0.11473463268280029,-0.003625606618635356,-0.006719426181819289
1772789592746435800,7.640435791015625,-0.11623334680795669,-0.007543437649495899,0.004763241479592398
1772789592756502000,7.650501953125,-0.1112958904057741,-0.0029035394217818973,0.008481248222570867
1772789592766568000,7.66056787109375,-0.11953238835334777,0.0020461919400840997,0.006144841164257377
1772789592776633900,7.6706337890625,-0.10396949304044246,-0.0010849456924945115,-0.007849124331492931
1772789592786700000,7.680699951171875,-0.10427227537930012,-0.0008061652837321162,0.0031140586336143314
1772789592796765700,7.690765625,-0.1081634375989437,-0.0030269466057419774,0.005217771180905401
1772789592806831900,7.700831787109375,-0.12133154672980308,-0.0065272828768938775,0.0007504713074304163
1772789592816897800,7.710897705078125,-0.11908522910773753,0.0007768661240115762,-0.004444101660978049
1772789592826963000,7.720962890625,-0.10890811848640441,-0.008846592669934034,0.005904127743560821
1772789592837028900,7.73102880859375,-0.11429624126553535,-0.011080927593261004,0.0002938227142672986
1772789592847095000,7.741094970703125,-0.1240232700318098,-0.007486337167397141,0.0007213000118732452
1772789592857160700,7.75116064453125,-0.10546177742481232,-0.006684409667365253,0.0015012440089602023
1772789592867227000,7.761226806640625,-0.11159750370085239,-0.0022617343869060277,0.004132012637658044
1772789592877292800,7.771292724609375,-0.10740823531746864,-0.0020674539238214494,0.0005983403524849563
1772789592887359000,7.78135888671875,-0.11953531096279621,-0.006693908148072659,0.0033462416879832743
1772789592897425000,7.7914248046875,-0.12253157016932964,-0.0016226327657699584,0.0068701140983495855
1772789592907491000,7.801490966796875,-0.11399871962368488,-0.007710757040418684,-0.005830267922906205
1772789592917557000,7.811556884765625,-0.11399112083911896,0.0007967033356428146,-0.002673804052826017
1772789592927623000,7.821622802734375,-0.11667992153167724,0.0003958309171721339,-0.005119589769747108
1772789592937688800,7.831688720703125,-0.11742986311614513,-0.01126121606361121,-0.008204805901367216
1772789592947754800,7.841754638671875,-0.1177268002361059,-0.006365406846068799,-0.0006561440874822438
1772789592957820000,7.85181982421875,-0.10949848559498786,-0.009053513418883085,-0.0004813903087750077
1772789592967886000,7.861885986328125,-0.10441080706715583,-0.0060172875281423325,0.013980338829196989
1772789592977952000,7.871951904296875,-0.11727671838104724,-0.0050103755079209805,0.002743161228299141
1772789592988018000,7.882017822265625,-0.11398176848888397,-0.010483107830584048,0.0005192929000593722
1772789592998083800,7.892083740234375,-0.11502806267142295,-0.00583769317753613,0.007041196348937228
1772789593008149800,7.902149658203125,-0.11817337495982647,-0.009959814608842134,0.005801388888293877
1772789593018216000,7.9122158203125,-0.11144202087819575,-0.007666223778948187,0.012325365563249214
1772789593028281900,7.92228173828125,-0.1056102459847927,0.00636197277996689,0.010058123884163796
1772789593038348000,7.93234814453125,-0.11937281387746333,-0.007837306029535829,0.006124145436100662
1772789593048414000,7.9424140625,-0.11667933700978755,-0.0031018019402399657,0.0055615065846592185
1772789593058479900,7.95247998046875,-0.11772796927988528,-0.0017449074385687707,0.012847160947648808
1772789593068545800,7.9625458984375,-0.10560381624400615,-0.004740435992740094,0.008254846455017104
1772789593078612000,7.972612060546875,-0.11203998677134513,-0.0013787775399163365,0.006767795368190855
1772789593088676900,7.9826767578125,-0.12760755825936793,-0.004862637600302696,-0.00985171459186822
1772789593098743000,7.992742919921875,-0.11010171218514442,-0.0046765404436737296,-0.001059436791902408
1772789593108809000,8.00280908203125,-0.11235445954799651,-0.004166654692776501,0.0018529891892336307
1772789593118875000,8.012875,-0.11908756719529628,-0.0010734013851732016,0.007139916616212576
1772789593128940800,8.02294091796875,-0.11593874777555466,-0.011858049445599317,-0.0020442922439426183
1772789593139007000,8.033007080078125,-0.10711071367561817,-0.004086282932944596,0.0040469373032450675
1772789593149073000,8.043072998046876,-0.11458967125415802,-0.008344561431929468,0.00559803920276463
1772789593159138800,8.053138916015625,-0.11443594199717044,-0.00542717614788562,0.0022735070230904967
1772789593169205000,8.063205078125,-0.111292383274436,-0.005439779901131987,0.0029183716647326946
1772789593179271000,8.07327099609375,-0.11114742184579372,-0.00383457319419831,0.002104616729589179
1772789593189337000,8.083337158203125,-0.10800386312305926,-0.010011727459169924,0.003279076469596475
1772789593199402800,8.09340283203125,-0.1081546697705984,-0.00442358859591186,0.009743477577576412
1772789593209469000,8.103468994140625,-0.11264788953661918,-0.008341163898445665,0.011993512393534182
1772789593219533800,8.113533935546876,-0.11907996841073036,-0.011502915864996612,-0.0029986520930193362
1772789593229600000,8.12360009765625,-0.1220756430953741,-0.0053786608310416335,0.008341876284498721
1772789593239666000,8.133666015625,-0.12416940050423145,-0.012876761501468718,0.022168513256171717
1772789593249732000,8.143732177734375,-0.12476970448493957,-0.009962444957345724,0.012005522491736337
1772789593259797800,8.1537978515625,-0.11908347554206847,-0.0026683058938011526,0.006522232242440805
1772789593269864000,8.163864013671875,-0.12387421694993972,-0.008663929579406976,0.002606848896993324
1772789593279929900,8.173929931640625,-0.10980945124030113,-0.007459887551888823,0.0007272091628517956
1772789593289996000,8.18399609375,-0.11324994708299636,0.0035231326248496768,-0.00001854030368849635
1772789593300062000,8.19406201171875,-0.11878010868132113,-0.004062354068085551,-0.004909764677658677
1772789593310127900,8.2041279296875,-0.10979776080250739,-0.006444609562121332,0.0013236498191952705
1772789593320194000,8.214194091796875,-0.11817512852549553,-0.00865275059826672,-0.0008700973654165863
1772789593330259700,8.224259765625,-0.12056874566376209,-0.0071278425859287375,-0.0035823702651076018
1772789593340324900,8.234324951171875,-0.1066518639922142,-0.005906447564810514,0.01013423959398642
1772789593350390800,8.244390869140625,-0.1117407115638256,-0.0020784867744892835,0.0023172000343445686
1772789593360457000,8.25445703125,-0.1189256546318531,-0.005253901940211653,0.0015319405413232743
1772789593370523000,8.26452294921875,-0.117279056468606,-0.005873020219244063,0.013661856597708537
1772789593380589000,8.274589111328124,-0.10560264720022677,-0.002390657996200025,0.005366413270821794
1772789593390656000,8.284656005859375,-0.10903671330213546,-0.0025874226773157714,0.010257509780628607
1772789593400721700,8.2947216796875,-0.1272901628732681,-0.006236227508448064,0.005064608179498464
1772789593410787800,8.304787841796875,-0.12010288171768188,-0.0059078723369166255,0.006343021484324708
1772789593420853800,8.314853759765626,-0.10633446860611438,-0.0061330228623002764,0.00852323333392851
1772789593430920000,8.324919921875,-0.11561316908299922,-0.0020048735490068794,0.0046027810877189036
1772789593440985900,8.33498583984375,-0.1037935519516468,-0.005735109585896134,0.010340767617290839
1772789593451052000,8.345052001953125,-0.11486848819553852,-0.0025911490043625234,0.008089097966672853
1772789593461116700,8.35511669921875,-0.1115747073471546,0.0015568375205621122,0.002170284110633656
1772789593471182800,8.365182861328124,-0.10603636244237423,-0.011165062212757766,0.005565388175332918
1772789593481248800,8.375248779296875,-0.1135223342835903,0.0017237915853038428,0.004158261323766782
1772789593491315000,8.38531494140625,-0.12190730079114437,-0.0021392039857804773,0.008527763378573581
1772789593501380900,8.395380859375,-0.11607786398530005,-0.00451594305448234,0.008598864986561238
1772789593511447000,8.405447021484376,-0.11622633254528045,-0.009191460584849119,0.002179672993486747
1772789593521513000,8.415512939453125,-0.10141630142629146,-0.004887881639413535,-0.0005605747585184872
1772789593531579100,8.4255791015625,-0.1092003794312477,-0.00016790391281247137,0.006436727649765089
1772789593541644800,8.435644775390625,-0.12491700400114059,-0.002221913833171129,-0.006009889672975987
1772789593551710700,8.445710693359375,-0.11743687737882137,-0.00831931739281863,0.0020233590537682175
1772789593561777000,8.45577685546875,-0.11130173562467098,-0.006040120414458215,0.004358487470448017
1772789593571842800,8.4658427734375,-0.10711305176317691,-0.003211180598847568,0.0012581651012413203
1772789593581908000,8.475907958984376,-0.11190379317104816,-0.007153890342637896,-0.005749138111248612
1772789593591974100,8.48597412109375,-0.11534779614508152,-0.003762896197475493,-0.002664278172655031
1772789593602039800,8.496039794921876,-0.11744681425094604,-0.009344459189474581,0.005367390518356115
1772789593612105700,8.506105712890625,-0.11624679081141948,-0.007478811448067426,0.0013453867269679904
1772789593622172000,8.516171875,-0.11565467013716697,-0.008974128039740025,0.003029650019481778
1772789593632237800,8.52623779296875,-0.1146077914327383,-0.004102430350147187,0.0017420304948929696
1772789593642304000,8.536303955078125,-0.10653320604860782,-0.012052439506538212,-0.000620716581074521
1772789593652370000,8.546369873046874,-0.11252689350545406,-0.001620112015120685,0.0049275469295214855
1772789593662436000,8.55643603515625,-0.1197100830078125,-0.0010664236551150678,0.004821063480898738
1772789593672501800,8.566501708984376,-0.1098369237691164,-0.00008625351134687661,0.006605627076420932
1772789593682568000,8.57656787109375,-0.11462591161131858,-0.00036813919264823197,0.00003993928474374115
1772789593692632800,8.5866328125,-0.11896306403279304,-0.003533252160064876,0.0020832725474610922
1772789593702699000,8.596698974609374,-0.11641922476887702,-0.00805138717163354,0.0020267931198701262
1772789593712765000,8.606764892578125,-0.11836509813964366,-0.004883570790477096,0.0068301017483696335
1772789593722831000,8.6168310546875,-0.11522095489501953,-0.00373648311458528,0.00023922471650876103
1772789593732896800,8.626896728515625,-0.11148235288858413,-0.0019543124055489895,0.004974199082842096
1772789593742963000,8.636962890625,-0.1080418570458889,-0.0026797406032681463,0.0033132710001431403
1772789593753028900,8.64702880859375,-0.10430033243000507,-0.005234466587379575,-0.004323498355457559
1772789593763094800,8.6570947265625,-0.10744681376218795,-0.0024761077899485826,-0.0035537560919765383
1772789593773161000,8.667160888671875,-0.12166063255369662,-0.005341287962719798,0.0033870851550251244
1772789593783227000,8.677226806640626,-0.11912088494300842,-0.010811974458768964,-0.0021592603931203484
1772789593793293000,8.68729296875,-0.12001929508745669,-0.007052073935978114,0.0038363267598673697
1772789593803358700,8.697358642578125,-0.10565583869218825,-0.00042706630565226075,0.003957377589959651
1772789593813425000,8.7074248046875,-0.11628303116858005,-0.005619081990793347,0.003073050769791007
1772789593823490800,8.71749072265625,-0.11478256347775459,-0.005184453433193266,0.0025705720072146505
1772789593833557000,8.727556884765624,-0.11119769072830676,-0.0018756211461499331,0.006212864899169653
1772789593843622000,8.737621826171875,-0.10626315693557262,-0.008795045145787298,0.0018572452392429113
1772789593853688000,8.74768798828125,-0.11060849266350269,-0.013604345123656093,0.0021965875956695526
1772789593863753700,8.757753662109375,-0.11525193455517291,-0.010178023936785756,0.003668322382355109
1772789593873820000,8.76781982421875,-0.1122591824799776,-0.010019837700389325,0.010262998806498945
1772789593883885800,8.7778857421875,-0.12124211488068103,-0.004716287932172417,0.0024247520620469002
1772789593893952000,8.787951904296875,-0.11645195799469947,0.0024629925800487397,0.007650697416253387
1772789593904018000,8.798017822265624,-0.11076222192049026,-0.005117598742060363,0.0038011915144044906
1772789593914083800,8.808083740234375,-0.11854337731599807,-0.003341090588830411,0.004030241896770894
1772789593924150000,8.81814990234375,-0.11271335598826408,-0.004659845037199557,0.005840095197176561
1772789593934215700,8.828215576171875,-0.11391162586212157,-0.0133167968865484,0.008626574977394193
1772789593944281900,8.83828173828125,-0.11271043337881564,-0.010564429438486695,0.00574628856703639
1772789593954347000,8.848346923828124,-0.12812661369740963,0.00015489830076694487,-0.007179664104711264
1772789593964413000,8.858412841796875,-0.12483750902414321,-0.005939326921105385,0.007384995684772729
1772789593974478800,8.868478759765624,-0.11346505113840102,-0.000382788772508502,0.003546897092927247
1772789593984545000,8.878544921875,-0.11810557042062282,-0.0019470789471641183,-0.004209069062396884
1772789593994610700,8.888610595703126,-0.11287234594225883,-0.0131939376918599,0.00659889594153501
1772789594004676900,8.8986767578125,-0.11915186460316181,-0.001371288353204727,0.0037760662063024935
1772789594014742800,8.90874267578125,-0.11885258939564228,-0.0017936054185032843,0.0057988224718719715
1772789594024809000,8.91880908203125,-0.09536065464913844,0.001415858147293329,0.005285456989100203
1772789594034875000,8.928875,-0.09984802919626236,-0.002358874618448317,0.006803295939834788
1772789594044941000,8.938941162109375,-0.11331599805653095,-0.0035370515523478387,-0.0011222637618891894
1772789594055005700,8.949005615234375,-0.11616028157174586,-0.0014405907297506927,0.0010348412067629396
1772789594065071900,8.95907177734375,-0.1258884793817997,-0.008168072353862226,0.0021321075247135012
1772789594075137800,8.9691376953125,-0.09477087206244468,-0.003907930691353976,0.007061362354131415
1772789594085204000,8.979203857421876,-0.1000111108034849,-0.003069507105834782,0.006619655601773411
1772789594095270000,8.989269775390625,-0.12934008114039897,0.0015818258313462137,0.002443274099426344
1772789594105336000,8.999336181640626,-0.13068681957423686,0.0033749197931960224,-0.004757405393850058
1772789594115402000,9.009402099609375,-0.12005962709784507,0.0010362111799418925,0.002904927661269903
1772789594125468000,9.019468017578125,-0.08834054675400256,-0.001997128633968532,0.009417195632122457
1772789594135533800,9.029533935546874,-0.1059942768663168,0.0002442570846527815,-0.0013296685680281371
1772789594145599700,9.039599853515625,-0.1294914723098278,-0.005319587587565183,0.006443559249350801
1772789594155665000,9.049664794921876,-0.10285364075303077,-0.005089505158737301,-0.000997660134686157
1772789594165731000,9.05973095703125,-0.10195815321803092,-0.0007143953470513224,0.0011461469609756023
1772789594175797000,9.069796875,-0.11049392637312412,0.0002689896671101451,0.00615687866192311
1772789594185863000,9.07986279296875,-0.11648059956729412,0.0033677959326654672,-0.0025525979591067877
1772789594195928800,9.0899287109375,-0.13697978223860263,0.00036941783428192136,-0.0009681143797934054
1772789594205994800,9.099994873046874,-0.1016717374920845,-0.0025681334549561142,0.006034284328715876
1772789594216061000,9.11006103515625,-0.10137187776267528,-0.00033233722690492864,0.0086007920821663
1772789594226126800,9.120126953125,-0.11169511885643005,-0.009755085816979408,-0.0030345362571533767
1772789594236193000,9.130193115234375,-0.10989596047997474,-0.0005641732214018702,0.01032173412325792
1772789594246259000,9.140259033203124,-0.1242582478314638,0.00402629637401551,0.007429949071351439
1772789594256323800,9.15032373046875,-0.1130301668524742,0.0034290976658463476,0.005382971679978072
1772789594266389800,9.1603896484375,-0.1088432365566492,0.00021024521719664334,0.00698477172027342
1772789594276456000,9.1704560546875,-0.11273264521062373,-0.010454941182024776,0.01147782708951272
1772789594286521900,9.18052197265625,-0.10810030923485756,-0.010883761053346097,0.012422807188890874
1772789594296588000,9.190588134765624,-0.11827508176863193,-0.013568579690530895,0.0008187233712058514
1772789594306654000,9.200654052734375,-0.11528466778099536,0.0010154606528580189,-0.0006595598872750997
1772789594316720000,9.21072021484375,-0.09463818559348583,-0.004895882282778621,0.0065775060936342925
1772789594326785800,9.220785888671875,-0.10975450618267059,0.008433554889634251,-0.00015186609346419573
1772789594336851700,9.230851806640626,-0.12442016039490698,-0.0026061639104038477,-0.004035730922641232
1772789594346916900,9.240916748046875,-0.11184592550396918,-0.006157938107848167,0.01069516141237691
1772789594356983000,9.250983154296875,-0.12037351535260676,-0.005600779149122536,0.007449439223110675
1772789594367049000,9.261049072265624,-0.10661094745993614,0.0002949278259649873,0.005498359954264015
1772789594377115100,9.271115234375,-0.11992460254132747,-0.009087415688484906,-0.0034568259229883548
1772789594387184000,9.28118408203125,-0.11768003848493098,0.002590418352000415,-0.00043461029129102823
1772789594397250000,9.29125,-0.11349077010154723,-0.0006868862856179475,0.0018262564459349958
1772789594407316200,9.301316162109375,-0.11363339344263076,-0.0023700901322066784,-0.001691524150362238
1772789594417382100,9.311382080078126,-0.11752455566227435,-0.002834602371416986,-0.002840018332051113
1772789594427448000,9.321447998046875,-0.12275310396552085,-0.01203906856831163,-0.0009345683032181113
1772789594437514000,9.331513916015625,-0.11766425639390944,-0.0017610183231532572,0.00995336660174653
1772789594447579100,9.3415791015625,-0.10165244826972485,0.006315211028791964,0.00041580512612126767
1772789594457645000,9.35164501953125,-0.10598843164741992,-0.0022512495255097745,0.00017130144629627465
1772789594467711200,9.361711181640626,-0.11421674628853798,0.003562185993604362,0.005640069979894906
1772789594477777200,9.371777099609375,-0.10643442184925078,0.005333250786736608,0.012095831123692915
1772789594487843000,9.381843017578126,-0.11915128008127211,-0.008079846081137657,0.00038488939804956317
1772789594497909000,9.391908935546875,-0.10957330439686774,0.0014499430799856782,0.004234879357088357
1772789594507975200,9.40197509765625,-0.10882394733428954,-0.0018851561594754457,0.004374223895696923
1772789594518041000,9.412041015625,-0.12917407692372798,-0.001926730278879404,-0.012915750938141717
1772789594528107300,9.422107177734375,-0.10926876849234103,-0.00038154666349291797,-0.004639350238442421
1772789594538172200,9.432172119140626,-0.11869593752920626,-0.003933868850208818,-0.0017242208435665814
1772789594548238000,9.442238037109375,-0.11180910062491893,-0.00045329672545194624,0.003801100182859227
1772789594558304000,9.452303955078126,-0.10642390045523643,0.0024163038941100237,-0.000420472168084234
1772789594568370200,9.4623701171875,-0.11211305200755596,-0.007530468570068478,-0.0037492969303857533
1772789594578436000,9.47243603515625,-0.11466039840281009,-0.008793803036771713,0.0001974953334778547
1772789594588502300,9.482502197265624,-0.11121756447255611,-0.0014839549474418162,0.016091613628435877
1772789594598568200,9.492568115234375,-0.10793021336495875,0.0005683014072477817,0.006876251578191295
1772789594608634000,9.502634033203124,-0.11212240435779094,-0.0016943462951108813,0.006859601837489754
1772789594618700300,9.5127001953125,-0.12005904257595539,-0.008134097019024194,0.006054751728009432
1772789594628765200,9.52276513671875,-0.12095511463284492,-0.00626340777631849,0.010634672529948874
1772789594638831000,9.5328310546875,-0.10973697052597998,-0.008197919502854346,0.011403309681732208
1772789594648897300,9.542897216796876,-0.11677695216536521,-0.00043466509021818637,0.0128493072389625
1772789594658963200,9.552963134765625,-0.11872224101424217,0.0026649448929354546,0.005270926140248775
1772789594669029000,9.563029052734375,-0.11887246313989162,-0.007769720686040818,0.007565037559950724
1772789594679095300,9.57309521484375,-0.11183832671940326,-0.0012072934305295347,0.0029608043006621298
1772789594689161000,9.583160888671875,-0.10959668527245521,-0.007091967554949224,-0.004502088059065863
1772789594699227100,9.59322705078125,-0.11034721137881279,-0.0013731880493462086,0.007209410789003595
1772789594709293000,9.60329296875,-0.12336392934024333,-0.003982676427997649,0.0015232549113687126
1772789594719359200,9.613359130859376,-0.11797697560489177,0.0019854016635566948,-0.002562690094858408
1772789594729424100,9.623424072265625,-0.11707856546044348,0.00042187867388129234,-0.007319072575401514
1772789594739490300,9.633490234375,-0.1075011742979288,0.0011859949141740799,0.0015617146250791847
1772789594749556000,9.643555908203124,-0.10959259361922741,-0.008422522038966417,0.003031074791587889
1772789594759622100,9.6536220703125,-0.12439911760687827,-0.01045267615970224,-0.0023211638234090057
1772789594769688000,9.66368798828125,-0.12260346636176109,-0.0010144377395510673,0.0014401888709515331
1772789594779754200,9.673754150390625,-0.11377192513048648,-0.002574161336943507,0.006273938303487375
1772789594789820200,9.683820068359376,-0.11362111848294734,-0.005405621903203427,0.009382133451895787
1772789594799886300,9.69388623046875,-0.11841419797837734,0.0021768325824290512,-0.0035683143402915445
1772789594809952300,9.7039521484375,-0.11303308946192264,0.00039031449183821675,0.0007062029074411839
1772789594820017200,9.71401708984375,-0.11423252837955951,-0.002362710543349385,0.006594530293671414
1772789594830083000,9.7240830078125,-0.11333411823511123,-0.0018082549983635544,0.008600609419075771
1772789594840149200,9.734149169921874,-0.11243512356877326,-0.0009511997776106,0.00829953498011455
1772789594850215200,9.744215087890625,-0.11976736615300178,-0.0024460049126297234,0.0012715086400043219
1772789594860281300,9.75428125,-0.11961246785223484,-0.005103424086235464,0.0048149625336751335
1772789594870347300,9.76434716796875,-0.10928864223659038,-0.001034384549036622,0.005692896145675331
1772789594880413000,9.774412841796876,-0.10943477270901203,0.007498867855407297,0.003958610565820708
1772789594890479000,9.78447900390625,-0.10599193877875804,-0.007768259381316602,-0.000279858120996505
1772789594900544300,9.794544189453125,-0.11452245123684406,-0.01147610092330724,-0.0009061367931775748
1772789594910610200,9.804610107421874,-0.12185469382107257,-0.0019580021999776364,0.0028681027822196484
1772789594920676400,9.81467626953125,-0.11586802062690257,0.0007088423890992999,0.00020103899743407965
1772789594930742300,9.8247421875,-0.1124333700031042,-0.006746807379089295,-0.005760910747433081
1772789594940808000,9.834807861328125,-0.10690262388288974,0.000014905308187007903,0.00379528236342594
1772789594950874000,9.8448740234375,-0.11169687242209911,0.0043081820553168655,0.009748765674047172
1772789594960940000,9.85493994140625,-0.12037994509339332,-0.00902560249865055,-0.006526734887622296
1772789594971006200,9.865006103515626,-0.11933423543274402,-0.0073334116280078885,-0.00010658391332253813
1772789594981072100,9.875072021484375,-0.11155249551534652,-0.0036000337859615683,0.006638944824133068
1772789594991137300,9.88513720703125,-0.10900865625143051,0.003136982851475477,0.0018543591624125837
1772789595001203000,9.895202880859374,-0.11948211947083473,-0.00021864771936088798,0.0005985960808116942
1772789595011269000,9.90526904296875,-0.11170096407532691,-0.007671119149774312,-0.00010641951654106377
1772789595021335000,9.9153349609375,-0.11993453941345214,-0.00381323814522475,-0.01205056720986031
1772789595031401200,9.925401123046875,-0.11454817019999027,0.005138568464852869,-0.0019701675618067384
1772789595041467100,9.935467041015626,-0.11918167521953582,0.000658792702294886,-0.005229251556145027
1772789595051533300,9.945533203125,-0.11603753197491168,-0.0028538550611585376,0.002976540725911036
1772789595061599200,9.95559912109375,-0.11483750853538513,-0.005209843602776527,-0.002018810742814094
1772789595071665200,9.9656650390625,-0.10899988842308521,-0.00013586480673402547,0.006634113385388627
1772789595081730000,9.97572998046875,-0.11214403166770934,0.005916055643372237,0.008130060164723545
1772789595091796200,9.985796142578126,-0.11004793617129326,0.004279759678430855,0.010201450478145852
1772789595101862100,9.995862060546875,-0.10930150171816348,0.003464716968499124,-0.005866225152276456
1772789595111928300,10.00592822265625,-0.1157359186798334,-0.002727379137277603,-0.0007729571338742971
1772789595121994200,10.015994140625,-0.12352058120667933,-0.00456960947047919,0.004156407293397933
1772789595132060200,10.02606005859375,-0.09838555542826652,0.002107749401591718,0.000750617437902838
1772789595142126000,10.0361259765625,-0.10871171913146972,-0.0004782850362360477,0.0010161547726020217
1772789595152192000,10.04619189453125,-0.12367547950744628,-0.00426156643461436,-0.005662491874257102
1772789595162257200,10.056257080078124,-0.11993395489156246,-0.006547120088525116,-0.002418404519651085
1772789595172323300,10.0663232421875,-0.11708557972311973,-0.004584222517721354,0.0067842259131837635
1772789595182389200,10.07638916015625,-0.11064181041121482,-0.00473521182835102,-0.0014669764131773262
1772789595192455200,10.086455078125,-0.10585048448145389,-0.0045400180498138066,0.0016216737845446913
1772789595202521000,10.09652099609375,-0.11632511674463748,-0.004879442604631185,0.0009335910556837916
1772789595212587000,10.1065869140625,-0.10689970127344131,-0.000777121852338314,0.007553036594903096
1772789595222653200,10.116653076171875,-0.11169394981265067,-0.00023746201768517494,0.006197594264801591
1772789595232719000,10.126718994140624,-0.10630874964296817,-0.005137910877726972,0.004493210632866248
1772789595242785300,10.136785400390625,-0.10361585729718208,-0.007257168054021894,-0.0023296393908094613
1772789595252850200,10.14685009765625,-0.11035013398826121,0.0015216931419447064,0.004569061481207609
1772789595262916000,10.156916015625,-0.10885551151633262,-0.0029366745064035057,0.004657013759296387
1772789595272982000,10.16698193359375,-0.10616203464865684,0.0023700901322066784,0.004706186663266271
1772789595283048200,10.177048095703125,-0.11618892314434051,-0.007323511288501322,0.00318530637207441
1772789595293114000,10.187114013671875,-0.12337445073425769,-0.00007785100918263196,0.001757237197179347
1772789595303180300,10.19718017578125,-0.12935001801252363,-0.0015177110865712165,0.0023760540821123866
1772789595313246200,10.20724609375,-0.12307283743917942,-0.010171448065526783,0.0030073194566648453
1772789595323312000,10.21731201171875,-0.11125497387349605,0.004142725827917457,-0.0013814535541925579
1772789595333377000,10.227376953125,-0.10751520282328128,0.008068740165233611,0.00042440855768509204
1772789595343443200,10.237443115234376,-0.11649638165831565,-0.003988338983803987,0.00276384782330133
1772789595353509000,10.247509033203125,-0.12353168712258338,-0.01379307262878865,0.002307317961147055
1772789595363575300,10.2575751953125,-0.11230828231871127,-0.00827949683908373,0.001525876126717776
1772789595373641200,10.26764111328125,-0.09480185172259807,-0.006314261180721223,0.002381470042746514
1772789595383707400,10.277707275390625,-0.11889409044981002,-0.004481054404191672,0.004246688525890931
1772789595393773300,10.287773193359374,-0.11560440125465392,-0.0030613968646153807,0.004071076230658218
1772789595403839200,10.297839111328125,-0.10393266816139221,0.0012740019911900162,-0.007284211324574425
1772789595413905400,10.307905517578124,-0.11381342618465423,-0.0034292803289368745,0.0000507072739303112
1772789595423970300,10.31797021484375,-0.11037117677628994,-0.009289477599225937,-0.005355243422836065
1772789595434036200,10.3280361328125,-0.11919862635433673,-0.007845964260026811,-0.006442737265443429
1772789595444102400,10.338102294921875,-0.10692132858335972,-0.004841777475364506,-0.001982405988872051
1772789595454168300,10.348168212890625,-0.11964169394671917,-0.00047116117570549247,-0.0006586922375950962
1772789595464234200,10.358234130859374,-0.11919511922299861,0.007960530550405383,0.008113227760931476
1772789595474300400,10.368300537109375,-0.10812076750099658,-0.0037206279583275317,-0.0003305653949268162
1772789595484366000,10.378365966796874,-0.1130611465126276,0.0041442236652597785,0.007461549786012619
1772789595494432300,10.388432373046875,-0.12084405547380447,-0.005102583836019039,0.003673482614662498
1772789595504497400,10.398497314453126,-0.10408172124326229,-0.010680274370498954,0.008134508010977879
1772789595514563300,10.408563232421875,-0.10722527996599673,-0.007263743925280869,-0.0024857615342829373
1772789595524629200,10.418629150390625,-0.11365852788388728,-0.0005310016041621565,0.008794396691815927
1772789595534695400,10.4286953125,-0.11022270821630954,0.004254223378375172,0.011570218080701305
1772789595544761000,10.438760986328125,-0.10573942532241344,0.005303622833453118,0.009411441744770854
1772789595554827300,10.4488271484375,-0.11292027673721312,-0.0022565832877531646,0.009789216415444389
1772789595564893200,10.45889306640625,-0.10454115544855594,-0.002994396043010056,0.00885859363498166
1772789595574959400,10.46895947265625,-0.1181628535658121,0.003414484618604183,0.004479373903758824
1772789595585024300,10.479024169921875,-0.12295242592990398,-0.0064009530834853645,-0.00623315876852721
1772789595595090400,10.48909033203125,-0.11801613857150077,-0.0063667950855568044,-0.0016219386460259557
1772789595605156000,10.499156005859374,-0.11681611513197421,-0.002128719124384224,-0.018135714076133444
1772789595615222300,10.50922216796875,-0.12549334258437156,-0.0018205299580469727,-0.017452718514343723
1772789595625288200,10.5192880859375,-0.11546937669813633,-0.001453742472268641,-0.0073729947197251015
1772789595635354400,10.529354248046875,-0.10394435859918594,0.005386296148225665,-0.005449241849221288
1772789595645420300,10.539420166015624,-0.11576923642754554,-0.0030695801710709926,-0.007349275917420163
1772789595655486500,10.549486572265625,-0.12938801193535326,-0.000017791385017335413,0.008355210690107195
1772789595665551000,10.559551025390626,-0.15003390960097313,-0.007481039937771856,0.019112934210989623
1772789595675617300,10.5696171875,-0.10348960056900977,-0.006370886738784611,0.009503777937032281
1772789595685683200,10.57968310546875,-0.08268880460262298,-0.0033996158430352804,0.005938422738807275
1772789595695749400,10.589749267578124,-0.09735328977108001,-0.007126052487641573,0.01304524080301635
1772789595705815300,10.599815185546875,-0.10977788705825806,-0.0025465061450377106,0.022781749783689156
1772789595715881500,10.609881591796874,-0.1257885261386633,-0.0005938377073034643,0.01997982583916746
1772789595725947400,10.619947509765625,-0.10873217739760875,0.003248370804078877,0.0034583968255668877
1772789595736013000,10.630012939453126,-0.09287292948663234,0.005428856648318469,0.009924350569816305
