time,seconds_elapsed,z,y,x
1772789585175605500,0.06960546875,-1.016571044921875,-0.0313873291015625,0.0140533447265625
1772789585185671700,0.079671630859375,-1.0089263916015625,-0.0312957763671875,0.0141754150390625
1772789585195737600,0.089737548828125,-1.00244140625,-0.0322113037109375,0.0142822265625
1772789585205803500,0.099803466796875,-1.0089874267578125,-0.0338592529296875,0.0141754150390625
1772789585215868700,0.10986865234375,-1.017333984375,-0.033660888671875,0.01446533203125
1772789585225934800,0.119934814453125,-1.0162200927734375,-0.0334320068359375,0.014678955078125
1772789585236000500,0.13000048828125,-1.0084381103515625,-0.0319061279296875,0.0146026611328125
1772789585246066700,0.140066650390625,-1.0063018798828125,-0.0316314697265625,0.01446533203125
1772789585256132600,0.150132568359375,-1.013092041015625,-0.0316314697265625,0.0153350830078125
1772789585266198500,0.160198486328125,-1.0173492431640625,-0.0316162109375,0.0144195556640625
1772789585276264700,0.1702646484375,-1.0106964111328125,-0.032470703125,0.0139617919921875
1772789585286330600,0.18033056640625,-1.005950927734375,-0.033843994140625,0.0134429931640625
1772789585296395500,0.1903955078125,-1.00750732421875,-0.03338623046875,0.0131683349609375
1772789585306461700,0.200461669921875,-1.0145721435546875,-0.032684326171875,0.012451171875
1772789585316527600,0.210527587890625,-1.0155029296875,-0.0321197509765625,0.0115203857421875
1772789585326593500,0.220593505859375,-1.00921630859375,-0.0311279296875,0.0112457275390625
1772789585336659700,0.23065966796875,-1.0066986083984375,-0.031005859375,0.011688232421875
1772789585346725600,0.2407255859375,-1.011260986328125,-0.0323638916015625,0.0119476318359375
1772789585356790500,0.25079052734375,-1.0152587890625,-0.0343170166015625,0.0124053955078125
1772789585366856400,0.2608564453125,-1.013702392578125,-0.0337982177734375,0.011688232421875
1772789585376923000,0.2709228515625,-1.008819580078125,-0.0328826904296875,0.011505126953125
1772789585386988800,0.28098876953125,-1.00732421875,-0.0318145751953125,0.0115966796875
1772789585397054700,0.2910546875,-1.01141357421875,-0.0309906005859375,0.0126953125
1772789585407120600,0.30112060546875,-1.0142822265625,-0.0314178466796875,0.012908935546875
1772789585417186800,0.311186767578125,-1.0106048583984375,-0.03131103515625,0.013916015625
1772789585427252700,0.321252685546875,-1.007110595703125,-0.03228759765625,0.0142364501953125
1772789585437318000,0.33131787109375,-1.0088043212890625,-0.0333404541015625,0.014862060546875
1772789585447383800,0.3413837890625,-1.0125732421875,-0.032684326171875,0.015869140625
1772789585457449700,0.35144970703125,-1.013092041015625,-0.0322265625,0.0158233642578125
1772789585467515600,0.361515625,-1.0097503662109375,-0.0304718017578125,0.01513671875
1772789585477581800,0.371581787109375,-1.0075836181640625,-0.03094482421875,0.01483154296875
1772789585487647700,0.381647705078125,-1.010711669921875,-0.0311737060546875,0.014129638671875
1772789585497714000,0.3917138671875,-1.0139923095703125,-0.0327911376953125,0.014007568359375
1772789585507778800,0.40177880859375,-1.0121307373046875,-0.0331573486328125,0.013153076171875
1772789585517844700,0.4118447265625,-1.009002685546875,-0.0328216552734375,0.0123748779296875
1772789585527910700,0.42191064453125,-1.0086212158203125,-0.0317840576171875,0.0128326416015625
1772789585537976800,0.431976806640625,-1.0112762451171875,-0.03204345703125,0.0123748779296875
1772789585548042800,0.442042724609375,-1.0129241943359375,-0.0312957763671875,0.0116119384765625
1772789585558109000,0.45210888671875,-1.0104522705078125,-0.0322418212890625,0.01214599609375
1772789585568174800,0.4621748046875,-1.0093231201171875,-0.0324249267578125,0.0121612548828125
1772789585578239700,0.47223974609375,-1.0103302001953125,-0.032958984375,0.0114898681640625
1772789585588305700,0.4823056640625,-1.0117950439453125,-0.03265380859375,0.0121002197265625
1772789585598371800,0.492371826171875,-1.0124053955078125,-0.0326690673828125,0.0115509033203125
1772789585608437800,0.502437744140625,-1.0103759765625,-0.0322265625,0.0128021240234375
1772789585618504000,0.51250390625,-1.0104827880859375,-0.031341552734375,0.0135650634765625
1772789585628569900,0.52256982421875,-1.01116943359375,-0.0310516357421875,0.0147247314453125
1772789585638635800,0.5326357421875,-1.01318359375,-0.032440185546875,0.01422119140625
1772789585648700700,0.54270068359375,-1.01275634765625,-0.0326995849609375,0.01397705078125
1772789585658766800,0.552766845703125,-1.009185791015625,-0.0324554443359375,0.0143585205078125
1772789585668832800,0.562832763671875,-1.009613037109375,-0.0311431884765625,0.01483154296875
1772789585678898700,0.572898681640625,-1.012420654296875,-0.031494140625,0.0144805908203125
1772789585688964900,0.58296484375,-1.011810302734375,-0.031829833984375,0.014678955078125
1772789585699030800,0.59303076171875,-1.011688232421875,-0.0313720703125,0.013580322265625
1772789585709096700,0.6030966796875,-1.010345458984375,-0.0323638916015625,0.01348876953125
1772789585719161900,0.613161865234375,-1.0104217529296875,-0.033111572265625,0.0133514404296875
1772789585729227800,0.623227783203125,-1.0115814208984375,-0.0331878662109375,0.01226806640625
1772789585739293700,0.633293701171875,-1.0109100341796875,-0.0325927734375,0.012664794921875
1772789585749359900,0.64335986328125,-1.010772705078125,-0.03228759765625,0.0120391845703125
1772789585759425800,0.65342578125,-1.0106353759765625,-0.0325927734375,0.01202392578125
1772789585769491700,0.66349169921875,-1.0117950439453125,-0.0327911376953125,0.0116119384765625
1772789585779557600,0.6735576171875,-1.0110626220703125,-0.0329437255859375,0.01177978515625
1772789585789622800,0.683622802734375,-1.010284423828125,-0.0326995849609375,0.012603759765625
1772789585799688700,0.693688720703125,-1.01129150390625,-0.0329132080078125,0.012542724609375
1772789585809755000,0.7037548828125,-1.0113525390625,-0.032989501953125,0.0120697021484375
1772789585819820800,0.71382080078125,-1.010498046875,-0.0322723388671875,0.0126953125
1772789585829886700,0.72388671875,-1.010589599609375,-0.0315399169921875,0.0127410888671875
1772789585839952600,0.73395263671875,-1.0103302001953125,-0.0315704345703125,0.0141448974609375
1772789585850018800,0.744018798828125,-1.01007080078125,-0.031341552734375,0.015289306640625
1772789585860084700,0.754084716796875,-1.0111083984375,-0.0318756103515625,0.0140380859375
1772789585870150000,0.76414990234375,-1.01092529296875,-0.0323028564453125,0.014251708984375
1772789585880215800,0.7742158203125,-1.010986328125,-0.0327606201171875,0.01458740234375
1772789585890281700,0.78428173828125,-1.0103302001953125,-0.0322113037109375,0.0145111083984375
1772789585900347600,0.79434765625,-1.0099029541015625,-0.03106689453125,0.013763427734375
1772789585910413800,0.804413818359375,-1.011077880859375,-0.031585693359375,0.012939453125
1772789585920479700,0.814479736328125,-1.011627197265625,-0.0311431884765625,0.0129547119140625
1772789585930546000,0.8245458984375,-1.01025390625,-0.03338623046875,0.012603759765625
1772789585940610800,0.83461083984375,-1.011077880859375,-0.03314208984375,0.012725830078125
1772789585950676700,0.8446767578125,-1.010162353515625,-0.0323638916015625,0.0119171142578125
1772789585960742700,0.85474267578125,-1.010589599609375,-0.0321502685546875,0.011749267578125
1772789585970808800,0.864808837890625,-1.010467529296875,-0.0325775146484375,0.0111846923828125
1772789585980874800,0.874874755859375,-1.0096893310546875,-0.032501220703125,0.0129241943359375
1772789585990941000,0.88494091796875,-1.01129150390625,-0.0320587158203125,0.0131988525390625
1772789586001006800,0.8950068359375,-1.0111236572265625,-0.0322723388671875,0.0123748779296875
1772789586011072800,0.90507275390625,-1.0092315673828125,-0.032623291015625,0.012603759765625
1772789586021137700,0.9151376953125,-1.011688232421875,-0.031982421875,0.0122833251953125
1772789586031203800,0.925203857421875,-1.0110015869140625,-0.031219482421875,0.0130157470703125
1772789586041269800,0.935269775390625,-1.01153564453125,-0.0323486328125,0.0132598876953125
1772789586051336000,0.9453359375,-1.009765625,-0.0323638916015625,0.0142974853515625
1772789586061401900,0.95540185546875,-1.0104827880859375,-0.0316162109375,0.014984130859375
1772789586071467800,0.9654677734375,-1.011688232421875,-0.0322418212890625,0.0141143798828125
1772789586081533700,0.97553369140625,-1.01141357421875,-0.0320892333984375,0.0146331787109375
1772789586091598800,0.985598876953125,-1.0112152099609375,-0.0320892333984375,0.0143890380859375
1772789586101664800,0.995664794921875,-1.0114288330078125,-0.0324554443359375,0.0149078369140625
1772789586111730700,1.005730712890625,-1.01055908203125,-0.0327911376953125,0.0132904052734375
1772789586121796900,1.015796875,-1.0108795166015625,-0.031768798828125,0.012115478515625
1772789586131862800,1.02586279296875,-1.0110321044921875,-0.032684326171875,0.011871337890625
1772789586141928700,1.0359287109375,-1.0099334716796875,-0.0318145751953125,0.0133819580078125
1772789586151994600,1.04599462890625,-1.009796142578125,-0.0314788818359375,0.0115966796875
1772789586162060800,1.056060791015625,-1.0100250244140625,-0.03228759765625,0.0125732421875
1772789586172125700,1.066125732421875,-1.0104217529296875,-0.0323333740234375,0.01214599609375
1772789586182191900,1.07619189453125,-1.01068115234375,-0.03173828125,0.011138916015625
1772789586192257800,1.0862578125,-1.01104736328125,-0.03228759765625,0.0117950439453125
1772789586202323700,1.09632373046875,-1.0116119384765625,-0.0320587158203125,0.0123291015625
1772789586212389600,1.1063896484375,-1.0108184814453125,-0.032135009765625,0.012725830078125
1772789586222455800,1.116455810546875,-1.0112152099609375,-0.032501220703125,0.0135498046875
1772789586232521700,1.126521728515625,-1.0102996826171875,-0.032745361328125,0.013427734375
1772789586242588000,1.136587890625,-1.0097503662109375,-0.032379150390625,0.0143585205078125
1772789586252652800,1.14665283203125,-1.0103607177734375,-0.032684326171875,0.014129638671875
1772789586262718700,1.15671875,-1.010467529296875,-0.032196044921875,0.0148773193359375
1772789586272784600,1.16678466796875,-1.011383056640625,-0.031646728515625,0.01470947265625
1772789586282850800,1.176850830078125,-1.010711669921875,-0.032440185546875,0.0147705078125
1772789586292916700,1.186916748046875,-1.0104522705078125,-0.0332489013671875,0.0145263671875
1772789586302983000,1.19698291015625,-1.0108795166015625,-0.0325775146484375,0.0136260986328125
1772789586313048800,1.207048828125,-1.010833740234375,-0.0319366455078125,0.0137481689453125
1772789586323114800,1.21711474609375,-1.01123046875,-0.032623291015625,0.01300048828125
1772789586333179600,1.2271796875,-1.0106658935546875,-0.0324554443359375,0.0127105712890625
1772789586343245800,1.237245849609375,-1.0104217529296875,-0.0322723388671875,0.0128326416015625
1772789586353311700,1.247311767578125,-1.0110321044921875,-0.0331268310546875,0.0133514404296875
1772789586363378000,1.2573779296875,-1.0107879638671875,-0.0326385498046875,0.0116424560546875
1772789586373443800,1.26744384765625,-1.0124359130859375,-0.0323333740234375,0.0121917724609375
1772789586383509800,1.277509765625,-1.0121002197265625,-0.0322265625,0.0122528076171875
1772789586393575700,1.28757568359375,-1.010498046875,-0.032684326171875,0.013092041015625
1772789586403641600,1.2976416015625,-1.0089569091796875,-0.0322723388671875,0.013458251953125
1772789586413707800,1.307707763671875,-1.0112152099609375,-0.03289794921875,0.013275146484375
1772789586423773000,1.31777294921875,-1.0109710693359375,-0.0325469970703125,0.0128326416015625
1772789586433838800,1.3278388671875,-1.01043701171875,-0.032318115234375,0.013153076171875
1772789586443904800,1.33790478515625,-1.0108642578125,-0.032257080078125,0.013946533203125
1772789586453970700,1.347970703125,-1.0104827880859375,-0.0318450927734375,0.0139312744140625
1772789586464036600,1.35803662109375,-1.0110626220703125,-0.031829833984375,0.014129638671875
1772789586474102800,1.368102783203125,-1.0102691650390625,-0.0319671630859375,0.01446533203125
1772789586484168700,1.378168701171875,-1.0108642578125,-0.0329132080078125,0.0131988525390625
1772789586494235000,1.38823486328125,-1.0108489990234375,-0.03265380859375,0.0141448974609375
1772789586504299800,1.3982998046875,-1.0107574462890625,-0.0319671630859375,0.01361083984375
1772789586514365700,1.40836572265625,-1.0107879638671875,-0.032257080078125,0.013702392578125
1772789586524431600,1.418431640625,-1.0121002197265625,-0.0324249267578125,0.0130157470703125
1772789586534497800,1.428497802734375,-1.0101165771484375,-0.03204345703125,0.0126800537109375
1772789586544563700,1.438563720703125,-1.010162353515625,-0.03173828125,0.013275146484375
1772789586554630000,1.4486298828125,-1.010406494140625,-0.0318603515625,0.01275634765625
1772789586564695800,1.45869580078125,-1.011322021484375,-0.0332489013671875,0.011962890625
1772789586574762000,1.468761962890625,-1.01031494140625,-0.0334625244140625,0.013214111328125
1772789586584827600,1.47882763671875,-1.010406494140625,-0.03253173828125,0.012054443359375
1772789586594892800,1.488892822265625,-1.011016845703125,-0.032501220703125,0.0120849609375
1772789586604958700,1.498958740234375,-1.0107421875,-0.0316619873046875,0.0122833251953125
1772789586615025000,1.50902490234375,-1.0103759765625,-0.031707763671875,0.01239013671875
1772789586625090800,1.5190908203125,-1.010406494140625,-0.0319061279296875,0.0141448974609375
1772789586635157000,1.529156982421875,-1.0097198486328125,-0.0321197509765625,0.013153076171875
1772789586645222700,1.53922265625,-1.0108642578125,-0.0327911376953125,0.013153076171875
1772789586655288600,1.54928857421875,-1.0123443603515625,-0.03277587890625,0.0139923095703125
1772789586665354800,1.559354736328125,-1.0106048583984375,-0.0322265625,0.0135345458984375
1772789586675420000,1.569419921875,-1.010009765625,-0.0316314697265625,0.01397705078125
1772789586685485800,1.57948583984375,-1.0116729736328125,-0.0319671630859375,0.0141754150390625
1772789586695552000,1.589552001953125,-1.011505126953125,-0.0314483642578125,0.0135498046875
1772789586705617700,1.59961767578125,-1.0110015869140625,-0.032012939453125,0.01318359375
1772789586715683600,1.60968359375,-1.009552001953125,-0.0327606201171875,0.0129241943359375
1772789586725749800,1.619749755859375,-1.009002685546875,-0.0323333740234375,0.0138092041015625
1772789586735815700,1.629815673828125,-1.009857177734375,-0.0319366455078125,0.01324462890625
1772789586745881900,1.6398818359375,-1.011505126953125,-0.03302001953125,0.01318359375
1772789586755947800,1.64994775390625,-1.0101165771484375,-0.0329132080078125,0.012420654296875
1772789586766014000,1.660013916015625,-1.0093841552734375,-0.0322113037109375,0.013092041015625
1772789586776078600,1.67007861328125,-1.0112457275390625,-0.0325775146484375,0.012542724609375
1772789586786144800,1.680144775390625,-1.011962890625,-0.03204345703125,0.01214599609375
1772789586796210700,1.690210693359375,-1.01165771484375,-0.03253173828125,0.011566162109375
1772789586806276900,1.70027685546875,-1.0096893310546875,-0.0324554443359375,0.0127410888671875
1772789586816342800,1.7103427734375,-1.0098876953125,-0.032012939453125,0.0123443603515625
1772789586826409000,1.720408935546875,-1.0101470947265625,-0.0321502685546875,0.0120697021484375
1772789586836475000,1.730474853515625,-1.01324462890625,-0.0325164794921875,0.01300048828125
1772789586846540800,1.740540771484375,-1.0115966796875,-0.032135009765625,0.0136566162109375
1772789586856606700,1.750606689453125,-1.00927734375,-0.0329437255859375,0.0131988525390625
1772789586866671900,1.760671875,-1.010467529296875,-0.0323638916015625,0.0139007568359375
1772789586876737800,1.77073779296875,-1.010833740234375,-0.0331268310546875,0.0145263671875
1772789586886804000,1.780803955078125,-1.01202392578125,-0.0325164794921875,0.0137939453125
1772789586896869600,1.79086962890625,-1.0110015869140625,-0.03173828125,0.0137939453125
1772789586906935800,1.800935791015625,-1.0098724365234375,-0.031707763671875,0.0143280029296875
1772789586917001700,1.811001708984375,-1.0097808837890625,-0.0322723388671875,0.0140228271484375
1772789586927067600,1.821067626953125,-1.0106048583984375,-0.03173828125,0.0135345458984375
1772789586937133800,1.8311337890625,-1.0111236572265625,-0.0323028564453125,0.013397216796875
1772789586947199700,1.84119970703125,-1.0114593505859375,-0.03326416015625,0.0139007568359375
1772789586957264600,1.8512646484375,-1.0109405517578125,-0.032684326171875,0.0135955810546875
1772789586967330800,1.861330810546875,-1.0097503662109375,-0.0314483642578125,0.0123748779296875
1772789586977396700,1.871396728515625,-1.0105133056640625,-0.0320281982421875,0.0125274658203125
1772789586987462700,1.881462646484375,-1.010528564453125,-0.032684326171875,0.012054443359375
1772789586997528800,1.89152880859375,-1.010650634765625,-0.03216552734375,0.013275146484375
1772789587007594800,1.9015947265625,-1.011505126953125,-0.03265380859375,0.0120697021484375
1772789587017661000,1.911660888671875,-1.010589599609375,-0.032135009765625,0.0110015869140625
1772789587027726800,1.921726806640625,-1.01116943359375,-0.032623291015625,0.0125885009765625
1772789587037792800,1.931792724609375,-1.01080322265625,-0.03314208984375,0.012451171875
1772789587047858700,1.941858642578125,-1.0103912353515625,-0.032745361328125,0.012481689453125
1772789587057923800,1.951923828125,-1.0097503662109375,-0.03228759765625,0.0146026611328125
1772789587067989800,1.96198974609375,-1.00933837890625,-0.0324859619140625,0.013916015625
1772789587078056000,1.972055908203125,-1.0106964111328125,-0.032196044921875,0.014251708984375
1772789587088121900,1.982121826171875,-1.0104217529296875,-0.032135009765625,0.0139312744140625
1772789587098187800,1.992187744140625,-1.0095977783203125,-0.033050537109375,0.015167236328125
1772789587108253700,2.002253662109375,-1.010284423828125,-0.03271484375,0.0142974853515625
1772789587118319900,2.01231982421875,-1.011199951171875,-0.0331878662109375,0.013580322265625
1772789587128385800,2.0223857421875,-1.01129150390625,-0.032318115234375,0.013153076171875
1772789587138451700,2.03245166015625,-1.0104217529296875,-0.0326995849609375,0.0136260986328125
1772789587148518000,2.042517822265625,-1.0103302001953125,-0.0323638916015625,0.0134429931640625
1772789587158582800,2.052582763671875,-1.0109710693359375,-0.032073974609375,0.013946533203125
1772789587168648700,2.062648681640625,-1.0111846923828125,-0.0331268310546875,0.012969970703125
1772789587178715000,2.07271484375,-1.011077880859375,-0.0325164794921875,0.012115478515625
1772789587188780800,2.08278076171875,-1.010711669921875,-0.0327911376953125,0.012054443359375
1772789587198846700,2.0928466796875,-1.0106964111328125,-0.03253173828125,0.0121612548828125
1772789587208913000,2.102912841796875,-1.01153564453125,-0.032318115234375,0.012298583984375
1772789587218978800,2.112978759765625,-1.012115478515625,-0.0325164794921875,0.0126953125
1772789587229044700,2.123044677734375,-1.0103759765625,-0.03240966796875,0.0125274658203125
1772789587239110700,2.133110595703125,-1.010986328125,-0.032012939453125,0.0130157470703125
1772789587249176800,2.1431767578125,-1.009796142578125,-0.0321807861328125,0.0133209228515625
1772789587259241700,2.15324169921875,-1.009796142578125,-0.032196044921875,0.01348876953125
1772789587269308000,2.163307861328125,-1.0111541748046875,-0.03204345703125,0.013519287109375
1772789587279373800,2.173373779296875,-1.010467529296875,-0.031951904296875,0.013580322265625
1772789587289439700,2.183439697265625,-1.010498046875,-0.032073974609375,0.01336669921875
1772789587299505700,2.193505615234375,-1.01202392578125,-0.03228759765625,0.0146484375
1772789587309571800,2.20357177734375,-1.011260986328125,-0.0319976806640625,0.013336181640625
1772789587319637800,2.2136376953125,-1.0110626220703125,-0.03204345703125,0.01361083984375
1772789587329703700,2.22370361328125,-1.0104827880859375,-0.032928466796875,0.01373291015625
1772789587339769900,2.233769775390625,-1.010467529296875,-0.0327911376953125,0.0142669677734375
1772789587349835800,2.243835693359375,-1.01275634765625,-0.032318115234375,0.0136871337890625
1772789587359901700,2.253901611328125,-1.0107421875,-0.0317230224609375,0.0142822265625
1772789587369966800,2.263966796875,-1.0102996826171875,-0.0318450927734375,0.0130462646484375
1772789587380033300,2.274033203125,-1.010101318359375,-0.0325927734375,0.0121002197265625
1772789587390099200,2.28409912109375,-1.010986328125,-0.032470703125,0.0124359130859375
1772789587400165000,2.2941650390625,-1.011505126953125,-0.0320587158203125,0.012725830078125
1772789587410231000,2.30423095703125,-1.0104522705078125,-0.032745361328125,0.0124359130859375
1772789587420297200,2.314297119140625,-1.0104217529296875,-0.0328216552734375,0.0135345458984375
1772789587430363100,2.324363037109375,-1.0100555419921875,-0.032318115234375,0.0131072998046875
1772789587440429300,2.33442919921875,-1.0106964111328125,-0.032470703125,0.01336669921875
1772789587450495200,2.3444951171875,-1.0125732421875,-0.033050537109375,0.0128021240234375
1772789587460561200,2.35456103515625,-1.0110931396484375,-0.03179931640625,0.0132904052734375
1772789587470627300,2.36462744140625,-1.0102386474609375,-0.0320892333984375,0.0139007568359375
1772789587480692200,2.374692138671875,-1.010406494140625,-0.032867431640625,0.01348876953125
1772789587490758100,2.384758056640625,-1.0099639892578125,-0.032684326171875,0.01416015625
1772789587500824300,2.39482421875,-1.0115966796875,-0.0325927734375,0.0141448974609375
1772789587510890200,2.40489013671875,-1.010772705078125,-0.0321807861328125,0.013397216796875
1772789587520956200,2.4149560546875,-1.010986328125,-0.0319671630859375,0.0124969482421875
1772789587531022300,2.425022216796875,-1.0100860595703125,-0.0323486328125,0.0128631591796875
1772789587541088000,2.435087890625,-1.0107879638671875,-0.03302001953125,0.014434814453125
1772789587551154200,2.445154296875,-1.0113067626953125,-0.0323333740234375,0.0134124755859375
1772789587561220000,2.45522021484375,-1.0113067626953125,-0.032470703125,0.0128173828125
1772789587571286300,2.465286376953125,-1.0105438232421875,-0.031982421875,0.01251220703125
1772789587581352200,2.475352294921875,-1.0104217529296875,-0.032440185546875,0.01275634765625
1772789587591417300,2.485417236328125,-1.0107879638671875,-0.0323638916015625,0.0126190185546875
1772789587601483000,2.49548291015625,-1.0114898681640625,-0.0330657958984375,0.0129547119140625
1772789587611549200,2.505549072265625,-1.009979248046875,-0.031890869140625,0.0122528076171875
1772789587621615000,2.515614990234375,-1.011260986328125,-0.0321807861328125,0.0135955810546875
1772789587631681300,2.525681396484375,-1.01068115234375,-0.032928466796875,0.012725830078125
1772789587641747200,2.535747314453125,-1.010650634765625,-0.0323333740234375,0.0128631591796875
1772789587651813400,2.5458134765625,-1.0115203857421875,-0.0322265625,0.012542724609375
1772789587661879300,2.55587939453125,-1.010345458984375,-0.033203125,0.0124969482421875
1772789587671945200,2.5659453125,-1.011138916015625,-0.0329742431640625,0.0133819580078125
1772789587682011100,2.57601123046875,-1.011199951171875,-0.0320587158203125,0.0132293701171875
1772789587692077000,2.5860771484375,-1.0104522705078125,-0.0321197509765625,0.01385498046875
1772789587702142200,2.59614208984375,-1.0104827880859375,-0.0324249267578125,0.0140380859375
1772789587712208400,2.60620849609375,-1.010833740234375,-0.0325164794921875,0.0144195556640625
1772789587722274300,2.6162744140625,-1.0123138427734375,-0.0317230224609375,0.0128936767578125
1772789587732340200,2.62634033203125,-1.0104827880859375,-0.0319671630859375,0.0137481689453125
1772789587742406100,2.63640625,-1.0096435546875,-0.0325164794921875,0.013519287109375
1772789587752472000,2.64647216796875,-1.0113067626953125,-0.032196044921875,0.0127105712890625
1772789587762538200,2.656538330078125,-1.01129150390625,-0.032440185546875,0.0130462646484375
1772789587772604200,2.666604248046875,-1.0098724365234375,-0.0320892333984375,0.0139007568359375
1772789587782670300,2.67667041015625,-1.01129150390625,-0.031829833984375,0.0134429931640625
1772789587792736300,2.686736328125,-1.00994873046875,-0.0321197509765625,0.0126190185546875
1772789587802802200,2.69680224609375,-1.010833740234375,-0.0323944091796875,0.0128326416015625
1772789587812867000,2.7068671875,-1.0105743408203125,-0.033172607421875,0.0122528076171875
1772789587822933200,2.716933349609375,-1.01123046875,-0.0324859619140625,0.0113983154296875
1772789587832999200,2.726999267578125,-1.011138916015625,-0.0318145751953125,0.01336669921875
1772789587843065300,2.7370654296875,-1.010894775390625,-0.0326080322265625,0.0124664306640625
1772789587853131300,2.74713134765625,-1.01123046875,-0.032684326171875,0.013153076171875
1772789587863197200,2.757197265625,-1.011016845703125,-0.0322723388671875,0.013916015625
1772789587873263000,2.76726318359375,-1.010223388671875,-0.032623291015625,0.0138397216796875
1772789587883329300,2.777329345703125,-1.0112152099609375,-0.0322723388671875,0.013641357421875
1772789587893395200,2.787395263671875,-1.010528564453125,-0.032623291015625,0.014007568359375
1772789587903461000,2.797461181640625,-1.0109100341796875,-0.032135009765625,0.0140838623046875
1772789587913527300,2.80752734375,-1.0128631591796875,-0.03192138671875,0.0144805908203125
1772789587923593200,2.81759326171875,-1.01129150390625,-0.031585693359375,0.01318359375
1772789587933658000,2.827658203125,-1.010894775390625,-0.0326385498046875,0.0128021240234375
1772789587943724000,2.83772412109375,-1.010772705078125,-0.0324859619140625,0.0139923095703125
1772789587953790200,2.847790283203125,-1.011016845703125,-0.0323028564453125,0.0140533447265625
1772789587963856100,2.857856201171875,-1.011199951171875,-0.03179931640625,0.0141754150390625
1772789587973922300,2.86792236328125,-1.0103607177734375,-0.0327301025390625,0.0129852294921875
1772789587983988200,2.87798828125,-1.010711669921875,-0.0325775146484375,0.0128936767578125
1772789587994054100,2.88805419921875,-1.0105438232421875,-0.0323028564453125,0.0133209228515625
1772789588004120000,2.8981201171875,-1.0106353759765625,-0.031707763671875,0.0126190185546875
1772789588014186200,2.908186279296875,-1.0110626220703125,-0.0312347412109375,0.0130462646484375
1772789588024252200,2.918252197265625,-1.0103607177734375,-0.032501220703125,0.0138702392578125
1772789588034318300,2.928318359375,-1.0103302001953125,-0.0322265625,0.012969970703125
1772789588044384300,2.93838427734375,-1.010406494140625,-0.031402587890625,0.0130462646484375
1772789588054450200,2.9484501953125,-1.0102996826171875,-0.0316925048828125,0.0133819580078125
1772789588064515000,2.95851513671875,-1.0105743408203125,-0.032379150390625,0.012451171875
1772789588074581200,2.968581298828125,-1.0114898681640625,-0.0319061279296875,0.0127105712890625
1772789588084647200,2.978647216796875,-1.0107879638671875,-0.0323638916015625,0.0128173828125
1772789588094713000,2.988713134765625,-1.0097808837890625,-0.032196044921875,0.014007568359375
1772789588104779300,2.998779296875,-1.0107269287109375,-0.0316314697265625,0.013336181640625
1772789588114845200,3.00884521484375,-1.01177978515625,-0.0322113037109375,0.01397705078125
1772789588124911400,3.018911376953125,-1.011199951171875,-0.03253173828125,0.013427734375
1772789588134977000,3.02897705078125,-1.0104522705078125,-0.03240966796875,0.012969970703125
1772789588145043200,3.039043212890625,-1.0105133056640625,-0.032684326171875,0.013153076171875
1772789588155109000,3.049109130859375,-1.010467529296875,-0.0329742431640625,0.013519287109375
1772789588165175300,3.05917529296875,-1.0101776123046875,-0.0322723388671875,0.0133819580078125
1772789588175241200,3.0692412109375,-1.0106048583984375,-0.0321197509765625,0.0131378173828125
1772789588185306400,3.079306396484375,-1.01116943359375,-0.0322113037109375,0.012908935546875
1772789588195372000,3.0893720703125,-1.01068115234375,-0.03228759765625,0.0131683349609375
1772789588205438200,3.099438232421875,-1.0101776123046875,-0.032379150390625,0.012786865234375
1772789588215504100,3.109504150390625,-1.0113525390625,-0.032501220703125,0.0120391845703125
1772789588225570300,3.1195703125,-1.01129150390625,-0.033355712890625,0.0121307373046875
1772789588235636200,3.12963623046875,-1.0121002197265625,-0.0323486328125,0.0127410888671875
1772789588245702100,3.1397021484375,-1.011383056640625,-0.0324249267578125,0.01239013671875
1772789588255768300,3.149768310546875,-1.0107574462890625,-0.032684326171875,0.0125885009765625
1772789588265834000,3.159833984375,-1.0111541748046875,-0.0327301025390625,0.0118865966796875
1772789588275900200,3.169900146484375,-1.0109100341796875,-0.0328216552734375,0.013580322265625
1772789588285966000,3.179966064453125,-1.0107879638671875,-0.032073974609375,0.0133056640625
1772789588296032300,3.1900322265625,-1.010101318359375,-0.0313262939453125,0.01300048828125
1772789588306098200,3.20009814453125,-1.011077880859375,-0.0325469970703125,0.0136871337890625
1772789588316163300,3.210163330078125,-1.011260986328125,-0.03204345703125,0.0134429931640625
1772789588326229000,3.22022900390625,-1.0104217529296875,-0.032196044921875,0.01409912109375
1772789588336295200,3.230295166015625,-1.01104736328125,-0.03228759765625,0.013763427734375
1772789588346361000,3.240361083984375,-1.0115509033203125,-0.0324859619140625,0.0139312744140625
1772789588356427300,3.25042724609375,-1.011383056640625,-0.033355712890625,0.013458251953125
1772789588366493200,3.2604931640625,-1.0107574462890625,-0.0323638916015625,0.013824462890625
1772789588376558800,3.270558837890625,-1.0109405517578125,-0.0314483642578125,0.0130615234375
1772789588386624800,3.280624755859375,-1.0106048583984375,-0.0322723388671875,0.012847900390625
1772789588396691000,3.29069091796875,-1.0106964111328125,-0.032470703125,0.012603759765625
1772789588406756900,3.3007568359375,-1.0107879638671875,-0.032470703125,0.0133056640625
1772789588416822800,3.31082275390625,-1.011505126953125,-0.0326385498046875,0.012603759765625
1772789588426888700,3.320888671875,-1.0110931396484375,-0.032196044921875,0.012939453125
1772789588436954600,3.33095458984375,-1.010772705078125,-0.032623291015625,0.012725830078125
1772789588447020800,3.341020751953125,-1.010345458984375,-0.031768798828125,0.0123291015625
1772789588457086000,3.3510859375,-1.0100250244140625,-0.0319976806640625,0.0127410888671875
1772789588467152000,3.36115185546875,-1.0109100341796875,-0.03240966796875,0.01226806640625
1772789588477217800,3.3712177734375,-1.0104522705078125,-0.03228759765625,0.01251220703125
1772789588487283700,3.38128369140625,-1.010833740234375,-0.031707763671875,0.0137176513671875
1772789588497349600,3.391349609375,-1.0105743408203125,-0.032806396484375,0.0135650634765625
1772789588507415800,3.401415771484375,-1.01025390625,-0.0330047607421875,0.0128631591796875
1772789588517481700,3.411481689453125,-1.0107421875,-0.0323333740234375,0.0133819580078125
1772789588527548000,3.4215478515625,-1.0123138427734375,-0.0328521728515625,0.0139617919921875
1772789588537613800,3.43161376953125,-1.011993408203125,-0.031890869140625,0.0136260986328125
1772789588547679700,3.4416796875,-1.0091094970703125,-0.031707763671875,0.0135955810546875
1772789588557745700,3.45174560546875,-1.0105133056640625,-0.03179931640625,0.0136871337890625
1772789588567811800,3.461811767578125,-1.0123138427734375,-0.032012939453125,0.0145416259765625
1772789588577877800,3.471877685546875,-1.011932373046875,-0.032440185546875,0.014129638671875
1772789588587943000,3.48194287109375,-1.0108795166015625,-0.0329132080078125,0.013519287109375
1772789588598008800,3.4920087890625,-1.010772705078125,-0.0320587158203125,0.013916015625
1772789588608074800,3.50207470703125,-1.01068115234375,-0.0324859619140625,0.0141143798828125
1772789588618140700,3.512140625,-1.0112457275390625,-0.032379150390625,0.012298583984375
1772789588628206800,3.522206787109375,-1.01104736328125,-0.0314483642578125,0.0122528076171875
1772789588638272800,3.532272705078125,-1.0113983154296875,-0.032073974609375,0.0126800537109375
1772789588648338700,3.542338623046875,-1.011138916015625,-0.033111572265625,0.0135955810546875
1772789588658404900,3.55240478515625,-1.0106201171875,-0.03228759765625,0.01318359375
1772789588668470800,3.562470703125,-1.0111541748046875,-0.0324554443359375,0.0140380859375
1772789588678537000,3.572536865234375,-1.01171875,-0.032073974609375,0.014068603515625
1772789588688602600,3.5826025390625,-1.011260986328125,-0.0327301025390625,0.013519287109375
1772789588698668800,3.592668701171875,-1.0111541748046875,-0.0323486328125,0.0130767822265625
1772789588708734700,3.602734619140625,-1.010467529296875,-0.032379150390625,0.01300048828125
1772789588718801000,3.61280078125,-1.0124359130859375,-0.03240966796875,0.01239013671875
1772789588728865800,3.62286572265625,-1.01129150390625,-0.031463623046875,0.0133209228515625
1772789588738932000,3.632931884765625,-1.0094757080078125,-0.0324249267578125,0.013397216796875
1772789588748997600,3.64299755859375,-1.0100555419921875,-0.03131103515625,0.0132598876953125
1772789588759063800,3.653063720703125,-1.0112457275390625,-0.0324249267578125,0.013336181640625
1772789588769129700,3.663129638671875,-1.009735107421875,-0.0323944091796875,0.012725830078125
1772789588779196000,3.67319580078125,-1.009368896484375,-0.032562255859375,0.0131683349609375
1772789588789261800,3.68326171875,-1.01123046875,-0.032989501953125,0.012847900390625
1772789588799327700,3.69332763671875,-1.0112152099609375,-0.03314208984375,0.0134735107421875
1772789588809394000,3.703393798828125,-1.01177978515625,-0.032745361328125,0.0131072998046875
1772789588819459600,3.71345947265625,-1.0117034912109375,-0.032379150390625,0.013275146484375
1772789588829525800,3.72352587890625,-1.0111846923828125,-0.0325164794921875,0.0122528076171875
1772789588839591700,3.733591796875,-1.0118865966796875,-0.0321502685546875,0.0131378173828125
1772789588849657900,3.743657958984375,-1.00994873046875,-0.0316009521484375,0.014190673828125
1772789588859723800,3.753723876953125,-1.010467529296875,-0.032684326171875,0.0130767822265625
1772789588869790000,3.7637900390625,-1.0115966796875,-0.032745361328125,0.01239013671875
1772789588879854600,3.7738544921875,-1.0114288330078125,-0.03277587890625,0.0140533447265625
1772789588889920800,3.783920654296875,-1.0102386474609375,-0.03179931640625,0.0135345458984375
1772789588899986700,3.793986572265625,-1.0111236572265625,-0.0321197509765625,0.0136566162109375
1772789588910052900,3.804052978515625,-1.010986328125,-0.0318756103515625,0.0135650634765625
1772789588920118800,3.814118896484375,-1.0115814208984375,-0.0318603515625,0.0127410888671875
1772789588930185000,3.82418505859375,-1.0115966796875,-0.032562255859375,0.0129547119140625
1772789588940251000,3.8342509765625,-1.0106658935546875,-0.032806396484375,0.0129852294921875
1772789588950316500,3.844316650390625,-1.0111236572265625,-0.0328369140625,0.0128631591796875
1772789588960382700,3.8543828125,-1.011077880859375,-0.0322418212890625,0.01312255859375
1772789588970448600,3.86444873046875,-1.011688232421875,-0.0323486328125,0.0131072998046875
1772789588980514800,3.874514892578125,-1.010162353515625,-0.032562255859375,0.0135650634765625
1772789588990580700,3.884580810546875,-1.0100555419921875,-0.0325775146484375,0.013885498046875
1772789589000647000,3.89464697265625,-1.0100555419921875,-0.0319366455078125,0.0135498046875
1772789589010712800,3.904712890625,-1.0108642578125,-0.0317230224609375,0.0135498046875
1772789589020779000,3.914779052734375,-1.0113677978515625,-0.03277587890625,0.0129241943359375
1772789589030843600,3.92484375,-1.0114898681640625,-0.0318450927734375,0.0135650634765625
1772789589040909800,3.934909912109375,-1.0099639892578125,-0.0323486328125,0.01324462890625
1772789589050975700,3.944975830078125,-1.0099334716796875,-0.0323944091796875,0.0122833251953125
1772789589061042000,3.9550419921875,-1.0101165771484375,-0.032257080078125,0.013916015625
1772789589071107800,3.96510791015625,-1.010894775390625,-0.03265380859375,0.0132598876953125
1772789589081174000,3.975174072265625,-1.010650634765625,-0.03253173828125,0.012237548828125
1772789589091239700,3.98523974609375,-1.010406494140625,-0.032318115234375,0.01318359375
1772789589101305600,3.9953056640625,-1.0115814208984375,-0.0321807861328125,0.0136260986328125
1772789589111370800,4.005370849609375,-1.0113067626953125,-0.0318756103515625,0.0140380859375
1772789589121437000,4.01543701171875,-1.0107421875,-0.0320587158203125,0.0127105712890625
1772789589131502800,4.0255029296875,-1.01031494140625,-0.0319061279296875,0.0140838623046875
1772789589141568800,4.03556884765625,-1.0104827880859375,-0.0328826904296875,0.0140228271484375
1772789589151634700,4.045634765625,-1.010772705078125,-0.0336761474609375,0.0139007568359375
1772789589161700600,4.05570068359375,-1.0111541748046875,-0.0328826904296875,0.0133056640625
1772789589171766800,4.065766845703125,-1.011444091796875,-0.03240966796875,0.013336181640625
1772789589181832700,4.075832763671875,-1.0109405517578125,-0.0325775146484375,0.01251220703125
1772789589191899000,4.08589892578125,-1.0103302001953125,-0.03118896484375,0.0138702392578125
1772789589201964800,4.09596484375,-1.0105743408203125,-0.0323638916015625,0.0135498046875
1772789589212031000,4.106031005859375,-1.0115509033203125,-0.032958984375,0.012786865234375
1772789589222096600,4.1160966796875,-1.0116424560546875,-0.0326080322265625,0.0134429931640625
1772789589232161800,4.126161865234375,-1.0102996826171875,-0.0332489013671875,0.01336669921875
1772789589242227700,4.136227783203125,-1.011016845703125,-0.0319671630859375,0.01263427734375
1772789589252294000,4.1462939453125,-1.0118255615234375,-0.031829833984375,0.0128021240234375
1772789589262359800,4.15635986328125,-1.0112152099609375,-0.03192138671875,0.013671875
1772789589272426000,4.166426025390625,-1.0106658935546875,-0.032470703125,0.013397216796875
1772789589282491600,4.17649169921875,-1.009521484375,-0.0321807861328125,0.013671875
1772789589292557800,4.186557861328125,-1.0104827880859375,-0.0320587158203125,0.0131072998046875
1772789589302623700,4.196623779296875,-1.0113067626953125,-0.032440185546875,0.013671875
1772789589312689700,4.206689697265625,-1.0116729736328125,-0.0321807861328125,0.013763427734375
1772789589322755800,4.216755859375,-1.0112152099609375,-0.0321044921875,0.0137939453125
1772789589332821800,4.22682177734375,-1.0107269287109375,-0.0317230224609375,0.013916015625
1772789589342888000,4.236887939453125,-1.0110015869140625,-0.0322723388671875,0.0130615234375
1772789589352953600,4.24695361328125,-1.011383056640625,-0.032257080078125,0.012908935546875
1772789589363019800,4.257019775390625,-1.01104736328125,-0.0322113037109375,0.0134429931640625
1772789589373085700,4.267085693359375,-1.01123046875,-0.0318603515625,0.01336669921875
1772789589383150800,4.27715087890625,-1.01177978515625,-0.0321197509765625,0.012939453125
1772789589393216800,4.287216796875,-1.0118408203125,-0.031890869140625,0.0130615234375
1772789589403283000,4.297282958984375,-1.0111083984375,-0.033447265625,0.0120849609375
1772789589413348600,4.3073486328125,-1.0113983154296875,-0.03155517578125,0.012908935546875
1772789589423414800,4.317414794921875,-1.0114288330078125,-0.0313873291015625,0.01251220703125
1772789589433480700,4.327480712890625,-1.0108489990234375,-0.0322113037109375,0.01300048828125
1772789589443547000,4.337546875,-1.010711669921875,-0.0321044921875,0.013153076171875
1772789589453612800,4.34761279296875,-1.0107574462890625,-0.032073974609375,0.012908935546875
1772789589463678700,4.3576787109375,-1.0108795166015625,-0.0322113037109375,0.012725830078125
1772789589473745000,4.367744873046875,-1.0105438232421875,-0.0323638916015625,0.0136871337890625
1772789589483810600,4.377810546875,-1.0114288330078125,-0.032867431640625,0.013641357421875
1772789589493876700,4.387876708984375,-1.01141357421875,-0.032806396484375,0.0140380859375
1772789589503942700,4.397942626953125,-1.0104217529296875,-0.032379150390625,0.0142059326171875
1772789589514008800,4.4080087890625,-1.0117034912109375,-0.033050537109375,0.013275146484375
1772789589524074800,4.41807470703125,-1.0116119384765625,-0.0322265625,0.012786865234375
1772789589534141000,4.428140869140625,-1.010040283203125,-0.032745361328125,0.013824462890625
1772789589544205600,4.43820556640625,-1.0108642578125,-0.033172607421875,0.01324462890625
1772789589554271700,4.448271728515625,-1.0118408203125,-0.0329437255859375,0.013916015625
1772789589564337700,4.458337646484375,-1.011444091796875,-0.0327606201171875,0.0134735107421875
1772789589574403800,4.46840380859375,-1.01080322265625,-0.03271484375,0.012664794921875
1772789589584469800,4.4784697265625,-1.0110626220703125,-0.0319671630859375,0.0131683349609375
1772789589594536000,4.488535888671875,-1.010498046875,-0.0324554443359375,0.013458251953125
1772789589604601900,4.498601806640625,-1.0110931396484375,-0.0327606201171875,0.01226806640625
1772789589614667800,4.508667724609375,-1.01007080078125,-0.0321502685546875,0.013031005859375
1772789589624733700,4.518733642578125,-1.0110626220703125,-0.0319671630859375,0.01287841796875
1772789589634799600,4.528799560546875,-1.0102386474609375,-0.032440185546875,0.0122528076171875
1772789589644865800,4.53886572265625,-1.010772705078125,-0.0320587158203125,0.0122833251953125
1772789589654931700,4.548931640625,-1.0109710693359375,-0.03271484375,0.012359619140625
1772789589664998000,4.558997802734375,-1.0113067626953125,-0.0321502685546875,0.0125274658203125
1772789589675063800,4.569063720703125,-1.010772705078125,-0.0322113037109375,0.0134735107421875
1772789589685130000,4.5791298828125,-1.010223388671875,-0.0325775146484375,0.013916015625
1772789589695195600,4.589195556640625,-1.00958251953125,-0.0326385498046875,0.013580322265625
1772789589705261800,4.59926171875,-1.0117950439453125,-0.032196044921875,0.01336669921875
1772789589715327700,4.60932763671875,-1.01177978515625,-0.0324859619140625,0.0137176513671875
1772789589725393000,4.619392822265625,-1.010772705078125,-0.0323028564453125,0.014556884765625
1772789589735458800,4.629458740234375,-1.01043701171875,-0.0312957763671875,0.0135040283203125
1772789589745525000,4.63952490234375,-1.0120697021484375,-0.0319976806640625,0.0139007568359375
1772789589755592000,4.649592041015625,-1.0104827880859375,-0.0322265625,0.013458251953125
1772789589765656800,4.65965673828125,-1.0108184814453125,-0.0325927734375,0.014129638671875
1772789589775722800,4.66972265625,-1.0108642578125,-0.0326690673828125,0.013275146484375
1772789589785788700,4.67978857421875,-1.0100860595703125,-0.0311126708984375,0.013214111328125
1772789589795854800,4.689854736328125,-1.00970458984375,-0.0314788818359375,0.01318359375
1772789589805920800,4.699920654296875,-1.0105743408203125,-0.0316619873046875,0.0126495361328125
1772789589815987000,4.709987060546875,-1.0106048583984375,-0.032318115234375,0.0123291015625
1772789589826052600,4.720052490234375,-1.0101165771484375,-0.03271484375,0.0137786865234375
1772789589836118800,4.730118896484375,-1.0110931396484375,-0.032562255859375,0.012298583984375
1772789589846184700,4.740184814453125,-1.01055908203125,-0.0326995849609375,0.013153076171875
1772789589856251000,4.7502509765625,-1.0105743408203125,-0.03192138671875,0.0127716064453125
1772789589866316800,4.76031689453125,-1.011322021484375,-0.0323638916015625,0.0130462646484375
1772789589876382700,4.7703828125,-1.010101318359375,-0.03216552734375,0.0130157470703125
1772789589886449000,4.780448974609375,-1.010711669921875,-0.032135009765625,0.013885498046875
1772789589896514800,4.790514892578125,-1.0109100341796875,-0.032135009765625,0.012908935546875
1772789589906580700,4.800580810546875,-1.010162353515625,-0.0321044921875,0.0136260986328125
1772789589916646700,4.810646728515625,-1.0105438232421875,-0.0324249267578125,0.0128631591796875
1772789589926712800,4.820712890625,-1.00994873046875,-0.0327911376953125,0.0136871337890625
1772789589936777700,4.83077783203125,-1.0105743408203125,-0.0334930419921875,0.0140838623046875
1772789589946844000,4.840843994140625,-1.0119476318359375,-0.0324859619140625,0.013458251953125
1772789589956909800,4.850909912109375,-1.01104736328125,-0.0318450927734375,0.01251220703125
1772789589966975700,4.860975830078125,-1.0104827880859375,-0.0318603515625,0.012908935546875
1772789589977041700,4.871041748046875,-1.0112152099609375,-0.0311431884765625,0.0132598876953125
1772789589987107800,4.88110791015625,-1.0105438232421875,-0.0319366455078125,0.0126953125
1772789589997173800,4.891173828125,-1.0110015869140625,-0.0334014892578125,0.0133819580078125
1772789590007240000,4.901239990234375,-1.0106658935546875,-0.0330810546875,0.0132293701171875
1772789590017305900,4.911305908203125,-1.0112152099609375,-0.032440185546875,0.0124969482421875
1772789590027371800,4.921371826171875,-1.01080322265625,-0.032257080078125,0.0130767822265625
1772789590037437700,4.931437744140625,-1.0105133056640625,-0.031524658203125,0.0121307373046875
1772789590047503600,4.941503662109375,-1.0103302001953125,-0.0324249267578125,0.0136871337890625
1772789590057569800,4.95156982421875,-1.010009765625,-0.0331878662109375,0.0135345458984375
1772789590067635700,4.9616357421875,-1.0098876953125,-0.032135009765625,0.0128631591796875
1772789590077702000,4.971701904296875,-1.0097503662109375,-0.032562255859375,0.013336181640625
1772789590087767800,4.981767822265625,-1.010986328125,-0.03240966796875,0.0133819580078125
1772789590097834000,4.991833984375,-1.011505126953125,-0.0321502685546875,0.0129547119140625
1772789590107899600,5.001899658203125,-1.0107269287109375,-0.031707763671875,0.013885498046875
1772789590117964800,5.01196484375,-1.0117340087890625,-0.0318450927734375,0.0135040283203125
1772789590128030700,5.02203076171875,-1.0105438232421875,-0.0325469970703125,0.0130767822265625
1772789590138097000,5.032096923828125,-1.010772705078125,-0.032684326171875,0.0131683349609375
1772789590148162800,5.042162841796875,-1.0117645263671875,-0.0322418212890625,0.013458251953125
1772789590158229000,5.05222900390625,-1.0115814208984375,-0.032562255859375,0.013153076171875
1772789590168294700,5.062294677734375,-1.0116424560546875,-0.0326385498046875,0.0142364501953125
1772789590178360600,5.072360595703125,-1.0113525390625,-0.0321807861328125,0.01373291015625
1772789590188426800,5.0824267578125,-1.01031494140625,-0.0321044921875,0.01348876953125
1772789590198492700,5.09249267578125,-1.0104217529296875,-0.0325469970703125,0.01312255859375
1772789590208558800,5.102558837890625,-1.0108795166015625,-0.0322723388671875,0.012969970703125
1772789590218624800,5.112624755859375,-1.011260986328125,-0.032989501953125,0.0125579833984375
1772789590228691000,5.12269091796875,-1.0115203857421875,-0.03265380859375,0.01312255859375
1772789590238756900,5.1327568359375,-1.0104827880859375,-0.0317230224609375,0.0124053955078125
1772789590248822800,5.14282275390625,-1.010955810546875,-0.0323028564453125,0.0124664306640625
1772789590258888700,5.152888671875,-1.0106048583984375,-0.032684326171875,0.012603759765625
1772789590268955000,5.162954833984375,-1.010009765625,-0.0324859619140625,0.012908935546875
1772789590279020800,5.173020751953125,-1.010345458984375,-0.0327301025390625,0.0135345458984375
1772789590289086700,5.183086669921875,-1.010162353515625,-0.0325927734375,0.0131988525390625
1772789590299153000,5.19315283203125,-1.0107574462890625,-0.032379150390625,0.0130462646484375
1772789590309217800,5.2032177734375,-1.011566162109375,-0.0324554443359375,0.01373291015625
1772789590319283700,5.21328369140625,-1.01080322265625,-0.031982421875,0.013641357421875
1772789590329349600,5.223349609375,-1.011505126953125,-0.0315399169921875,0.0127716064453125
1772789590339415800,5.233415771484375,-1.010833740234375,-0.03167724609375,0.013153076171875
1772789590349481700,5.243481689453125,-1.01031494140625,-0.0328521728515625,0.01324462890625
1772789590359548000,5.2535478515625,-1.010498046875,-0.0323333740234375,0.01226806640625
1772789590369613800,5.26361376953125,-1.011199951171875,-0.0325775146484375,0.0130767822265625
1772789590379680300,5.27368017578125,-1.0103912353515625,-0.0325927734375,0.0131378173828125
1772789590389746200,5.28374609375,-1.0097808837890625,-0.031463623046875,0.0128021240234375
1772789590399812000,5.29381201171875,-1.0110015869140625,-0.0316619873046875,0.013916015625
1772789590409878300,5.303878173828125,-1.0112457275390625,-0.031463623046875,0.0136566162109375
1772789590419944000,5.31394384765625,-1.0105743408203125,-0.03277587890625,0.0134124755859375
1772789590430010000,5.324010009765625,-1.0106353759765625,-0.03271484375,0.0133819580078125
1772789590440076000,5.334075927734375,-1.0115509033203125,-0.031494140625,0.01300048828125
1772789590450142200,5.34414208984375,-1.0109710693359375,-0.03192138671875,0.0130157470703125
1772789590460208000,5.3542080078125,-1.0106658935546875,-0.0324249267578125,0.0130462646484375
1772789590470274300,5.3642744140625,-1.009979248046875,-0.0319671630859375,0.012542724609375
1772789590480340200,5.37434033203125,-1.0113677978515625,-0.0319061279296875,0.013427734375
1772789590490406100,5.38440625,-1.0113677978515625,-0.0324859619140625,0.0130767822265625
1772789590500471000,5.394470947265625,-1.009979248046875,-0.03240966796875,0.01220703125
1772789590510537200,5.404537109375,-1.0108795166015625,-0.0330810546875,0.01275634765625
1772789590520603100,5.41460302734375,-1.0121307373046875,-0.0319976806640625,0.0129852294921875
1772789590530669300,5.42466943359375,-1.01043701171875,-0.032318115234375,0.0130157470703125
1772789590540735200,5.4347353515625,-1.010589599609375,-0.0315093994140625,0.013824462890625
1772789590550801200,5.44480126953125,-1.0108795166015625,-0.0328216552734375,0.0140228271484375
1772789590560867000,5.4548671875,-1.0117340087890625,-0.03179931640625,0.0132598876953125
1772789590570933000,5.46493310546875,-1.0106964111328125,-0.03167724609375,0.01287841796875
1772789590580999200,5.474999267578125,-1.0095672607421875,-0.0316925048828125,0.0138092041015625
1772789590591065000,5.485065185546875,-1.01043701171875,-0.0325927734375,0.0130767822265625
1772789590601131300,5.49513134765625,-1.0103607177734375,-0.0317535400390625,0.013580322265625
1772789590611197200,5.505197265625,-1.0099945068359375,-0.0318603515625,0.0133056640625
1772789590621263400,5.515263427734375,-1.01080322265625,-0.0327606201171875,0.0126800537109375
1772789590631329000,5.5253291015625,-1.011138916015625,-0.0325469970703125,0.013763427734375
1772789590641395200,5.535395263671875,-1.0120697021484375,-0.0323638916015625,0.013214111328125
1772789590651461000,5.545461181640625,-1.010986328125,-0.03240966796875,0.012298583984375
1772789590661527000,5.555527099609375,-1.0103759765625,-0.032257080078125,0.0133056640625
1772789590671593200,5.56559326171875,-1.010894775390625,-0.0323638916015625,0.01287841796875
1772789590681659100,5.5756591796875,-1.0106964111328125,-0.0326385498046875,0.0134429931640625
1772789590691725300,5.585725341796875,-1.0103759765625,-0.03228759765625,0.012969970703125
1772789590701790200,5.595790283203125,-1.0101318359375,-0.0316619873046875,0.012664794921875
1772789590711856000,5.605856201171875,-1.009735107421875,-0.032135009765625,0.013885498046875
1772789590721922000,5.615922119140625,-1.0106201171875,-0.032623291015625,0.0135498046875
1772789590731988200,5.62598828125,-1.009979248046875,-0.0331268310546875,0.013275146484375
1772789590742054100,5.63605419921875,-1.0107421875,-0.0323638916015625,0.0135345458984375
1772789590752120300,5.646120361328125,-1.010986328125,-0.031890869140625,0.014251708984375
1772789590762186000,5.65618603515625,-1.0102691650390625,-0.0314788818359375,0.0137176513671875
1772789590772252200,5.666252197265625,-1.011260986328125,-0.031890869140625,0.013824462890625
1772789590782318000,5.676318115234375,-1.0110626220703125,-0.032562255859375,0.0133056640625
1772789590792384300,5.68638427734375,-1.01007080078125,-0.032257080078125,0.0135345458984375
1772789590802450200,5.6964501953125,-1.011077880859375,-0.032318115234375,0.0129547119140625
1772789590812516000,5.70651611328125,-1.010284423828125,-0.0317535400390625,0.0128173828125
1772789590822582300,5.716582275390625,-1.0109710693359375,-0.0328216552734375,0.0128936767578125
1772789590832648000,5.72664794921875,-1.01202392578125,-0.03240966796875,0.013336181640625
1772789590842714000,5.736714111328125,-1.011627197265625,-0.0329132080078125,0.0119171142578125
1772789590852780000,5.746780029296875,-1.010986328125,-0.0324249267578125,0.01336669921875
1772789590862846200,5.75684619140625,-1.01068115234375,-0.0334320068359375,0.0127410888671875
1772789590872912100,5.766912109375,-1.0099639892578125,-0.0323028564453125,0.01214599609375
1772789590882978300,5.776978271484375,-1.0111236572265625,-0.0326690673828125,0.0121002197265625
1772789590893044200,5.787044189453125,-1.009796142578125,-0.0321502685546875,0.0120086669921875
1772789590903110100,5.797110107421875,-1.011749267578125,-0.03155517578125,0.01300048828125
1772789590913175000,5.807175048828125,-1.01055908203125,-0.032196044921875,0.013397216796875
1772789590923241200,5.8172412109375,-1.0103607177734375,-0.031463623046875,0.013153076171875
1772789590933307100,5.82730712890625,-1.010101318359375,-0.0319976806640625,0.014007568359375
1772789590943373300,5.837373291015625,-1.0101165771484375,-0.03167724609375,0.0133056640625
1772789590953439200,5.847439208984375,-1.010833740234375,-0.03289794921875,0.0133056640625
1772789590963505200,5.857505126953125,-1.010345458984375,-0.031982421875,0.0134429931640625
1772789590973571000,5.867571044921875,-1.0108642578125,-0.0324859619140625,0.01416015625
1772789590983637000,5.877636962890625,-1.010467529296875,-0.0319976806640625,0.01318359375
1772789590993703200,5.887703125,-1.01055908203125,-0.03179931640625,0.012847900390625
1772789591003769000,5.89776904296875,-1.010833740234375,-0.0330047607421875,0.012054443359375
1772789591013835300,5.907835205078125,-1.010894775390625,-0.0327606201171875,0.0137939453125
1772789591023901200,5.917901123046875,-1.011444091796875,-0.0328369140625,0.0139007568359375
1772789591033967400,5.92796728515625,-1.0118408203125,-0.03271484375,0.0122833251953125
1772789591044033000,5.938032958984375,-1.0102996826171875,-0.0318603515625,0.012847900390625
1772789591054099200,5.94809912109375,-1.0102081298828125,-0.0327911376953125,0.0140533447265625
1772789591064165000,5.9581650390625,-1.0114898681640625,-0.0321502685546875,0.0123291015625
1772789591074231000,5.96823095703125,-1.011016845703125,-0.0322418212890625,0.013336181640625
1772789591084297200,5.978297119140625,-1.011566162109375,-0.0318145751953125,0.0135498046875
1772789591094363100,5.988363037109375,-1.0113372802734375,-0.0327606201171875,0.0128936767578125
1772789591104429300,5.99842919921875,-1.0100860595703125,-0.0316162109375,0.0125579833984375
1772789591114495000,6.008494873046875,-1.0110931396484375,-0.0322113037109375,0.013275146484375
1772789591124561200,6.01856103515625,-1.0092620849609375,-0.03228759765625,0.0120697021484375
1772789591134626000,6.0286259765625,-1.0104217529296875,-0.03204345703125,0.0136566162109375
1772789591144692200,6.038692138671875,-1.0099029541015625,-0.03265380859375,0.014312744140625
1772789591154758100,6.048758056640625,-1.0101470947265625,-0.0323944091796875,0.0135650634765625
1772789591164824300,6.05882421875,-1.0103607177734375,-0.03204345703125,0.014312744140625
1772789591174890000,6.068889892578125,-1.011566162109375,-0.0317840576171875,0.013671875
1772789591184956200,6.0789560546875,-1.0111846923828125,-0.03155517578125,0.0142364501953125
1772789591195022000,6.08902197265625,-1.010833740234375,-0.03216552734375,0.01312255859375
1772789591205088300,6.099088134765625,-1.011383056640625,-0.0320587158203125,0.012725830078125
1772789591215154200,6.109154296875,-1.010986328125,-0.0322723388671875,0.013519287109375
1772789591225220000,6.11922021484375,-1.0110931396484375,-0.032196044921875,0.013031005859375
1772789591235286300,6.129286376953125,-1.0107269287109375,-0.0319671630859375,0.014373779296875
1772789591245352200,6.139352294921875,-1.0114288330078125,-0.031951904296875,0.0128326416015625
1772789591255418000,6.149418212890625,-1.011138916015625,-0.03192138671875,0.0121612548828125
1772789591265484000,6.159484130859375,-1.010955810546875,-0.0315093994140625,0.012786865234375
1772789591275550200,6.16955029296875,-1.0106048583984375,-0.0326995849609375,0.012664794921875
1772789591285616000,6.1796162109375,-1.0115966796875,-0.0333099365234375,0.012451171875
1772789591295682300,6.189682373046875,-1.01092529296875,-0.032562255859375,0.012542724609375
1772789591305748200,6.199748291015625,-1.0100250244140625,-0.0321807861328125,0.013519287109375
1772789591315814100,6.209814208984375,-1.0104217529296875,-0.0319366455078125,0.01287841796875
1772789591325880000,6.219880126953125,-1.01031494140625,-0.0327606201171875,0.0136566162109375
1772789591335946000,6.229946044921875,-1.009552001953125,-0.032684326171875,0.0128326416015625
1772789591346012200,6.24001220703125,-1.010772705078125,-0.032012939453125,0.013580322265625
1772789591356077300,6.250077392578125,-1.011627197265625,-0.0316925048828125,0.0129547119140625
1772789591366143200,6.260143310546875,-1.0103302001953125,-0.032135009765625,0.0133819580078125
1772789591376209200,6.270209228515625,-1.0101165771484375,-0.03179931640625,0.013214111328125
1772789591386275000,6.280275146484375,-1.010223388671875,-0.0324859619140625,0.014251708984375
1772789591396341000,6.290341064453125,-1.010650634765625,-0.0329132080078125,0.013153076171875
1772789591406407200,6.3004072265625,-1.010467529296875,-0.0321807861328125,0.0126190185546875
1772789591416473000,6.31047314453125,-1.0099334716796875,-0.032257080078125,0.01318359375
1772789591426539300,6.320539306640625,-1.0111236572265625,-0.0318603515625,0.0127410888671875
1772789591436605000,6.33060498046875,-1.0096893310546875,-0.0330352783203125,0.0122222900390625
1772789591446671000,6.340671142578125,-1.0113372802734375,-0.03216552734375,0.0128631591796875
1772789591456737000,6.350737060546875,-1.01141357421875,-0.031829833984375,0.012664794921875
1772789591466803200,6.36080322265625,-1.0102386474609375,-0.0320587158203125,0.013153076171875
1772789591476869000,6.370869140625,-1.0098876953125,-0.032745361328125,0.01361083984375
1772789591486935000,6.38093505859375,-1.0102386474609375,-0.032928466796875,0.0129241943359375
1772789591497001200,6.391001220703125,-1.0108642578125,-0.0322265625,0.0130615234375
1772789591507067000,6.40106689453125,-1.010711669921875,-0.0320892333984375,0.013031005859375
1772789591517133000,6.411133056640625,-1.0114288330078125,-0.0325775146484375,0.0138092041015625
1772789591527199000,6.421198974609375,-1.0104827880859375,-0.0325775146484375,0.0128326416015625
1772789591537265200,6.43126513671875,-1.0107574462890625,-0.0320587158203125,0.0123291015625
1772789591547331000,6.4413310546875,-1.010711669921875,-0.0320892333984375,0.013580322265625
1772789591557397200,6.451397216796875,-1.01031494140625,-0.032318115234375,0.0137939453125
1772789591567463200,6.461463134765625,-1.0106964111328125,-0.032806396484375,0.0128631591796875
1772789591577528000,6.471528076171875,-1.0101318359375,-0.03228759765625,0.01348876953125
1772789591587594000,6.481593994140625,-1.01092529296875,-0.0323638916015625,0.01416015625
1772789591597660200,6.49166015625,-1.0099334716796875,-0.0321197509765625,0.014007568359375
1772789591607726000,6.50172607421875,-1.0118560791015625,-0.03179931640625,0.0139617919921875
1772789591617792300,6.511792236328125,-1.011871337890625,-0.031768798828125,0.014068603515625
1772789591627858200,6.521858154296875,-1.011016845703125,-0.0323028564453125,0.0132598876953125
1772789591637923800,6.531923828125,-1.011444091796875,-0.0315704345703125,0.0128021240234375
1772789591647990000,6.541989990234375,-1.0123138427734375,-0.0319061279296875,0.013427734375
1772789591658056000,6.552055908203125,-1.0119476318359375,-0.032196044921875,0.0128173828125
1772789591668122000,6.5621220703125,-1.0112152099609375,-0.032440185546875,0.0122222900390625
1772789591678188000,6.57218798828125,-1.01129150390625,-0.0325775146484375,0.01251220703125
1772789591688254200,6.582254150390625,-1.011688232421875,-0.03253173828125,0.0134429931640625
1772789591698320100,6.592320068359375,-1.0112457275390625,-0.03289794921875,0.012542724609375
1772789591708386300,6.60238623046875,-1.01068115234375,-0.0330810546875,0.0128173828125
1772789591718452000,6.612451904296875,-1.0112762451171875,-0.0328826904296875,0.013336181640625
1772789591728518000,6.622517822265625,-1.010955810546875,-0.0320892333984375,0.012542724609375
1772789591738584000,6.632583984375,-1.0107269287109375,-0.03314208984375,0.0132598876953125
1772789591748650000,6.64264990234375,-1.010894775390625,-0.03216552734375,0.0129241943359375
1772789591758716200,6.652716064453125,-1.011444091796875,-0.032501220703125,0.012603759765625
1772789591768782000,6.662781982421875,-1.010498046875,-0.032684326171875,0.01275634765625
1772789591778848300,6.67284814453125,-1.0120697021484375,-0.031463623046875,0.0128936767578125
1772789591788913000,6.682912841796875,-1.01019287109375,-0.0320281982421875,0.0132904052734375
1772789591798979000,6.69297900390625,-1.0103607177734375,-0.032318115234375,0.013092041015625
1772789591809045000,6.703044921875,-1.011138916015625,-0.0326995849609375,0.0136566162109375
1772789591819111200,6.713111083984375,-1.010528564453125,-0.0323333740234375,0.013275146484375
1772789591829177000,6.723177001953125,-1.011016845703125,-0.0319976806640625,0.0138397216796875
1772789591839243300,6.7332431640625,-1.010589599609375,-0.0322723388671875,0.0133819580078125
1772789591849309000,6.743308837890625,-1.0108184814453125,-0.0314178466796875,0.0133819580078125
1772789591859375000,6.753375,-1.0107879638671875,-0.03173828125,0.0132598876953125
1772789591869441000,6.76344091796875,-1.010498046875,-0.03289794921875,0.013916015625
1772789591879507000,6.7735068359375,-1.011016845703125,-0.03216552734375,0.0124969482421875
1772789591889573000,6.783572998046875,-1.00982666015625,-0.0321044921875,0.0131072998046875
1772789591899639000,6.79363916015625,-1.00970458984375,-0.0319061279296875,0.0133056640625
1772789591909705200,6.803705322265625,-1.0115966796875,-0.031890869140625,0.013946533203125
1772789591919771000,6.81377099609375,-1.0100860595703125,-0.0320892333984375,0.012725830078125
1772789591929837000,6.823837158203125,-1.0107421875,-0.0318145751953125,0.012786865234375
1772789591939903000,6.833903076171875,-1.0109100341796875,-0.032623291015625,0.0126800537109375
1772789591949969200,6.84396923828125,-1.0111846923828125,-0.032470703125,0.0128631591796875
1772789591960035000,6.85403515625,-1.011474609375,-0.0322265625,0.01287841796875
1772789591970101000,6.86410107421875,-1.01129150390625,-0.03253173828125,0.0136871337890625
1772789591980167200,6.874167236328125,-1.01043701171875,-0.0322113037109375,0.0128173828125
1772789591990233000,6.884233154296875,-1.01129150390625,-0.0320892333984375,0.0126800537109375
1772789592000298000,6.894298095703125,-1.0112762451171875,-0.0326385498046875,0.0138092041015625
1772789592010364200,6.9043642578125,-1.011138916015625,-0.0320281982421875,0.013214111328125
1772789592020430000,6.91443017578125,-1.0111236572265625,-0.03118896484375,0.013946533203125
1772789592030496000,6.92449609375,-1.0109710693359375,-0.0325775146484375,0.0134124755859375
1772789592040562200,6.934562255859375,-1.01153564453125,-0.0326385498046875,0.0130767822265625
1772789592050628000,6.944628173828125,-1.0113983154296875,-0.03240966796875,0.0126495361328125
1772789592060694000,6.954694091796875,-1.012054443359375,-0.0320587158203125,0.012542724609375
1772789592070760000,6.964760009765625,-1.0113525390625,-0.0319671630859375,0.0134429931640625
1772789592080826000,6.974826171875,-1.0110626220703125,-0.0318756103515625,0.0131378173828125
1772789592090892000,6.98489208984375,-1.0097198486328125,-0.032470703125,0.0121612548828125
1772789592100958200,6.994958251953125,-1.0105133056640625,-0.031951904296875,0.0130157470703125
1772789592111024000,7.005024169921875,-1.011077880859375,-0.033050537109375,0.013641357421875
1772789592121090000,7.015090087890625,-1.011627197265625,-0.03265380859375,0.01324462890625
1772789592131156000,7.025156005859375,-1.0111083984375,-0.0315704345703125,0.013092041015625
1772789592141222000,7.035221923828125,-1.0126190185546875,-0.0324249267578125,0.012786865234375
1772789592151288000,7.0452880859375,-1.011871337890625,-0.0321044921875,0.0126800537109375
1772789592161354000,7.05535400390625,-1.0113372802734375,-0.031829833984375,0.0133819580078125
1772789592171420200,7.065420166015625,-1.0099945068359375,-0.0332489013671875,0.013031005859375
1772789592181486000,7.075486083984375,-1.010955810546875,-0.0323638916015625,0.013275146484375
1772789592191551000,7.085551025390625,-1.012725830078125,-0.0316925048828125,0.01336669921875
1772789592201617000,7.095616943359375,-1.011627197265625,-0.032562255859375,0.01373291015625
1772789592211683000,7.10568310546875,-1.0110321044921875,-0.0330352783203125,0.0140228271484375
1772789592221749000,7.1157490234375,-1.0106658935546875,-0.032440185546875,0.0133056640625
1772789592231815200,7.125815185546875,-1.0103912353515625,-0.0324859619140625,0.0130767822265625
1772789592241881000,7.135881103515625,-1.010009765625,-0.032470703125,0.0130157470703125
1772789592251947300,7.145947265625,-1.0102691650390625,-0.03204345703125,0.01385498046875
1772789592262013000,7.156012939453125,-1.011016845703125,-0.0330963134765625,0.0135650634765625
1772789592272079000,7.1660791015625,-1.0107879638671875,-0.032684326171875,0.0129547119140625
1772789592282145000,7.17614501953125,-1.0110626220703125,-0.0324249267578125,0.0125274658203125
1772789592292211000,7.1862109375,-1.0105133056640625,-0.0322265625,0.012847900390625
1772789592302277000,7.196277099609375,-1.0106201171875,-0.0322723388671875,0.013275146484375
1772789592312343000,7.206343017578125,-1.0118865966796875,-0.032470703125,0.0132293701171875
1772789592322409200,7.2164091796875,-1.0111236572265625,-0.0323333740234375,0.0130157470703125
1772789592332475100,7.22647509765625,-1.010833740234375,-0.031951904296875,0.013153076171875
1772789592342541000,7.236541015625,-1.0111236572265625,-0.0325469970703125,0.0117950439453125
1772789592352607000,7.24660693359375,-1.0121307373046875,-0.03289794921875,0.0128631591796875
1772789592362672000,7.256672119140625,-1.0118560791015625,-0.032745361328125,0.013397216796875
1772789592372738000,7.266738037109375,-1.010650634765625,-0.0321807861328125,0.01373291015625
1772789592382804000,7.276803955078125,-1.0117340087890625,-0.0325927734375,0.0137176513671875
1772789592392870000,7.286869873046875,-1.010955810546875,-0.0314483642578125,0.0134735107421875
1772789592402936000,7.29693603515625,-1.009857177734375,-0.0326690673828125,0.013641357421875
1772789592413002000,7.307001953125,-1.010711669921875,-0.0319976806640625,0.013519287109375
1772789592423068000,7.31706787109375,-1.0115509033203125,-0.032470703125,0.0129852294921875
1772789592433133800,7.3271337890625,-1.011688232421875,-0.032928466796875,0.01318359375
1772789592443200000,7.337199951171875,-1.01025390625,-0.0329437255859375,0.0133056640625
1772789592453266000,7.347265869140625,-1.0105438232421875,-0.0322723388671875,0.012939453125
1772789592463331800,7.357331787109375,-1.011505126953125,-0.03204345703125,0.0126953125
1772789592473398000,7.36739794921875,-1.0115814208984375,-0.03240966796875,0.0130157470703125
1772789592483464000,7.3774638671875,-1.012176513671875,-0.0325927734375,0.01373291015625
1772789592493529900,7.38752978515625,-1.0108489990234375,-0.032623291015625,0.0130767822265625
1772789592503595800,7.397595703125,-1.010589599609375,-0.032012939453125,0.0128326416015625
1772789592513661000,7.407660888671875,-1.01031494140625,-0.0321044921875,0.012908935546875
1772789592523726800,7.417726806640625,-1.0117034912109375,-0.0322265625,0.0130157470703125
1772789592533793000,7.42779296875,-1.0113067626953125,-0.0324554443359375,0.01312255859375
1772789592543859000,7.43785888671875,-1.010284423828125,-0.0327911376953125,0.0126953125
1772789592553924900,7.4479248046875,-1.0105133056640625,-0.0321197509765625,0.0131988525390625
1772789592563990800,7.45799072265625,-1.0118408203125,-0.0317230224609375,0.0135955810546875
1772789592574057000,7.468056884765625,-1.01220703125,-0.031982421875,0.01263427734375
1772789592584123000,7.478122802734375,-1.011383056640625,-0.032684326171875,0.0133056640625
1772789592594189000,7.48818896484375,-1.010986328125,-0.0329132080078125,0.013214111328125
1772789592604255000,7.4982548828125,-1.011810302734375,-0.031890869140625,0.0132904052734375
1772789592614321000,7.50832080078125,-1.0116424560546875,-0.032562255859375,0.0127410888671875
1772789592624386800,7.51838671875,-1.0107421875,-0.03277587890625,0.01336669921875
1772789592634452700,7.52845263671875,-1.0102386474609375,-0.032440185546875,0.013519287109375
1772789592644519000,7.538518798828125,-1.0107574462890625,-0.0325469970703125,0.0133514404296875
1772789592654584800,7.548584716796875,-1.0119476318359375,-0.032928466796875,0.0136566162109375
1772789592664651000,7.558651123046875,-1.01104736328125,-0.033111572265625,0.013763427734375
1772789592674716000,7.5687158203125,-1.0104217529296875,-0.03302001953125,0.0133819580078125
1772789592684781800,7.57878173828125,-1.0114898681640625,-0.0322723388671875,0.013214111328125
1772789592694847700,7.58884765625,-1.0107574462890625,-0.0319976806640625,0.0128021240234375
1772789592704914000,7.598913818359375,-1.011688232421875,-0.032470703125,0.0130615234375
1772789592714979800,7.608979736328125,-1.011932373046875,-0.0330810546875,0.0118255615234375
1772789592725046000,7.6190458984375,-1.0113067626953125,-0.032745361328125,0.0121002197265625
1772789592735112000,7.62911181640625,-1.0110931396484375,-0.032318115234375,0.0125274658203125
1772789592745178000,7.63917822265625,-1.0111541748046875,-0.03253173828125,0.013671875
1772789592755244000,7.649244140625,-1.0110626220703125,-0.03204345703125,0.013671875
1772789592765309700,7.659309814453125,-1.0111541748046875,-0.031890869140625,0.012939453125
1772789592775376000,7.6693759765625,-1.0096435546875,-0.0321502685546875,0.01214599609375
1772789592785441800,7.67944189453125,-1.01007080078125,-0.03204345703125,0.01397705078125
1772789592795508000,7.689508056640625,-1.01104736328125,-0.03253173828125,0.012908935546875
1772789592805574000,7.699573974609375,-1.0118255615234375,-0.0320892333984375,0.0126190185546875
1772789592815640000,7.70964013671875,-1.011138916015625,-0.0321502685546875,0.01300048828125
1772789592825704700,7.71970458984375,-1.010223388671875,-0.033050537109375,0.013214111328125
1772789592835771000,7.72977099609375,-1.0117340087890625,-0.032867431640625,0.013031005859375
1772789592845836800,7.7398369140625,-1.0113372802734375,-0.032470703125,0.0128021240234375
1772789592855903000,7.749903076171875,-1.0105438232421875,-0.0325469970703125,0.013397216796875
1772789592865969000,7.759968994140625,-1.01043701171875,-0.03204345703125,0.0131072998046875
1772789592876035000,7.77003515625,-1.0104217529296875,-0.032379150390625,0.0131378173828125
1772789592886101000,7.78010107421875,-1.0117950439453125,-0.0326385498046875,0.0133056640625
1772789592896167000,7.7901669921875,-1.011749267578125,-0.0323486328125,0.0130157470703125
1772789592906232800,7.80023291015625,-1.010772705078125,-0.03253173828125,0.012359619140625
1772789592916298800,7.810298828125,-1.0113067626953125,-0.0313873291015625,0.0124969482421875
1772789592926365000,7.820364990234375,-1.0114898681640625,-0.0324859619140625,0.012420654296875
1772789592936430800,7.830430908203125,-1.011444091796875,-0.03289794921875,0.012298583984375
1772789592946497000,7.8404970703125,-1.011444091796875,-0.03253173828125,0.0128936767578125
1772789592956562000,7.85056201171875,-1.0096893310546875,-0.0328216552734375,0.013580322265625
1772789592966627800,7.8606279296875,-1.0106964111328125,-0.0324249267578125,0.0141448974609375
1772789592976693800,7.87069384765625,-1.011077880859375,-0.0326385498046875,0.012908935546875
1772789592986760000,7.880760009765625,-1.0110321044921875,-0.0325927734375,0.01300048828125
1772789592996825900,7.890825927734375,-1.0110931396484375,-0.0326080322265625,0.0135650634765625
1772789593006892000,7.90089208984375,-1.01171875,-0.0329132080078125,0.01373291015625
1772789593016958000,7.9109580078125,-1.00982666015625,-0.0318756103515625,0.0142059326171875
1772789593027024000,7.92102392578125,-1.011199951171875,-0.0316009521484375,0.0134429931640625
1772789593037089800,7.93108984375,-1.0112152099609375,-0.0327911376953125,0.0135345458984375
1772789593047156000,7.941156005859375,-1.0115203857421875,-0.031768798828125,0.013763427734375
1772789593057222000,7.951221923828125,-1.010986328125,-0.0324249267578125,0.0142669677734375
1772789593067287800,7.961287841796875,-1.009979248046875,-0.0321502685546875,0.0135498046875
1772789593077354000,7.97135400390625,-1.0114898681640625,-0.0318603515625,0.012969970703125
1772789593087419000,7.9814189453125,-1.0117645263671875,-0.0327301025390625,0.011871337890625
1772789593097484800,7.99148486328125,-1.0107269287109375,-0.03228759765625,0.013092041015625
1772789593107551000,8.001551025390626,-1.0110321044921875,-0.0322723388671875,0.0133056640625
1772789593117617000,8.011616943359375,-1.011505126953125,-0.0321807861328125,0.013580322265625
1772789593127682800,8.021682861328125,-1.0107574462890625,-0.03271484375,0.012939453125
1772789593137749000,8.0317490234375,-1.0107574462890625,-0.03265380859375,0.013519287109375
1772789593147815000,8.04181494140625,-1.0111236572265625,-0.032501220703125,0.013427734375
1772789593157881000,8.051881103515624,-1.010772705078125,-0.0328216552734375,0.013214111328125
1772789593167946800,8.06194677734375,-1.011016845703125,-0.03216552734375,0.013153076171875
1772789593178013000,8.072012939453124,-1.01025390625,-0.0325927734375,0.01300048828125
1772789593188078800,8.082078857421875,-1.01055908203125,-0.032958984375,0.013519287109375
1772789593198144000,8.09214404296875,-1.010223388671875,-0.0321502685546875,0.0140228271484375
1772789593208210000,8.1022099609375,-1.0111541748046875,-0.0329742431640625,0.0137939453125
1772789593218275800,8.11227587890625,-1.0119171142578125,-0.0330352783203125,0.012420654296875
1772789593228341800,8.122341796875,-1.0118255615234375,-0.032440185546875,0.0146331787109375
1772789593238408000,8.132407958984375,-1.0124664306640625,-0.0332794189453125,0.01483154296875
1772789593248473900,8.142473876953124,-1.0120391845703125,-0.03228759765625,0.0137939453125
1772789593258540000,8.1525400390625,-1.0116119384765625,-0.0321044921875,0.0135498046875
1772789593268606000,8.16260595703125,-1.011688232421875,-0.032806396484375,0.012847900390625
1772789593278672000,8.172671875,-1.010284423828125,-0.0323944091796875,0.013153076171875
1772789593288738000,8.182738037109376,-1.01153564453125,-0.03143310546875,0.01251220703125
1772789593298803700,8.1928037109375,-1.011199951171875,-0.0326995849609375,0.0125579833984375
1772789593308868900,8.202868896484375,-1.010955810546875,-0.0324554443359375,0.0130767822265625
1772789593318935000,8.21293505859375,-1.011688232421875,-0.032989501953125,0.0128936767578125
1772789593329001000,8.2230009765625,-1.011474609375,-0.0321197509765625,0.0128173828125
1772789593339067000,8.23306689453125,-1.0099334716796875,-0.0325469970703125,0.013671875
1772789593349133000,8.243133056640625,-1.01116943359375,-0.0319671630859375,0.0130767822265625
1772789593359198700,8.25319873046875,-1.0113525390625,-0.03277587890625,0.01336669921875
1772789593369265000,8.263264892578125,-1.0112152099609375,-0.0320281982421875,0.0142364501953125
1772789593379330800,8.273330810546875,-1.0098876953125,-0.032257080078125,0.0136260986328125
1772789593389397800,8.283397705078125,-1.011260986328125,-0.032501220703125,0.013671875
1772789593399464000,8.2934638671875,-1.0125274658203125,-0.0323486328125,0.01348876953125
1772789593409529900,8.30352978515625,-1.0105743408203125,-0.032379150390625,0.013671875
1772789593419596000,8.313595947265625,-1.0105133056640625,-0.032318115234375,0.01336669921875
1772789593429660700,8.32366064453125,-1.0107574462890625,-0.0322113037109375,0.0136260986328125
1772789593439726800,8.333726806640625,-1.0102081298828125,-0.0320587158203125,0.014007568359375
1772789593449792800,8.343792724609376,-1.0113067626953125,-0.032073974609375,0.0132904052734375
1772789593459859000,8.35385888671875,-1.0107574462890625,-0.0318756103515625,0.0131988525390625
1772789593469924900,8.3639248046875,-1.01031494140625,-0.0328369140625,0.013519287109375
1772789593479991000,8.373990966796875,-1.0115966796875,-0.0316009521484375,0.0132904052734375
1772789593490057000,8.384056884765625,-1.0114288330078125,-0.0324554443359375,0.013946533203125
1772789593500123000,8.394122802734374,-1.011474609375,-0.03240966796875,0.013763427734375
1772789593510188800,8.404188720703125,-1.0105743408203125,-0.032989501953125,0.012542724609375
1772789593520255000,8.4142548828125,-1.0098724365234375,-0.03192138671875,0.0133514404296875
1772789593530321000,8.42432080078125,-1.011444091796875,-0.0319366455078125,0.0127410888671875
1772789593540386800,8.43438671875,-1.011993408203125,-0.0323486328125,0.0128631591796875
1772789593550452000,8.444451904296875,-1.0111541748046875,-0.0325469970703125,0.013031005859375
1772789593560518000,8.454517822265625,-1.010589599609375,-0.032196044921875,0.013397216796875
1772789593570583800,8.464583740234374,-1.0105133056640625,-0.0325927734375,0.0126953125
1772789593580649700,8.474649658203125,-1.0107879638671875,-0.03265380859375,0.01214599609375
1772789593590716000,8.4847158203125,-1.0116424560546875,-0.032501220703125,0.013153076171875
1772789593600781800,8.49478173828125,-1.0110626220703125,-0.03271484375,0.0132598876953125
1772789593610848000,8.504847900390626,-1.0110321044921875,-0.0330963134765625,0.0132598876953125
1772789593620914000,8.514913818359375,-1.011383056640625,-0.032440185546875,0.0132293701171875
1772789593630980000,8.52497998046875,-1.01104736328125,-0.0324859619140625,0.0128936767578125
1772789593641045800,8.535045654296875,-1.010162353515625,-0.032989501953125,0.0127410888671875
1772789593651112000,8.54511181640625,-1.011444091796875,-0.031951904296875,0.013946533203125
1772789593661176800,8.5551767578125,-1.01116943359375,-0.032257080078125,0.01324462890625
1772789593671243000,8.565242919921875,-1.01068115234375,-0.03192138671875,0.0136566162109375
1772789593681309000,8.575308837890624,-1.0113067626953125,-0.0321197509765625,0.0126953125
1772789593691375000,8.585375,-1.0117645263671875,-0.0325775146484375,0.013214111328125
1772789593701440800,8.595440673828126,-1.010833740234375,-0.0330963134765625,0.0131683349609375
1772789593711507000,8.6055068359375,-1.011566162109375,-0.03216552734375,0.013458251953125
1772789593721572900,8.61557275390625,-1.01055908203125,-0.0327301025390625,0.012847900390625
1772789593731638800,8.625638671875,-1.0110931396484375,-0.03204345703125,0.013336181640625
1772789593741705000,8.635705078125,-1.009857177734375,-0.032470703125,0.0131988525390625
1772789593751771000,8.64577099609375,-1.010406494140625,-0.0323028564453125,0.012359619140625
1772789593761837000,8.655837158203125,-1.0107421875,-0.0323944091796875,0.0127105712890625
1772789593771902700,8.66590283203125,-1.011932373046875,-0.0325927734375,0.012847900390625
1772789593781969000,8.675968994140625,-1.0115509033203125,-0.033355712890625,0.013031005859375
1772789593792034800,8.686034912109376,-1.0114898681640625,-0.032318115234375,0.0131683349609375
1772789593802101000,8.69610107421875,-1.0102081298828125,-0.032135009765625,0.013275146484375
1772789593812167000,8.7061669921875,-1.011444091796875,-0.0327606201171875,0.0135040283203125
1772789593822233000,8.716233154296875,-1.0110321044921875,-0.0322418212890625,0.01318359375
1772789593832299000,8.726299072265626,-1.010528564453125,-0.032745361328125,0.013641357421875
1772789593842364000,8.736364013671874,-1.0105133056640625,-0.03326416015625,0.013092041015625
1772789593852429800,8.746429931640625,-1.0104522705078125,-0.0333099365234375,0.0133056640625
1772789593862496000,8.75649609375,-1.01129150390625,-0.03289794921875,0.0134735107421875
1772789593872562000,8.76656201171875,-1.0111083984375,-0.033050537109375,0.0138397216796875
1772789593882627800,8.7766279296875,-1.0118255615234375,-0.031982421875,0.0134735107421875
1772789593892694000,8.786694091796875,-1.010986328125,-0.032196044921875,0.0138397216796875
1772789593902759700,8.796759765625,-1.0109710693359375,-0.0323944091796875,0.01336669921875
1772789593912825900,8.806825927734375,-1.0110931396484375,-0.032501220703125,0.013580322265625
1772789593922891800,8.816891845703125,-1.0110321044921875,-0.0327911376953125,0.0135650634765625
1772789593932958000,8.8269580078125,-1.0109405517578125,-0.0333404541015625,0.0137939453125
1772789593943023900,8.83702392578125,-1.011444091796875,-0.0329437255859375,0.013275146484375
1772789593953089000,8.847089111328126,-1.01263427734375,-0.0321197509765625,0.01263427734375
1772789593963154700,8.85715478515625,-1.0116729736328125,-0.0324249267578125,0.0139617919921875
1772789593973220900,8.867220947265626,-1.01116943359375,-0.031707763671875,0.0125885009765625
1772789593983286800,8.877286865234375,-1.011138916015625,-0.0328521728515625,0.013336181640625
1772789593993353000,8.88735302734375,-1.01129150390625,-0.0328521728515625,0.0134124755859375
1772789594003419000,8.8974189453125,-1.010986328125,-0.032318115234375,0.013671875
1772789594013485000,8.907485107421875,-1.0111083984375,-0.0323028564453125,0.0135650634765625
1772789594023551000,8.917551025390624,-1.008514404296875,-0.03204345703125,0.013671875
1772789594033617000,8.927616943359375,-1.0106353759765625,-0.032623291015625,0.01318359375
1772789594043682800,8.937682861328126,-1.010528564453125,-0.03240966796875,0.012481689453125
1772789594053748000,8.947748046875,-1.0121002197265625,-0.0323333740234375,0.0132904052734375
1772789594063814000,8.95781396484375,-1.0111541748046875,-0.0330810546875,0.013336181640625
1772789594073880000,8.967880126953125,-1.0084075927734375,-0.032196044921875,0.0137939453125
1772789594083946000,8.977946044921875,-1.0108489990234375,-0.0321807861328125,0.0137481689453125
1772789594094012000,8.988011962890624,-1.012939453125,-0.0318756103515625,0.0126190185546875
1772789594104077800,8.998077880859375,-1.0124359130859375,-0.03173828125,0.012451171875
1772789594114143700,9.008143798828126,-1.0104522705078125,-0.0321502685546875,0.0137481689453125
1772789594124210000,9.0182099609375,-1.0083160400390625,-0.032135009765625,0.0135040283203125
1772789594134275800,9.02827587890625,-1.011871337890625,-0.032257080078125,0.013031005859375
1772789594144342000,9.038342041015625,-1.011688232421875,-0.0328521728515625,0.0135650634765625
1772789594154407000,9.048406982421875,-1.009521484375,-0.0323028564453125,0.0126800537109375
1772789594164472800,9.058472900390624,-1.010162353515625,-0.032073974609375,0.013580322265625
1772789594174538800,9.068538818359375,-1.0108184814453125,-0.0319061279296875,0.0132293701171875
1772789594184605000,9.07860498046875,-1.0124969482421875,-0.031524658203125,0.01263427734375
1772789594194670800,9.0886708984375,-1.0123748779296875,-0.0322418212890625,0.01324462890625
1772789594204737000,9.098737060546876,-1.00933837890625,-0.032196044921875,0.0138702392578125
1772789594214803000,9.108802978515625,-1.010406494140625,-0.0324554443359375,0.013427734375
1772789594224869000,9.118869140625,-1.0107269287109375,-0.0330963134765625,0.0130462646484375
1772789594234934800,9.128934814453125,-1.0109405517578125,-0.031951904296875,0.0140533447265625
1772789594245001000,9.1390009765625,-1.0119476318359375,-0.031707763671875,0.0138702392578125
1772789594255065900,9.14906591796875,-1.010101318359375,-0.031646728515625,0.0135345458984375
1772789594265132000,9.159132080078125,-1.011016845703125,-0.0325927734375,0.013824462890625
1772789594275198000,9.169197998046876,-1.0108489990234375,-0.0331878662109375,0.0141143798828125
1772789594285264100,9.17926416015625,-1.0105743408203125,-0.03363037109375,0.0139617919921875
1772789594295329800,9.189329833984376,-1.0120086669921875,-0.032806396484375,0.0125732421875
1772789594305396000,9.19939599609375,-1.009796142578125,-0.0323333740234375,0.013336181640625
1772789594315462000,9.2094619140625,-1.009429931640625,-0.0320281982421875,0.013427734375
1772789594325527800,9.21952783203125,-1.01129150390625,-0.0317840576171875,0.012786865234375
1772789594335594000,9.229593994140625,-1.0119781494140625,-0.0326385498046875,0.0128936767578125
1772789594345659100,9.2396591796875,-1.010589599609375,-0.0330657958984375,0.0143280029296875
1772789594355724800,9.249724853515625,-1.011505126953125,-0.0323638916015625,0.013671875
1772789594365790700,9.259790771484376,-1.010650634765625,-0.03253173828125,0.0133056640625
1772789594375857000,9.26985693359375,-1.011810302734375,-0.0325775146484375,0.0125274658203125
1772789594385926100,9.279926025390624,-1.011505126953125,-0.031982421875,0.013092041015625
1772789594395992000,9.289991943359375,-1.01068115234375,-0.0322265625,0.0130615234375
1772789594406058000,9.30005810546875,-1.0110931396484375,-0.0324554443359375,0.01275634765625
1772789594416124200,9.310124267578125,-1.0114898681640625,-0.0329132080078125,0.01239013671875
1772789594426190000,9.320190185546876,-1.011993408203125,-0.03302001953125,0.0131683349609375
1772789594436256300,9.33025634765625,-1.010894775390625,-0.031829833984375,0.0137481689453125
1772789594446321200,9.340321044921875,-1.00970458984375,-0.0319366455078125,0.0128631591796875
1772789594456387000,9.350386962890624,-1.0106964111328125,-0.0319061279296875,0.0131683349609375
1772789594466453000,9.360452880859375,-1.010650634765625,-0.031890869140625,0.014068603515625
1772789594476519200,9.370519287109374,-1.010589599609375,-0.0321197509765625,0.0138397216796875
1772789594486585000,9.380585205078125,-1.0117645263671875,-0.0327911376953125,0.012847900390625
1772789594496651300,9.3906513671875,-1.01007080078125,-0.031768798828125,0.0135040283203125
1772789594506717200,9.40071728515625,-1.0114593505859375,-0.0323944091796875,0.0130157470703125
1772789594516783400,9.410783447265626,-1.0120849609375,-0.0322723388671875,0.011688232421875
1772789594526849300,9.420849365234375,-1.0102691650390625,-0.0321807861328125,0.012603759765625
1772789594536914200,9.4309140625,-1.011566162109375,-0.0326080322265625,0.013275146484375
1772789594546980000,9.44097998046875,-1.0103302001953125,-0.0317535400390625,0.013031005859375
1772789594557046300,9.45104638671875,-1.0103912353515625,-0.032196044921875,0.013031005859375
1772789594567112200,9.4611123046875,-1.010833740234375,-0.0330047607421875,0.0121307373046875
1772789594577178000,9.47117822265625,-1.0110321044921875,-0.0326995849609375,0.0140380859375
1772789594587244000,9.481244140625,-1.0106658935546875,-0.0319671630859375,0.01416015625
1772789594597310000,9.49131005859375,-1.0102996826171875,-0.032012939453125,0.013580322265625
1772789594607376100,9.501376220703126,-1.011077880859375,-0.032562255859375,0.0137176513671875
1772789594617442000,9.511442138671875,-1.0117645263671875,-0.0327911376953125,0.01361083984375
1772789594627507200,9.521507080078125,-1.01123046875,-0.0328826904296875,0.01422119140625
1772789594637573000,9.531572998046874,-1.0110626220703125,-0.0328369140625,0.0141448974609375
1772789594647639000,9.54163916015625,-1.011138916015625,-0.0320281982421875,0.014251708984375
1772789594657705000,9.551705078125,-1.011749267578125,-0.032196044921875,0.0134124755859375
1772789594667771100,9.561771240234375,-1.0113067626953125,-0.032623291015625,0.013641357421875
1772789594677837000,9.571837158203126,-1.01043701171875,-0.03271484375,0.0129852294921875
1772789594687903200,9.5819033203125,-1.0109710693359375,-0.0326080322265625,0.0130462646484375
1772789594697969200,9.59196923828125,-1.0108489990234375,-0.0323333740234375,0.013946533203125
1772789594708035300,9.602035400390625,-1.0121307373046875,-0.0324859619140625,0.0126800537109375
1772789594718101200,9.612101318359375,-1.0111236572265625,-0.031829833984375,0.012481689453125
1772789594728166100,9.622166259765624,-1.0111083984375,-0.0320587158203125,0.012542724609375
1772789594738232000,9.632232177734375,-1.00994873046875,-0.0324249267578125,0.01336669921875
1772789594748298200,9.64229833984375,-1.011383056640625,-0.0333099365234375,0.012969970703125
1772789594758364200,9.6523642578125,-1.0121307373046875,-0.032806396484375,0.0129547119140625
1772789594768430300,9.662430419921876,-1.011627197265625,-0.032135009765625,0.0135040283203125
1772789594778496300,9.672496337890625,-1.011077880859375,-0.0325927734375,0.013702392578125
1772789594788562200,9.682562255859375,-1.0110626220703125,-0.0322265625,0.0135498046875
1772789594798628000,9.692628173828124,-1.011383056640625,-0.0320892333984375,0.0124969482421875
1772789594808694000,9.702694091796875,-1.011322021484375,-0.0319366455078125,0.01361083984375
1772789594818759200,9.71275927734375,-1.0106048583984375,-0.032623291015625,0.01348876953125
1772789594828825300,9.722825439453125,-1.011016845703125,-0.0321807861328125,0.0141754150390625
1772789594838891300,9.732891357421876,-1.010650634765625,-0.0324249267578125,0.01324462890625
1772789594848957200,9.742957275390625,-1.01220703125,-0.0323486328125,0.013458251953125
1772789594859023000,9.753023193359375,-1.0110931396484375,-0.0323944091796875,0.0135650634765625
1772789594869089000,9.763089111328124,-1.010711669921875,-0.031982421875,0.0139617919921875
1772789594879155200,9.7731552734375,-1.010101318359375,-0.0316009521484375,0.0128631591796875
1772789594889221000,9.78322119140625,-1.0106201171875,-0.033416748046875,0.0131072998046875
1772789594899286300,9.793286376953125,-1.0115966796875,-0.0328826904296875,0.0129241943359375
1772789594909352200,9.803352294921876,-1.011688232421875,-0.03192138671875,0.013092041015625
1772789594919418000,9.813418212890625,-1.011383056640625,-0.032562255859375,0.012939453125
1772789594929484000,9.823484130859375,-1.0103302001953125,-0.0323638916015625,0.0126495361328125
1772789594939550200,9.83355029296875,-1.0104217529296875,-0.0322113037109375,0.013885498046875
1772789594949616000,9.8436162109375,-1.0114288330078125,-0.0319976806640625,0.0134124755859375
1772789594959682300,9.853682373046874,-1.01171875,-0.033538818359375,0.0124053955078125
1772789594969748200,9.863748291015625,-1.011138916015625,-0.0324859619140625,0.013580322265625
1772789594979814100,9.873814208984374,-1.0104217529296875,-0.0321044921875,0.0132293701171875
1772789594989879000,9.883879150390625,-1.0111236572265625,-0.03204345703125,0.013153076171875
1772789594999945200,9.8939453125,-1.01116943359375,-0.0323486328125,0.0130767822265625
1772789595010011100,9.90401123046875,-1.0112762451171875,-0.0329742431640625,0.0122833251953125
1772789595020077300,9.914077392578125,-1.0114593505859375,-0.0322265625,0.0122528076171875
1772789595030143200,9.924143310546874,-1.0109100341796875,-0.03143310546875,0.012664794921875
1772789595040209200,9.934209228515625,-1.0115509033203125,-0.0322113037109375,0.01312255859375
1772789595050275000,9.944275146484374,-1.011505126953125,-0.032562255859375,0.0131683349609375
1772789595060341000,9.954341064453125,-1.0107269287109375,-0.032379150390625,0.0128326416015625
1772789595070407200,9.9644072265625,-1.010711669921875,-0.0321197509765625,0.01416015625
1772789595080472300,9.974472412109375,-1.0106353759765625,-0.0314788818359375,0.0138397216796875
1772789595090538200,9.984538330078125,-1.0102691650390625,-0.032073974609375,0.013702392578125
1772789595100604200,9.994604248046874,-1.010650634765625,-0.03143310546875,0.0120697021484375
1772789595110670000,10.004670166015625,-1.0114593505859375,-0.0328826904296875,0.0134124755859375
1772789595120736000,10.014736083984374,-1.0113525390625,-0.0323486328125,0.013092041015625
1772789595130802200,10.02480224609375,-1.008941650390625,-0.031890869140625,0.01312255859375
1772789595140868000,10.0348681640625,-1.0117034912109375,-0.0323944091796875,0.0127716064453125
1772789595150934300,10.044934326171875,-1.011810302734375,-0.0326995849609375,0.0126190185546875
1772789595160999200,10.054999267578125,-1.0113372802734375,-0.0327911376953125,0.0133056640625
1772789595171065000,10.065065185546874,-1.0113067626953125,-0.0323944091796875,0.0136260986328125
1772789595181131000,10.075131103515625,-1.010589599609375,-0.0325164794921875,0.01312255859375
1772789595191197200,10.085197265625,-1.0104522705078125,-0.032562255859375,0.0133819580078125
1772789595201263000,10.09526318359375,-1.0111236572265625,-0.0326080322265625,0.0133056640625
1772789595211329300,10.105329345703124,-1.0101318359375,-0.0320892333984375,0.0139007568359375
1772789595221395200,10.115395263671875,-1.01080322265625,-0.0322418212890625,0.0137176513671875
1772789595231461000,10.125461181640626,-1.0096282958984375,-0.032867431640625,0.0135040283203125
1772789595241527000,10.135527099609375,-1.0102691650390625,-0.0327301025390625,0.0129241943359375
1772789595251592200,10.14559228515625,-1.0106201171875,-0.031890869140625,0.0137481689453125
1772789595261658000,10.155658203125,-1.010406494140625,-0.0325775146484375,0.0130462646484375
1772789595271724300,10.165724365234375,-1.010406494140625,-0.0319061279296875,0.013671875
1772789595281790200,10.175790283203124,-1.011627197265625,-0.032989501953125,0.01300048828125
1772789595291856100,10.185856201171875,-1.0121917724609375,-0.0319671630859375,0.0134429931640625
1772789595301922000,10.195922119140626,-1.012115478515625,-0.0327606201171875,0.013427734375
1772789595311988200,10.20598828125,-1.011810302734375,-0.0325469970703125,0.013214111328125
1772789595322054100,10.21605419921875,-1.01019287109375,-0.0313720703125,0.01275634765625
1772789595332119300,10.226119384765624,-1.0106048583984375,-0.0318756103515625,0.013427734375
1772789595342185200,10.236185302734375,-1.0115509033203125,-0.03302001953125,0.0132598876953125
1772789595352251100,10.246251220703124,-1.012054443359375,-0.0335693359375,0.0134735107421875
1772789595362317000,10.256317138671875,-1.009735107421875,-0.0328369140625,0.013336181640625
1772789595372383200,10.26638330078125,-1.00994873046875,-0.0325927734375,0.013336181640625
1772789595382449400,10.276449462890625,-1.01214599609375,-0.03253173828125,0.0138092041015625
1772789595392515000,10.28651513671875,-1.010498046875,-0.032073974609375,0.0128936767578125
1772789595402581200,10.296581298828125,-1.010406494140625,-0.0322113037109375,0.0127716064453125
1772789595412647200,10.306647216796875,-1.0107269287109375,-0.0328216552734375,0.0129547119140625
1772789595422712300,10.31671240234375,-1.0111083984375,-0.0329437255859375,0.0122833251953125
1772789595432778200,10.3267783203125,-1.0111083984375,-0.033050537109375,0.012847900390625
1772789595442844400,10.336844482421874,-1.0105133056640625,-0.0326690673828125,0.0129547119140625
1772789595452910000,10.34691015625,-1.0120391845703125,-0.0315704345703125,0.01348876953125
1772789595462976300,10.356976318359376,-1.0104827880859375,-0.0317230224609375,0.0135040283203125
1772789595473042200,10.367042236328125,-1.010833740234375,-0.0325164794921875,0.013214111328125
1772789595483108400,10.3771083984375,-1.011016845703125,-0.0316925048828125,0.013916015625
1772789595493174300,10.38717431640625,-1.011474609375,-0.0334014892578125,0.0136871337890625
1772789595503239400,10.397239501953125,-1.009674072265625,-0.0330810546875,0.0135040283203125
1772789595513305000,10.40730517578125,-1.0108489990234375,-0.0329437255859375,0.013031005859375
1772789595523371300,10.417371337890625,-1.0106658935546875,-0.032012939453125,0.014404296875
1772789595533437200,10.427437255859376,-1.010345458984375,-0.0316009521484375,0.013763427734375
1772789595543503400,10.43750341796875,-1.0104827880859375,-0.0316619873046875,0.01416015625
1772789595553569300,10.4475693359375,-1.010711669921875,-0.03289794921875,0.0138702392578125
1772789595563635500,10.457635498046875,-1.01031494140625,-0.0321807861328125,0.0140380859375
1772789595573701400,10.467701416015625,-1.0119476318359375,-0.0321807861328125,0.0130767822265625
1772789595583766300,10.477766357421874,-1.0116119384765625,-0.0329742431640625,0.0128021240234375
1772789595593832200,10.487832275390625,-1.010894775390625,-0.0325469970703125,0.0126953125
1772789595603898400,10.4978984375,-1.0118255615234375,-0.0324554443359375,0.01068115234375
1772789595613964300,10.50796435546875,-1.0120086669921875,-0.032257080078125,0.0121002197265625
1772789595624030500,10.518030517578126,-1.0106201171875,-0.03216552734375,0.01251220703125
1772789595634096400,10.528096435546875,-1.0101165771484375,-0.0316925048828125,0.0127716064453125
1772789595644162300,10.538162353515625,-1.0114898681640625,-0.032745361328125,0.01275634765625
1772789595654228200,10.548228271484374,-1.013885498046875,-0.0323944091796875,0.0147705078125
1772789595664293400,10.55829345703125,-1.0135345458984375,-0.0331268310546875,0.0145111083984375
1772789595674359300,10.568359375,-1.0084381103515625,-0.032440185546875,0.01416015625
1772789595684425500,10.578425537109375,-1.0082244873046875,-0.0328369140625,0.0139007568359375
1772789595694491400,10.588491455078126,-1.0100555419921875,-0.03277587890625,0.01483154296875
1772789595704557000,10.59855712890625,-1.0112152099609375,-0.032684326171875,0.0155029296875
1772789595714623200,10.608623291015626,-1.012176513671875,-0.0317230224609375,0.0145416259765625
1772789595724689200,10.618689208984375,-1.00921630859375,-0.0321502685546875,0.0133056640625
1772789595734755300,10.62875537109375,-1.010009765625,-0.0313568115234375,0.0144500732421875
