time,seconds_elapsed,z,y,x
1772790179055210500,0.07721044921875,-0.36228082200884815,-0.599002542720735,0.3704716541837901
1772790179065276700,0.087276611328125,-0.6134305887848138,-0.5887365847721695,0.41706323642358184
1772790179075341600,0.097341552734375,-0.8895902936547994,-0.6424523928686976,0.5104385624743998
1772790179085407500,0.107407470703125,-1.080899631974101,-0.7284671270236373,0.572332818188332
1772790179095473400,0.117473388671875,-1.1036392870485783,-0.7413157949417829,0.5399837328452617
1772790179105538600,0.12753857421875,-0.9403414067268371,-0.8221031498372554,0.49086157268192615
1772790179115604700,0.137604736328125,-0.7756827594459056,-0.8738982190042733,0.5590136101489886
1772790179125670700,0.147670654296875,-0.8274860119193792,-0.8562874512508512,0.5608489358173683
1772790179135735600,0.157735595703125,-1.03599198423326,-0.7884308895990252,0.49863253547698255
1772790179145801500,0.167801513671875,-1.3246516897141933,-0.5469520374879241,0.33549050330407915
1772790179155867600,0.17786767578125,-1.7150006683439016,-0.25841098995059725,0.0354880774885416
1772790179165932500,0.1879326171875,-1.8728028738588094,-0.0007169160977005958,-0.23715050405059007
1772790179175998500,0.19799853515625,-1.9205875383406876,0.17232026794999836,-0.4477918444253504
1772790179186064400,0.208064453125,-1.8128110542327165,0.2988505523666739,-0.538280107265152
1772790179196129500,0.218129638671875,-1.559866805255413,0.40611324173361063,-0.6068699516275897
1772790179206195700,0.22819580078125,-1.1940256604164838,0.543326540467143,-0.7713235413230956
1772790179216261600,0.23826171875,-0.9768553201317787,0.6231058873638511,-0.9762446408875286
1772790179226326500,0.248326416015625,-0.7632184146702289,0.6917389863461255,-1.1178336704872547
1772790179236392400,0.258392333984375,-0.4631617013841867,0.8198539096057414,-1.1934980563458055
1772790179246458600,0.268458740234375,-0.3024099984139204,0.8234414127036929,-1.1762013960428535
1772790179256523500,0.2785234375,-0.3050508683115244,0.7483069690033793,-1.1362421644896268
1772790179266589700,0.288589599609375,-0.2964852845400572,0.7477192322432994,-1.0521090793628245
1772790179276655600,0.298655517578125,-0.22178864773511886,0.7445572610810398,-1.0433661662630735
1772790179286721500,0.308721435546875,-0.11306757625341415,0.7501449980854987,-1.1089859087735414
1772790179296786400,0.318786376953125,0.009365209716558456,0.8068424523413181,-1.1556635618615896
1772790179306852600,0.3288525390625,0.008425883039832115,0.8520862001687288,-1.2147582134522497
1772790179316918500,0.33891845703125,0.047451487004756925,0.8731111602798104,-1.2572928484514354
1772790179326983400,0.3489833984375,0.15991349858045578,0.8893912639513611,-1.2167143159560858
1772790179337049600,0.359049560546875,0.30426410184800623,0.8667284735053777,-1.147777484786883
1772790179347115500,0.369115478515625,0.5199743064522743,0.8451295128986239,-1.0928368110705167
1772790179357180700,0.3791806640625,0.6968851170629262,0.8558654264464974,-1.0622300028175116
1772790179367246600,0.38924658203125,0.6885545110911131,0.8827434964999556,-1.0239641311787069
1772790179377312800,0.399312744140625,0.6157780286937952,0.8628235750213264,-1.018069666312635
1772790179387377400,0.40937744140625,0.6029214697301387,0.7817989042386412,-0.9618716860115527
1772790179397443600,0.419443603515625,0.5887117425918579,0.7084884610950947,-0.9169286016311496
1772790179407509500,0.429509521484375,0.5289443793714046,0.6672364132523536,-0.8561537418685853
1772790179417574700,0.43957470703125,0.6040607028931378,0.6152689101278781,-0.8161424148019403
1772790179427640600,0.449640625,0.6474012474477291,0.47488194979429244,-0.7448597511589526
1772790179437706500,0.45970654296875,0.5062777895331383,0.4184451923012733,-0.5992946940677241
1772790179447771600,0.469771728515625,0.4432259978145361,0.2936982841700315,-0.4081684206977486
1772790179457837600,0.479837646484375,0.6741004538029431,0.13242431089133022,-0.35009682854451235
1772790179467903500,0.489903564453125,1.0649889461368323,0.09884498963356017,-0.33971257797852156
1772790179477968400,0.499968505859375,1.2013152329027652,0.06687953331321478,-0.37311179342903195
1772790179488034600,0.51003466796875,1.341346219405532,-0.10313654934763908,-0.3918729002613574
1772790179498100500,0.5201005859375,1.2702829706668852,-0.24696955848187208,-0.2979439771820791
1772790179508165600,0.53016552734375,0.9633096098601818,-0.4127493187472224,-0.15683392673833293
1772790179518231600,0.5402314453125,0.6728928315788507,-0.6296756211429834,-0.04876395784281194
1772790179528297700,0.550297607421875,0.5159364292383194,-0.7077136773303151,0.0017135624522343277
1772790179538362600,0.560362548828125,0.4632727605432272,-0.6812927033945918,-0.10527958925832062
1772790179548428500,0.570428466796875,0.3533703703224659,-0.6554585894361138,-0.23172256071772426
1772790179558494500,0.580494384765625,0.6499217058360576,-0.6183493404865265,-0.3372743910461664
1772790179568559600,0.5905595703125,0.6803606832414865,-0.5644976310506463,-0.4184934884224087
1772790179578625800,0.600625732421875,0.6361936247348785,-0.5993573475077748,-0.4061525873633101
1772790179588691500,0.61069140625,0.7090308974087238,-0.5840595328718423,-0.4728691486671567
1772790179598757600,0.620757568359375,0.7968401137650013,-0.5559485600225627,-0.5484404128821566
1772790179608822500,0.630822509765625,0.7538853536576032,-0.5916249996900558,-0.6087828725768253
1772790179618888700,0.640888671875,0.6071025548070669,-0.6855117823943495,-0.6063360639465972
1772790179628954600,0.65095458984375,0.4356850809156894,-0.7882941114768386,-0.5024385766964405
1772790179639019500,0.66101953125,0.4492851517230272,-0.9278066270634532,-0.3451213782195002
1772790179649085400,0.67108544921875,0.5601362209707498,-0.9696179162241518,-0.21768344090599565
1772790179659151600,0.681151611328125,0.5868628998547792,-0.9701011696964502,-0.16336232386007904
1772790179669216500,0.691216552734375,0.4832593175172806,-1.0286743546962738,-0.17364234686661512
1772790179679282700,0.70128271484375,0.2403735212177038,-1.0563163948595524,-0.18906068260967732
1772790179689348400,0.711348388671875,0.05830547397434711,-1.0894624392665921,-0.11657521904818713
1772790179699413500,0.72141357421875,-0.17691022608876228,-1.1249890951998531,0.009099571917159483
1772790179709479700,0.731479736328125,-0.4744727844715118,-1.172511601614207,0.15348258875012397
1772790179719545600,0.741545654296875,-0.6612503245800733,-1.1244953203335404,0.1674301943534985
1772790179729610500,0.751610595703125,-0.5593517925947904,-0.9997880135603249,0.12786994465575552
1772790179739676400,0.761676513671875,-0.4842249476790428,-0.8750302917741238,0.10712276943959295
1772790179749742600,0.77174267578125,-0.5387006342321634,-0.8340116142958403,0.18072832307219505
1772790179759807500,0.781807373046875,-0.5955407118290662,-0.8833030300788581,0.3005450995911844
1772790179769873700,0.791873779296875,-0.6854694045573473,-0.8395965748213231,0.41979554746430364
1772790179779939600,0.801939697265625,-0.8290402556240558,-0.7432933786250651,0.44621440250817684
1772790179790004500,0.81200439453125,-0.9327724327772855,-0.6993214042991399,0.44036900094822046
1772790179800070400,0.8220703125,-0.9011819472491741,-0.6089005441397428,0.45927890513408925
1772790179810136600,0.832136474609375,-0.8723124111175536,-0.5224233070395886,0.5320066164862364
1772790179820202500,0.842202392578125,-0.9033177902340889,-0.5355857170820236,0.6077283950878307
1772790179830267600,0.852267578125,-0.8879372657507657,-0.5517648445971309,0.6259229175459593
1772790179840333600,0.86233349609375,-0.802635063779354,-0.6002566344350576,0.6852171833619475
1772790179850399500,0.8723994140625,-0.7052554705232381,-0.6971507822617888,0.7449925106931478
1772790179860464600,0.882464599609375,-0.5399047493249177,-0.7931283997654914,0.795681810575351
1772790179870530600,0.892530517578125,-0.5906015018612146,-0.8425766135454177,0.9124068133577704
1772790179880596700,0.9025966796875,-0.8934007918536663,-0.8002931768283248,0.9948960037350654
1772790179890661400,0.912661376953125,-1.400292913892865,-0.6201455762535333,1.0064392881430686
1772790179900727600,0.9227275390625,-1.919253074866533,-0.4728124500438571,0.9860760068111121
1772790179910793500,0.93279345703125,-2.1608102529108524,-0.25835136871784925,0.9353469594404101
1772790179920858600,0.942858642578125,-2.1130805334866047,-0.03347381505668163,0.7890382809076458
1772790179930924500,0.952924560546875,-1.7688988472700118,0.20852087762206792,0.5445193304482847
1772790179940990500,0.962990478515625,-1.2735334968954324,0.4317823743887245,0.29637122970633206
1772790179951056000,0.973055908203125,-0.6546072333037853,0.6457578641548752,0.10334248371589928
1772790179961121800,0.983121826171875,-0.020523148068785666,0.7643076712116599,-0.04102324405554682
1772790179971187700,0.993187744140625,0.5267869090765714,0.8789424967817961,-0.15901355406604706
1772790179981252900,1.0032529296875,0.829907101586461,0.8838840448372065,-0.09906371041815727
1772790179991319000,1.013319091796875,0.8213017703264951,0.8122526408217847,0.06080353786777705
1772790180001384700,1.023384765625,0.5968991407006978,0.7067509697780012,0.1562425549827516
1772790180011451000,1.033450927734375,0.5465998630493879,0.5520990449875592,0.2796175171736628
1772790180021515800,1.043515869140625,0.7654051110595465,0.5343661121591925,0.367483139892295
1772790180031582000,1.05358203125,0.883902895668149,0.5308826539576054,0.47833523205332457
1772790180041647900,1.06364794921875,0.9083838414520025,0.4801628128066659,0.6212444043409079
1772790180051712800,1.073712646484375,0.8844570224195718,0.4067020014069974,0.7049233159594237
1772790180061778700,1.08377880859375,0.8084685922384262,0.33769071676209567,0.7720120350439101
1772790180071844900,1.093844970703125,0.8146873206228017,0.3244543647006154,0.8461619246862828
1772790180081910000,1.103909912109375,0.7985165225446224,0.330913623842597,0.8794943585108965
1772790180091976000,1.113975830078125,0.6690759036391973,0.31122225042283536,0.9125303666722029
1772790180102041900,1.124041748046875,0.5573854609578848,0.28338819481879474,0.964771864432469
1772790180112106800,1.134106689453125,0.4157616523057222,0.34731340837106106,0.9423404715895652
1772790180122173000,1.1441728515625,0.1753629966467619,0.44926440119594335,0.9052043346330523
1772790180132238800,1.15423876953125,-0.24068273329734802,0.5337473957389592,0.8782315720334648
1772790180142304000,1.164303955078125,-0.5588911893457174,0.6435546550221741,0.8296439206056296
1772790180152369700,1.17436962890625,-0.6140098499774933,0.7674084137059748,0.7873082422446459
1772790180162435800,1.184435791015625,-0.6285767199903726,0.8709631884656845,0.6964360581211745
1772790180172500700,1.194500732421875,-0.5763870985478162,0.9410397642545402,0.5988746420247479
1772790180182567000,1.20456689453125,-0.5678139159917831,0.9608068332590162,0.4801161971859634
1772790180192632800,1.2146328125,-0.4116799359500408,0.9300177272416651,0.32841088377404953
1772790180202699000,1.224698974609375,-0.11430442457199096,0.9597098318025469,0.2243029686436057
1772790180212764000,1.234763916015625,0.10354045397341251,0.8802126628480851,0.1537212198115885
1772790180222829800,1.244829833984375,0.10470482157766818,0.7136801845192908,0.19054124002363532
1772790180232895700,1.254895751953125,-0.11516425627171993,0.5314714136309922,0.31742519671618935
1772790180242961000,1.2649609375,-0.184307350602746,0.36640535459294915,0.5458506886499003
1772790180253027000,1.275027099609375,-0.2043628811597824,0.21825272869393228,0.5926451365180313
1772790180263092700,1.2850927734375,-0.15950725586712358,0.10233706953302026,0.45834447382818905
1772790180273158000,1.295157958984375,-0.14152794706225394,-0.007267945176362991,0.42759562675599005
1772790180283223800,1.305223876953125,-0.17439385935366153,-0.097181732596457,0.4426976996241137
1772790180293290000,1.3152900390625,-0.00474222609102726,-0.14867124294564127,0.4201563801333308
1772790180303354600,1.325354736328125,0.22339491388797758,-0.19858912006393073,0.42703295137193054
1772790180313420800,1.3354208984375,0.053044192445278165,-0.23485563457906244,0.48689862386770544
1772790180323486700,1.34548681640625,0.08205576739609241,-0.3123603145420551,0.4579727909715846
1772790180333551900,1.3555517578125,0.24853110871016978,-0.3866688288122415,0.33738482915069906
1772790180343617800,1.36561767578125,0.40479777522087096,-0.35284342383891343,0.27896446009241044
1772790180353684000,1.37568408203125,0.42109015385210513,-0.3234004717335105,0.21444814877919852
1772790180363748900,1.385748779296875,0.2373456978291273,-0.3703193131662905,0.13538513345830142
1772790180373814800,1.395814697265625,0.2119265944123268,-0.43803895056545733,0.2125408903857693
1772790180383881000,1.405880859375,0.2758049000829458,-0.49545142122283575,0.2616487662954256
1772790180393945900,1.41594580078125,0.3693295714765787,-0.516551492396742,0.23725063995681703
1772790180404012000,1.426011962890625,0.4759475331991911,-0.5272928127720952,0.275798031950742
1772790180414077700,1.43607763671875,0.5080459682494401,-0.5875418220296502,0.27500666237734256
1772790180424144000,1.446143798828125,0.43834290194809433,-0.6727024235732852,0.3114717682044953
1772790180434208800,1.456208740234375,0.302095525637269,-0.7338520349323749,0.37770182463303204
1772790180444275000,1.46627490234375,0.2421376082807779,-0.7670793278820812,0.40859263745918867
1772790180454340900,1.4763408203125,0.20693477747440336,-0.767298961982131,0.407544370515272
1772790180464405800,1.48640576171875,0.21929273926615714,-0.7968221397168934,0.40871874805688857
1772790180474471700,1.4964716796875,0.2792909886330366,-0.7885252898842096,0.4027943264439702
1772790180484537900,1.506537841796875,0.2860971615165472,-0.7623458696193993,0.34553288162983953
1772790180494603000,1.51660302734375,0.22462591698765752,-0.7330810505598783,0.31544527494534846
1772790180504669000,1.5266689453125,0.11228139431178569,-0.7065922720849513,0.33455205341018734
1772790180514734800,1.53673486328125,-0.0315536606490612,-0.6925086555443704,0.3620527854066342
1772790180524799700,1.5467998046875,-0.04935059862434864,-0.6938644540674984,0.37456798358671367
1772790180534866000,1.556865966796875,-0.10978490132093428,-0.699892920576781,0.3604153203979134
1772790180544931800,1.566931884765625,-0.1287590663820505,-0.7071108891315758,0.38278869944326577
1772790180554997000,1.5769970703125,-0.25576164448559285,-0.7198498130649328,0.4773343844477087
1772790180565062700,1.587062744140625,-0.5058317993313074,-0.7548299410313367,0.544221735741198
1772790180575128800,1.59712890625,-0.5989870528906583,-0.755235891483724,0.5653292230365797
1772790180585194000,1.607194091796875,-0.5776350527822971,-0.742344115076214,0.5393837576581165
1772790180595260000,1.617260009765625,-0.5612538268238306,-0.7770867810249328,0.5302400817377493
1772790180605325800,1.627325927734375,-0.6195300747036934,-0.8559864224776625,0.5687654445629566
1772790180615392000,1.63739208984375,-0.6328951677113771,-1.012365171060711,0.6419515306744724
1772790180625457000,1.647456787109375,-0.6444295381605625,-1.1903390808582306,0.7368120537817477
1772790180635522800,1.657522705078125,-0.7662216881394386,-1.367735921420157,0.8893204637374729
1772790180645589000,1.667589111328125,-0.945582229989767,-1.5012620560735463,1.0087172430124134
1772790180655654000,1.67765380859375,-1.1397989801883697,-1.5517482345990836,1.0554215649116783
1772790180665719800,1.6877197265625,-1.3480647140055895,-1.5200865835309028,1.0307099521771073
1772790180675785700,1.69778564453125,-1.6143196954548358,-1.4053624722421167,0.8783310138199478
1772790180685851000,1.707850830078125,-1.747297840836644,-1.1852036176659166,0.6742930537655949
1772790180695916800,1.717916748046875,-1.7941683130830526,-0.9526276184566318,0.46119679451938717
1772790180705983000,1.72798291015625,-1.8045301326215266,-0.6906579131111502,0.32934710517823695
1772790180716048000,1.7380478515625,-1.6674083115637301,-0.3897377148635685,0.3143172938287258
1772790180726113800,1.74811376953125,-1.4584592716574667,-0.06450505926683545,0.27527535978350787
1772790180736179700,1.7581796875,-1.1564461636066437,0.2614851366989314,0.20794008205942807
1772790180746244900,1.768244873046875,-0.8488812666475772,0.5805757824093103,0.1640466893950477
1772790180756311000,1.77831103515625,-0.5900666643321514,0.8019089414618908,0.14988336781491524
1772790180766376700,1.788376708984375,-0.41415655519664285,0.9610685529351234,0.11388882037526928
1772790180776441900,1.79844189453125,-0.35629005716145035,1.003399043664336,0.04498857662309892
1772790180786507800,1.8085078125,-0.251951146286726,0.9017289136074483,0.03276232176948106
1772790180796574000,1.818573974609375,-0.16439795051813125,0.7889394236430526,0.13864252781905234
1772790180806638800,1.828638916015625,-0.2913865000963211,0.7047250169083475,0.20763706225855275
1772790180816704800,1.838704833984375,-0.31009353865385053,0.7240422963187098,0.20236301257945596
1772790180826770700,1.848770751953125,-0.09223112445175648,0.7696481554567813,0.12573173618381842
1772790180836835800,1.8588359375,0.017583002963662147,0.7781202157258987,0.06708890174757688
1772790180846902000,1.868902099609375,-0.119988899949193,0.7787871552020311,0.07961102285878732
1772790180856968000,1.878968017578125,-0.07403963420093058,0.8052990222916007,0.14354062945838086
1772790180867032800,1.88903271484375,0.07866495591402053,0.8377408639520406,0.1532269334886223
1772790180877098800,1.8990986328125,0.09765665663182735,0.9199944920077919,0.11007752759195863
1772790180887165000,1.9091650390625,0.10202829584479331,1.0277163233190774,0.027156156342476603
1772790180897229800,1.919229736328125,0.1052618709385395,1.0694470945894718,0.0041591289734467865
1772790180907296000,1.9292958984375,0.11429448769986629,1.048963109487295,0.022340828482620416
1772790180917361700,1.939361572265625,0.07200257541537285,1.0578940194398163,0.05891659161001443
1772790180927427800,1.949427734375,0.15275953517258167,0.9607608021602034,0.11902052984107285
1772790180937492700,1.95949267578125,0.28954584066569805,0.8485857908323406,0.24798965877722948
1772790180947558100,1.96955810546875,0.3590723813563585,0.8210922192290425,0.3757961736747995
1772790180957624000,1.9796240234375,0.482478980794549,0.7322761639177798,0.4976328934477642
1772790180967689000,1.98968896484375,0.5467635291785001,0.6646791299849748,0.5893423686455935
1772790180977755100,1.999755126953125,0.67854515825212,0.5803583402663469,0.571430352923274
1772790180987821000,2.009821044921875,0.6277186418563128,0.43319267957806584,0.598727013714984
1772790180997886000,2.019885986328125,0.7178776362091303,0.23603227714300154,0.7008897495944052
1772790181007952000,2.029951904296875,0.9202940594762563,0.12423954313099383,0.7871288670897484
1772790181018018000,2.04001806640625,1.0234288552582262,-0.019059212996065614,0.8301079579208046
1772790181028083200,2.050083251953125,0.9530167639046907,-0.1596902112185955,0.9184365219760685
1772790181038149000,2.060149169921875,0.7855003891050815,-0.2655617384880781,1.000245548069477
1772790181048215000,2.070215087890625,0.6741314334630966,-0.344173795171082,1.019511754879728
1772790181058280000,2.080280029296875,0.7536796019524336,-0.3497027877256274,1.072130342324078
1772790181068346000,2.09034619140625,0.762791129168868,-0.31112288170158864,1.0278649380095302
1772790181078412000,2.100412109375,0.5565051709920168,-0.2714014044269919,0.9508501604553311
1772790181088477200,2.110477294921875,0.36363223661780353,-0.21198212399184702,0.9151765703320502
1772790181098543000,2.120543212890625,0.27415128765702246,-0.13735036911666393,0.8922156737223267
1772790181108609000,2.130609130859375,0.2548088738054037,-0.03510492338985204,0.8481588706571608
1772790181118674000,2.140673828125,0.24502163928449153,0.08257306926846504,0.7549060750074684
1772790181128740000,2.150739990234375,0.20980594899654387,0.2054734727501869,0.672446549116075
1772790181138806000,2.160805908203125,0.17814064466655252,0.29180531003028154,0.589456240816228
1772790181148871000,2.170870849609375,0.20314123041033744,0.33398616315573454,0.5624967030243948
1772790181158937000,2.18093701171875,0.17139467753767967,0.3490148054614663,0.5962742502680048
1772790181169003000,2.1910029296875,0.1149257713407278,0.34317163239121434,0.616797946326062
1772790181179068200,2.201068115234375,0.1493763224750757,0.3312657982811332,0.6748280374251305
1772790181189134000,2.211134033203125,0.18507132071256638,0.3211655522882938,0.7603416171249002
1772790181199200300,2.2212001953125,0.28351474380791186,0.31731764468848705,0.7888195235904306
1772790181209265000,2.231264892578125,0.41950317692160605,0.32360213178545233,0.7998407568857073
1772790181219331000,2.2413310546875,0.4203542407929897,0.3154746471703052,0.8616826613578945
1772790181229397000,2.25139697265625,0.36421675850749013,0.31418665318638084,0.8987776625864207
1772790181239462100,2.261462158203125,0.3998579807311296,0.2777469740614295,0.9454054851833731
1772790181249528000,2.271528076171875,0.44154140572845935,0.237116857509315,1.0220494566638023
1772790181259594000,2.281593994140625,0.38462475576400756,0.21053163292258978,1.0596119292736053
1772790181269660000,2.291659912109375,0.3269593332588672,0.18592121554017066,1.104371473780647
1772790181279725000,2.30172509765625,0.25264964994490147,0.16679741287529468,1.1667149710994213
1772790181289791200,2.311791259765625,0.14355097732245922,0.18877017523050307,1.2329416665270925
1772790181299857200,2.321857177734375,0.08755962550938129,0.21767478267550466,1.2898168154373764
1772790181309922000,2.331922119140625,0.10519289735555648,0.2475868135973811,1.296391079261154
1772790181319988000,2.341988037109375,0.01660334427654743,0.215204885430634,1.3286065648198127
1772790181330054100,2.35205419921875,-0.11826631394028662,0.1643266388475895,1.405858146804571
1772790181340119000,2.362119140625,-0.1519429580926895,0.15389029276818036,1.4549337278798222
1772790181350185200,2.372185302734375,-0.21163316442370414,0.1660258439809084,1.4945612432606517
1772790181360251000,2.3822509765625,-0.38073534711003304,0.14862579636871814,1.6075377802297472
1772790181370316000,2.39231591796875,-0.5247095182806253,0.14735738386809824,1.73481917527467
1772790181380382000,2.4023818359375,-0.6619231092751026,0.1454755156442523,1.8377819754905997
1772790181390448000,2.4124482421875,-0.7337935827434062,0.16626432891190052,1.9457693258702753
1772790181400513300,2.42251318359375,-0.7292898415833711,0.13183861995786428,2.070263136023283
1772790181410579000,2.432578857421875,-0.7497130364090204,0.06916384485810995,2.1929361604899165
1772790181420645000,2.44264501953125,-0.8508090198397635,0.01534896030128002,2.3172636741653085
1772790181430710000,2.4527099609375,-1.007610523879528,-0.09788228208124637,2.4643828653633593
1772790181440776200,2.462776123046875,-1.179347731244564,-0.2831707526758313,2.6581469033583995
1772790181450842000,2.472842041015625,-1.4090525589317082,-0.3208656925588846,2.7486583644106983
1772790181460907000,2.482906982421875,-1.9447230316877364,-0.2435612113431096,2.6895333907470107
1772790181470973000,2.492972900390625,-2.9694629695445296,0.06850976486355066,2.651948925501108
1772790181481039000,2.5030390625,-3.3829204365611076,0.1126060962215066,2.459694999808073
1772790181491104000,2.51310400390625,-3.4072657732665537,0.3623559330716729,2.200130017516762
1772790181501170200,2.523170166015625,-3.1400749722719192,0.9731441906541586,1.9135813128404318
1772790181511235800,2.53323583984375,-2.498907066255808,1.4309917112782597,1.6740262683987617
1772790181521301000,2.543301025390625,-2.0631360606223343,1.7693077203318475,1.453836434162408
1772790181531367200,2.5533671875,-1.4749913042634726,2.119880861151218,1.2979324634842573
1772790181541433000,2.56343310546875,-0.8545803550720215,2.3941744798883793,1.257335664679855
1772790181551498200,2.573498291015625,-0.39335225209891794,2.3556863438010214,1.1309117632471024
1772790181561564000,2.58356396484375,-0.15854922448992728,2.3134616515338418,1.329583300897479
1772790181571630000,2.593630126953125,-0.12874386881291866,2.226323466306925,1.6428928789883852
1772790181581695000,2.603695068359375,-0.23917525134384632,2.0029390738129615,1.937440765725076
1772790181591761200,2.61376123046875,-0.35168811632394786,1.8496508385911583,2.264169797359407
1772790181601827000,2.6238271484375,-0.19823884532153604,1.7697642319276927,2.5077044129565356
1772790181611893200,2.633893310546875,-0.06283551861941813,1.809184388168156,2.7061025404930112
1772790181621958100,2.643958251953125,-0.023134791871905324,1.8150789991647005,2.9433927087426186
1772790181632024000,2.654024169921875,-0.08178630280494689,1.8146274560049176,3.176478118778765
1772790181642090000,2.664090087890625,-0.19083178393542766,1.8655460345983503,3.3803038243219254
1772790181652155100,2.674155029296875,-0.37436522755622864,1.934421125642955,3.4585540619552133
1772790181662221000,2.684220947265625,-0.5110176775366068,2.039038561198115,3.446857194420695
1772790181672287000,2.694286865234375,-0.44993981623947615,2.131358240716159,3.4041558245524763
1772790181682352000,2.70435205078125,-0.49514907727539537,2.3261405158430337,3.3811031580060718
1772790181692418000,2.71441796875,-0.5567202750474214,2.4546809710383415,3.423417282122373
1772790181702484200,2.724484130859375,-0.6571978343188762,2.4773235954791306,3.4721962183386084
1772790181712548900,2.734548828125,-0.8074889335513115,2.524557640340924,3.5690570484176276
1772790181722615000,2.744614990234375,-1.0006816013991833,2.555845051269233,3.7352550340950486
1772790181732681000,2.754680908203125,-1.1712246305435896,2.5778210284948346,3.8614652927771207
1772790181742746000,2.76474609375,-1.240105859068036,2.6613264101773497,3.88618735384047
1772790181752812000,2.77481201171875,-1.2787684749394654,2.790453140828013,3.8480136905297635
1772790181762878200,2.784878173828125,-1.29843588296175,2.8973972657650706,3.8537279765233396
1772790181772943000,2.794943115234375,-1.2508569701850414,3.0592417324081063,3.8394790864184496
1772790181783009000,2.805009033203125,-1.2933476199120282,3.224498345582187,3.73547598336935
1772790181793075200,2.8150751953125,-1.2779291015058756,3.349064344188571,3.5822526300773023
1772790181803140000,2.82514013671875,-1.3146774081885815,3.5033234702691436,3.4755525430291887
1772790181813206000,2.8352060546875,-1.369406777241826,3.6298973015666007,3.3732433844164014
1772790181823272000,2.84527197265625,-1.3220529053926466,3.7219822955459354,3.1723294746667143
1772790181833337000,2.855337158203125,-1.3968980107575655,3.8355668814107773,2.978580341979861
1772790181843403000,2.865403076171875,-1.459046131634712,3.865073546402156,2.7828818287909027
1772790181853469200,2.87546923828125,-1.4759037429332733,3.896695596112311,2.6822490789577365
1772790181863534000,2.8855341796875,-1.6645786410957575,3.937208223764598,2.5443168182998894
1772790181873600000,2.89560009765625,-1.8494436255812643,3.9179885595098134,2.3956634032718838
1772790181883666000,2.905666015625,-1.980507461774349,3.9124157278135416,2.2071583087183533
1772790181893731000,2.91573095703125,-2.0209896942883727,3.943949222457409,2.0522544549934563
1772790181903797200,2.92579736328125,-1.911452045726776,3.9822462198868394,1.8656116471804678
1772790181913863000,2.93586279296875,-1.72072898286283,3.987334775197506,1.6253846948266029
1772790181923928000,2.945927978515625,-1.5709218677550554,3.973229092955589,1.4510792444087564
1772790181933994000,2.955993896484375,-1.4632769010722637,3.8945506930381057,1.3120916294790803
1772790181944059600,2.9660595703125,-1.3153303191393613,3.747662680247426,1.2395948408059776
1772790181954124800,2.976124755859375,-1.128418338996172,3.565179037940502,1.2621293286971746
1772790181964190700,2.986190673828125,-0.9536433713704348,3.3826492184042927,1.3185434359669685
1772790181974256600,2.996256591796875,-1.000610874250531,3.213090524122119,1.282212916304916
1772790181984321800,3.00632177734375,-1.0501467663139104,2.9978181264132258,1.1499870505951344
1772790181994387700,3.0163876953125,-0.954090530616045,2.7890128788918256,0.9954939696282148
1772790182004453600,3.02645361328125,-0.6601192747235298,2.672238264814019,0.8805864645965397
1772790182014518800,3.036518798828125,-0.3706020756304264,2.6074451823860407,0.7819765988931059
1772790182024584700,3.046584716796875,-0.27172084563970567,2.543078800937533,0.682848554534465
1772790182034651000,3.05665087890625,-0.2821177364915609,2.480806761419773,0.6131690152391791
1772790182044715500,3.066715576171875,-0.30995851409733294,2.438935704895854,0.5491068409016355
1772790182054781700,3.07678173828125,-0.30462942802906035,2.462649465699494,0.4731880053579807
1772790182064847600,3.08684765625,-0.31750469169318674,2.50491741258651,0.3661048007437959
1772790182074912800,3.096912841796875,-0.3557762624204159,2.477423548722267,0.15228961610589176
1772790182084979000,3.10697900390625,-0.42700493085384367,2.356778230690956,-0.11072981748823076
1772790182095044600,3.117044677734375,-0.43161037882268427,2.228129638946056,-0.30338856112249196
1772790182105109800,3.12710986328125,-0.38056875837147236,2.1239275061935183,-0.4427420136898756
1772790182115175700,3.13717578125,-0.32493338038921354,2.024065448471904,-0.5194540819704533
1772790182125241900,3.147241943359375,-0.2872048304975033,1.958250914041698,-0.6438144750021397
1772790182135307800,3.157307861328125,-0.31009587674140926,1.869146397177875,-0.7727053510703146
1772790182145372700,3.16737255859375,-0.38971477237939833,1.7183797893881796,-0.8252616138681769
1772790182155438600,3.1774384765625,-0.5438140317231417,1.5857973653256892,-0.860940464688465
1772790182165504800,3.1875048828125,-0.7712357169091701,1.486003404404223,-0.8936219603236765
1772790182175569700,3.197569580078125,-0.9189940827935934,1.3965548964083194,-0.9321757089931517
1772790182185635800,3.2076357421875,-0.9305565102934836,1.3416525088757276,-1.018530342626944
1772790182195701800,3.21770166015625,-0.8250982400000095,1.2954241339251398,-0.9984217667084186
1772790182205766700,3.2277666015625,-0.7808698066949844,1.1806561834946274,-0.9862490252904593
1772790182215832800,3.237832763671875,-0.7724246344327926,0.9558090249717235,-1.0399154412873088
1772790182225898800,3.247898681640625,-0.7977291715592145,0.7619137618124484,-1.0379957252711056
1772790182235964000,3.2579638671875,-0.8998685265630483,0.6227189338728785,-1.0277263332564384
1772790182246029600,3.268029541015625,-1.0451870980799198,0.47247751900106666,-1.0370853324279188
1772790182256095700,3.278095703125,-1.334533032259345,0.31097032148838044,-1.06625662798509
1772790182266160600,3.28816064453125,-1.5191671305984258,0.13177110767960548,-1.0598888465188443
1772790182276226800,3.298226806640625,-1.5549889700859785,0.022363515238463878,-1.059657960372418
1772790182286292700,3.308292724609375,-1.532507089164853,0.015113982501626013,-1.0884050391681492
1772790182296357600,3.318357666015625,-1.4833610732018947,0.042461423632502555,-1.2111495214357972
1772790182306423600,3.328423583984375,-1.415925951832533,0.043028117604553696,-1.3483121128953992
1772790182316489700,3.33848974609375,-1.3343009770691394,0.041369829003512854,-1.4534063721820711
1772790182326555000,3.348554931640625,-1.0990993055313825,0.04798661679476499,-1.6198571635767816
1772790182336620800,3.358620849609375,-0.783080468481779,0.1033770801052451,-1.6856075467295943
1772790182346686700,3.368686767578125,-0.5006885912239551,0.13779022183865308,-1.6885379010930657
1772790182356751600,3.378751708984375,-0.26566870599389075,0.1410050922319293,-1.6771362171128392
1772790182366817800,3.38881787109375,-0.04638122742474079,0.12934738766402004,-1.5941208109043539
1772790182376883700,3.3988837890625,0.08343582357764244,0.07427373521775006,-1.5309519686773418
1772790182386948900,3.408948974609375,0.24564824675023555,0.0816384187668562,-1.5332757354497908
1772790182397014500,3.4190146484375,0.5358335543632508,0.08604834416359662,-1.5969193555817007
1772790182407080700,3.429080810546875,0.6546522414892911,0.03194499805420637,-1.5963868561401962
1772790182417145900,3.439145751953125,0.6381628789812326,-0.008258709779381751,-1.5699261347159743
1772790182427211800,3.449211669921875,0.6633446665108204,-0.058711424426734445,-1.634838167348504
1772790182437277700,3.459277587890625,0.8023276052653789,-0.12906447906941174,-1.7113832084991036
1772790182447342600,3.469342529296875,0.882425808852911,-0.15436287871599197,-1.7230154863648115
1772790182457408800,3.47940869140625,0.8615630535662173,-0.18756284526735542,-1.6902238083533943
1772790182467474700,3.489474609375,0.797603499352932,-0.23339462211579082,-1.6706550383999943
1772790182477539800,3.499539794921875,0.8092927681028842,-0.24383126045614478,-1.642809000097215
1772790182487605800,3.509605712890625,0.8217232106089591,-0.23231267209798095,-1.603773605390638
1772790182497672000,3.519671875,0.8107832989215851,-0.19576777903288603,-1.5814358091153204
1772790182507736600,3.529736572265625,0.7117723050713539,-0.16109627862423656,-1.5456054940603672
1772790182517802800,3.539802734375,0.5590174460738897,-0.14773293918222188,-1.5207085148215294
1772790182527868700,3.54986865234375,0.39171734437346456,-0.12966069139689207,-1.5336343396291137
1772790182537933800,3.559933837890625,0.19508476520478724,-0.11705547684580087,-1.5363715095080435
1772790182547999700,3.569999755859375,0.1075584574431181,-0.0790475254908204,-1.614621601010859
1772790182558065700,3.580065673828125,0.015394553008675574,-0.055523442040383814,-1.6692561313875018
1772790182568130800,3.590130859375,-0.05565116007328033,-0.05846183357983827,-1.6887195412702858
1772790182578196700,3.60019677734375,-0.10586509752869605,-0.11160042631030082,-1.6677245379060506
1772790182588263000,3.610262939453125,-0.12984919970631598,-0.190998957195878,-1.610967754678428
1772790182598327600,3.62032763671875,-0.157093180462718,-0.30235037718117236,-1.5828908302292226
1772790182608393700,3.630393798828125,-0.06966390333473682,-0.41289223434925076,-1.5748315885446964
1772790182618459600,3.640459716796875,0.04019114061295986,-0.5305427544787525,-1.4772744467645882
1772790182628524800,3.65052490234375,0.05921031385958194,-0.6538488161519169,-1.4114806628614662
1772790182638590700,3.6605908203125,0.1361708039432764,-0.7901873778775333,-1.2565240560360251
1772790182648657000,3.670656982421875,0.09516951599121093,-0.9190145410597323,-0.9681163525547831
1772790182658721800,3.6807216796875,-0.05246668481826782,-1.0911191204324364,-0.7529521644607186
1772790182668787700,3.69078759765625,0.005629530319571495,-1.1953393733635544,-0.5653809166911989
1772790182678853600,3.700853515625,0.17950491875708102,-1.2581564795434474,-0.44226738191545006
1772790182688918800,3.710918701171875,0.24708149442374705,-1.301349140059948,-0.2897609447211027
1772790182698984700,3.720984619140625,0.18983926576673985,-1.356586750896275,-0.1275108198866248
1772790182709050600,3.731050537109375,0.18061375678181646,-1.3812076896727083,-0.04050035269260406
1772790182719115800,3.74111572265625,0.20830080513060092,-1.3363622935131192,0.03765263511128723
1772790182729181700,3.751181640625,0.24609540599584578,-1.25941963134706,0.08717698286734521
1772790182739247900,3.761247802734375,0.3538526008814573,-1.1475333738327025,0.10882241296432912
1772790182749312500,3.7713125,0.4130845420509577,-1.039979592564702,0.13876023591458797
1772790182759378700,3.781378662109375,0.3885883986979723,-0.9464557979539037,0.1471572581861168
1772790182769444600,3.791444580078125,0.36910336150526996,-0.8408607495382427,0.16125000788122415
1772790182779509800,3.801509765625,0.4075006044387817,-0.7408914320498704,0.18217720670625567
1772790182789576000,3.811575927734375,0.4726239417344332,-0.6742939305484295,0.18928433529771863
1772790182799641600,3.8216416015625,0.5207832847476005,-0.6484042870104313,0.21185352917611597
1772790182809707500,3.83170751953125,0.5006599496513605,-0.7014967025116086,0.24603994948156177
1772790182819772700,3.841772705078125,0.4430395353317261,-0.7076239532202482,0.26642500425390897
1772790182829838800,3.8518388671875,0.4808528408974409,-0.703030780211091,0.29666838602200146
1772790182839904800,3.86190478515625,0.5613643014609814,-0.7328937112942338,0.30670068134516476
1772790182849969700,3.8719697265625,0.5809826096445322,-0.7773208820417523,0.28658772151246664
1772790182860035600,3.88203564453125,0.5554758279442786,-0.8478490009903907,0.28054427662976084
1772790182870101800,3.892101806640625,0.5049018250048161,-0.9044654989644885,0.33552718205265697
1772790182880166700,3.902166748046875,0.4981067580372095,-0.9181354201376437,0.4350975633513182
1772790182890232800,3.91223291015625,0.5333107578873634,-0.9401470531985163,0.4988954241968691
1772790182900298800,3.922298828125,0.48263680170476436,-0.9646896660417318,0.5904095594856887
1772790182910363600,3.93236376953125,0.3342418914824724,-0.982914181779325,0.7294043348085135
1772790182920429800,3.942429931640625,0.18512392768263816,-1.00681411280483,0.8035312089014798
1772790182930495700,3.952495849609375,0.11809972520172596,-0.9924582551941274,0.8232540003728122
1772790182940561000,3.962560791015625,0.07768880435824393,-0.9505284542202949,0.8301721822634339
1772790182950627300,3.97262744140625,-0.01805821925997734,-0.8889747921049594,0.8712624636732041
1772790182960693200,3.982693359375,-0.1732020192205906,-0.8546963826671242,0.9478438182462007
1772790182970758400,3.99275830078125,-0.41063890246450896,-0.8123805049851536,0.9763125184919684
1772790182980824600,4.002824462890625,-0.6479337468892336,-0.7998062700942158,0.9889661752946675
1772790182990890500,4.012890380859375,-0.8850181634336709,-0.8169926749557256,0.9974372126504778
1772790183000955400,4.022955322265625,-0.9810475111246109,-0.7378995567575096,0.9478064088452607
1772790183011021300,4.033021240234375,-1.069941015586257,-0.6593088351234794,0.9311706966690718
1772790183021087500,4.04308740234375,-1.1094593715041876,-0.6119073247402906,0.9360966087639331
1772790183031152400,4.05315234375,-1.1032903274804353,-0.6205366213977337,0.953472252587229
1772790183041218600,4.063218505859375,-1.1535691468656062,-0.5902005198448896,0.9802680511847138
1772790183051284500,4.073284423828125,-1.3048176929533482,-0.5361445200085639,1.0208299978714435
1772790183061349400,4.083349365234375,-1.5642653324753044,-0.4792442366570234,1.050739617640525
1772790183071415600,4.09341552734375,-1.6705413488924503,-0.39188393311202524,1.0367361536640674
1772790183081481500,4.1034814453125,-1.7962158932626247,-0.20777298186421392,0.8763621979650109
1772790183091546600,4.113546630859375,-2.2687544948011635,-0.058381461820006364,0.857195432941243
1772790183101612300,4.1236123046875,-2.0834902818650005,0.06133768127709627,0.6859924785833805
1772790183111678500,4.133678466796875,-1.773188068896532,0.3049605596795678,0.4647307042665779
1772790183121743400,4.143743408203125,-1.5626625734537838,0.5185822675719857,0.1671419154640287
1772790183131809500,4.1538095703125,-1.1228425846904515,0.6317018662735819,-0.16537519805245102
1772790183141875500,4.16387548828125,-0.6745709939241409,0.7209560207411646,-0.38712344071194527
1772790183151940400,4.1739404296875,-0.3993751656502485,0.8060840351894497,-0.4317815706711262
1772790183162006300,4.18400634765625,-0.28894729025065896,0.8379963000178337,-0.317483283578977
1772790183172072400,4.194072509765625,-0.35175007564425465,0.7291913496449589,-0.1013065574415028
1772790183182137600,4.2041376953125,-0.45849897027015685,0.6274643748342991,0.030748043354600667
1772790183192203500,4.21420361328125,-0.3903302739292383,0.6465761948004365,0.09857691328190267
1772790183202269400,4.22426953125,-0.2100619695842266,0.6949237538620829,0.0587901156861335
1772790183212334300,4.234334228515625,-0.0036386487632989882,0.7805974194943904,-0.061815820182859894
1772790183222400500,4.244400390625,0.19084405889511108,0.8870651590913534,-0.21508725040033458
1772790183232466400,4.254466552734375,0.2994119856417179,0.886523015038669,-0.32259003213346005
1772790183242531600,4.264531494140625,0.33585224928855895,0.8501236679241061,-0.38093481520488853
1772790183252597200,4.27459716796875,0.41295010201632976,0.8000678436398506,-0.3611340631265193
1772790183262663400,4.284663330078125,0.4495896876275539,0.7469681216150522,-0.32027810192927714
1772790183272728300,4.294728271484375,0.4973825354158878,0.7336661569714545,-0.31506511652134356
1772790183282794500,4.30479443359375,0.5309744238942862,0.7220484921529888,-0.34785694066323336
1772790183292860400,4.3148603515625,0.3641191433519125,0.6950958955585956,-0.45140323985554276
1772790183302925300,4.32492529296875,0.13608897087872027,0.6527846940517426,-0.5683838978994638
1772790183312991500,4.334991455078125,-0.12273030761182308,0.5847486841797829,-0.650256636878848
1772790183323057400,4.345057373046875,-0.391768782299757,0.529247746232152,-0.6484727491367608
1772790183333122600,4.35512255859375,-0.5091700038433075,0.47358255763351914,-0.5893050323098897
1772790183343188500,4.3651884765625,-0.4988520234465599,0.48099838684797286,-0.5495379623278975
1772790183353254400,4.37525439453125,-0.4439104729473591,0.5332441223919391,-0.565498076797463
1772790183363319300,4.3853193359375,-0.38828386279344557,0.6165344000190496,-0.6075847123008221
1772790183373385500,4.395385498046875,-0.31323943546414373,0.7892354839801787,-0.6773666159920394
1772790183383451400,4.405451416015625,-0.2155079600304365,0.8727160234823822,-0.7413349380336701
1772790183393516500,4.4155166015625,0.027710429224371908,0.8939198472917079,-0.7534069224908948
1772790183403582200,4.425582275390625,0.08780103304982184,0.8645660347744822,-0.6446256452545523
1772790183413648400,4.4356484375,0.014077625191211699,0.6730874773681164,-0.47243959814347325
1772790183423713500,4.445713623046875,-0.03709785077273845,0.4547141910344362,-0.3823385079903528
1772790183433779500,4.455779541015625,0.08589724525511264,0.3507391450360417,-0.2972498757043853
1772790183443845600,4.465845703125,0.1434036778062582,0.241436182013154,-0.27389888379853217
1772790183453910300,4.47591015625,0.2328583232820034,0.08757979151457547,-0.3024526319792494
1772790183463976400,4.4859765625,0.40762393855750556,0.05807692591547966,-0.3530107432298362
1772790183474042400,4.49604248046875,0.5352461098641157,0.017699907341599465,-0.43431346376892177
1772790183484107500,4.506107421875,0.5622305629014969,-0.11029401988685131,-0.47290495063289995
1772790183494173400,4.51617333984375,0.49005613805055614,-0.18693097710460424,-0.4645569186022505
1772790183504239400,4.5262392578125,0.390614351567626,-0.24135610251426695,-0.45987066048216074
1772790183514304500,4.536304443359375,0.4685954168707132,-0.2867188005462289,-0.4422089297264814
1772790183524370400,4.546370361328125,0.5446686027258634,-0.2753071796938777,-0.4039703844860196
1772790183534436400,4.556436279296875,0.5105331088900565,-0.24705869807004927,-0.4373922136271372
1772790183544501500,4.56650146484375,0.4574444927811622,-0.27759470610916614,-0.5046780261863023
1772790183554567400,4.5765673828125,0.3478635895997286,-0.3127586662098765,-0.5646713801823556
1772790183564633300,4.58663330078125,0.28252690181434154,-0.39134792653918266,-0.5551350882152095
1772790183574698500,4.596698486328125,0.228866038775444,-0.5363192920535802,-0.4677055918915197
1772790183584764400,4.606764404296875,0.30174305893778797,-0.6521557484984397,-0.3902356544483453
1772790183594830600,4.61683056640625,0.3745353234261274,-0.6450780651971697,-0.3285020326562226
1772790183604895200,4.626895263671875,0.37365795606970786,-0.6271919876337051,-0.29903474982716144
1772790183614961400,4.63696142578125,0.27097499570846556,-0.6707809539914131,-0.2659869050975889
1772790183625027300,4.64702734375,0.2332937920898199,-0.7186758008494972,-0.21687954064458606
1772790183635092500,4.657092529296875,0.2684966228961944,-0.7741036735609174,-0.17190408836454152
1772790183645158700,4.66715869140625,0.28774083707034587,-0.833120510675013,-0.13091295648030937
1772790183655224300,4.677224365234375,0.3031248686850071,-0.8594009070962667,-0.11702617768608033
1772790183665289500,4.68728955078125,0.2981511719256639,-0.9182140383318066,-0.1014368327576667
1772790183675355400,4.69735546875,0.3177934455066919,-0.9306704920619726,-0.09029832975827157
1772790183685421600,4.707421630859375,0.28545360291600225,-0.9707964584842323,-0.060029155961796636
1772790183695486500,4.717486572265625,0.16384031663537024,-0.9879024915859103,-0.005328355415910482
1772790183705552400,4.727552490234375,-0.009433014255762099,-0.9873559636190533,0.03826214531175792
1772790183715618300,4.737618408203125,-0.10904548113048076,-1.0099027264699338,0.034913054079562425
1772790183725683500,4.747683349609375,-0.15369301663041113,-0.9978691743269562,0.005650353911891579
1772790183735749400,4.757749267578125,-0.3117062345474958,-0.9566109890043735,-0.040313451818376776
1772790183745815600,4.767815673828125,-0.5085346285492182,-0.9549830955415963,-0.09997969275191426
1772790183755880400,4.77788037109375,-0.5816968953937292,-0.9324833867028355,-0.10364566791355609
1772790183765946400,4.7879462890625,-0.624713614821434,-0.8654770121395587,-0.03527224278077483
1772790183776012500,4.798012451171875,-0.7028676986038684,-0.7748904400244355,-0.03157828363366425
1772790183786077400,4.808077392578125,-0.8406745793163776,-0.7302876204490661,-0.06677789956964553
1772790183796143600,4.8181435546875,-1.0110837529480456,-0.65316229519248,-0.07430464181266724
1772790183806209300,4.828209228515625,-0.961192471575737,-0.5729682300150394,-0.10202033173404633
1772790183816274400,4.8382744140625,-0.9000999972313642,-0.5412248920127749,-0.15562975684665142
1772790183826340400,4.84834033203125,-0.9609656770825385,-0.5513844669774174,-0.2303456098087132
1772790183836406500,4.858406494140625,-1.0291022247195243,-0.6518807309493422,-0.07037424356117844
1772790183846471400,4.868471435546875,-1.1873480823487044,-0.6901905878603458,-0.0008924918603152037
1772790183856537300,4.878537353515625,-1.3186229309439659,-0.6505778316572308,-0.004944470664858818
1772790183866603300,4.888603271484375,-1.4793331328600645,-0.5301829812556504,-0.12680289081297813
1772790183876668400,4.89866845703125,-1.5705904438436031,-0.29760172134935853,-0.22407105958387255
1772790183886734600,4.908734619140625,-1.5648329032301902,-0.060818625839054584,-0.2869097200084477
1772790183896800500,4.918800537109375,-1.4482278005003928,0.15173282247334718,-0.49425103245712815
1772790183906865400,4.928865478515625,-1.203102116319537,0.3563531855255365,-0.8022432149175555
1772790183916931300,4.938931396484375,-0.9327356078982353,0.5533037446022033,-1.0088530712865293
1772790183926997500,4.94899755859375,-0.7144827330738306,0.6778180130213499,-1.0137347058482467
1772790183937062400,4.9590625,-0.40991292627751824,0.7064014256879687,-0.8534225633390248
1772790183947128600,4.969128662109375,-0.2274064876168966,0.7002361810564994,-0.6360506360676139
1772790183957194500,4.979194580078125,-0.16383680950403212,0.6726347651645541,-0.47049883933924136
1772790183967260400,4.989260498046875,-0.07836918783783912,0.6053712009698152,-0.38702341440357263
1772790183977325300,4.9993251953125,0.04093523697853088,0.5624705091372132,-0.34298188197277485
1772790183987391500,5.0093916015625,0.1221364333719015,0.522197827720642,-0.37225992584004997
1772790183997456600,5.01945654296875,0.14731763637959958,0.48468905805945395,-0.4333377871371805
1772790184007522600,5.0295224609375,0.11243161643743514,0.5427697833672166,-0.4927110364735126
1772790184017588500,5.03958837890625,0.09240238936543464,0.6743345548197627,-0.6260582343634218
1772790184027654400,5.049654296875,0.06369008962213993,0.79238488792181,-0.790820415084064
1772790184037719600,5.059719482421875,0.07738777558505534,0.8964686549916863,-0.9189653681557625
1772790184047785500,5.069785400390625,0.004378068953752518,0.9940300345554948,-1.0001142498400062
1772790184057850400,5.079850341796875,-0.1540261941075325,1.0171306318968534,-1.0319654321309177
1772790184067916300,5.089916259765625,-0.3193780843496322,0.9823162158861756,-1.025269733884558
1772790184077982500,5.099982421875,-0.29783728367090223,0.9358569547891616,-1.004118151719123
1772790184088048400,5.11004833984375,-0.16213643532693386,0.8648726165056229,-0.9415900185484438
1772790184098113500,5.120113525390625,-0.15171031838059423,0.809407042132318,-0.8261671844057739
1772790184108179500,5.130179443359375,0.015892565658688546,0.7813029374152421,-0.7170157586827873
1772790184118245400,5.140245361328125,0.09520283373892306,0.7200500118121504,-0.6043422963134945
1772790184128310500,5.150310546875,0.07395020235180855,0.6740174516946077,-0.518854800903052
1772790184138376400,5.16037646484375,0.1530763460367918,0.692554978904128,-0.4126959811247885
1772790184148442600,5.170442626953125,0.3136024235576391,0.6153145028352737,-0.2626519885212183
1772790184158507500,5.180507568359375,0.33699791219234465,0.5062731133580207,-0.13987879161573946
1772790184168573400,5.190573486328125,0.3167091574013233,0.46027679359763857,-0.018031038992106913
1772790184178639400,5.200639404296875,0.5444879854619503,0.4132029077336192,0.008301672138273715
1772790184188704500,5.21070458984375,0.7136153025895356,0.37041415184289217,-0.02031388923227787
1772790184198770400,5.2207705078125,0.7264005498826503,0.30581425389945505,0.007493132234364748
1772790184208836600,5.230836669921875,0.652554392427206,0.23179741605222223,0.07317914491407573
1772790184218901500,5.240901611328125,0.6582786152929068,0.16833061379194258,0.11151179817877709
1772790184228967400,5.250967529296875,0.5720253962069749,0.13340747670978306,0.11761508348993957
1772790184239033300,5.261033447265625,0.5461679013729095,0.10992167944312095,0.05046659704223275
1772790184249098500,5.271098388671875,0.643654462134838,0.11003127729743718,-0.06181998490132391
1772790184259164700,5.28116455078125,0.7101362283021211,0.1267500646471977,-0.11315488921068607
1772790184269230300,5.291230224609375,0.6600432868778705,0.0953515945598483,-0.1508169497374445
1772790184279295500,5.30129541015625,0.6929851870149374,0.035411212860047815,-0.2219644426934421
1772790184289361400,5.311361328125,0.7135510051816701,-0.022798984046280384,-0.16225998864136634
1772790184299427600,5.321427490234375,0.6523036325365305,-0.06152794315218925,-0.19138393792547284
1772790184309492500,5.331492431640625,0.7236608957856893,-0.11334434736818075,-0.21389409509301185
1772790184319558400,5.341558349609375,0.8284533956468105,-0.10448036517202854,-0.24911935692690312
1772790184329624300,5.351624267578125,0.7649141126722097,-0.13766104250103234,-0.2562650639630854
1772790184339689500,5.361689453125,0.6843652427077292,-0.24141367792040108,-0.19087401564195752
1772790184349755600,5.371755615234375,0.6795236478954553,-0.3401166287347674,-0.06455306312702595
1772790184359821600,5.381821533203125,0.7034983977228403,-0.3911693551018834,-0.02437090953812003
1772790184369886500,5.391886474609375,0.781817901200056,-0.40994127558916804,-0.07834982555024325
1772790184379952400,5.401952392578125,0.7719955953657627,-0.4173538899332285,-0.10351415048837662
1772790184390018600,5.4120185546875,0.602518149626255,-0.35100685606151816,-0.2561209793172777
1772790184400083500,5.42208349609375,0.48320203437209125,-0.4798956863030791,0.21850173501893877
1772790184410149600,5.432149658203125,0.43952246712148185,-0.6589180822402239,0.14602182441540063
1772790184420215300,5.44221533203125,0.34206863958537576,-0.7073515660196542,0.14060378142204136
1772790184430280400,5.452280517578125,0.19333646023273468,-0.7435127204641699,0.17516341895405202
1772790184440346400,5.462346435546875,0.05164367799758911,-0.8388187223166227,0.003642265492491424
1772790184450412500,5.47241259765625,0.020658172625303266,-0.8549740305647253,0.013019275244697927
1772790184460477700,5.482477783203125,-0.04792962591052055,-0.8217424998313189,0.09096910515930504
1772790184470543400,5.49254345703125,-0.31177929978370666,-0.8539537476062774,0.1390668176457286
1772790184480609500,5.502609619140625,-0.48228725761473173,-0.809834035372734,0.14894238803721963
1772790184490674400,5.51267431640625,-0.5418465310424566,-0.7535197352156042,0.16425689807962626
1772790184500740600,5.52274072265625,-0.6388923622995615,-0.6449930172622204,0.12167111741509287
1772790184510806500,5.532806640625,-0.7533446709096431,-0.5569400552779435,0.08566402102112769
1772790184520871400,5.542871337890625,-0.9158189598888158,-0.5709282486200332,0.07262969433777033
1772790184530937300,5.552937255859375,-1.1027122353315353,-0.5713087723702192,0.16711009555365888
1772790184541003500,5.56300341796875,-1.119995963087678,-0.674701342305541,0.30083295835554597
1772790184551068700,5.573068603515625,-1.2471318121820687,-0.7098647178843617,0.35852515926975753
1772790184561134600,5.583134521484375,-1.214469313508272,-0.769419315136969,0.514906282472983
1772790184571200300,5.5932001953125,-0.9361819489598273,-0.22264380325973032,0.8321608718626201
1772790184581265400,5.603265380859375,-1.8068021692067384,-0.8949199642449617,0.2661132348909974
1772790184591331600,5.61333154296875,-2.6394717212438583,-1.4748153631746768,0.34696006488874553
1772790184601397500,5.6233974609375,-2.2959487911969423,-0.6396934495493769,1.0228826195523142
1772790184611462700,5.633462646484375,-1.710094776123762,-0.39829555371999736,0.5461821856265887
1772790184621528300,5.6435283203125,-1.3522288479477167,-0.3160720285415649,0.0137589876960963
1772790184631594500,5.653594482421875,-1.6127105066925287,0.34204145931750535,0.00990969185680151
1772790184641659400,5.663659423828125,-1.412078044232726,0.7036848602056502,0.19417152281738817
1772790184651725600,5.6737255859375,-0.8428975160628557,0.7541714771226048,0.20892332094311714
1772790184661791500,5.68379150390625,-0.41998599200248715,0.62943947429955,0.0036542116586118934
1772790184671856400,5.6938564453125,-0.3236462631881237,0.7684928479418158,-0.07906666858270764
1772790184681922600,5.703922607421875,-0.07396656896471977,0.8361857434645295,0.11578750273659824
1772790184691988500,5.713988525390625,0.02462766077816486,0.7700462148636579,0.26497955468595025
1772790184702053600,5.7240537109375,0.0561883356899023,0.7191457564488053,0.3552899402081966
1772790184712119600,5.73411962890625,0.2797667894512415,0.7108385313525796,0.4009325511600822
1772790184722185500,5.744185546875,0.6414040528595447,0.6874708075076341,0.4691873183492571
1772790184732250400,5.75425048828125,0.9420902962207793,0.7133259642541409,0.4941685418054461
1772790184742316500,5.764316650390625,1.172645018735528,0.7292199912175535,0.5202320075403899
1772790184752382500,5.774382568359375,1.2223445769280195,0.6881780789941548,0.5957835076089948
1772790184762447600,5.784447509765625,1.1600462339252233,0.6168155550479889,0.6537287699688226
1772790184772513300,5.79451318359375,1.1624860282927751,0.5648275936573743,0.7155697976581752
1772790184782579500,5.804579345703125,1.2412187887459993,0.5358265401005745,0.7598137938585132
1772790184792644600,5.81464453125,1.1652467251777647,0.4806713468506932,0.7555729414183646
1772790184802710500,5.82471044921875,0.9995721788525581,0.3943140828683972,0.7617324138961732
1772790184812776400,5.8347763671875,0.88522508418262,0.3087558603093028,0.7743787641752511
1772790184822841300,5.84484130859375,0.8453273735582828,0.2727621713861823,0.8241087175060063
1772790184832907500,5.854907470703125,0.7092372336357832,0.2637462134987116,0.8584362998478114
1772790184842973400,5.864973388671875,0.47109190986156463,0.2804731841549277,0.841513075967133
1772790184853038600,5.87503857421875,0.270489258018136,0.39436961244791746,0.737648723801598
1772790184863104500,5.8851044921875,0.08503858259916305,0.593974485425651,0.5763550959743559
1772790184873170400,5.89517041015625,-0.11993512393534182,0.7813511604711413,0.38916137628033753
1772790184883235300,5.9052353515625,-0.18896365197598933,0.9878308876544236,0.21370755954496562
1772790184893301500,5.915301513671875,-0.18617022186517715,1.1083794673129916,0.11597506119795142
1772790184903367400,5.925367431640625,-0.15756722771525383,1.1013424082830547,0.04644329634290188
1772790184913432300,5.935432373046875,-0.04138356526792049,1.089379875549674,0.03205423058234155
1772790184923498500,5.94549853515625,0.20595161165595052,1.1276418016657233,0.05906443911548703
1772790184933564400,5.955564453125,0.33205636413693423,1.0898901631593703,0.044148682599700985
1772790184943629600,5.965629638671875,0.246081961992383,0.9255462809160351,0.03252674346491694
1772790184953695500,5.975695556640625,0.16783084757626054,0.7160366845175623,0.12131470519285649
1772790184963761400,5.985761474609375,0.21066110452115536,0.5750631564676761,0.24512312689758836
1772790184973826300,5.995826416015625,0.2476198390841484,0.4031868328928947,0.3299587342705577
1772790184983892500,6.005892578125,0.13959259508550168,0.18042057229727507,0.4445109961237758
1772790184993958400,6.01595849609375,-0.00944470469355583,0.015936404800415038,0.5504477341165765
1772790185004023600,6.0260234375,0.03208616009056568,-0.029186346995830535,0.5493164650643244
1772790185014089500,6.03608935546875,0.1372895788401365,-0.010616963343322277,0.4925473338117823
1772790185024155400,6.0461552734375,0.13942425278127193,-0.0561558947250247,0.47634095296356826
1772790185034220500,6.056220458984375,0.13601649016439915,-0.08846826478689908,0.40327155203428117
1772790185044286500,6.066286376953125,0.17150690574049948,-0.12428688940405845,0.321042912289314
1772790185054352600,6.0763525390625,0.19601707761883735,-0.1428434135749936,0.26536493727434424
1772790185064417300,6.086417236328125,0.10586568205058575,-0.18663082511425017,0.22139785831924527
1772790185074483500,6.0964833984375,-0.046026422637701035,-0.29438626643419263,0.2025639054464176
1772790185084549400,6.10654931640625,-0.11754326036274433,-0.3653372869700193,0.13850710140373557
1772790185094614500,6.116614501953125,-0.09820143103301525,-0.49055853461474175,0.08647307238169014
1772790185104680400,6.126680419921875,-0.08758709803819656,-0.650372372213006,0.033898470209538935
1772790185114746400,6.136746337890625,-0.10329144764840602,-0.7407283504426478,0.03341950931986794
1772790185124811500,6.1468115234375,-0.12927578373253346,-0.8094324688345194,0.06358244626289233
1772790185134877400,6.15687744140625,-0.09668108959794044,-0.8703449104368686,0.05981958659803494
1772790185144943400,6.166943359375,-0.09474281501173973,-0.962294587598741,0.04422941968571394
1772790185155008500,6.177008544921875,-0.19077859244346618,-1.0783858955875039,0.05556717158425599
1772790185165074400,6.187074462890625,-0.2794014632701874,-1.1551964558064938,0.03124594640675932
1772790185175140400,6.197140380859375,-0.17767653428614139,-1.1779492626234889,-0.0028743133272975683
1772790185185205500,6.20720556640625,-0.04547171136438846,-1.175608252455294,-0.028027751545235513
1772790185195271400,6.217271484375,0.0257850141197443,-1.1108975876137615,-0.03370291110482067
1772790185205336300,6.22733642578125,0.06523498097658156,-1.024093164385855,-0.03033274055197835
1772790185215402200,6.23740234375,0.05343932924270629,-1.0131021070331334,0.03040175066757947
1772790185225468400,6.247468505859375,-0.0162082074791193,-0.9924418885812163,0.1250750806396827
1772790185235533600,6.257533447265625,-0.11028934371173381,-0.9553644960746168,0.205758390638791
1772790185245599500,6.267599609375,-0.2513070031642914,-0.9321347193956374,0.2723292963942513
1772790185255665700,6.277665771484375,-0.33008594084680076,-0.8914616404846311,0.30673593532163645
1772790185265730300,6.287730224609375,-0.29390695848464965,-0.8522039813295006,0.3157586517434567
1772790185275796500,6.29779638671875,-0.25118425356745716,-0.8000649210304022,0.3293809343826026
1772790185285862400,6.3078623046875,-0.3048614832192659,-0.8277350182443857,0.4047229564189911
1772790185295927600,6.317927490234375,-0.5533107588648796,-0.9162126353815198,0.5222966484526173
1772790185305993200,6.3279931640625,-0.8345803540945053,-1.0173407675161956,0.6426197122596203
1772790185316059400,6.338059326171875,-1.0034639255940914,-1.1037824949115513,0.7361736097477376
1772790185326124500,6.34812451171875,-1.0849667352825403,-1.1174690749585627,0.7622381714612245
1772790185336190500,6.3581904296875,-1.1587573631584644,-0.9472907874733208,0.6494730852857231
1772790185346256400,6.36825634765625,-1.399125623679161,-0.6691919312343001,0.43574031823426485
1772790185356321300,6.3783212890625,-1.7360358575880526,-0.4073237865671515,0.24631010819245128
1772790185366387500,6.388387451171875,-2.0527613816022874,-0.22765987785607575,0.06599047551900147
1772790185376453400,6.398453369140625,-2.235466557705402,-0.04619914885610342,-0.10341258981004357
1772790185386518500,6.4085185546875,-2.0878058069765566,0.1344973177731037,-0.3285794452739879
1772790185396584400,6.41858447265625,-1.6038427251040934,0.3689145609349012,-0.6100134738177061
1772790185406650600,6.428650634765625,-1.2212106044620274,0.628098581084609,-0.8090002148970961
1772790185416715300,6.43871533203125,-0.7491893047958612,0.7588435605868696,-0.9222884481638669
1772790185426781400,6.448781494140625,-0.14357143558859825,0.8345356381699442,-1.0082292402997612
1772790185436847400,6.458847412109375,0.18338205245137212,0.907866247318685,-0.8702971988376229
1772790185446912500,6.46891259765625,0.2179226199567318,0.8317071367457508,-0.7650050788912922
1772790185456978400,6.478978515625,0.08956745820045471,0.6072109836176037,-0.691437957572937
1772790185467044400,6.48904443359375,-0.061223991769552226,0.47933892920315263,-0.5334400102902204
1772790185477109500,6.499109619140625,-0.22943185596466062,0.4851692427918315,-0.4840056789051741
1772790185487175400,6.509175537109375,0.012383680754899979,0.6065154025688767,-0.544600871251896
1772790185497241600,6.51924169921875,0.27388182306587694,0.6991974856585264,-0.592085310678184
1772790185507306200,6.52930615234375,0.11855740584135055,0.7427557646170259,-0.6567672608818859
1772790185517372400,6.539372314453125,-0.10807751288115977,0.6484858278140425,-0.6535320052877068
1772790185527438300,6.549438232421875,-0.11940730066895484,0.5914090188518166,-0.5943479583805427
1772790185537503500,6.55950341796875,-0.014203297397494315,0.6959206559449433,-0.5487497710922733
1772790185547569400,6.5695693359375,0.12342471961677073,0.8371668634563684,-0.593654934615083
1772790185557635600,6.579635498046875,0.17051555661559104,0.9739894093066453,-0.7217102001093327
1772790185567700500,6.589700439453125,0.21336101112961767,1.0767156242877245,-0.7666510925326496
1772790185577766400,6.599766357421875,0.2296469600200653,1.0983443955108523,-0.7469007554672658
1772790185587832600,6.60983251953125,0.19831658673286437,1.083579664838314,-0.6732416450165212
1772790185597897500,6.6198974609375,0.12632920888662338,1.0372571818634868,-0.5499802627352998
1772790185607963400,6.62996337890625,0.13557926779091356,0.9688508773744106,-0.46910117443576455
1772790185618029300,6.640029296875,0.23622458484470843,0.8564373811155557,-0.37613760752361264
1772790185628094500,6.650094482421875,0.2940560115665197,0.7704846062809229,-0.3157241284193471
1772790185638160400,6.660160400390625,0.32974808719456195,0.6989303591549396,-0.29106420933939514
1772790185648226600,6.6702265625,0.38686113651394843,0.5648778625398874,-0.25350513426307586
1772790185658291500,6.68029150390625,0.48079731131792064,0.3750909114822745,-0.13722279721423983
1772790185668357400,6.690357421875,0.5662246009737253,0.198662331430614,0.03104085228871554
1772790185678423300,6.70042333984375,0.662778264799714,0.08572948747277259,0.1450131588295102
1772790185688488400,6.710488525390625,0.8783154509246349,0.011938275074958801,0.15101415280997751
1772790185698554600,6.7205546875,0.9658762454777955,-0.050283495560288424,0.13811463148742914
1772790185708620500,6.73062060546875,0.7753145106554031,-0.12382394806742668,0.17060045842006802
1772790185718685400,6.740685546875,0.5562982502430677,-0.24635113432258365,0.20207893494106827
1772790185728751400,6.75075146484375,0.4869371292471885,-0.32550124340504405,0.24846812647655606
1772790185738817500,6.760817626953125,0.45648529236018653,-0.3604658815413713,0.27532719956859947
1772790185748882400,6.77088232421875,0.2712871303975582,-0.4188388677939772,0.28187479458115994
1772790185758948400,6.7809482421875,0.11828677220642567,-0.39945758323669434,0.19879428724721074
1772790185769014300,6.79101416015625,0.1566799234867096,-0.31372575767636296,-0.018875600057467818
1772790185779079400,6.801079345703125,0.18947101697623728,-0.2207648576453328,-0.2153486778154969
1772790185789145300,6.811145263671875,0.15967676721513271,-0.13731938945651054,-0.27744612795133144
1772790185799211500,6.82121142578125,0.14874679239988325,-0.10190233137756585,-0.294312580143474
1772790185809276400,6.8312763671875,0.12029402037560939,-0.10069938532859087,-0.3043130920888856
1772790185819342300,6.84134228515625,0.10067454314827919,-0.1187576045885682,-0.265778669174388
1772790185829408500,6.851408447265625,0.1047825629889965,-0.15995792224407196,-0.2533192563021555
1772790185839473400,6.861473388671875,0.17968787410855291,-0.19156331308037042,-0.3018856822788715
1772790185849539600,6.87153955078125,0.28878596220910546,-0.22349311356544493,-0.333337891847454
1772790185859605500,6.88160546875,0.29787118594050405,-0.30327567533254624,-0.29699356285575773
1772790185869670400,6.89167041015625,0.23904665652811527,-0.43925095670372244,-0.1951729914775118
1772790185879736300,6.901736328125,0.18143910169005392,-0.5340700518220662,-0.1495018485508859
1772790185889802500,6.911802490234375,0.08658698108494281,-0.605597410941124,-0.19934260531235484
1772790185899867600,6.92186767578125,0.03818213887810707,-0.6486079928889871,-0.23378007776942103
1772790185909933300,6.931933349609375,0.08820727576315403,-0.6038897302404046,-0.2701318228825927
1772790185919999500,6.94199951171875,0.11793547455072402,-0.5910767181575298,-0.34235684540960937
1772790185930064400,6.952064453125,0.06385726288259029,-0.6130611709505319,-0.3592623509705066
1772790185940130600,6.962130615234375,-0.07817454204857349,-0.6039072658970952,-0.36239527870137245
1772790185950196000,6.972196044921875,-0.21225509571433065,-0.6333446650445461,-0.344094080998376
1772790185960261000,6.98226123046875,-0.22654665591716766,-0.6045128305748104,-0.31473610376268624
1772790185970327000,6.9923271484375,-0.21342940019071102,-0.5630903946012258,-0.31079434386696664
1772790185980393200,7.002393310546875,-0.3095850046098232,-0.583880961434543,-0.31548206329178063
1772790185990458000,7.0124580078125,-0.43099604631662364,-0.5633510913640261,-0.3058347121655941
1772790186000524000,7.02252392578125,-0.4293009328365326,-0.5227291581183672,-0.30402919711358845
1772790186010590000,7.03258984375,-0.32521570446193215,-0.4944660634472966,-0.2568051256565377
1772790186020655000,7.042655029296875,-0.38634967986047264,-0.47567456147670745,-0.17586678145043552
1772790186030721000,7.052720947265625,-0.5450882894426584,-0.47840077157020566,-0.14268044156562537
1772790186040787000,7.062786865234375,-0.6145452720284461,-0.48930093576908107,-0.1519314137853682
1772790186050852000,7.07285205078125,-0.6358750603049993,-0.5202615989610553,-0.14384575901795177
1772790186060918000,7.08291796875,-0.7566840444654226,-0.5596157042279839,-0.07297193190418183
1772790186070984200,7.092984130859375,-0.8365507773846388,-0.6144564247012138,0.01014401206932962
1772790186081049000,7.103049072265625,-0.8332271859198808,-0.6821405523955821,0.06314692265614867
1772790186091115000,7.113114990234375,-0.9103197779506444,-0.7491819982722401,0.11372077946513891
1772790186101181000,7.123180908203125,-1.1642512843996287,-0.8296510809987783,0.16791173079274593
1772790186111246000,7.13324609375,-1.427650876417756,-0.8222916581466794,0.21785181974284348
1772790186121312300,7.143312255859375,-1.5582804128468035,-0.6633066725879907,0.13861713764946906
1772790186131378200,7.153378173828125,-1.7461486708015201,-0.555708175395429,-0.07706106438133865
1772790186141443000,7.163443115234375,-1.9718641365915535,-0.34197073216885326,-0.16865659434329716
1772790186151509000,7.173509033203125,-2.1773767723083495,-0.06751081695407629,-0.21722850021272896
1772790186161574100,7.18357421875,-2.1008079118907452,0.2475429744556546,-0.2789482030773535
1772790186171640000,7.19364013671875,-1.8200784148871898,0.5385080342695117,-0.31230328712519256
1772790186181706000,7.2037060546875,-1.4290052136361597,0.7632739442497491,-0.3042059419199824
1772790186191771100,7.213771240234375,-1.1682961758762598,0.9645324296534061,-0.4355429690312594
1772790186201837000,7.223837158203125,-0.957389572161436,1.1977242226734757,-0.5959162306105718
1772790186211903000,7.233903076171875,-0.6915858416110277,1.4233815285354852,-0.6717497990235686
1772790186221968100,7.243968017578125,-0.5536316613823176,1.4843746341586113,-0.7559784534793347
1772790186232034000,7.254033935546875,-0.44299861879944796,1.5221385476246476,-0.659081017716974
1772790186242100000,7.264099853515625,-0.4600912078976631,1.4997671413406728,-0.463770042540878
1772790186252165000,7.2741650390625,-0.43109190790653223,1.4496139941617845,-0.36639351802468295
1772790186262231000,7.28423095703125,-0.1293301442682743,1.4676286665409803,-0.4018061191242188
1772790186272297200,7.294297119140625,0.32259879996180535,1.4631652573913334,-0.45481794366985556
1772790186282362000,7.304362060546875,0.5762222633749247,1.4568889536008238,-0.5085097863689064
1772790186292428000,7.314427978515625,0.6410235291093588,1.4294272384405136,-0.4775117868412286
1772790186302494000,7.324493896484375,0.5360574262470007,1.3041218196436761,-0.4473360634818673
1772790186312559000,7.33455908203125,0.4164589869201183,1.216672084249556,-0.4154602582063526
1772790186322625300,7.344625244140625,0.33650516023933885,1.124814761546254,-0.3799525261692703
1772790186332691000,7.35469091796875,0.19489128845930098,1.0924433547735213,-0.4563586703058332
1772790186342756000,7.364756103515625,0.12073474988043308,1.0800023908734322,-0.509547970310226
1772790186352822000,7.374822021484375,-0.062433952081203455,1.117990760745108,-0.6150115013007075
1772790186362888200,7.38488818359375,-0.32577392286658285,1.1333841447100044,-0.6674094317317009
1772790186372953000,7.394953125,-0.8130851461231708,1.1190627738907932,-0.7254656801853329
1772790186383019000,7.40501904296875,-1.123867251563072,1.1981442016512154,-0.7824380789250135
1772790186393085000,7.4150849609375,-1.1688631621092558,1.3615423274770377,-0.8805845649003982
1772790186403150000,7.425150146484375,-1.1217653108477592,1.4157619934424757,-0.9903345410384237
1772790186413216000,7.435216064453125,-0.9829448691785335,1.4766767731323838,-1.1006888397451489
1772790186423282200,7.4452822265625,-0.7634592376887798,1.604306250962615,-1.268442895758152
1772790186433347000,7.45534716796875,-0.44655894162952897,1.6751079261556268,-1.4479628659538923
1772790186443413000,7.4654130859375,-0.1862497168421745,1.6886355162486433,-1.5698217975586652
1772790186453479200,7.475479248046875,-0.10763970598578453,1.5758026255339384,-1.5433973164916037
1772790186463544000,7.4855439453125,-0.17265023055672646,1.3746288958042858,-1.364690270113945
1772790186473610200,7.4956103515625,-0.14568097508847713,1.225112872597575,-1.254004766691476
1772790186483676000,7.505676025390625,0.19685002131164073,0.990655589686334,-1.1350559503797442
1772790186493741000,7.515740966796875,0.4487479761064052,0.7751508445262908,-0.9779966721866279
1772790186503807000,7.525806884765625,0.5285398902237415,0.5846355791941285,-0.8450277330245822
1772790186513873200,7.535873046875,0.5402092852294444,0.4503241393819451,-0.7792236469231546
1772790186523938300,7.545938232421875,0.560121023401618,0.3749269530922174,-0.7438269009798765
1772790186534004000,7.55600390625,0.5024316354990005,0.34101065496504307,-0.6740648710329086
1772790186544069000,7.566069091796875,0.3739876264154911,0.35319062984138727,-0.667625047243759
1772790186554135000,7.576135009765625,0.27131168031692504,0.390733594033122,-0.6574603577125817
1772790186564201200,7.586201171875,0.2575789230406284,0.47812370819449423,-0.6555021363168955
1772790186574265900,7.596265869140625,0.20041326675117016,0.6206251764640212,-0.6560800823353231
1772790186584332000,7.60633203125,0.13031857078373432,0.7358554837092757,-0.7138405627127736
1772790186594398000,7.61639794921875,0.13367547999620435,0.8655085763216018,-0.8136841349296271
1772790186604464000,7.626464111328125,0.09143383659422397,0.990642730204761,-0.8393808862440287
1772790186614529000,7.636529052734375,-0.15476561429798602,1.0843024261549115,-0.8310374938558787
1772790186624595200,7.64659521484375,-0.2275111170351505,1.0698387242555618,-0.8232862221419811
1772790186634660000,7.65666015625,-0.11644903538525103,1.0797998540386557,-0.7731366551596671
1772790186644726000,7.66672607421875,-0.0841997936874628,1.1259130781769753,-0.5674674406416714
1772790186654792200,7.676792236328125,-0.21181495073139667,1.0934288586795329,-0.38321364685706794
1772790186664857000,7.686857177734375,-0.3513268817961216,1.07001904925853,-0.327666604745388
1772790186674923000,7.696923095703125,-0.3455705102264881,1.0654217845961451,-0.33722141874991357
1772790186684989000,7.706989013671875,-0.2739928822249174,1.1067790463790297,-0.2977440524294972
1772790186695054000,7.71705419921875,-0.25978257056474685,1.128453702570498,-0.19437186769507825
1772790186705120000,7.7271201171875,-0.23509587307572363,1.1410638855576514,-0.11012640823498368
1772790186715186200,7.737186279296875,-0.13983809427917002,1.150846736164391,-0.024185835294798015
1772790186725251000,7.7472509765625,-0.20484043554365633,1.1630723037481308,0.0021768325824290512
1772790186735317000,7.75731689453125,-0.264219091707468,1.1764856198117137,0.05635762784220278
1772790186745383000,7.7673828125,-0.3726794664263725,1.2156392340704798,0.08821363243870436
1772790186755448000,7.777447998046875,-0.5019266085863113,1.2671750677794218,0.07056245960965753
1772790186765514200,7.78751416015625,-0.5085241071552038,1.2389201564148067,0.08424312137253583
1772790186775580200,7.797580078125,-0.6429337466448545,1.2132748430266975,0.07065956330858171
1772790186785645000,7.80764501953125,-0.6927946328788995,1.1779159448757768,0.03504917461462319
1772790186795711000,7.8177109375,-0.8250105617165565,1.0743418808937073,0.04640606960505247
1772790186805777200,7.827777099609375,-0.987996307349205,0.9876014628127217,0.11538995478637516
1772790186815842000,7.837842041015625,-0.9456453583538532,0.8982733663260937,0.20723427187763152
1772790186825908000,7.847907958984375,-0.9617378304988146,0.8076113908872008,0.27730237209908665
1772790186835974000,7.857973876953125,-1.1605723036259412,0.770683928245306,0.2823394164182246
1772790186846039000,7.8680390625,-1.3903905285596847,0.7789031827971339,0.21767032569609582
1772790186856105200,7.878105224609375,-1.5632763214379548,0.8495511287331581,0.07676730559915304
1772790186866171100,7.888171142578125,-1.5690993285030126,0.9827662977412343,-0.09293912659063935
1772790186876236000,7.898236083984375,-1.4825357282936573,1.1070493877530097,-0.2151771206408739
1772790186886302000,7.908302001953125,-1.4448662151128053,1.2619243076443671,-0.36309542632736264
1772790186896368000,7.9183681640625,-1.3989976133853197,1.3445692731052636,-0.5395282441627234
1772790186906433000,7.92843310546875,-1.2780910140693187,1.4094658159077167,-0.6536614038210362
1772790186916499200,7.938499267578125,-1.2973475032031536,1.5185224029541016,-0.7628932013038545
1772790186926565000,7.948565185546875,-1.161945345544815,1.5919713777855038,-0.9059306030809878
1772790186936630000,7.958630126953125,-1.0244903470098972,1.632835010832548,-1.0170886924512683
1772790186946696000,7.968696044921875,-0.8920750962078571,1.672943733859062,-1.063258469082415
1772790186956762400,7.978762451171875,-0.6855956612855195,1.6464724910408257,-1.1206436133414506
1772790186966827500,7.98882763671875,-0.4320499392837286,1.5789555366069077,-1.0594571040380745
1772790186976893400,7.9988935546875,-0.24819091697037218,1.5378987190753222,-1.0113989563770591
1772790186986959000,8.008958984375,-0.08889876515865325,1.4816348339311778,-0.9580224632374942
1772790186997024300,8.019024169921876,0.05631342337429523,1.4145523253917693,-0.9247659441933035
1772790187007090400,8.02909033203125,0.16627309674024582,1.3388625858962535,-0.9218544406607746
1772790187017156400,8.03915625,0.2724105814695358,1.2956794238604605,-0.9059678663514554
1772790187027221200,8.04922119140625,0.31934827373325825,1.2016133390665054,-0.8749037427850067
1772790187037287200,8.059287109375,0.23340835838019847,1.0884040162548423,-0.8165551603212952
1772790187047353300,8.069353271484376,0.0019616554617881772,0.9424272730901837,-0.838552326465398
1772790187057418200,8.079418212890625,-0.15169278272390366,0.8111284590974449,-0.9283908566921949
1772790187067484400,8.089484375,-0.2765074953943491,0.8886858921609818,-1.0540664239756763
1772790187077550300,8.09955029296875,-0.3608744623422622,1.0066571686774493,-1.2437898082777856
1772790187087615200,8.109615234375,-0.4887129067480564,1.0441133313685655,-1.3949246648579836
1772790187097681400,8.119681396484374,-0.6770809309184551,1.1183911582395434,-1.4692381475642322
1772790187107747300,8.129747314453125,-0.7810983547538518,1.1376616758987308,-1.4967286504276096
1772790187117812500,8.1398125,-0.9510790738403797,1.1091862536512314,-1.4765456940986215
1772790187127878400,8.14987841796875,-1.142970595961809,1.1421373600080609,-1.5461073061026631
1772790187137944300,8.1599443359375,-1.1420219169348478,1.2271069690242409,-1.6797208267785608
1772790187148009200,8.17000927734375,-1.0688362692147493,1.2728688955068588,-1.822863515561074
1772790187158075400,8.180075439453125,-1.0184954905092716,1.255207712740451,-1.956163586373627
1772790187168141300,8.190141357421876,-1.0551409213393925,1.1786408981494605,-1.9826988343387841
1772790187178206200,8.200206298828125,-1.1155495050728321,1.1009323661774397,-1.9133549567386507
1772790187188272000,8.210272216796875,-1.1711644247889519,1.0042153284832835,-1.8053895259298383
1772790187198338300,8.22033837890625,-1.1603829185336827,0.9419291143096983,-1.6948067522294818
1772790187208403500,8.230403564453125,-1.057450951847434,0.8654416485652328,-1.639770947575569
1772790187218469400,8.240469482421876,-0.9522972174584865,0.7291673842474817,-1.619144046871364
1772790187228535300,8.250535400390625,-0.8938654867559671,0.6205757843643427,-1.5373780562020838
1772790187238600200,8.26060009765625,-0.7643903810590505,0.5714627938881516,-1.4356395370841026
1772790187248666400,8.270666259765624,-0.5933861641436815,0.593918663585186,-1.3460105579547583
1772790187258732300,8.280732177734375,-0.46975218569040295,0.5974048982657492,-1.2481634933173655
1772790187268797400,8.29079736328125,-0.4829167876899242,0.5526864894866943,-1.1998066549707203
1772790187278863000,8.300863037109375,-0.26928981910049915,0.5424488808497786,-1.088147776471451
1772790187288929300,8.31092919921875,-0.1596153924167156,0.5402237521462142,-1.0116450400926171
1772790187298994200,8.320994140625,-0.021498130580782888,0.5706910788632928,-0.9047590020183474
1772790187309060400,8.331060302734375,0.15025485887527465,0.5678969181001186,-0.793179545430839
1772790187319126300,8.341126220703124,0.15226386061012745,0.4890431616157293,-0.7026673537261784
1772790187329191200,8.351191162109375,0.09259820419847965,0.4225859453678131,-0.6277025675043464
1772790187339257300,8.36125732421875,0.15140519795417784,0.3460917576216161,-0.5259153869390487
1772790187349323300,8.3713232421875,0.20462650053203105,0.2700665025614202,-0.4206470131944865
1772790187359388400,8.381388427734375,0.24432722727954387,0.22680881398469208,-0.3138216923315078
1772790187369454300,8.391454345703124,0.31049919684529304,0.1966338943429291,-0.1596726755619049
1772790187379520500,8.4015205078125,0.4341927965313196,0.20982947600260377,-0.01896817371174693
1772790187389585200,8.411585205078126,0.410834717297554,0.20320830429717898,0.0900575067397207
1772790187399651300,8.4216513671875,0.20498364340662956,0.16181991672366858,0.19239720662124454
1772790187409717200,8.43171728515625,-0.008377952244877815,0.09468407056182622,0.3083138886954635
1772790187419782400,8.441782470703124,-0.15123101043105125,0.056026276995986696,0.39745939515680073
1772790187429848300,8.451848388671875,-0.0511865818798542,0.0695828009225428,0.49142983755655584
1772790187439914200,8.461914306640624,0.003993453550338745,0.048141076704114674,0.5572822197791188
1772790187449979400,8.4719794921875,-0.11888590714335441,-0.00004427753314375877,0.6192215932764112
1772790187460045300,8.48204541015625,-0.250778010854125,-0.048872898110002276,0.6802671597391367
1772790187470111500,8.492111572265625,-0.32765959048271176,-0.10282572983279824,0.7538939022902399
1772790187480176000,8.502176025390625,-0.3383610172390938,-0.1601075598478317,0.8269182219687848
1772790187490242300,8.5122421875,-0.33372868126332755,-0.24784444162026045,0.9252571617763489
1772790187500308200,8.52230810546875,-0.32585984758436676,-0.4281877108976245,1.0716060992542653
1772790187510373400,8.532373291015626,-0.34865327867269513,-0.5431766106024384,1.2370578696742653
1772790187520439300,8.542439208984375,-0.3731763100326061,-0.5561079883679747,1.2820232389517128
1772790187530505500,8.55250537109375,-0.3915554318100214,-0.5880626310333609,1.246424248434603
1772790187540570400,8.5625703125,-0.47763855502605435,-0.5961028757564724,1.2494827592223883
1772790187550636300,8.57263623046875,-0.6602981384217739,-0.6012339550346135,1.2891112975165246
1772790187560702200,8.5827021484375,-0.8425678457170724,-0.59104836884588,1.3005121047139168
1772790187570767400,8.592767333984375,-0.8467968615889548,-0.549474687833339,1.2500162815771996
1772790187580833300,8.602833251953125,-0.8337608544051647,-0.4375251558244228,1.1372156126316637
1772790187590899200,8.612899169921874,-0.7938555449962615,-0.3642828094810247,0.9891505188856273
1772790187600964400,8.62296435546875,-0.7426064192742109,-0.33815994170904157,0.801095944578573
1772790187611030300,8.6330302734375,-0.5970803424865007,-0.2864016974210739,0.6939636035930364
1772790187621096400,8.643096435546875,-0.4006698816359043,-0.2461179100885987,0.6528695227909833
1772790187631161000,8.6531611328125,-0.16497487362325192,-0.24152006090432404,0.6195037712186574
1772790187641227300,8.663227294921874,0.018524667727947235,-0.2733484468415379,0.6275203428052365
1772790187651293200,8.673293212890625,0.04649520919322967,-0.31880496063679453,0.6103093149591237
1772790187661358300,8.6833583984375,0.0915238529652357,-0.3398080011770129,0.6434986870512366
1772790187671424500,8.693424560546875,0.14574001179933546,-0.32900691343843935,0.6633597179494798
1772790187681490400,8.703490478515626,0.2163753905147314,-0.3445426284834742,0.6597623510446399
1772790187691555300,8.713555419921875,0.27020401133596894,-0.34054274519234895,0.6559157586190849
1772790187701621200,8.723621337890625,0.36072540926039215,-0.2715861133441329,0.5922216504089534
1772790187711687400,8.7336875,0.4651923304289579,-0.1811290128275752,0.4687663895234465
1772790187721752300,8.74375244140625,0.595789133632183,-0.09371405648589133,0.39810105406120416
1772790187731818200,8.753818359375,0.6782990745365619,-0.03499503327459097,0.35729631159454583
1772790187741884200,8.76388427734375,0.6956371628284453,-0.0038441082075238225,0.37838483846113086
1772790187751949300,8.77394921875,0.6175339324504137,0.0884305631250143,0.3844524679370224
1772790187762015200,8.78401513671875,0.487891068971157,0.18764672415852546,0.3724235919691622
1772790187772081400,8.794081298828125,0.3380412837654352,0.3528986611574888,0.2870303507134318
1772790187782146300,8.804146240234376,0.1493897664785385,0.5432262949630617,0.10707096618711948
1772790187792212200,8.814212158203125,0.040945173850655554,0.6768474144235253,-0.020467180097848175
1772790187802278400,8.8242783203125,-0.11983984686732291,0.780508864428103,-0.12526377161219715
1772790187812343300,8.83434326171875,-0.0985913071334362,0.8528609839335084,-0.21073753075823187
1772790187822409500,8.844409423828125,0.009534136542677879,0.823506294633448,-0.2545204122528434
1772790187832475400,8.854475341796874,-0.016435001972317696,0.7636892470523715,-0.3263152632016688
1772790187842540300,8.864540283203125,0.08745148895978927,0.7080977082118391,-0.4213542846810072
1772790187852606200,8.874606201171876,0.2735077290564775,0.581589051105082,-0.4599205275058746
1772790187862672400,8.88467236328125,0.30250293739438056,0.4070084370076656,-0.34948907190971074
1772790187872737300,8.8947373046875,0.12068506551980972,0.23343904577940702,-0.09847696003876626
1772790187882803200,8.90480322265625,-0.13666472494006157,0.04874386490285396,0.0022762743689119813
1772790187892869000,8.914869140625,-0.15648118604421615,-0.04601736254841089,0.07123889756649732
1772790187902934300,8.924934326171876,-0.022575404423475266,-0.009696049106121063,0.163969495972991
1772790187913000400,8.93500048828125,0.09336158978641032,0.05743833575099706,0.22437669146694242
1772790187923066400,8.94506640625,0.20860884816646574,0.1620063792064786,0.2846240932893008
1772790187933131300,8.95513134765625,0.3228945680379867,0.22101211040467023,0.33888876744024454
1772790187943197200,8.965197265625,0.3209089471787214,0.24846534999758005,0.39945436836630105
1772790187953262800,8.975262939453126,0.4041156381756067,0.3119821288794279,0.47978177759982643
1772790187963328000,8.985327880859375,0.6853612680077552,0.38896073914170265,0.5155938263457268
1772790187973394000,8.995393798828125,0.9257868116736412,0.46021863366961474,0.5778279450058936
1772790187983459800,9.0054599609375,0.9434896416246891,0.4513853388726711,0.6990454369019716
1772790187993524700,9.015524658203125,0.711022363486886,0.3143853906288743,0.7909745096672326
1772790188003591000,9.0255908203125,0.5085580094248056,0.1834831747382879,0.8109324250686913
1772790188013656800,9.03565673828125,0.4508703750878572,0.05929769988209009,0.8128254722736775
1772790188023722000,9.045721923828125,0.31014614562392234,-0.1022530445113778,0.8339307310793548
1772790188033788000,9.055787841796874,0.2937169888705015,-0.22476298737078904,0.8265850444916635
1772790188043853800,9.065853759765625,0.47663668450713154,-0.27914427363872524,0.8007813256714492
1772790188053918700,9.075918701171876,0.562841972798109,-0.27942162927538156,0.719700175461173
1772790188063985000,9.08598486328125,0.45000645173490045,-0.3230713859096169,0.6415344012409449
1772790188074050800,9.09605078125,0.29311551584601403,-0.4012161173418164,0.6442763934254646
1772790188084115700,9.10611572265625,0.11493220108151435,-0.47172962324321266,0.6698845896735787
1772790188094182000,9.116181884765625,0.024303251129388807,-0.45104310130625963,0.701754695860669
1772790188104247800,9.126247802734374,-0.03450140453875065,-0.40831367438733573,0.7110786237187683
1772790188114313000,9.13631298828125,-0.09339315396845341,-0.3886120718345046,0.6876987710446119
1772790188124379000,9.14637890625,-0.11606383545994758,-0.43799861855506894,0.6739041275132447
1772790188134445000,9.156445068359375,-0.09872866977751255,-0.4675584750384092,0.6073235771466047
1772790188144509700,9.166509765625,0.10207038142085074,-0.46405894248485563,0.5433624154981226
1772790188154576000,9.176575927734374,0.2832037781625986,-0.5254030535027384,0.5001649326760321
1772790188164641800,9.186641845703125,0.30356150653660297,-0.5936974220499396,0.5457555942449719
1772790188174707000,9.19670703125,0.23306115237772462,-0.6672419662103056,0.6287115984164178
1772790188184772900,9.20677294921875,0.1909650549262762,-0.7334989837110042,0.6897215821091085
1772790188194838800,9.2168388671875,0.17552140207886696,-0.7688309938549995,0.7189496493548154
1772790188204904000,9.226904052734374,0.08417232115864753,-0.83124244184345,0.7563407839857041
1772790188214969900,9.236969970703125,0.14285188914239405,-0.8196835214748978,0.7578299265649169
1772790188225036000,9.2470361328125,0.356779301983118,-0.7718561868950724,0.7131006310656667
1772790188235100700,9.2571005859375,0.4889303488910198,-0.7314882284104823,0.6324505657490342
1772790188245166800,9.267166748046876,0.4540834919154644,-0.7127090013995766,0.5254099947001785
1772790188255232800,9.277232666015625,0.30327450628876684,-0.753494016252458,0.49426776439622044
1772790188265298000,9.2872978515625,0.2742290290683508,-0.8504466162681579,0.6188069480609149
1772790188275363800,9.29736376953125,0.3488479244619608,-0.9325038449689745,0.7046130809664726
1772790188285430000,9.307429931640625,0.32855566253960133,-1.0449614726305008,0.6462813765723258
1772790188295495000,9.317494873046876,0.287969969651103,-1.1555889622554183,0.6159844379860907
1772790188305560800,9.327560791015625,0.24303426485955715,-1.2253504807457327,0.6344705272693186
1772790188315626800,9.337626708984375,0.3088105131059885,-1.2405445427462458,0.6551574145324528
1772790188325692000,9.34769189453125,0.37379064253866673,-1.2904746948242187,0.6689321112543344
1772790188335758000,9.357758056640625,0.3103308545410633,-1.315750590378046,0.6621074528660624
1772790188345823700,9.36782373046875,0.2563029117554426,-1.3771759499385952,0.6728962656449526
1772790188355889000,9.377888916015625,0.21115736360549925,-1.422460614298284,0.6933459831513464
1772790188365954800,9.387954833984375,0.09972352603375911,-1.4039572816193102,0.6871008051514625
1772790188376021000,9.39802099609375,0.12180910111367702,-1.354191964714229,0.7446968887474388
1772790188386085600,9.408085693359375,-0.08453647829592227,-1.3348454592093824,0.6669130995821207
1772790188396151800,9.41815185546875,-0.2901742016971111,-1.3031108890354632,0.6202225870124995
1772790188406217000,9.428217041015625,-0.34492695162594317,-1.2248404853969812,0.5444886430490762
1772790188416283000,9.438282958984376,-0.3457189787864685,-1.1381830694243311,0.4697016976121813
1772790188426348800,9.448348876953125,-0.37043431784808634,-1.0945891346305607,0.45698089385740454
1772790188436415000,9.4584150390625,-0.47652387178242206,-1.0324053579181431,0.36406960512176156
1772790188446480000,9.46847998046875,-0.5744044002979993,-1.0538380220472812,0.43908144535571336
1772790188456545800,9.4785458984375,-0.8359107259154319,-1.0741168399661778,0.4618728306174278
1772790188466611000,9.48861083984375,-0.9909189167976379,-1.0868252226307988,0.5394402736183256
1772790188476676900,9.4986767578125,-1.0402473035901785,-1.1014897077992558,0.5950726559258998
1772790188486742800,9.50874267578125,-1.143455749130249,-1.0447677036240697,0.5684399389356375
1772790188496808700,9.51880859375,-1.2255781520217657,-1.0413511731788516,0.600206511683017
1772790188506873900,9.528873779296875,-1.308355803951621,-1.0346469993650913,0.5989241071896627
1772790188516939800,9.538939697265626,-1.4204291084706782,-0.9518497659519314,0.5335100433191284
1772790188527005000,9.5490048828125,-1.5921809288829565,-0.8207359531372785,0.400977194019407
1772790188537070800,9.55907080078125,-1.7413976768821477,-0.5970566693499684,0.21643249099683015
1772790188547136800,9.56913671875,-1.7926280979037283,-0.3922179873719811,0.021600020052678883
1772790188557202000,9.579201904296875,-1.6338649384021757,-0.2217687739908695,-0.17249642823450267
1772790188567267800,9.589267822265626,-1.4329448911726475,-0.05118365927040577,-0.4073161877825856
1772790188577334000,9.599333984375,-1.1115724181354045,0.12191051566153764,-0.6115614704446867
1772790188587398700,9.609398681640625,-0.7816630028992891,0.29977175886482,-0.7679499732367694
1772790188597464800,9.61946484375,-0.46746144440472126,0.37797961866110563,-0.7409920428801328
1772790188607530800,9.62953076171875,-0.12047872929275036,0.4049634871765971,-0.5805529860556126
1772790188617596000,9.639595947265626,0.1656803915441036,0.49750323918610806,-0.44317430415991693
1772790188627661800,9.649661865234375,0.3090051588952541,0.56259764264822,-0.39794688641279935
1772790188637727700,9.659727783203126,0.2506488315165043,0.5729013022586703,-0.4082737807683646
1772790188647793000,9.66979296875,0.18812252497673035,0.5538949884936213,-0.32552192086689175
1772790188657858800,9.67985888671875,0.1583604239195585,0.5924722641691565,-0.30785039936956016
1772790188667925000,9.689925048828124,0.21880583253204822,0.5937108660534024,-0.3735444857578724
1772790188677990000,9.699989990234375,0.28577742804288864,0.6283250833168625,-0.44215836858302354
1772790188688055800,9.710055908203126,0.3142477357238531,0.6923954044282435,-0.5226758935611695
1772790188698121700,9.720121826171875,0.3374146762996912,0.7659110147550702,-0.664658379457891
1772790188708187000,9.730186767578125,0.4183066606134176,0.8304211885884404,-0.7603558648459613
1772790188718252800,9.740252685546874,0.5221089803934097,0.9323816798940301,-0.8418428924433886
1772790188728319000,9.750319091796875,0.7348468911886215,1.0108312394917012,-0.892839943100512
1772790188738384000,9.7603837890625,0.7793073796838521,1.0367948250487447,-0.9387409857928752
1772790188748449800,9.77044970703125,0.6567799011677503,0.9870651639789342,-0.9639526570040732
1772790188758515700,9.780515625,0.4575415234148502,0.9089110801964998,-0.9728715842578559
1772790188768580900,9.790580810546874,0.23740473453998565,0.7864116587311029,-0.8897939995333551
1772790188778647000,9.80064697265625,0.19079262096881866,0.6063923607110977,-0.8184301604129374
1772790188788712700,9.810712646484374,0.17964637305438516,0.527028316617012,-0.6752943397626281
1772790188798777900,9.82077783203125,0.19237083007097244,0.5263567009657621,-0.6018753216780722
1772790188808843800,9.83084375,0.3583838145703077,0.4912579150557518,-0.5266513730634004
1772790188818910000,9.840909912109375,0.4629699782043695,0.5064432092279195,-0.4569702628655359
1772790188828974800,9.850974853515625,0.535557075509429,0.4445329887598753,-0.36412487897295504
1772790188839040800,9.861040771484374,0.5755079776257276,0.3961778309136629,-0.26560258195511993
1772790188849106700,9.871106689453125,0.5743716670721769,0.31870179252326486,-0.251758802052401
1772790188859171800,9.881171875,0.6242348913937806,0.20445728144496678,-0.22395137872695922
1772790188869238000,9.891238037109375,0.602469634309411,0.11430939300805329,-0.17351828209552914
1772790188879304000,9.901303955078125,0.6029372518211603,-0.0036626141607761383,-0.13054039684087038
1772790188889368800,9.911368896484374,0.5653717835366726,-0.1004626539632678,-0.031181064477004108
1772790188899434800,9.921434814453125,0.3798375214874744,-0.18909195453077554,-0.012334361720457673
1772790188909501000,9.9315009765625,0.194921099075675,-0.2461184946104884,-0.008551774441823362
1772790188919565800,9.94156591796875,0.0514870261311531,-0.3117252315089106,-0.0021577625557780266
1772790188929632000,9.951632080078125,0.039214404535293575,-0.32275691313296556,0.006362557301856577
1772790188939697700,9.96169775390625,0.0881301188737154,-0.25816169136464595,-0.043275260766036806
1772790188949762800,9.9717626953125,0.12296645445525646,-0.2128486776933074,-0.10628054646179079
1772790188959832800,9.981832763671875,0.13776947131156922,-0.18819003725498915,-0.0595104293173179
1772790188969899000,9.99189892578125,-0.03596212474107742,-0.11078852540552615,-0.026023024126701055
1772790188979964000,10.0019638671875,0.02824760484099388,-0.17727993618398905,-0.026600349090620874
1772790188990030000,10.012030029296875,0.08528174370527267,-0.2408177578538656,-0.007035013203322887
1772790189000095700,10.022095703125,0.08324059326648711,-0.23328853139281272,-0.002457147361151874
1772790189010161000,10.032160888671875,0.18296236573457716,-0.28917408474385736,-0.07346128632370381
1772790189020227000,10.04222705078125,0.25560849975049493,-0.37810266051888464,-0.0925324089532718
1772790189030293000,10.05229296875,0.28357904121577737,-0.4478369987413287,-0.057218190194293854
1772790189040358000,10.06235791015625,0.3440402319192886,-0.5085039411500096,-0.03945551981478929
1772790189050423800,10.072423828125,0.42288463605344295,-0.537436897906661,-0.05585128575526178
1772790189060490000,10.082489990234375,0.46138709292709823,-0.6156573249235748,-0.053293965955264866
1772790189070555000,10.092554931640626,0.3797159409344196,-0.7127732988074421,0.0172843122780323
1772790189080621000,10.10262109375,0.30321897670924663,-0.7766106879457831,0.02910181051753461
1772790189090687000,10.11268701171875,0.384306775856018,-0.8224439260989427,-0.002614383749477565
1772790189100752000,10.122751953125,0.5187964948445558,-0.8376920563742518,0.006567505289427936
1772790189110817800,10.13281787109375,0.5904197155535221,-0.8656471080094575,0.036664500856772066
1772790189120884000,10.142884033203124,0.5753647697627544,-0.9050210870206356,0.05063753316234797
1772790189130949000,10.15294921875,0.4668851058214903,-0.9440332469820976,0.07286028822325169
1772790189141015000,10.16301513671875,0.4424573515295982,-0.9800739899173379,0.10343158677145838
1772790189151081000,10.1730810546875,0.312160992577672,-1.0070981904432177,0.11914254878554492
1772790189161145900,10.183145751953125,0.15388123267889023,-1.0190496172606944,0.12861845233496277
1772790189171212000,10.1932119140625,0.07727320929467678,-1.0186045038416982,0.11187825687099248
1772790189181278000,10.20327783203125,-0.006795651489496231,-0.9758704007476567,0.09808390560057013
1772790189191342800,10.2133427734375,-0.09139642719328403,-0.9117831285014748,0.07021138114966452
1772790189201408800,10.22340869140625,-0.17337094604671,-0.8067384074449538,0.016438837897218762
1772790189211475000,10.233474853515625,-0.242364987295866,-0.7227788522541523,-0.07673884668964892
1772790189221540000,10.2435400390625,-0.248282686907053,-0.667034168678522,-0.17803298304099588
1772790189231606000,10.25360595703125,-0.29570670138299465,-0.6102347153529525,-0.17119762059561908
1772790189241672000,10.263671875,-0.32825814089775085,-0.5660439837098121,-0.15523224542904646
1772790189251736800,10.27373681640625,-0.34146482847332954,-0.5189791579350829,-0.14352295680437235
1772790189261803000,10.283802978515626,-0.4665776473075151,-0.45915188122093675,-0.13889931559171526
1772790189271869000,10.293868896484375,-0.6167407362461089,-0.4256935559943318,-0.14703118412103502
1772790189281934000,10.30393408203125,-0.6937333750337362,-0.4353235541269183,-0.13303816847335548
1772790189291999700,10.313999755859374,-0.7993143949240445,-0.4613695572704076,-0.0915639840462245
1772790189302066000,10.32406591796875,-0.934138460433483,-0.5302198061347008,-0.03597653685892001
1772790189312130800,10.334130859375,-0.9110130209118127,-0.6140028357148171,0.00654079994559288
1772790189322197000,10.344197021484375,-0.8394991057962179,-0.7193973931223153,0.09278466668128967
1772790189332263000,10.354262939453125,-0.9873469035297632,-0.7620175144478678,0.16803155778013168
1772790189342327800,10.364327880859374,-1.248701837977767,-0.6813651841089129,0.14564963010214269
1772790189352394000,10.37439404296875,-1.4650567702263593,-0.5239689290463924,0.05243055405896157
1772790189362460000,10.3844599609375,-1.6109078411847353,-0.33391543600708246,-0.00710051618758589
1772790189372525000,10.394525146484375,-1.5855413447380065,-0.144698393791914,-0.1329902194120921
1772790189382591000,10.404591064453125,-1.4598627087146043,0.10567775826305151,-0.2783517715541646
1772790189392657200,10.4146572265625,-1.3842349285393953,0.3696335228592157,-0.3892380217131227
1772790189402721800,10.4247216796875,-1.1898182718545198,0.48750966843813653,-0.47672600675839927
1772790189412788000,10.4347880859375,-0.9410311425566673,0.5780521091505885,-0.5231379581149668
1772790189422854000,10.44485400390625,-0.6977402725875377,0.7005629287928342,-0.49392245808988805
1772790189432919000,10.4549189453125,-0.5311468578517436,0.7689496517986059,-0.5225257810333743
1772790189442984700,10.464984619140624,-0.3114852852731943,0.8455793024927377,-0.5133827261675149
1772790189453051000,10.47505078125,-0.05503098234832286,0.8326455866396427,-0.41462293059937655
1772790189463116000,10.485115966796876,0.17266659716963767,0.8284981115713715,-0.25584840945359316
1772790189473182000,10.495181884765625,0.3147890029937029,0.7943763539999723,-0.09527378008328377
1772790189483247900,10.505247802734376,0.2719400413483381,0.7113423892214894,-0.022335823513939975
1772790189493312800,10.515312744140624,0.3260018864035606,0.6368143869817257,0.012080313894152641
1772790189503379000,10.52537890625,0.4445189602345228,0.6560013180106878,0.0298956277763471
1772790189513444900,10.53544482421875,0.7424287246197462,0.6978770507097244,0.08660418794807045
1772790189523510000,10.545510009765625,0.9180331288069487,0.7306044313132762,0.15593940731771289
1772790189533576000,10.555575927734376,0.8097685689210892,0.7164414659261703,0.1878481650147587
1772790189543642000,10.56564208984375,0.69029463275671,0.6603346710398793,0.19414905525725334
1772790189553707000,10.57570703125,0.6630512365221977,0.6166375681325793,0.20578290402553975
1772790189563773000,10.58577294921875,0.6587012246191501,0.5914078498080373,0.1932605454523116
1772790189573838800,10.5958388671875,0.5867044944226741,0.5469163816526532,0.24344806982483713
1772790189583904000,10.605904052734376,0.43937224499583244,0.4528542423814535,0.3254727114303037
1772790189593970000,10.615969970703125,0.29965456222593784,0.4100520424872637,0.358746437337622
1772790189604035800,10.626035888671876,0.1624789651542902,0.48516632018238304,0.3160477343505248
1772790189614101000,10.63610107421875,-0.11903496022522449,0.5874380693942308,0.22361312321592122
1772790189624167000,10.6461669921875,-0.4892477442771196,0.6842693811178207,0.12708514182046055
1772790189634233000,10.656233154296874,-0.6666659198880195,0.7673004232868552,0.05726612098924815
1772790189644297700,10.666297607421875,-0.6058785659700632,0.8394330548226833,-0.007662278256192803
1772790189654364000,10.676364013671876,-0.5415419951379299,0.8725807066649198,-0.02930310524329543
1772790189664429800,10.686429931640625,-0.4125917900979519,0.8430275721833109,-0.10760215045437216
1772790189674495000,10.696494873046875,-0.21399989355504512,0.8255909919530153,-0.23267050909232348
1772790189684561000,10.706560791015624,-0.0046188919723033905,0.8383478899344802,-0.314052249684371
1772790189694627000,10.716626953125,0.19325988786518572,0.6944888695761561,-0.24994331359565256
1772790189704692000,10.72669189453125,0.16799100657403468,0.47486909031271934,-0.08610632142852992
1772790189714758000,10.7367578125,0.06433540178835391,0.2628787830144167,-0.029701712639443576
1772790189724824000,10.746823974609375,0.06189443837702274,0.048855216322839255,0.02517367728836834
1772790189734889000,10.756888916015624,0.04334288264214992,-0.11783084513247012,0.21565993572175501
1772790189744955000,10.766954833984375,0.08724690629839897,-0.1767883532747626,0.2518313558319583
1772790189755020800,10.777020751953126,0.3256435744851827,-0.1900578769534826,0.2490381814494729
1772790189765086000,10.7870859375,0.472952443036437,-0.16862871995568274,0.2659390473678708
1772790189775151900,10.79715185546875,0.41898470600545407,-0.20292963348627088,0.20695852367617187
1772790189785218000,10.807218017578125,0.380138550260663,-0.26536972304731604,0.1377132841449231
1772790189795283000,10.817282958984375,0.2931903346478939,-0.3009688596948981,0.09870580035857855
1772790189805348900,10.827348876953126,0.24266835415661334,-0.33310470414608717,0.07851188424415886
1772790189815414800,10.837414794921875,0.12996961121559142,-0.39840778192281723,0.016729674069955944
1772790189825480000,10.84747998046875,0.14900339750945568,-0.4486740340873599,-0.07619381656013428
1772790189835546000,10.857546142578125,0.22586393435001373,-0.5161313672885298,-0.06550042697973549
1772790189845612000,10.867612060546875,0.3474246136605739,-0.5121031346857547,-0.02736453839614987
1772790189855677000,10.877677001953124,0.4570137001484632,-0.5514245067268609,0.01249583589248359
1772790189865742800,10.887742919921875,0.3999544268429279,-0.6713306968286633,-0.012104790748283266
1772790189875809000,10.89780908203125,0.25094109246134755,-0.7653817301839589,0.059971872816607354
1772790189885874000,10.9078740234375,0.10609715271890163,-0.8006541190952062,0.14326368481367827
1772790189895939800,10.91793994140625,0.12759879043102262,-0.8067989054605365,0.12582732377909123
1772790189906005800,10.928005859375,0.12316402285397052,-0.8142170727625488,0.15785298585407434
1772790189916071000,10.93807080078125,-0.013265724286437033,-0.8122700303480028,0.16393106365874408
1772790189926137000,10.94813720703125,-0.011504559832811356,-0.7616250079989433,0.12541150951981545
1772790189936203000,10.958203125,0.07368658297955989,-0.6932756943941116,0.1083193588130176
1772790189946268000,10.968267822265625,0.179279293307662,-0.6470911585852503,0.08061155993714929
1772790189956330200,10.978330322265625,0.048991117662191386,-0.6607821225464343,0.05400529256239533
1772790189966396400,10.988396484375,-0.03929448403418064,-0.6674024174690246,0.007847717825695872
1772790189976461000,10.9984609375,-0.04178630084991455,-0.6942430781215428,0.021639731008559464
1772790189986527200,11.00852734375,-0.10088672459423541,-0.7057906003132463,0.095510219187662
1772790189996593200,11.01859326171875,-0.19188684594631195,-0.6560764290735125,0.15891345469243823
1772790190006658300,11.028658203125,-0.19111586157381533,-0.6367661639258265,0.05401106471605598
1772790190016724200,11.03872412109375,-0.033061142602562904,-0.6507444203957915,-0.022205621263012287
1772790190026790100,11.0487900390625,-0.19091420152187347,-0.689201869083941,0.005428016398102045
1772790190036855300,11.058855224609376,-0.3780792796432972,-0.8233861753851175,0.06595635405369103
1772790190046921200,11.068921142578125,-0.4620236372649669,-0.9228449130028485,0.1754190376829356
1772790190056987400,11.0789873046875,-0.19756839871406554,-0.90164634989053,0.20591858616918324
1772790190067052000,11.089052001953124,-0.07999941938817501,-0.8274243448600173,0.2170430606432259
1772790190077118200,11.0991181640625,-0.3365688731253147,-0.7728785156801342,0.22738515256792305
