time,seconds_elapsed,z,y,x
1772797359994324700,0.08632470703125,0.5856530666351318,-0.14183570444583893,-0.134881392121315
1772797360004350700,0.096350830078125,0.5938665270805359,-0.1100279688835144,-0.10174926370382309
1772797360014376700,0.106376708984375,0.6018195152282715,-0.006304767448455095,-0.09404341131448746
1772797360024402700,0.116402587890625,0.6356949210166931,0.0913994237780571,-0.11794101446866989
1772797360034428700,0.1264287109375,0.6861519813537598,0.12677206099033356,-0.16399000585079193
1772797360044454700,0.13645458984375,0.7181400060653687,0.157054603099823,-0.21623483300209045
1772797360054481700,0.146481689453125,0.7189980745315552,0.2031637728214264,-0.261697918176651
1772797360064507600,0.156507568359375,0.6984792351722717,0.2513637840747833,-0.2745561897754669
1772797360074533600,0.16653369140625,0.6401799917221069,0.28126096725463867,-0.2905476689338684
1772797360084559600,0.1765595703125,0.5578608512878418,0.30375269055366516,-0.2973826825618744
1772797360094585600,0.186585693359375,0.48040974140167236,0.2595817744731903,-0.26120948791503906
1772797360104611600,0.196611572265625,0.4172137379646301,0.16235534846782684,-0.1900429129600525
1772797360114637600,0.206637451171875,0.3907831907272339,0.1203375980257988,-0.08613701164722443
1772797360124663600,0.21666357421875,0.4017801880836487,0.11042185127735138,0.02605263888835907
1772797360134689500,0.226689453125,0.44223812222480774,0.08687631040811539,0.12660907208919525
1772797360144715800,0.2367158203125,0.49879035353660583,0.023794278502464294,0.22677402198314667
1772797360154741800,0.24674169921875,0.5414230227470398,-0.0011619371362030506,0.3508152663707733
1772797360164767700,0.256767822265625,0.5811043977737427,-0.09973298758268356,0.5588995218276978
1772797360174793700,0.266793701171875,0.6138517260551453,-0.246418297290802,0.6913225054740906
1772797360184819700,0.27681982421875,0.5974844694137573,-0.3454814851284027,0.7004566192626953
1772797360194845700,0.286845703125,0.5145599842071533,-0.38442543148994446,0.5881814956665039
1772797360204871700,0.29687158203125,0.4030103087425232,-0.34177517890930176,0.4073350131511688
1772797360214897700,0.306897705078125,0.3280889391899109,-0.2716626822948456,0.2501475214958191
1772797360224923600,0.316923583984375,0.25916099548339844,-0.31230223178863525,0.20548231899738312
1772797360234949600,0.32694970703125,0.23222844302654266,-0.3666996955871582,0.23253177106380463
1772797360244975600,0.3369755859375,0.20196188986301422,-0.41960766911506653,0.29564762115478516
1772797360255001900,0.347001953125,0.15167555212974548,-0.4570905864238739,0.38433197140693665
1772797360265027800,0.35702783203125,0.013409282080829144,-0.5182655453681946,0.47263625264167786
1772797360275053800,0.3670537109375,-0.13056014478206635,-0.4899715781211853,0.5522797107696533
1772797360285079800,0.377079833984375,-0.2653011679649353,-0.42491960525512695,0.48548468947410583
1772797360295105800,0.387105712890625,-0.3785848617553711,-0.3948383927345276,0.27900660037994385
1772797360305131800,0.3971318359375,-0.4212273955345154,-0.44096702337265015,0.07451071590185165
1772797360315157800,0.40715771484375,-0.3686555325984955,-0.5222101807594299,-0.03864699602127075
1772797360325184500,0.4171845703125,-0.23499706387519836,-0.5751708745956421,-0.08734715729951859
1772797360335210800,0.427210693359375,-0.02418603003025055,-0.5094416737556458,-0.08152309060096741
1772797360345236700,0.43723681640625,0.10539592802524567,-0.4263046979904175,0.048710014671087265
1772797360355262700,0.4472626953125,0.20010939240455627,-0.31737396121025085,0.22855781018733978
1772797360365288700,0.457288818359375,0.28685733675956726,-0.16391916573047638,0.3811052739620209
1772797360375315700,0.467315673828125,0.33544352650642395,0.04464070498943329,0.4688817262649536
1772797360385341700,0.477341796875,0.383225679397583,0.24064083397388458,0.4834175407886505
1772797360395367700,0.48736767578125,0.4481181204319,0.3714161515235901,0.44080403447151184
1772797360405393700,0.4973935546875,0.5185989737510681,0.3913147747516632,0.3816232681274414
1772797360415419600,0.507419677734375,0.5932260751724243,0.30049803853034973,0.36832717061042786
1772797360425445600,0.517445556640625,0.6431904435157776,0.13027358055114746,0.41494128108024597
1772797360435471600,0.5274716796875,0.6885839700698853,-0.03171611949801445,0.4833570718765259
1772797360445497600,0.53749755859375,0.7382226586341858,-0.18789532780647278,0.5174005031585693
1772797360455523600,0.547523681640625,0.7699396014213562,-0.306712806224823,0.5190527439117432
1772797360465549800,0.5575498046875,0.7697206735610962,-0.3928769826889038,0.47986701130867004
1772797360475575800,0.567575927734375,0.7527408599853516,-0.43754538893699646,0.44113051891326904
1772797360485601500,0.5776015625,0.725350558757782,-0.43579596281051636,0.4121127128601074
1772797360495627500,0.58762744140625,0.6884772181510925,-0.39283624291419983,0.39001619815826416
1772797360505653500,0.597653564453125,0.670281708240509,-0.2965954542160034,0.3605368733406067
1772797360515679500,0.607679443359375,0.6644728183746338,-0.19224533438682556,0.3112923800945282
1772797360525705500,0.61770556640625,0.6845519542694092,-0.0948663279414177,0.24752511084079742
1772797360535731500,0.6277314453125,0.7250176668167114,-0.003409378696233034,0.19509385526180267
1772797360545757400,0.63775732421875,0.7949546575546265,0.03483947366476059,0.1631401926279068
1772797360555783400,0.647783447265625,0.8853423595428467,0.04520396515727043,0.19015182554721832
1772797360565810700,0.657810791015625,0.9308125972747803,-0.0024868599139153957,0.21737439930438995
1772797360575836700,0.667836669921875,0.9675831198692322,-0.05391303449869156,0.2355150580406189
1772797360585862700,0.677862548828125,1.007409691810608,-0.09132538735866547,0.26424628496170044
1772797360595888600,0.687888671875,1.0175800323486328,-0.08673063665628433,0.2723263204097748
1772797360605914600,0.69791455078125,0.9941993355751038,-0.05609362944960594,0.2722565531730652
1772797360615940600,0.707940673828125,0.9791250228881836,-0.03311427682638168,0.2662343382835388
1772797360625966600,0.717966552734375,0.9487559199333191,-0.044318728148937225,0.2543332278728485
1772797360635992600,0.72799267578125,0.9432657957077026,-0.013380786404013634,0.21430696547031403
1772797360646018600,0.7380185546875,0.9596794247627258,0.07067976146936417,0.16286347806453705
1772797360656044500,0.74804443359375,0.9821367859840393,0.15395919978618622,0.133950874209404
1772797360666070800,0.75807080078125,1.022737741470337,0.22017763555049896,0.13146135210990906
1772797360676096800,0.7680966796875,1.0611135959625244,0.24296897649765015,0.12890897691249847
1772797360686122800,0.778122802734375,1.0984565019607544,0.22888298332691193,0.11129722744226456
1772797360696148700,0.788148681640625,1.1292141675949097,0.19298569858074188,0.09023775160312653
1772797360706174700,0.7981748046875,1.1591914892196655,0.1472451090812683,0.07470513135194778
1772797360716200700,0.80820068359375,1.1850254535675049,0.07566013932228088,0.05560813471674919
1772797360726226700,0.818226806640625,1.194558024406433,0.023240340873599052,0.0460500493645668
1772797360736252700,0.828252685546875,1.2014294862747192,0.0023276028223335743,0.02515994757413864
1772797360746278400,0.8382783203125,1.2049320936203003,-0.01810310408473015,-0.02521773800253868
1772797360756305700,0.8483056640625,1.19293212890625,-0.0643819198012352,-0.09787756204605103
1772797360766331600,0.85833154296875,1.1597861051559448,-0.11348528414964676,-0.1593206822872162
1772797360776357600,0.868357666015625,1.1001696586608887,-0.15201961994171143,-0.15971589088439941
1772797360786383600,0.878383544921875,1.046257734298706,-0.17563360929489136,-0.12349024415016174
1772797360796409600,0.88840966796875,1.0112196207046509,-0.17984487116336823,-0.0829891562461853
1772797360806435600,0.898435546875,1.0100784301757812,-0.13899490237236023,-0.05302753299474716
1772797360816461600,0.908461669921875,1.0289503335952759,-0.07471604645252228,-0.014431137591600418
1772797360826487600,0.918487548828125,1.0568610429763794,-0.011206049472093582,0.04519064724445343
1772797360836513500,0.928513427734375,1.0919474363327026,0.04518505558371544,0.13488563895225525
1772797360846539500,0.93853955078125,1.1344105005264282,0.08653515577316284,0.215953066945076
1772797360856565800,0.948565673828125,1.162384271621704,0.10322598367929459,0.24889902770519257
1772797360866591700,0.958591796875,1.159682035446167,0.11144264042377472,0.23247505724430084
1772797360876617700,0.96861767578125,1.1263126134872437,0.08132974058389664,0.1860007643699646
1772797360886643700,0.978643798828125,1.0744060277938843,0.05740230530500412,0.16831417381763458
1772797360896669700,0.988669677734375,1.0175679922103882,0.05638045072555542,0.18232692778110504
1772797360906695700,0.99869580078125,0.9631833434104919,0.057244911789894104,0.21198202669620514
1772797360916721700,1.0087216796875,0.9221948981285095,0.08736419677734375,0.2547808885574341
1772797360926747600,1.01874755859375,0.8976434469223022,0.05116811394691467,0.2886991798877716
1772797360936773600,1.028773681640625,0.8567982912063599,-0.040517598390579224,0.3483446538448334
1772797360946800600,1.038800537109375,0.7892932891845703,-0.10983461886644363,0.4424471855163574
1772797360956826600,1.04882666015625,0.7376841902732849,-0.05408800393342972,0.5013403296470642
1772797360966852600,1.0588525390625,0.7177722454071045,0.14053207635879517,0.3851594030857086
1772797360976878600,1.068878662109375,0.6046150326728821,0.35029008984565735,0.10855044424533844
1772797360986904600,1.078904541015625,0.4873470366001129,0.5575018525123596,-0.22158752381801605
1772797360996930600,1.0889306640625,0.4818667769432068,0.6849319934844971,-0.45363566279411316
1772797361006956500,1.09895654296875,0.536094069480896,0.6452972292900085,-0.4692700207233429
1772797361016982500,1.108982421875,0.6243983507156372,0.4345836639404297,-0.29912546277046204
1772797361027008500,1.119008544921875,0.725433349609375,0.25840386748313904,-0.012341354973614216
1772797361037034500,1.129034423828125,0.7819549441337585,0.19748537242412567,0.3110862374305725
1772797361047060500,1.139060546875,0.80777508020401,0.14553749561309814,0.5265471339225769
1772797361057086700,1.149086669921875,0.8421053886413574,0.1808083951473236,0.6503474116325378
1772797361067112700,1.15911279296875,0.9005388617515564,0.2531464993953705,0.7354133129119873
1772797361077138700,1.169138671875,0.9717464447021484,0.2741684317588806,0.7770046591758728
1772797361087164700,1.17916455078125,1.0368815660476685,0.21679435670375824,0.7844034433364868
1772797361097190700,1.189190673828125,1.0651928186416626,0.07640448957681656,0.7792699337005615
1772797361107217700,1.1992177734375,1.0683605670928955,-0.06284581124782562,0.754198431968689
1772797361117243600,1.20924365234375,1.056647539138794,-0.16082216799259186,0.6512065529823303
1772797361127269600,1.21926953125,1.0820825099945068,-0.15695393085479736,0.4167575538158417
1772797361137295400,1.22929541015625,1.1382023096084595,-0.04399941489100456,0.11637960374355316
1772797361147321600,1.239321533203125,1.1995460987091064,0.07887537032365799,-0.1187378317117691
1772797361157347600,1.24934765625,1.240298867225647,0.12633955478668213,-0.23377041518688202
1772797361167373600,1.25937353515625,1.2782760858535767,0.1218649223446846,-0.24669580161571503
1772797361177399600,1.269399658203125,1.3003818988800049,0.08526057004928589,-0.1818227916955948
1772797361187425500,1.279425537109375,1.3247830867767334,0.04355946183204651,-0.09305883944034576
1772797361197451500,1.289451416015625,1.356946587562561,0.016045546159148216,-0.021939387544989586
1772797361207477500,1.2994775390625,1.371881365776062,0.01501357089728117,-0.0015169365797191858
1772797361217503500,1.30950341796875,1.3602659702301025,0.03410949930548668,-0.011738414876163006
1772797361227529500,1.319529541015625,1.3367809057235718,0.06778544187545776,-0.029216740280389786
1772797361237555500,1.329555419921875,1.309192419052124,0.09173045307397842,-0.024178041145205498
1772797361247581700,1.339581787109375,1.2876213788986206,0.0798969641327858,0.015799203887581825
1772797361257608700,1.349608642578125,1.289324164390564,0.04394029453396797,0.08623795211315155
1772797361267634700,1.359634765625,1.3161145448684692,0.0185297429561615,0.15128672122955322
1772797361277660700,1.36966064453125,1.348789095878601,-0.006386260036379099,0.19161763787269592
1772797361287686700,1.379686767578125,1.379134178161621,-0.04652329161763191,0.20542266964912415
1772797361297712600,1.389712646484375,1.4079197645187378,-0.08307065069675446,0.2299562394618988
1772797361307738600,1.399738525390625,1.4303725957870483,-0.10522202402353287,0.2354431450366974
1772797361317764600,1.4097646484375,1.435182809829712,-0.10789131373167038,0.2058977633714676
1772797361327790600,1.41979052734375,1.423743724822998,-0.10839438438415527,0.13172820210456848
1772797361337816800,1.42981689453125,1.3846131563186646,-0.10455863177776337,0.031379494816064835
1772797361347842800,1.4398427734375,1.3474920988082886,-0.08369862288236618,-0.09757662564516068
1772797361357868500,1.44986865234375,1.314414620399475,-0.06304740905761719,-0.2557913064956665
1772797361367894500,1.45989453125,1.2898913621902466,-0.05085838586091995,-0.38575753569602966
1772797361377920800,1.469920654296875,1.2420618534088135,-0.032339829951524734,-0.43634936213493347
1772797361387946800,1.47994677734375,1.1930636167526245,0.01967490091919899,-0.4331279993057251
1772797361397972700,1.48997265625,1.1552693843841553,0.07109228521585464,-0.40449315309524536
1772797361407999700,1.499999755859375,1.1278492212295532,0.10831555724143982,-0.3658139407634735
1772797361418025700,1.510025634765625,1.0969507694244385,0.12284789234399796,-0.33009880781173706
1772797361428051700,1.5200517578125,1.0584715604782104,0.14242345094680786,-0.28985047340393066
1772797361438078000,1.530077880859375,1.0372306108474731,0.13336844742298126,-0.2540628910064697
1772797361448104000,1.54010400390625,0.9715544581413269,0.0826762393116951,-0.24993793666362762
1772797361458130000,1.5501298828125,0.9337319731712341,0.04794249311089516,-0.22939404845237732
1772797361468156000,1.560156005859375,0.9254354238510132,0.03146231919527054,-0.177994504570961
1772797361478182000,1.570181884765625,0.9546101093292236,0.008608934469521046,-0.10074978321790695
1772797361488208000,1.580207763671875,1.0150827169418335,-0.016411731019616127,-0.030704915523529053
1772797361498233900,1.59023388671875,1.0962191820144653,-0.04101587459445,0.018561434000730515
1772797361508259800,1.600259765625,1.1706550121307373,-0.07332028448581696,0.031788021326065063
1772797361518285800,1.610285888671875,1.2214385271072388,-0.11301709711551666,0.010820689611136913
1772797361528311800,1.620311767578125,1.2511951923370361,-0.15857179462909698,-0.023262178525328636
1772797361538337800,1.630337890625,1.2397286891937256,-0.2275732457637787,-0.059123773127794266
1772797361548364000,1.640364013671875,1.186877965927124,-0.2814575135707855,-0.08546696603298187
1772797361558390800,1.650390869140625,1.1080009937286377,-0.27285948395729065,-0.05439213663339615
1772797361568416800,1.660416748046875,1.0303874015808105,-0.2097252607345581,-0.042018823325634
1772797361578442800,1.67044287109375,0.9606916904449463,-0.1258668452501297,-0.011208179406821728
1772797361588468700,1.68046875,0.898921012878418,-0.06271770596504211,0.04215757176280022
1772797361598494700,1.69049462890625,0.8468974828720093,-0.05372634530067444,0.13777011632919312
1772797361608520700,1.700520751953125,0.7839179635047913,-0.07433708012104034,0.25337180495262146
1772797361618546700,1.710546630859375,0.7385174632072449,-0.11055687069892883,0.3455696403980255
1772797361628572700,1.72057275390625,0.6837064027786255,-0.14636173844337463,0.378515362739563
1772797361638599000,1.730598876953125,0.6186043620109558,-0.12492808699607849,0.2753942906856537
1772797361648625000,1.740625,0.5118891000747681,-0.11762436479330063,0.040035832673311234
1772797361658651000,1.75065087890625,0.3933403789997101,-0.15193893015384674,-0.17582029104232788
1772797361668676900,1.7606767578125,0.30469146370887756,-0.13814055919647217,-0.2879071533679962
1772797361678702800,1.770702880859375,0.25652551651000977,-0.09292461723089218,-0.2949719727039337
1772797361688728800,1.780728759765625,0.28042927384376526,-0.05451517179608345,-0.1610240340232849
1772797361698754800,1.7907548828125,0.39270174503326416,-0.007677627261728048,0.07665643095970154
1772797361708781800,1.80078173828125,0.543647050857544,-0.022836873307824135,0.3135587275028229
1772797361718807800,1.810807861328125,0.7429755926132202,-0.07244303822517395,0.5510010719299316
1772797361728833800,1.820833740234375,0.9726053476333618,-0.10628382861614227,0.7919545769691467
1772797361738859800,1.83085986328125,1.2030292749404907,-0.1066441535949707,0.9890106916427612
1772797361748885800,1.8408857421875,1.3497509956359863,-0.06281677633523941,1.1019511222839355
1772797361758911700,1.850911865234375,1.411317229270935,0.004118045791983604,1.1526153087615967
1772797361768937700,1.860937744140625,1.3856067657470703,0.016627179458737373,1.1934762001037598
1772797361778963700,1.870963623046875,1.3367973566055298,-0.005928196478635073,1.2003144025802612
1772797361788989700,1.88098974609375,1.293143391609192,-0.054426223039627075,1.1402840614318848
1772797361799015700,1.891015625,1.2868679761886597,-0.07219190150499344,0.9650576710700989
1772797361809041700,1.901041748046875,1.262276291847229,-0.042685411870479584,0.7258371114730835
1772797361819067600,1.911067626953125,1.226694107055664,-0.03164714202284813,0.4884168207645416
1772797361829093600,1.92109375,1.184332251548767,0.002746251644566655,0.3084763288497925
1772797361839120000,1.931119873046875,1.1407098770141602,0.039252862334251404,0.23125426471233368
1772797361849147000,1.94114697265625,1.1089370250701904,0.0646066889166832,0.23524527251720428
1772797361859172900,1.9511728515625,1.0928475856781006,0.07690809667110443,0.2990040183067322
1772797361869198800,1.96119873046875,1.0723623037338257,0.08552554994821548,0.38750991225242615
1772797361879224800,1.971224853515625,1.063011646270752,0.12563808262348175,0.47164928913116455
1772797361889250800,1.981250732421875,1.0568983554840088,0.19610506296157837,0.5503326654434204
1772797361899276800,1.99127685546875,1.0627543926239014,0.27209970355033875,0.5856216549873352
1772797361909302800,2.001302734375,1.0762563943862915,0.3406904637813568,0.6163766384124756
1772797361919329000,2.0113291015625,1.0813506841659546,0.35841992497444153,0.7238748669624329
1772797361929355000,2.02135498046875,1.1046611070632935,0.28602614998817444,0.8305538892745972
1772797361939381000,2.031381103515625,1.1378917694091797,0.18037723004817963,0.9048126935958862
1772797361949407000,2.041406982421875,1.1731693744659424,0.05396895855665207,0.916033148765564
1772797361959433000,2.051432861328125,1.1883866786956787,-0.03924567252397537,0.8479629755020142
1772797361969459000,2.061458984375,1.1747735738754272,-0.09496645629405975,0.7507304549217224
1772797361979484700,2.071484619140625,1.1747102737426758,-0.09590495377779007,0.6593188047409058
1772797361989510700,2.0815107421875,1.1680538654327393,-0.061655376106500626,0.5872387290000916
1772797361999537700,2.09153759765625,1.1167573928833008,-0.010460097342729568,0.5260035991668701
1772797362009564000,2.10156396484375,1.099392056465149,0.04958513006567955,0.45065054297447205
1772797362019590000,2.11158984375,1.1133936643600464,0.11165915429592133,0.37802186608314514
1772797362029615900,2.121615966796875,1.1357377767562866,0.15973639488220215,0.31270065903663635
1772797362039641900,2.131641845703125,1.1489009857177734,0.17606423795223236,0.2761245369911194
1772797362049667800,2.141667724609375,1.1786620616912842,0.15454110503196716,0.26794835925102234
1772797362059693800,2.15169384765625,1.2016438245773315,0.13330133259296417,0.2581316828727722
1772797362069719800,2.1617197265625,1.2116570472717285,0.13400574028491974,0.258373498916626
1772797362079745800,2.171745849609375,1.2103878259658813,0.12620587646961212,0.2564411163330078
1772797362089771800,2.181771728515625,1.1970964670181274,0.11030840128660202,0.2546093761920929
1772797362099797800,2.1917978515625,1.188014030456543,0.0973377376794815,0.24985671043395996
1772797362109823700,2.20182373046875,1.1707069873809814,0.09811857342720032,0.22884969413280487
1772797362119850000,2.21185009765625,1.1543772220611572,0.11103277653455734,0.20008622109889984
1772797362129876000,2.2218759765625,1.1346136331558228,0.11710638552904129,0.17067134380340576
1772797362139902000,2.23190185546875,1.1312376260757446,0.1175663098692894,0.13887053728103638
1772797362149928700,2.2419287109375,1.1311060190200806,0.08998208492994308,0.12197650223970413
1772797362159954700,2.25195458984375,1.1254914999008179,0.055927179753780365,0.12268570810556412
1772797362169980700,2.261980712890625,1.1246031522750854,0.03145432844758034,0.13767583668231964
1772797362180006700,2.272006591796875,1.1432298421859741,-0.00749120581895113,0.14735457301139832
1772797362190032600,2.28203271484375,1.1571725606918335,-0.06129344925284386,0.16746915876865387
1772797362200058600,2.29205859375,1.153424859046936,-0.08547628670930862,0.1734122633934021
1772797362210084900,2.3020849609375,1.147944450378418,-0.07830625772476196,0.16500413417816162
1772797362220110800,2.31211083984375,1.1291449069976807,-0.030409038066864014,0.12333205342292786
1772797362230136800,2.32213671875,1.0786724090576172,-0.006021939683705568,0.05805930867791176
1772797362240162800,2.332162841796875,1.0170817375183105,-0.0034000577870756388,-0.004583832807838917
1772797362250188800,2.342188720703125,0.9606837034225464,-0.003376888344064355,-0.03868880495429039
1772797362260214800,2.35221484375,0.9015133380889893,0.0010287790792062879,-0.03815058246254921
1772797362270240800,2.36224072265625,0.8664493560791016,0.012073973193764687,-0.007078415714204311
1772797362280266800,2.372266845703125,0.8154972195625305,-0.010323477908968925,0.03561951220035553
1772797362290292700,2.382292724609375,0.7440102100372314,0.00293267285451293,0.05947131663560867
1772797362300320000,2.392320068359375,0.6561064720153809,0.06202315539121628,0.04169098660349846
1772797362310346000,2.402345947265625,0.5333864092826843,0.17687144875526428,0.0035537220537662506
1772797362320372000,2.4123720703125,0.3979977071285248,0.24918213486671448,0.0665726363658905
1772797362330398000,2.42239794921875,0.3163904547691345,0.2719116806983948,0.228072851896286
1772797362340424000,2.432423828125,0.2934710383415222,0.2915434241294861,0.4045940935611725
1772797362350450000,2.442449951171875,0.314114511013031,0.30808407068252563,0.5399529933929443
1772797362360476000,2.452475830078125,0.3210214376449585,0.36376142501831055,0.6341042518615723
1772797362370501600,2.462501708984375,0.30719617009162903,0.4761979579925537,0.6109483242034912
1772797362380526800,2.47252685546875,0.3396230638027191,0.7253832817077637,0.390023410320282
1772797362390552800,2.482552734375,0.4237704575061798,1.01763916015625,0.03417528048157692
1772797362400578800,2.492578857421875,0.6482850313186646,1.1409608125686646,-0.2889593541622162
1772797362410604800,2.502604736328125,0.8107548952102661,1.0610212087631226,-0.40394800901412964
1772797362420630800,2.512630859375,0.9121084213256836,0.80589759349823,-0.26568520069122314
1772797362430656800,2.52265673828125,0.9426756501197815,0.46557170152664185,0.029220735654234886
1772797362440683500,2.53268359375,0.9375123381614685,0.1977093517780304,0.3433435261249542
1772797362450709500,2.54270947265625,0.9618328213691711,0.11567999422550201,0.5669488906860352
1772797362460735700,2.55273583984375,1.0550365447998047,0.18268965184688568,0.6421459317207336
1772797362470761700,2.56276171875,1.1578776836395264,0.2561044692993164,0.7864317297935486
1772797362480787700,2.57278759765625,1.2439210414886475,0.2636635899543762,0.958034098148346
1772797362490813700,2.582813720703125,1.3504005670547485,0.31887146830558777,0.9995338916778564
1772797362500839700,2.592839599609375,1.4251642227172852,0.3845615088939667,0.9110255837440491
1772797362510865700,2.60286572265625,1.4191151857376099,0.3783251941204071,0.7264149785041809
1772797362520891600,2.6128916015625,1.3832809925079346,0.3103448152542114,0.5122795104980469
1772797362530917600,2.622917724609375,1.356650471687317,0.2120150476694107,0.3469712734222412
1772797362540943600,2.632943603515625,1.399450659751892,0.11625923216342926,0.23426389694213867
1772797362550969600,2.642969482421875,1.454295039176941,0.060505419969558716,0.07186833024024963
1772797362560995600,2.65299560546875,1.4711085557937622,0.051892757415771484,-0.11668560653924942
1772797362571021800,2.663021728515625,1.5031280517578125,0.04777391254901886,-0.2498186230659485
1772797362581047800,2.6730478515625,1.5256145000457764,0.017424795776605606,-0.28948187828063965
1772797362591074800,2.68307470703125,1.5247963666915894,-0.07280469685792923,-0.27435219287872314
1772797362601100800,2.693100830078125,1.5080785751342773,-0.25921958684921265,-0.26235491037368774
1772797362611126800,2.703126708984375,1.474545955657959,-0.48898807168006897,-0.25602805614471436
1772797362621152500,2.713152587890625,1.4229570627212524,-0.6293931007385254,-0.23309077322483063
1772797362631178500,2.723178466796875,1.365087628364563,-0.6444830894470215,-0.18172159790992737
1772797362641204500,2.73320458984375,1.316680908203125,-0.5363047122955322,-0.11001012474298477
1772797362651230500,2.74323046875,1.277583360671997,-0.32699355483055115,-0.05186346545815468
1772797362661256700,2.753256591796875,1.2429583072662354,-0.05644383281469345,-0.05210581049323082
1772797362671282700,2.76328271484375,1.1548813581466675,0.11593405902385712,-0.021822208538651466
1772797362681308700,2.77330859375,1.0419045686721802,0.1413419544696808,0.09195175766944885
1772797362691334700,2.783334716796875,0.9618861079216003,0.1113094836473465,0.18335331976413727
1772797362701360600,2.793360595703125,0.9172757863998413,0.0749054029583931,0.17324182391166687
1772797362711386600,2.80338671875,0.8857271671295166,0.037764422595500946,0.06099943816661835
1772797362721412600,2.81341259765625,0.8553953766822815,0.0003134540456812829,-0.06063538417220116
1772797362731438600,2.8234384765625,0.8187939524650574,-0.05236174166202545,-0.13575036823749542
1772797362741465600,2.833465576171875,0.755687952041626,-0.13969478011131287,-0.11884622275829315
1772797362751491800,2.843491943359375,0.7223459482192993,-0.13741537928581238,-0.1803268939256668
1772797362761517800,2.853517822265625,0.6961806416511536,-0.045697979629039764,-0.31944218277931213
1772797362771543800,2.863543701171875,0.6676984429359436,0.05579082667827606,-0.45645567774772644
1772797362781569800,2.87356982421875,0.6608876585960388,0.12841762602329254,-0.5507633090019226
1772797362791595800,2.883595703125,0.6793670654296875,0.17028118669986725,-0.5936167240142822
1772797362801621800,2.893621826171875,0.6802866458892822,0.19159287214279175,-0.5842282772064209
1772797362811647700,2.903647705078125,0.7022862434387207,0.19573275744915009,-0.5512961745262146
1772797362821673700,2.913673828125,0.7636273503303528,0.19160617887973785,-0.49171513319015503
1772797362831699700,2.92369970703125,0.7047984004020691,0.15649133920669556,-0.42768794298171997
1772797362841725700,2.9337255859375,0.6964491009712219,0.1479625701904297,-0.36187538504600525
1772797362851751700,2.943751708984375,0.6915156245231628,0.11106766760349274,-0.2966327369213104
1772797362861777700,2.953777587890625,0.686210036277771,0.07050798833370209,-0.19936077296733856
1772797362871803600,2.9638037109375,0.6869000792503357,0.046114496886730194,-0.0804719403386116
1772797362881829600,2.97382958984375,0.6903954744338989,0.005602758377790451,0.02069009840488434
1772797362891855600,2.983855712890625,0.6788411140441895,-0.033788058906793594,0.09404473751783371
1772797362901882600,2.993882568359375,0.6614423990249634,-0.06930556893348694,0.1660504937171936
1772797362911908600,3.00390869140625,0.652504026889801,-0.10138467699289322,0.23212191462516785
1772797362921934600,3.0139345703125,0.6432636380195618,-0.15085263550281525,0.2801365852355957
1772797362931960600,3.023960693359375,0.6417976021766663,-0.19590160250663757,0.2803802490234375
1772797362941986800,3.03398681640625,0.6649817228317261,-0.20289798080921173,0.24611389636993408
1772797362952012800,3.0440126953125,0.8262004256248474,-0.0884299948811531,0.13621802628040314
1772797362962038800,3.054038818359375,0.851847231388092,-0.044137898832559586,0.0724869817495346
1772797362972064800,3.064064697265625,0.8051772117614746,-0.07728306949138641,0.08382752537727356
1772797362982090800,3.0740908203125,0.744718611240387,-0.14719371497631073,0.08161284029483795
1772797362992116700,3.08411669921875,0.6670179963111877,-0.17841288447380066,0.05469280481338501
1772797363002142700,3.094142822265625,0.6290284991264343,-0.15795554220676422,0.0011116034584119916
1772797363012168700,3.104168701171875,0.6198714971542358,-0.06649193912744522,-0.036074645817279816
1772797363022194700,3.114194580078125,0.5941714644432068,0.01570972055196762,-0.03718492016196251
1772797363032220700,3.124220703125,0.5451703667640686,0.07637466490268707,-0.039921049028635025
1772797363042246700,3.13424658203125,0.4780768156051636,0.12377866357564926,-0.057972490787506104
1772797363052273700,3.144273681640625,0.39302611351013184,0.15747937560081482,-0.09012296795845032
1772797363062299600,3.154299560546875,0.2803562879562378,0.1440434604883194,-0.10484039783477783
1772797363072325600,3.16432568359375,0.16100965440273285,0.1605215072631836,-0.13979385793209076
1772797363082351600,3.1743515625,0.01531743723899126,0.20637980103492737,-0.24936215579509735
1772797363092377600,3.184377685546875,-0.11198671907186508,0.2285309135913849,-0.3787529170513153
1772797363102403600,3.194403564453125,-0.18606014549732208,0.19548214972019196,-0.42373767495155334
1772797363112429600,3.2044296875,-0.21802181005477905,0.1578703224658966,-0.3756929337978363
1772797363122455600,3.21445556640625,-0.1940821260213852,0.09729193150997162,-0.21348218619823456
1772797363132481500,3.2244814453125,-0.03837428614497185,0.007762049324810505,0.04938539117574692
1772797363142507800,3.2345078125,0.11868031322956085,-0.0815848708152771,0.27221980690956116
1772797363152533800,3.24453369140625,0.3309749960899353,-0.1601979285478592,0.4709795117378235
1772797363162559700,3.254559814453125,0.5409721732139587,-0.22815699875354767,0.6269598007202148
1772797363172585700,3.264585693359375,0.7223968505859375,-0.20117013156414032,0.7421953082084656
1772797363182611700,3.27461181640625,0.8280417323112488,-0.13851819932460785,0.7912890911102295
1772797363192637700,3.2846376953125,0.8700670003890991,-0.11547520011663437,0.7743220925331116
1772797363202663700,3.29466357421875,0.8567250967025757,-0.11920122802257538,0.7288329005241394
1772797363212690700,3.304690673828125,0.7872639894485474,-0.11448689550161362,0.6972190141677856
1772797363222716700,3.314716552734375,0.6731469631195068,-0.12182443588972092,0.6850491762161255
1772797363232743000,3.324742919921875,0.5575734972953796,-0.16497190296649933,0.6883988976478577
1772797363242768600,3.3347685546875,0.4755723774433136,-0.22867152094841003,0.6544262766838074
1772797363252794600,3.344794677734375,0.44070228934288025,-0.22589758038520813,0.5274401307106018
1772797363262820600,3.354820556640625,0.38643187284469604,-0.13016386330127716,0.28546610474586487
1772797363272846600,3.3648466796875,0.31652361154556274,-0.030498255044221878,0.06571589410305023
1772797363282872600,3.37487255859375,0.23746341466903687,0.04711398109793663,-0.04273148626089096
1772797363292898600,3.384898681640625,0.18892811238765717,0.11029268801212311,-0.06716518849134445
1772797363302924500,3.394924560546875,0.18721435964107513,0.1618432253599167,-0.036253079771995544
1772797363312950500,3.404950439453125,0.21584361791610718,0.18845699727535248,0.03472202643752098
1772797363322976500,3.4149765625,0.27568963170051575,0.22574257850646973,0.14576280117034912
1772797363333002500,3.42500244140625,0.37036049365997314,0.26491183042526245,0.26168006658554077
1772797363343028700,3.43502880859375,0.44093266129493713,0.25099387764930725,0.42270731925964355
1772797363353054700,3.4450546875,0.49398842453956604,0.19293004274368286,0.5961536765098572
1772797363363080700,3.455080810546875,0.5388190150260925,0.14104127883911133,0.6986707448959351
1772797363373107700,3.465107666015625,0.5793392658233643,0.07173676788806915,0.7235822081565857
1772797363383134200,3.47513427734375,0.5946961045265198,-0.004229099955409765,0.6852060556411743
1772797363393160200,3.48516015625,0.5940119624137878,-0.09593132138252258,0.6064595580101013
1772797363403186200,3.495186279296875,0.6174296736717224,-0.15919658541679382,0.5253601670265198
1772797363413212400,3.50521240234375,0.6401110291481018,-0.20566314458847046,0.4225454032421112
1772797363423238400,3.51523828125,0.6473401784896851,-0.22852851450443268,0.3442327380180359
1772797363433264000,3.52526416015625,0.6675751209259033,-0.21488407254219055,0.28707411885261536
1772797363443290000,3.5352900390625,0.7074013352394104,-0.1671604961156845,0.2408648133277893
1772797363453316000,3.545316162109375,0.7312547564506531,-0.09600882232189178,0.17743097245693207
1772797363463342000,3.555342041015625,0.7588144540786743,-0.02045254409313202,0.11153052002191544
1772797363473368000,3.5653681640625,0.7865989804267883,0.036672793328762054,0.0626860186457634
1772797363483394000,3.57539404296875,0.8156743049621582,0.0884995087981224,0.0032197616528719664
1772797363493420000,3.585419921875,0.8404475450515747,0.1437087059020996,-0.03586425632238388
1772797363503446000,3.595446044921875,0.8730403780937195,0.17807891964912415,-0.052743904292583466
1772797363513472000,3.605471923828125,0.9068569540977478,0.1560330092906952,-0.05889314413070679
1772797363523498200,3.615498291015625,0.9537461400032043,0.09752016514539719,-0.06643708050251007
1772797363533525200,3.625525146484375,1.0067569017410278,0.02309652976691723,-0.07644736766815186
1772797363543551200,3.63555126953125,1.0450319051742554,-0.05259157344698906,-0.06048358231782913
1772797363553577200,3.6455771484375,1.049026370048523,-0.09463728964328766,-0.01323910616338253
1772797363563603200,3.655603271484375,1.0286136865615845,-0.13871048390865326,0.022790268063545227
1772797363573629200,3.665629150390625,0.977977991104126,-0.14967738091945648,0.01685195043683052
1772797363583655200,3.6756552734375,0.9015654921531677,-0.13450828194618225,-0.021160678938031197
1772797363593681200,3.68568115234375,0.7974534630775452,-0.12358532100915909,-0.02743402123451233
1772797363603707100,3.69570703125,0.6899906992912292,-0.06149718165397644,0.010848386213183403
1772797363613733400,3.7057333984375,0.5794638991355896,0.019482888281345367,0.045467350631952286
1772797363623759400,3.71575927734375,0.5022493004798889,0.07909588515758514,0.04458744078874588
1772797363633785300,3.725785400390625,0.45801523327827454,0.1435190886259079,0.017794976010918617
1772797363643811300,3.735811279296875,0.4335823357105255,0.19785022735595703,-0.01161830686032772
1772797363653837300,3.74583740234375,0.4377341866493225,0.21770276129245758,-0.014967763796448708
1772797363663863300,3.75586328125,0.49666088819503784,0.20152246952056885,-0.002719353651627898
1772797363673889300,3.76588916015625,0.6111912131309509,0.1982925832271576,0.018124941736459732
1772797363683915300,3.775915283203125,0.7470981478691101,0.20489881932735443,0.062250856310129166
1772797363693941000,3.78594091796875,0.8301286101341248,0.20238958299160004,0.10556477308273315
1772797363703968300,3.79596826171875,0.8521848917007446,0.19989633560180664,0.11489222943782806
1772797363713994200,3.805994140625,0.8163744211196899,0.20972579717636108,0.13536794483661652
1772797363724020200,3.816020263671875,0.7324164509773254,0.23147636651992798,0.1759617030620575
1772797363734046200,3.826046142578125,0.6068204045295715,0.2543396055698395,0.26368704438209534
1772797363744072200,3.836072265625,0.46426329016685486,0.2707555890083313,0.37694621086120605
1772797363754098200,3.84609814453125,0.34935399889945984,0.31010565161705017,0.43587052822113037
1772797363764124200,3.856124267578125,0.27066290378570557,0.4237997531890869,0.3738361895084381
1772797363774150100,3.866150146484375,0.18858589231967926,0.5266808271408081,0.21435117721557617
1772797363784176000,3.876176025390625,0.15449076890945435,0.6148216128349304,-0.024944763630628586
1772797363794202000,3.8862021484375,0.21446649730205536,0.7143236994743347,-0.22723634541034698
1772797363804228000,3.89622802734375,0.3268875777721405,0.7081558108329773,-0.2706972658634186
1772797363814254300,3.90625439453125,0.506208598613739,0.5791685581207275,-0.1336086541414261
1772797363824280300,3.9162802734375,0.7026417851448059,0.30216145515441895,0.07781357318162918
1772797363834306300,3.926306396484375,0.8133506774902344,0.15187181532382965,0.43480178713798523
1772797363844332300,3.936332275390625,0.8570747375488281,-0.029519809409976006,0.7115199565887451
1772797363854358300,3.946358154296875,0.9122895002365112,-0.08223575353622437,0.8187379837036133
1772797363864384300,3.95638427734375,0.9782711863517761,0.04645618051290512,0.8364895582199097
1772797363874410200,3.96641015625,0.9984486699104309,0.1689906120300293,0.9049868583679199
1772797363884437000,3.97643701171875,1.0233790874481201,0.26045769453048706,0.9049240350723267
1772797363894463200,3.986463134765625,1.07794189453125,0.3564571738243103,0.8118593096733093
1772797363904489200,3.9964892578125,1.1238782405853271,0.3675101101398468,0.7203627228736877
1772797363914515200,4.00651513671875,1.1637910604476929,0.0018343853298574686,0.9400500655174255
1772797363924541200,4.016541259765625,1.23200523853302,-0.3611573874950409,1.1320844888687134
1772797363934567200,4.026567138671875,1.2636009454727173,-0.38493144512176514,0.8870001435279846
1772797363944593200,4.03659326171875,1.2059235572814941,-0.2902352809906006,0.42726317048072815
1772797363954619100,4.046619140625,1.1248955726623535,-0.13721963763237,-0.0073045180179178715
1772797363964645000,4.05664501953125,1.0212804079055786,0.01629641465842724,-0.31641122698783875
1772797363974671000,4.066671142578125,0.9061040878295898,0.18474774062633514,-0.5080437660217285
1772797363984697000,4.076697021484375,0.7952702045440674,0.3023894131183624,-0.6471154093742371
1772797363994723000,4.08672314453125,0.684260368347168,0.32358047366142273,-0.7615865468978882
1772797364004749300,4.096749267578125,0.5850251317024231,0.24499456584453583,-0.8324934840202332
1772797364014775300,4.106775390625,0.5085487365722656,0.08951549977064133,-0.7851166725158691
1772797364024801300,4.11680126953125,0.4563142657279968,-0.03230760619044304,-0.6479305624961853
1772797364034827300,4.1268271484375,0.41683316230773926,-0.06304793804883957,-0.46626782417297363
1772797364044853200,4.136853271484375,0.3918873369693756,-0.029623938724398613,-0.3106287121772766
1772797364054879200,4.146879150390625,0.3824368417263031,0.06835668534040451,-0.2508404850959778
1772797364064906200,4.15690625,0.36746829748153687,0.17984113097190857,-0.2633323073387146
1772797364074932200,4.16693212890625,0.37947940826416016,0.1871453821659088,-0.20600882172584534
1772797364084958000,4.1769580078125,0.4532569646835327,0.13150262832641602,-0.1317226141691208
1772797364094984200,4.186984130859375,0.5920130014419556,0.11256089806556702,-0.14238883554935455
1772797364105010200,4.19701025390625,0.6960296630859375,0.06795375049114227,-0.19863852858543396
1772797364115036200,4.2070361328125,0.7454107999801636,-0.045097704976797104,-0.20003855228424072
1772797364125062100,4.217062255859375,0.7773234248161316,-0.17849117517471313,-0.15784555673599243
1772797364135088000,4.227088134765625,0.7960957884788513,-0.28031980991363525,-0.09278000146150589
1772797364145114000,4.237114013671875,0.780055582523346,-0.3830917179584503,0.0014543522847816348
1772797364155140000,4.24714013671875,0.8022165298461914,-0.3876771628856659,-0.010366354137659073
1772797364165166000,4.257166015625,0.8466112017631531,-0.25854501128196716,-0.05945959687232971
1772797364175192000,4.267192138671875,0.8975217938423157,-0.15309767425060272,-0.0883604884147644
1772797364185218000,4.277218017578125,0.9726420640945435,-0.05200807377696037,-0.1291651725769043
1772797364195244000,4.287244140625,1.0202505588531494,0.08940977603197098,-0.14894020557403564
1772797364205270300,4.297270263671875,1.0617003440856934,0.16789685189723969,-0.19250686466693878
1772797364215296300,4.307296142578125,1.1014211177825928,0.225144162774086,-0.2416999787092209
1772797364225322200,4.317322265625,1.1213852167129517,0.24292396008968353,-0.28154805302619934
1772797364235348200,4.32734814453125,1.136667013168335,0.23330968618392944,-0.3014136254787445
1772797364245375200,4.337375244140625,1.1340643167495728,0.21861383318901062,-0.32252904772758484
1772797364255401200,4.347401123046875,1.116796612739563,0.20947466790676117,-0.3393125534057617
1772797364265427200,4.35742724609375,1.0782960653305054,0.1823628842830658,-0.32452455163002014
1772797364275453200,4.367453125,1.020031452178955,0.1295345574617386,-0.273396372795105
1772797364285479200,4.377479248046875,0.9502901434898376,0.06727544218301773,-0.23360423743724823
1772797364295505400,4.38750537109375,0.8677388429641724,0.034579548984766006,-0.2179349958896637
1772797364305531100,4.39753125,0.7710732817649841,0.025411617010831833,-0.22703981399536133
1772797364315557000,4.40755712890625,0.6619241833686829,0.022343920543789864,-0.25626426935195923
1772797364325583000,4.4175830078125,0.5679707527160645,0.055931441485881805,-0.28594332933425903
1772797364335609000,4.427609130859375,0.4854111671447754,0.07458395510911942,-0.323038250207901
1772797364345635000,4.437635009765625,0.41441982984542847,0.043227363377809525,-0.3400734066963196
1772797364355661000,4.4476611328125,0.3402332067489624,-0.01101616583764553,-0.24715439975261688
1772797364365687000,4.45768701171875,0.26499196887016296,-0.14020824432373047,-0.07898323237895966
1772797364375713000,4.467713134765625,0.22087273001670837,-0.2975664436817169,0.03677346184849739
1772797364385739000,4.477739013671875,0.1958286315202713,-0.3949659466743469,0.06606956571340561
1772797364395765000,4.487764892578125,0.16918370127677917,-0.42667195200920105,0.019997676834464073
1772797364405791000,4.497791015625,0.12732893228530884,-0.40039002895355225,-0.04861840233206749
1772797364415817000,4.50781689453125,0.0765773355960846,-0.3685663044452667,-0.07385025173425674
1772797364425844000,4.517843994140625,0.045218877494335175,-0.30730587244033813,-0.07767961174249649
1772797364435870200,4.5278701171875,-0.04927939921617508,-0.3439357876777649,0.0255168117582798
1772797364445896200,4.537896240234375,-0.13575837016105652,-0.4099089503288269,0.14774365723133087
1772797364455922200,4.547922119140625,-0.19107381999492645,-0.4888104200363159,0.20670977234840393
1772797364465948200,4.5579482421875,-0.2282707244157791,-0.5692402720451355,0.26483485102653503
1772797364475974100,4.56797412109375,-0.2897106409072876,-0.6797921061515808,0.3576987385749817
1772797364486000000,4.578000244140625,-0.3281397819519043,-0.7996562123298645,0.4940027892589569
1772797364496026000,4.588026123046875,-0.3320397138595581,-0.9158501625061035,0.6503790616989136
1772797364506052000,4.598052001953125,-0.2676466107368469,-0.9339367747306824,0.7213440537452698
1772797364516078000,4.608078125,-0.1884620487689972,-0.8202429413795471,0.6002472043037415
1772797364526104000,4.61810400390625,-0.1782355159521103,-0.6812408566474915,0.2996636629104614
1772797364536130000,4.628130126953125,-0.2092008888721466,-0.5008378028869629,0.02610590308904648
1772797364546156300,4.63815625,-0.12974600493907928,-0.3710140287876129,-0.1685386747121811
1772797364556182300,4.648182373046875,-0.11017577350139618,-0.33192548155784607,-0.22145888209342957
1772797364566208000,4.6582080078125,-0.07482337206602097,-0.32830891013145447,-0.147697314620018
1772797364576234000,4.66823388671875,0.04134823754429817,-0.2802217900753021,-0.04449023678898811
1772797364586260000,4.678260009765625,0.21763218939304352,-0.12599600851535797,0.08893466740846634
1772797364596286000,4.688285888671875,0.40695470571517944,0.08155744522809982,0.2422959953546524
1772797364606312000,4.69831201171875,0.5746792554855347,0.22992241382598877,0.41667497158050537
1772797364616339000,4.7083388671875,0.742463231086731,0.28905656933784485,0.5496106743812561
1772797364626365000,4.718364990234375,0.8868350386619568,0.2799733281135559,0.6231128573417664
1772797364636391200,4.72839111328125,0.990669310092926,0.13124483823776245,0.7365467548370361
1772797364646417200,4.738417236328125,1.1024436950683594,-0.051114048808813095,0.8151485919952393
1772797364656443100,4.748443115234375,1.2079927921295166,-0.1681719571352005,0.7599993348121643
1772797364666469000,4.75846923828125,1.2583835124969482,-0.2526586055755615,0.6103968024253845
1772797364676495000,4.7684951171875,1.2482092380523682,-0.33953624963760376,0.4677240550518036
1772797364686521000,4.77852099609375,1.1830039024353027,-0.4280557334423065,0.40779733657836914
1772797364696547000,4.788547119140625,1.0741010904312134,-0.4340478479862213,0.37111708521842957
1772797364706573000,4.798572998046875,1.0243841409683228,-0.2008659988641739,0.15840135514736176
1772797364716599000,4.80859912109375,0.9125009775161743,0.15969298779964447,-0.14446450769901276
1772797364726625000,4.818625,0.6920756697654724,0.44906142354011536,-0.34268197417259216
1772797364736651000,4.828651123046875,0.49265363812446594,0.5690751671791077,-0.3427450954914093
1772797364746677200,4.83867724609375,0.47108468413352966,0.5983108282089233,-0.18466438353061676
1772797364756703200,4.848703125,0.5637725591659546,0.4885725975036621,0.004905010107904673
1772797364766729200,4.858729248046875,0.5873212814331055,0.6190834641456604,0.26801759004592896
1772797364776755200,4.868755126953125,0.6907216906547546,0.6201061606407166,0.5117330551147461
1772797364786781200,4.87878125,0.89937824010849,0.3695324957370758,0.6294346451759338
1772797364796807200,4.88880712890625,1.0366841554641724,0.16157610714435577,0.7745343446731567
1772797364806833200,4.898833251953125,1.0775541067123413,-0.004732703324407339,0.8906300663948059
1772797364816860000,4.90885986328125,1.1746734380722046,-0.10625027120113373,0.874632716178894
1772797364826886100,4.91888623046875,1.2410916090011597,-0.15887273848056793,0.7957149744033813
1772797364836912000,4.928912109375,1.2588809728622437,-0.20371663570404053,0.7197118401527405
1772797364846938000,4.938938232421875,1.254120111465454,-0.21471603214740753,0.6434226632118225
1772797364856964000,4.948964111328125,1.2702548503875732,-0.17533241212368011,0.579140841960907
1772797364866990000,4.958989990234375,1.3027595281600952,-0.11080428212881088,0.5176732540130615
1772797364877016000,4.96901611328125,1.3375942707061768,-0.029523802921175957,0.45520132780075073
1772797364887042000,4.9790419921875,1.3600947856903076,0.04806899279356003,0.3997921347618103
1772797364897068000,4.989068115234375,1.3841912746429443,0.12248783558607101,0.31914737820625305
1772797364907094000,4.999093994140625,1.4065730571746826,0.19129619002342224,0.24380573630332947
1772797364917120000,5.0091201171875,1.4306522607803345,0.25315237045288086,0.1932711899280548
1772797364927146000,5.01914599609375,1.451155662536621,0.2952750623226166,0.15605272352695465
1772797364937172200,5.029172119140625,1.4651737213134766,0.30716952681541443,0.13163898885250092
1772797364947198200,5.0391982421875,1.4674928188323975,0.30252230167388916,0.10272318124771118
1772797364957224200,5.04922412109375,1.4723376035690308,0.2947557270526886,0.05537484213709831
1772797364967250200,5.059250244140625,1.4666749238967896,0.29937419295310974,0.0046666571870446205
1772797364977276200,5.069276123046875,1.4361729621887207,0.31700751185417175,-0.034026142209768295
1772797364987302100,5.07930224609375,1.3841001987457275,0.3440183699131012,-0.05421610176563263
1772797364997328100,5.089328125,1.3311611413955688,0.3532075881958008,-0.06543679535388947
1772797365007354000,5.09935400390625,1.3274893760681152,0.3850507438182831,-0.08910883963108063
1772797365017380000,5.109380126953125,1.2503256797790527,0.3541034758090973,-0.07115966081619263
1772797365027407000,5.119406982421875,1.1958562135696411,0.304805189371109,-0.04776672273874283
1772797365037433000,5.12943310546875,1.2290003299713135,0.3046429753303528,-0.0667547956109047
1772797365047459000,5.139458984375,1.2320915460586548,0.27919435501098633,-0.07159562408924103
1772797365057485000,5.149485107421875,1.2700724601745605,0.2136603593826294,-0.061352573335170746
1772797365067511000,5.159510986328125,1.3202639818191528,0.13903404772281647,-0.05625368654727936
1772797365077537000,5.169537109375,1.3437250852584839,0.1012970581650734,-0.029152026399970055
1772797365087563000,5.17956298828125,1.3415268659591675,0.07750651240348816,0.0046607982367277145
1772797365097589000,5.189589111328125,1.3334934711456299,0.05573170632123947,0.024382570758461952
1772797365107615000,5.199614990234375,1.3178300857543945,0.06181063503026962,0.03050810843706131
1772797365117641000,5.209640869140625,1.2934168577194214,0.11735831946134567,0.02762124128639698
1772797365127667000,5.2196669921875,1.2745574712753296,0.18522018194198608,0.014575746841728687
1772797365137693200,5.229693115234375,1.2671277523040771,0.23969435691833496,0.04848657548427582
1772797365147719200,5.23971923828125,1.276244878768921,0.2714086174964905,0.11215290427207947
1772797365157745200,5.2497451171875,1.2890520095825195,0.2613152265548706,0.20050913095474243
1772797365167771100,5.259771240234375,1.2950315475463867,0.24561960995197296,0.27729925513267517
1772797365177797000,5.269797119140625,1.2596392631530762,0.2376253455877304,0.356591135263443
1772797365187823000,5.279822998046875,1.1656419038772583,0.2118864208459854,0.458767831325531
1772797365197849000,5.28984912109375,1.0565273761749268,0.18697121739387512,0.5619589686393738
1772797365207875000,5.299875,1.002545952796936,0.16774186491966248,0.6148828864097595
1772797365217901000,5.309901123046875,1.000679850578308,0.2111939936876297,0.5796327590942383
1772797365227927000,5.319927001953125,0.9963953495025635,0.2495536357164383,0.4069714844226837
1772797365237954000,5.3299541015625,1.031097173690796,0.3254425525665283,0.1250053197145462
1772797365247980000,5.33997998046875,1.1641731262207031,0.363391250371933,-0.13310985267162323
1772797365258006000,5.350006103515625,1.3013371229171753,0.31525275111198425,-0.16199396550655365
1772797365268032000,5.360031982421875,1.4435381889343262,0.15277943015098572,0.035833630710840225
1772797365278058000,5.37005810546875,1.540682315826416,-0.0501268170773983,0.3988858759403229
1772797365288084000,5.380083984375,1.5610123872756958,-0.15791825950145721,0.731490969657898
1772797365298110000,5.39010986328125,1.540666103363037,-0.09992712736129761,0.9095520377159119
1772797365308136000,5.400135986328125,1.5123263597488403,0.0855276808142662,0.9175924062728882
1772797365318162000,5.410161865234375,1.5166486501693726,0.279331237077713,0.8877785801887512
1772797365328188000,5.42018798828125,1.4869767427444458,0.32817840576171875,0.9850447177886963
1772797365338214100,5.430214111328125,1.518639087677002,0.2826972007751465,1.0452332496643066
1772797365348240100,5.440240234375,1.6176564693450928,0.21360816061496735,0.9578266739845276
1772797365358266000,5.45026611328125,1.7570124864578247,0.09400026500225067,0.8020312190055847
1772797365368292000,5.4602919921875,1.8562430143356323,-0.0981753021478653,0.6351982951164246
1772797365378318000,5.470318115234375,1.9161592721939087,-0.24698182940483093,0.5443565249443054
1772797365388344800,5.4803447265625,1.9189872741699219,-0.2523651421070099,0.4990484118461609
1772797365398370800,5.490370849609375,1.8652710914611816,-0.10903540998697281,0.455776572227478
1772797365408396800,5.500396728515625,1.8097261190414429,0.24483531713485718,0.2928992509841919
1772797365418422800,5.5104228515625,1.7351211309432983,0.6010570526123047,0.08836448192596436
1772797365428449000,5.520448974609375,1.6452537775039673,0.7673763036727905,-0.09727995097637177
1772797365438475000,5.53047509765625,1.5937738418579102,0.8340383768081665,-0.26536428928375244
1772797365448501000,5.5405009765625,1.5879449844360352,0.8040834069252014,-0.40832677483558655
1772797365458527000,5.55052685546875,1.6343992948532104,0.6891320943832397,-0.5092949271202087
1772797365468553700,5.5605537109375,1.6876137256622314,0.4528234004974365,-0.512778103351593
1772797365478579700,5.570579833984375,1.7402756214141846,0.20149369537830353,-0.4119015336036682
1772797365488605700,5.580605712890625,1.7989104986190796,0.05083441734313965,-0.2733803987503052
1772797365498631700,5.590631591796875,1.8153080940246582,0.05199528858065605,-0.19402539730072021
1772797365508657700,5.60065771484375,1.771624207496643,0.16155506670475006,-0.20525115728378296
1772797365518684000,5.610683837890625,1.7201005220413208,0.35219985246658325,-0.3009795546531677
1772797365528710000,5.6207099609375,1.6985654830932617,0.564258873462677,-0.41175052523612976
1772797365538735900,5.63073583984375,1.6976799964904785,0.5632708072662354,-0.3148530125617981
1772797365548761900,5.640761962890625,1.7682971954345703,0.4474363625049591,-0.13628460466861725
1772797365558787800,5.650787841796875,1.8764499425888062,0.32209041714668274,-0.01207051146775484
1772797365568813800,5.660813720703125,1.9829041957855225,0.16868914663791656,0.03292359411716461
1772797365578839800,5.67083984375,2.0633633136749268,-0.002266616327688098,0.031030353158712387
1772797365588865800,5.68086572265625,2.1014459133148193,-0.17335474491119385,0.017792312428355217
1772797365598891800,5.690891845703125,2.0898818969726562,-0.2950558662414551,0.0016186692519113421
1772797365608917800,5.700917724609375,2.0460450649261475,-0.3263107240200043,-0.020430173724889755
1772797365618943700,5.71094384765625,1.9885860681533813,-0.291283518075943,-0.06546502560377121
1772797365628970000,5.720969970703125,1.923372507095337,-0.20107930898666382,-0.1250455379486084
1772797365638996000,5.730995849609375,1.8616840839385986,-0.09859981387853622,-0.2023933231830597
1772797365649022000,5.74102197265625,1.8269155025482178,0.007031810469925404,-0.32441988587379456
1772797365659048000,5.7510478515625,1.7680108547210693,0.10112901777029037,-0.42541706562042236
1772797365669074000,5.761073974609375,1.7415698766708374,0.17057600617408752,-0.508829653263092
1772797365679100000,5.771099853515625,1.7334656715393066,0.1749260127544403,-0.5472710728645325
1772797365689126000,5.7811259765625,1.748224139213562,0.10353731364011765,-0.5255703330039978
1772797365699152600,5.791152587890625,1.7794134616851807,0.0017267935909330845,-0.43845218420028687
1772797365709179000,5.801178955078125,1.811966061592102,-0.12301061302423477,-0.2916899025440216
1772797365719204900,5.811204833984375,1.7957059144973755,-0.24257828295230865,-0.12931910157203674
1772797365729230800,5.82123095703125,1.7360438108444214,-0.3190227150917053,-0.011995410546660423
1772797365739256800,5.8312568359375,1.6488144397735596,-0.3196549713611603,0.020291956141591072
1772797365749282800,5.84128271484375,1.5461781024932861,-0.26128512620925903,-0.017359016463160515
1772797365759308800,5.851308837890625,1.4133970737457275,-0.17783764004707336,-0.08729096502065659
1772797365769334800,5.861334716796875,1.2693605422973633,-0.09980408847332001,-0.15346625447273254
1772797365779360800,5.87136083984375,1.135119915008545,-0.027636954560875893,-0.20626741647720337
1772797365789386800,5.88138671875,1.0111255645751953,0.023017434403300285,-0.24885162711143494
1772797365799412700,5.891412841796875,0.9102604389190674,0.04674912989139557,-0.2752020061016083
1772797365809438700,5.901438720703125,0.8347982168197632,0.06732204556465149,-0.2794678509235382
1772797365819465000,5.91146484375,0.7637234926223755,0.11337848752737045,-0.26707562804222107
1772797365829491000,5.921490966796875,0.7096171379089355,0.18581433594226837,-0.2538954019546509
1772797365839517000,5.931516845703125,0.6724271178245544,0.2357507348060608,-0.2478388249874115
1772797365849543000,5.94154296875,0.6428319811820984,0.23038659989833832,-0.24612641334533691
1772797365859569000,5.95156884765625,0.608117401599884,0.1828656941652298,-0.2286747246980667
1772797365869595000,5.961594970703125,0.5583434104919434,0.13666996359825134,-0.18770332634449005
1772797365879620900,5.971620849609375,0.4845469892024994,0.10248216986656189,-0.12766821682453156
1772797365889646800,5.981646728515625,0.4031812846660614,0.09640803188085556,-0.04441114142537117
1772797365899672800,5.9916728515625,0.344786673784256,0.06641737371683121,0.04060148820281029
1772797365909698800,6.00169873046875,0.3381599485874176,0.011633486486971378,0.10370615869760513
1772797365919724800,6.011724853515625,0.3770863115787506,-0.042267028242349625,0.13104483485221863
1772797365929751000,6.0217509765625,0.45386070013046265,-0.12785063683986664,0.14376968145370483
1772797365939777000,6.031777099609375,0.5416789650917053,-0.2851020395755768,0.1561688333749771
1772797365949803800,6.0418037109375,0.588245153427124,-0.4630986750125885,0.19886302947998047
1772797365959829800,6.051829833984375,0.5918899178504944,-0.5840985774993896,0.23718245327472687
1772797365969855700,6.061855712890625,0.565980076789856,-0.5538605451583862,0.14648877084255219
1772797365979881700,6.0718818359375,0.4693576395511627,-0.4664912819862366,-0.05667659640312195
1772797365989907700,6.08190771484375,0.30805715918540955,-0.39477473497390747,-0.2020263373851776
1772797365999933700,6.09193359375,0.1490480750799179,-0.3559221625328064,-0.22468876838684082
1772797366009959700,6.101959716796875,0.050282612442970276,-0.29858243465423584,-0.17238108813762665
1772797366019986000,6.11198583984375,0.010995659045875072,-0.3094891309738159,-0.014375210739672184
1772797366030012000,6.122011962890625,0.05752720683813095,-0.34051042795181274,0.2372964471578598
1772797366040038000,6.132037841796875,0.18562285602092743,-0.38930702209472656,0.5320689678192139
1772797366050064000,6.14206396484375,0.3789885938167572,-0.4179335832595825,0.7718434929847717
1772797366060089900,6.15208984375,0.6899304986000061,-0.28377339243888855,0.785507321357727
1772797366070115800,6.16211572265625,0.9324280619621277,-0.10440949350595474,0.7287449836730957
1772797366080141800,6.172141845703125,1.0392704010009766,-0.008654474280774593,0.7239547967910767
1772797366090167800,6.182167724609375,1.046126365661621,0.019233616068959236,0.7663896083831787
1772797366100193800,6.19219384765625,1.0109751224517822,0.02911847084760666,0.789240837097168
1772797366110219800,6.2022197265625,1.0079079866409302,0.009652094915509224,0.7606467604637146
1772797366120245800,6.212245849609375,1.0057339668273926,-0.06279148161411285,0.7127916216850281
1772797366130272000,6.22227197265625,1.0069907903671265,-0.1589675396680832,0.6801854372024536
1772797366140298000,6.232298095703125,0.9838409423828125,-0.2527443766593933,0.6367205381393433
1772797366150324000,6.242323974609375,0.9487401843070984,-0.30989953875541687,0.5517702102661133
1772797366160350000,6.252349853515625,0.9004725217819214,-0.35741886496543884,0.4761585593223572
1772797366170376000,6.2623759765625,0.8498503565788269,-0.44493645429611206,0.4488033652305603
1772797366180402000,6.27240185546875,0.8039212226867676,-0.5240113139152527,0.4638310372829437
1772797366190428000,6.282427978515625,0.7628875374794006,-0.51398766040802,0.5122840404510498
1772797366200453600,6.29245361328125,0.7424418926239014,-0.3982861340045929,0.5488748550415039
1772797366210481000,6.30248095703125,0.7249560952186584,-0.19910964369773865,0.5529955625534058
1772797366220507000,6.3125068359375,0.71160888671875,0.031731829047203064,0.5384887456893921
1772797366230532900,6.322532958984375,0.6992614269256592,0.25982919335365295,0.5258845686912537
1772797366240558800,6.332558837890625,0.7047792077064514,0.4023836553096771,0.539758026599884
1772797366250584800,6.342584716796875,0.7244488000869751,0.4067919850349426,0.5727362036705017
1772797366260610800,6.35261083984375,0.7682836055755615,0.3187124729156494,0.5928266048431396
1772797366270636800,6.36263671875,0.8541297912597656,0.22419501841068268,0.5757914185523987
1772797366280662800,6.372662841796875,0.8346226811408997,0.05162031576037407,0.5965573787689209
1772797366290688800,6.382688720703125,0.8846416473388672,-0.0008562062866985798,0.5657209157943726
1772797366300714800,6.39271484375,0.9684990048408508,0.043001264333724976,0.47468501329421997
1772797366310740700,6.40274072265625,0.9537845253944397,0.04969272017478943,0.3953353464603424
1772797366320767000,6.41276708984375,0.8504786491394043,-0.007879228331148624,0.3501388430595398
1772797366330793000,6.42279296875,0.9049777984619141,0.02906866930425167,0.25053635239601135
1772797366340819000,6.43281884765625,0.9416223764419556,0.07350137829780579,0.1339426189661026
1772797366350845000,6.442844970703125,0.9615374803543091,0.08515564352273941,0.042131207883358
1772797366360871000,6.452870849609375,0.9963710904121399,0.058096326887607574,-0.029440179467201233
1772797366370897000,6.46289697265625,1.0256824493408203,0.05776183307170868,-0.0656232163310051
1772797366380923000,6.4729228515625,1.043785810470581,0.07038521766662598,-0.05607738345861435
1772797366390947800,6.48294775390625,1.0569097995758057,0.08399583399295807,-0.02858210913836956
1772797366400973800,6.492973876953125,1.0621058940887451,0.10298896580934525,-0.017412014305591583
1772797366410999800,6.502999755859375,1.067642092704773,0.11334387212991714,-0.038300517946481705
1772797366421025800,6.51302587890625,1.085706353187561,0.11011824756860733,-0.0774678960442543
1772797366431051800,6.5230517578125,1.094704031944275,0.07676348835229874,-0.10209228098392487
1772797366441077800,6.533077880859375,1.083409070968628,0.01967330276966095,-0.09439308196306229
1772797366451103700,6.543103759765625,1.071276307106018,-0.05451676994562149,-0.06663229316473007
1772797366461129700,6.553129638671875,1.0480835437774658,-0.12113095074892044,-0.0395873561501503
1772797366471155700,6.56315576171875,1.035868763923645,-0.17155684530735016,-0.01823573000729084
1772797366481181700,6.573181640625,1.002026081085205,-0.21462681889533997,-0.0005198490689508617
1772797366491208700,6.583208740234375,0.9429867267608643,-0.21853207051753998,0.013347230851650238
1772797366501234700,6.593234619140625,0.8294900059700012,-0.18393628299236298,0.02334100939333439
1772797366511260700,6.6032607421875,0.71944659948349,-0.11548877507448196,0.009110407903790474
1772797366521286700,6.61328662109375,0.6108875870704651,-0.023140739649534225,-0.028363464400172234
1772797366531312600,6.623312744140625,0.508678138256073,0.09940914809703827,-0.07942957431077957
1772797366541338600,6.633338623046875,0.4098831117153168,0.21219614148139954,-0.1253020018339157
1772797366551364600,6.643364501953125,0.31524741649627686,0.30474498867988586,-0.15036021173000336
1772797366561390600,6.653390625,0.23082523047924042,0.32573363184928894,-0.1404055804014206
1772797366571416600,6.66341650390625,0.15284813940525055,0.2760630249977112,-0.09849701076745987
1772797366581442800,6.67344287109375,0.10683776438236237,0.18282733857631683,-0.027816716581583023
1772797366591468800,6.68346875,0.08953574299812317,0.09449321776628494,0.03292146325111389
1772797366601494800,6.693494873046875,0.0688278004527092,0.02564357779920101,0.07014286518096924
1772797366611520800,6.703520751953125,0.03357580304145813,0.010889665223658085,0.07719651609659195
1772797366621546800,6.713546630859375,-0.021457089111208916,0.045044705271720886,0.06737983971834183
1772797366631572700,6.72357275390625,-0.09365538507699966,0.07400045543909073,0.09044601023197174
1772797366641598700,6.7335986328125,-0.15459570288658142,0.10076949000358582,0.15328621864318848
1772797366651624700,6.743624755859375,-0.20599977672100067,0.14310842752456665,0.20873190462589264
1772797366661650700,6.753650634765625,-0.22957779467105865,0.21712033450603485,0.1876188963651657
1772797366671676700,6.7636767578125,-0.2099609524011612,0.33174943923950195,0.07140414416790009
1772797366681702700,6.77370263671875,-0.18553496897220612,0.5053592920303345,-0.10867641121149063
1772797366691729000,6.78372900390625,-0.12625060975551605,0.651317298412323,-0.3486621081829071
1772797366701755000,6.7937548828125,-0.04426386579871178,0.7114416360855103,-0.5163954496383667
1772797366711780900,6.80378076171875,0.016502544283866882,0.6704963445663452,-0.49434155225753784
1772797366721806800,6.813806884765625,0.10880690813064575,0.45137250423431396,-0.3494187295436859
1772797366731832800,6.823832763671875,0.132808119058609,0.35518205165863037,-0.10428379476070404
1772797366741858800,6.83385888671875,0.09424766898155212,0.3493947386741638,0.2753620743751526
1772797366751884800,6.843884765625,0.08634740859270096,0.2788390815258026,0.5757604837417603
1772797366761910800,6.853910888671875,0.16104614734649658,0.25300776958465576,0.8798354268074036
1772797366771936800,6.863936767578125,0.2512519359588623,0.2094200700521469,1.1417828798294067
1772797366781962800,6.873962646484375,0.3404103219509125,0.15404096245765686,1.33713698387146
1772797366791989800,6.88398974609375,0.46547314524650574,0.06713403016328812,1.3650559186935425
1772797366802015700,6.894015625,0.6551187038421631,0.07765591144561768,1.1141119003295898
1772797366812041700,6.904041748046875,0.7730005979537964,0.2640092670917511,0.748080849647522
1772797366822067700,6.914067626953125,0.8093290328979492,0.4538457989692688,0.42544662952423096
1772797366832093700,6.92409375,0.8025518655776978,0.5285575985908508,0.21610380709171295
1772797366842119700,6.93411962890625,0.7855217456817627,0.5149120688438416,0.14811091125011444
1772797366852145700,6.944145751953125,0.7712154984474182,0.4502260088920593,0.15328861773014069
1772797366862171600,6.954171630859375,0.7858660817146301,0.4020121395587921,0.13361531496047974
1772797366872197600,6.96419775390625,0.8119376301765442,0.3800884783267975,0.030492927879095078
1772797366882223900,6.974223876953125,0.8188738226890564,0.3445259630680084,-0.12395283579826355
1772797366892249900,6.984249755859375,0.7927879095077515,0.3020229637622833,-0.25902116298675537
1772797366902275800,6.99427587890625,0.7594954371452332,0.23206652700901031,-0.35783615708351135
1772797366912301800,7.0043017578125,0.738875150680542,0.08627283573150635,-0.436610609292984
1772797366922327800,7.014327880859375,0.7164816856384277,-0.10409870743751526,-0.5007659196853638
1772797366932353800,7.024353759765625,0.6964626908302307,-0.2482316493988037,-0.538628876209259
1772797366942379800,7.0343798828125,0.685461163520813,-0.3176458775997162,-0.5412722826004028
1772797366952405800,7.04440576171875,0.6798682808876038,-0.26403990387916565,-0.516818106174469
1772797366962431700,7.054431640625,0.6980164051055908,-0.07739093154668808,-0.4877038896083832
1772797366972457700,7.064457763671875,0.7313258647918701,0.2255961149930954,-0.46287044882774353
1772797366982483700,7.074483642578125,0.7818641662597656,0.46510961651802063,-0.4815799593925476
1772797366992510000,7.084510009765625,0.8155315518379211,0.6236963272094727,-0.5057516098022461
1772797367002536000,7.094535888671875,0.8203686475753784,0.6747363805770874,-0.5183278322219849
1772797367012562000,7.10456201171875,0.7958084344863892,0.59056156873703,-0.48229554295539856
1772797367022588000,7.114587890625,0.7486811280250549,0.3828728199005127,-0.3667431175708771
1772797367032613600,7.124613525390625,0.6800176501274109,0.036433376371860504,-0.19603341817855835
1772797367042639600,7.1346396484375,0.6369810104370117,-0.17474038898944855,-0.11113930493593216
1772797367052665600,7.14466552734375,0.5683406591415405,-0.3431496322154999,-0.1532992720603943
1772797367062691600,7.154691650390625,0.49287253618240356,-0.3670578896999359,-0.22433163225650787
1772797367072717600,7.164717529296875,0.39678171277046204,-0.270551860332489,-0.23043426871299744
1772797367082743600,7.17474365234375,0.39189082384109497,-0.27490532398223877,-0.316655695438385
1772797367092769500,7.18476953125,0.4205125868320465,-0.13284459710121155,-0.3617193102836609
1772797367102796800,7.194796875,0.4552711248397827,-0.041304562240839005,-0.4004315733909607
1772797367112822800,7.20482275390625,0.5068855881690979,0.01576937548816204,-0.4268229603767395
1772797367122848800,7.214848876953125,0.5505465269088745,0.03087615594267845,-0.3944668769836426
1772797367132874800,7.224874755859375,0.5750763416290283,-0.027667580172419548,-0.2931613028049469
1772797367142900700,7.234900634765625,0.5806527137756348,-0.11771837621927261,-0.14872236549854279
1772797367152926700,7.2449267578125,0.5650383830070496,-0.19419850409030914,-0.030770961195230484
1772797367162952700,7.25495263671875,0.52242511510849,-0.25156351923942566,0.011518438346683979
1772797367172978700,7.264978759765625,0.4628171920776367,-0.28750449419021606,-0.023729298263788223
1772797367183004700,7.275004638671875,0.3659351170063019,-0.2796420454978943,-0.11387064307928085
1772797367193031000,7.285031005859375,0.22283653914928436,-0.22695352137088776,-0.2253606915473938
1772797367203057000,7.295056884765625,0.07034900039434433,-0.1343066692352295,-0.31349319219589233
1772797367213083000,7.305082763671875,-0.09589723497629166,-0.06706425547599792,-0.3126756250858307
1772797367223108900,7.31510888671875,-0.23212164640426636,-0.007059773895889521,-0.29015618562698364
1772797367233134800,7.325134765625,-0.3337603807449341,0.06043138727545738,-0.2714645266532898
1772797367243160800,7.335160888671875,-0.40861573815345764,0.127900168299675,-0.279185026884079
1772797367253186800,7.345186767578125,-0.4550495445728302,0.13196443021297455,-0.3414153754711151
1772797367263212800,7.355212890625,-0.47591301798820496,0.09622161090373993,-0.37849563360214233
1772797367273238800,7.36523876953125,-0.467359721660614,0.022297048941254616,-0.3727560043334961
1772797367283264500,7.375264404296875,-0.39847201108932495,-0.06052406504750252,-0.31270837783813477
1772797367293290500,7.38529052734375,-0.3476266860961914,-0.17371000349521637,-0.2424674928188324
1772797367303316700,7.395316650390625,-0.33362671732902527,-0.2707816958427429,-0.17382772266864777
1772797367313342700,7.4053427734375,-0.34267398715019226,-0.3210645616054535,-0.08754263073205948
1772797367323368700,7.41536865234375,-0.35302597284317017,-0.3182120621204376,0.01498054713010788
1772797367333394700,7.425394775390625,-0.351018488407135,-0.29676827788352966,0.12040630728006363
1772797367343420700,7.435420654296875,-0.3362310230731964,-0.25247353315353394,0.1953204870223999
1772797367353446700,7.44544677734375,-0.3065356910228729,-0.21697066724300385,0.24941116571426392
1772797367363472600,7.45547265625,-0.24653494358062744,-0.20384767651557922,0.3007020354270935
1772797367373498600,7.46549853515625,-0.16987904906272888,-0.21261878311634064,0.33155742287635803
1772797367383526000,7.47552587890625,-0.13391119241714478,-0.26009923219680786,0.3550283908843994
1772797367393552000,7.4855517578125,-0.16327308118343353,-0.2745916247367859,0.35983806848526
1772797367403577900,7.495577880859375,-0.2281056046485901,-0.2174404412508011,0.2514314353466034
1772797367413603800,7.505603759765625,-0.3335105776786804,-0.07963836938142776,0.0023393207229673862
1772797367423630600,7.515630615234375,-0.5068480372428894,-0.008716792799532413,-0.3146143853664398
1772797367433655800,7.52565576171875,-0.6602692604064941,0.007704258430749178,-0.5017374157905579
1772797367443682800,7.535682861328125,-0.7320670485496521,0.0521036796271801,-0.540796160697937
1772797367453708800,7.545708740234375,-0.7354340553283691,0.048476722091436386,-0.4419401288032532
1772797367463734800,7.55573486328125,-0.6092724204063416,-0.04526015743613243,-0.13966016471385956
1772797367473760800,7.5657607421875,-0.4041365683078766,-0.14342373609542847,0.16024160385131836
1772797367483786800,7.575786865234375,-0.13891926407814026,-0.22242188453674316,0.4278509318828583
1772797367493812700,7.585812744140625,0.09838835150003433,-0.25984328985214233,0.6360408663749695
1772797367503838700,7.595838623046875,0.28217843174934387,-0.1993945986032486,0.7479487657546997
1772797367513864700,7.60586474609375,0.39390814304351807,-0.10135911405086517,0.7709760665893555
1772797367523890700,7.615890625,0.4164794981479645,0.01577257178723812,0.7562077641487122
1772797367533916700,7.625916748046875,0.3870806097984314,0.13015294075012207,0.7365533709526062
1772797367543943000,7.63594287109375,0.3221876323223114,0.2233276218175888,0.6893746852874756
1772797367553969000,7.645968994140625,0.21314769983291626,0.2734150290489197,0.5929632186889648
1772797367563995000,7.655994873046875,0.12015277147293091,0.2720909118652344,0.4552844166755676
1772797367574020900,7.666020751953125,0.06579126417636871,0.2044607251882553,0.35382145643234253
1772797367584046800,7.676046875,0.0372360534965992,0.05017581954598427,0.32512322068214417
1772797367594072800,7.68607275390625,-0.021806495264172554,-0.13078251481056213,0.3396078944206238
1772797367604098800,7.696098876953125,-0.05931711941957474,-0.30463898181915283,0.33307409286499023
1772797367614124800,7.706124755859375,-0.10432161390781403,-0.48002225160598755,0.3019755780696869
1772797367624150800,7.71615087890625,-0.13313008844852448,-0.5647725462913513,0.2703814208507538
1772797367634176800,7.7261767578125,-0.1456591933965683,-0.5573782920837402,0.2690035104751587
1772797367644202800,7.73620263671875,-0.14140373468399048,-0.5866413712501526,0.2417559027671814
1772797367654229000,7.74622900390625,-0.13685691356658936,-0.5210309624671936,0.18492324650287628
1772797367664255000,7.7562548828125,-0.15928712487220764,-0.379860520362854,0.07830306142568588
1772797367674281000,7.766281005859375,-0.1858827769756317,-0.17309056222438812,-0.06932288408279419
1772797367684307000,7.776306884765625,-0.17818544805049896,0.0371236652135849,-0.1639055758714676
1772797367694333000,7.7863330078125,-0.14710237085819244,0.23832069337368011,-0.14161892235279083
1772797367704359000,7.79635888671875,-0.08505843579769135,0.38079607486724854,0.004522047471255064
1772797367714385000,7.806385009765625,-0.016349678859114647,0.41640734672546387,0.16502010822296143
1772797367724411000,7.816410888671875,0.03568129986524582,0.37588679790496826,0.26388198137283325
1772797367734436900,7.826436767578125,0.0806727409362793,0.2524101436138153,0.26411688327789307
1772797367744462800,7.836462890625,0.10794936865568161,0.11016778647899628,0.21182996034622192
1772797367754488800,7.84648876953125,0.10950225591659546,-0.03370842710137367,0.1296868920326233
1772797367764514800,7.856514892578125,0.10745029151439667,-0.15277303755283356,0.0765826553106308
1772797367774541800,7.866541748046875,0.1012379378080368,-0.20323993265628815,0.07872969657182693
1772797367784567800,7.87656787109375,0.12156664580106735,-0.2010878324508667,0.1298554688692093
1772797367794593800,7.88659375,0.1630171537399292,-0.1789788007736206,0.1922788918018341
1772797367804619800,7.896619873046875,0.2014087438583374,-0.114484503865242,0.21961943805217743
1772797367814645800,7.906645751953125,0.22614498436450958,-0.021737253293395042,0.1851687878370285
1772797367824671700,7.916671630859375,0.23415550589561462,0.07693419605493546,0.09230170398950577
1772797367834697700,7.92669775390625,0.22466027736663818,0.15831001102924347,-0.029333388432860374
1772797367844723700,7.9367236328125,0.194603830575943,0.22238193452358246,-0.10369523614645004
1772797367854750000,7.94675,0.19613994657993317,0.2492111623287201,-0.10738051682710648
1772797367864776000,7.95677587890625,0.24025706946849823,0.2434997409582138,-0.04771159589290619
1772797367874802000,7.966802001953125,0.3019268214702606,0.21861782670021057,0.028660673648118973
1772797367884828000,7.976827880859375,0.37166863679885864,0.18608678877353668,0.055326636880636215
1772797367894854000,7.98685400390625,0.4433942139148712,0.09236321598291397,-0.01727592572569847
1772797367904879900,7.9968798828125,0.5070719718933105,-0.02226589061319828,-0.14212438464164734
1772797367914905900,8.00690576171875,0.5524085760116577,-0.15172934532165527,-0.18025046586990356
1772797367924931800,8.016931884765626,0.609468400478363,-0.2662053108215332,-0.0757882371544838
1772797367934957800,8.026957763671875,0.6474077701568604,-0.29773423075675964,0.13872912526130676
1772797367944983800,8.03698388671875,0.6830995082855225,-0.30073079466819763,0.3260098099708557
1772797367955009800,8.047009765625,0.7000872492790222,-0.2509816288948059,0.40347424149513245
1772797367965036000,8.0570361328125,0.694718599319458,-0.209059476852417,0.3638807535171509
1772797367975062000,8.06706201171875,0.6689453125,-0.15174585580825806,0.20309984683990479
1772797367985087700,8.077087646484374,0.6473507881164551,-0.12647831439971924,-0.023973509669303894
1772797367995113700,8.08711376953125,0.6239773035049438,-0.09849701076745987,-0.20337069034576416
1772797368005139700,8.0971396484375,0.6192214488983154,-0.10842953622341156,-0.2668343484401703
1772797368015165700,8.107165771484375,0.612540602684021,-0.14882169663906097,-0.2050865739583969
1772797368025191700,8.117191650390625,0.5766734480857849,-0.17903660237789154,-0.06421041488647461
1772797368035217700,8.1272177734375,0.5214815735816956,-0.21178708970546722,0.07674777507781982
1772797368045243600,8.13724365234375,0.45237332582473755,-0.22943425178527832,0.16700789332389832
1772797368055269600,8.14726953125,0.39884963631629944,-0.19606883823871613,0.21847161650657654
1772797368065295600,8.157295654296876,0.3789544999599457,-0.05571146681904793,0.22963665425777435
1772797368075321900,8.16732177734375,0.3961974084377289,0.14131717383861542,0.1865408569574356
1772797368085347800,8.177347900390625,0.4066644310951233,0.31507351994514465,0.11765871942043304
1772797368095373800,8.187373779296875,0.3932575583457947,0.41479557752609253,0.03810477629303932
1772797368105399800,8.19739990234375,0.3829457759857178,0.49774426221847534,-0.04668761044740677
1772797368115425800,8.20742578125,0.3996049165725708,0.5504234433174133,-0.18288832902908325
1772797368125451800,8.21745166015625,0.42494091391563416,0.5400674939155579,-0.3259626626968384
1772797368135477800,8.227477783203126,0.4339351952075958,0.48774755001068115,-0.3714078962802887
1772797368145504800,8.2375048828125,0.46056175231933594,0.4104602336883545,-0.30009591579437256
1772797368155530800,8.24753076171875,0.4925154149532318,0.38923269510269165,-0.10820529609918594
1772797368165557000,8.257556884765625,0.4749353528022766,0.22241230309009552,0.2017246037721634
1772797368175583000,8.2675830078125,0.5164614915847778,0.061829011887311935,0.4557081460952759
1772797368185609000,8.27760888671875,0.5770502686500549,0.10257884114980698,0.5706453919410706
1772797368195635000,8.287635009765625,0.614407479763031,0.22675351798534393,0.5540757179260254
1772797368205661000,8.297660888671874,0.6524600982666016,0.26918327808380127,0.4491828680038452
1772797368215687000,8.30768701171875,0.7050681710243225,0.24330106377601624,0.3091770112514496
1772797368225713000,8.317712890625,0.7822721600532532,0.2260666936635971,0.16202352941036224
1772797368235739000,8.32773876953125,0.8756763935089111,0.21675068140029907,0.025657426565885544
1772797368245764600,8.3377646484375,0.9479966759681702,0.2593095898628235,-0.07000358402729034
1772797368255790600,8.34779052734375,0.9838710427284241,0.2956833243370056,-0.10146243870258331
1772797368265816800,8.35781689453125,1.0076919794082642,0.20618805289268494,-0.04856300726532936
