time,seconds_elapsed,z,y,x
1772796987748715800,0.1007158203125,0.0019278877880424261,0.0007176008075475693,0.02568010985851288
1772796987758741000,0.110740966796875,-0.000854849349707365,0.008153412491083145,0.027465226128697395
1772796987768766000,0.120765869140625,-0.003519593272358179,0.0052228509448468685,0.021547824144363403
1772796987778792000,0.1307919921875,-0.004356891382485628,-0.000713068526238203,0.015128007158637047
1772796987788817000,0.14081689453125,-0.0013078746851533651,0.002396221272647381,0.017832495272159576
1772796987798843000,0.1508427734375,-0.0007877594325691462,0.004971764516085386,0.02947184070944786
1772796987808867800,0.160867919921875,0.002927185036242008,0.007614280097186565,0.0353056825697422
1772796987818893800,0.170893798828125,0.004069947637617588,0.004814232233911753,0.04130418598651886
1772796987828919000,0.1809189453125,0.000432019354775548,0.002144749742001295,0.027983225882053375
1772796987838945000,0.190945068359375,-0.0028031887486577034,-0.0011599669232964516,0.01844484731554985
1772796987848970000,0.200969970703125,-0.0038898519705981016,0.0015860972926020622,0.008326088078320026
1772796987858996000,0.210995849609375,-0.004162292927503586,0.0017682577017694712,0.0027662066277116537
1772796987869021000,0.22102099609375,-0.0037112266290932894,-0.004821368493139744,-0.0024204691872000694
1772796987879046000,0.2310458984375,-0.006077711470425129,-0.00600301381200552,-0.007760906126350164
1772796987889071900,0.24107177734375,-0.010242529213428497,0.0002627819776535034,-0.003957629203796387
1772796987899096800,0.251096923828125,-0.017751842737197876,0.0074048470705747604,0.004107487387955189
1772796987909122800,0.261122802734375,-0.020371917635202408,0.011143157258629799,0.00810050405561924
1772796987919147800,0.271147705078125,-0.027140075340867043,0.013919235207140446,0.01126114372164011
1772796987929174000,0.281174072265625,-0.03277409449219704,0.014037616550922394,0.0039210193790495396
1772796987939198700,0.29119873046875,-0.03895023092627525,0.014396877028048038,-0.00354701722972095
1772796987949225000,0.301224853515625,-0.03986750915646553,0.014648616313934326,-0.008282790891826153
1772796987959249700,0.311249755859375,-0.038822486996650696,0.013278153724968433,-0.006876375526189804
1772796987969276000,0.32127587890625,-0.03616541996598244,0.009959015995264053,-0.013458097353577614
1772796987979300900,0.33130078125,-0.03541893512010574,0.00410192646086216,-0.025739796459674835
1772796987989325800,0.341325927734375,-0.03129865974187851,-0.006693818606436253,-0.03941165283322334
1772796987999351800,0.351351806640625,-0.028020842000842094,-0.005040794610977173,-0.039057184010744095
1772796988009377300,0.361377197265625,-0.027801692485809326,0.011601071804761887,-0.030494336038827896
1772796988019403500,0.371403564453125,-0.0274666678160429,0.023439355194568634,-0.015454668551683426
1772796988029428200,0.38142822265625,-0.02739245817065239,0.018352797254920006,-0.004326728172600269
1772796988039454500,0.391454345703125,-0.022723671048879623,0.014007051475346088,-0.007924925535917282
1772796988049479200,0.401479248046875,-0.02188226208090782,0.006848099175840616,-0.02491493709385395
1772796988059505400,0.41150537109375,-0.022146182134747505,0.003358026733621955,-0.03988083824515343
1772796988069530400,0.4215302734375,-0.01993492990732193,-0.009356210008263588,-0.04744180291891098
1772796988079556400,0.431556396484375,-0.01650531031191349,-0.01629321090877056,-0.04898057505488396
1772796988089581300,0.441581298828125,-0.013800138607621193,-0.013534090481698513,-0.0407942533493042
1772796988099606300,0.451606201171875,-0.012319155037403107,-0.005076423287391663,-0.024112746119499207
1772796988109632300,0.46163232421875,-0.009692045859992504,-0.0019412594847381115,-0.006244282238185406
1772796988119657200,0.4716572265625,-0.0018519661389291286,-0.003523976542055607,0.013812516815960407
1772796988129683200,0.48168310546875,0.005130531266331673,-0.0048006391152739525,0.02905256673693657
1772796988139708200,0.491708251953125,0.009275209158658981,-0.004629930481314659,0.03639410063624382
1772796988149734100,0.501734130859375,0.008663548156619072,-0.004672893323004246,0.03462227061390877
1772796988159759400,0.51175927734375,0.01100180298089981,-0.011993390507996082,0.027861833572387695
1772796988169785300,0.521785400390625,0.007526658475399017,-0.015339672565460205,0.02192392572760582
1772796988179810300,0.531810302734375,0.006645152345299721,-0.007263103500008583,0.026824407279491425
1772796988189836300,0.541836181640625,0.005968628451228142,0.0008276859298348427,0.03456956893205643
1772796988199861200,0.551861328125,0.006934024393558502,-0.004370005801320076,0.02862406149506569
1772796988209886200,0.56188623046875,0.01237823162227869,-0.00936761312186718,0.02144836261868477
1772796988219912200,0.571912109375,0.011213631369173527,-0.015647346153855324,0.015413107350468636
1772796988229937400,0.5819375,0.007581848651170731,-0.023304961621761322,0.0026022219099104404
1772796988239963400,0.59196337890625,0.003869402687996626,-0.02605734020471573,-0.008737784810364246
1772796988249988400,0.60198828125,0.0034937895834445953,-0.025610893964767456,-0.01239931769669056
1772796988260014300,0.612014404296875,-0.0008186670020222664,-0.0194331593811512,-0.007600834593176842
1772796988270039300,0.622039306640625,0.0009809753391891718,-0.009481871500611305,0.0015052186790853739
1772796988280065300,0.632065185546875,0.0010760501027107239,-0.0032569989562034607,0.016117185354232788
1772796988290090200,0.64209033203125,0.009066080674529076,0.001108701340854168,0.02627595327794552
1772796988300116200,0.6521162109375,0.009917760267853737,0.00867207907140255,0.027822449803352356
1772796988310141400,0.662141357421875,0.012596314772963524,0.009033270180225372,0.02418181672692299
1772796988320167400,0.67216748046875,0.015005144290626049,0.004866222385317087,0.015458631329238415
1772796988330192400,0.6821923828125,0.018574679270386696,0.0013243933208286762,0.01104792021214962
1772796988340218400,0.69221826171875,0.016082758083939552,0.003755593206733465,0.00837037805467844
1772796988350243300,0.702243408203125,0.01993613876402378,0.0071734278462827206,0.0030832982156425714
1772796988360268300,0.712268310546875,0.0196240171790123,0.006509501487016678,0.002908861031755805
1772796988370294300,0.722294189453125,0.018295450136065483,-0.004194612614810467,0.0031689265742897987
1772796988380319200,0.7323193359375,0.01315901055932045,-0.004687031731009483,0.010083558037877083
1772796988390345200,0.74234521484375,0.008988811634480953,0.0046560801565647125,0.02200562134385109
1772796988400370400,0.752370361328125,0.004887810442596674,0.005124796647578478,0.03049764409661293
1772796988410396400,0.762396484375,0.004158074501901865,0.007569349370896816,0.035784002393484116
1772796988420421400,0.77242138671875,0.0017796054016798735,0.00366755248978734,0.027363352477550507
1772796988430447400,0.782447265625,-0.0014713455457240343,-0.0020978874526917934,0.020593848079442978
1772796988440472300,0.792472412109375,-0.0015017057303339243,-0.009960870258510113,0.012613153085112572
1772796988450498300,0.802498291015625,-0.00216722977347672,-0.01163493376225233,0.011995034292340279
1772796988460523300,0.812523193359375,0.00005251518450677395,-0.0034411856904625893,0.015333572402596474
1772796988470549200,0.82254931640625,0.008195411413908005,-0.002313355915248394,0.021180417388677597
1772796988480574500,0.832574462890625,0.012350741773843765,0.0008076024241745472,0.02066456340253353
1772796988490600400,0.842600341796875,0.01378018967807293,0.0035012613516300917,0.019197992980480194
1772796988500625400,0.85262548828125,0.008491418324410915,0.00009348057210445404,0.01345621608197689
1772796988510650400,0.862650390625,0.0016838000155985355,-0.004495089873671532,0.0074090855196118355
1772796988520676400,0.87267626953125,-0.005801014136523008,0.000891153234988451,0.004386930260807276
1772796988530701300,0.882701416015625,-0.010298430919647217,0.0029296737629920244,0.002619687933474779
1772796988540727300,0.892727294921875,-0.009521853178739548,0.003377351211383939,0.006115086376667023
1772796988550752500,0.90275244140625,-0.004418239928781986,0.0029265324119478464,0.010697322897613049
1772796988560778500,0.912778564453125,-0.0022046209778636694,-0.0009704711847007275,0.014210032299160957
1772796988570803500,0.922803466796875,-0.0028689124155789614,-0.0014010132290422916,0.01623907871544361
1772796988580829400,0.932829345703125,-0.010713254101574421,0.009963493794202805,0.022214414551854134
1772796988590854400,0.9428544921875,-0.017763707786798477,0.018530111759901047,0.02245199680328369
1772796988600880400,0.95288037109375,-0.027194492518901825,0.019605230540037155,0.016875602304935455
1772796988610905300,0.9629052734375,-0.025908581912517548,0.016859907656908035,0.0005320189520716667
1772796988620931300,0.972931396484375,-0.02502574399113655,0.00402267137542367,-0.014211241155862808
1772796988630956300,0.982956298828125,-0.019899584352970123,-0.0014198659919202328,-0.015053113922476768
1772796988640982300,0.992982177734375,-0.01897307112812996,0.001358876470476389,-0.012430167756974697
1772796988651007500,1.003007568359375,-0.01902725361287594,0.01428171806037426,-0.011451548896729946
1772796988661033500,1.013033447265625,-0.011165071278810501,0.008222494274377823,-0.020435722544789314
1772796988671058400,1.023058349609375,-0.002784999553114176,-0.004391209222376347,-0.026559676975011826
1772796988681084400,1.03308447265625,-0.0013026841916143894,-0.008465312421321869,-0.02442515268921852
1772796988691109400,1.043109375,0.0016986073460429907,-0.007390644401311874,-0.018916746601462364
1772796988701135400,1.05313525390625,0.0017723769415169954,-0.012897795997560024,-0.005134887993335724
1772796988711160300,1.063160400390625,0.0036233337596058846,-0.011393154971301556,0.01670309342443943
1772796988721186300,1.073186279296875,0.0071075474843382835,0.001098135020583868,0.037124477326869965
1772796988731211500,1.08321142578125,0.011626116931438446,0.00559223722666502,0.054798673838377
1772796988741237500,1.093237548828125,0.016116473823785782,0.0075936028733849525,0.053745657205581665
1772796988751262500,1.103262451171875,0.019083507359027863,0.000518107321113348,0.04144951328635216
1772796988761287400,1.113287353515625,0.019693372771143913,0.0019157340284436941,0.02100016549229622
1772796988771313400,1.1233134765625,0.017051082104444504,-0.02382088080048561,-0.010082373395562172
1772796988781338400,1.13333837890625,0.013580450788140297,-0.044910985976457596,-0.03295173496007919
1772796988791364400,1.1433642578125,0.008589258417487144,-0.03064640238881111,-0.016858302056789398
1772796988801389600,1.1533896484375,0.0004841943737119436,0.00043082470074296,0.02332347072660923
1772796988811415600,1.16341552734375,0.0012276595225557685,0.025264354422688484,0.051503635942935944
1772796988821440500,1.1734404296875,0.00031312997452914715,0.023709600791335106,0.05247888341546059
1772796988831466500,1.183466552734375,0.002214740728959441,0.009049586951732635,0.03886788710951805
1772796988841491500,1.193491455078125,0.006227325648069382,0.0023008701391518116,0.019179407507181168
1772796988851517400,1.203517333984375,0.006716434843838215,-0.0027864547446370125,0.00598515197634697
1772796988861542400,1.21354248046875,0.003311849432066083,-0.0010753734968602657,-0.002579307649284601
1772796988871568400,1.223568359375,0.0015727814752608538,0.004093049094080925,-0.007034056819975376
1772796988881593300,1.23359326171875,-0.00014868564903736115,0.006965534761548042,-0.00603403989225626
1772796988891619300,1.243619384765625,-0.002592257456853986,0.011412335559725761,-0.0035909488797187805
1772796988901644300,1.253644287109375,-0.003536081640049815,0.010903937742114067,-0.0033097192645072937
1772796988911670500,1.26367041015625,-0.00467289611697197,0.012355540879070759,-0.0033123078756034374
1772796988921695200,1.2736953125,-0.0011756327003240585,0.01548715215176344,-0.005962418857961893
1772796988931721500,1.283721435546875,0.002285192720592022,0.01054906751960516,-0.002761672018095851
1772796988941746200,1.29374609375,0.007534283213317394,0.017118819057941437,-0.0008114390075206757
1772796988951772400,1.3037724609375,0.0109053123742342,0.020805172622203827,0.0008521928684785962
1772796988961797000,1.313797119140625,0.014799918979406357,0.021254179999232292,0.00002368353307247162
1772796988971823400,1.3238232421875,0.015721380710601807,0.020017661154270172,-0.007325326558202505
1772796988981848300,1.333848388671875,0.02032465487718582,0.017611227929592133,-0.01670205034315586
1772796988991874600,1.34387451171875,0.021028077229857445,0.01980586349964142,-0.02338884398341179
1772796989001899300,1.353899169921875,0.02798398770391941,0.020264990627765656,-0.029139406979084015
1772796989011925500,1.363925537109375,0.03507070615887642,0.017290454357862473,-0.024468064308166504
1772796989021950500,1.373950439453125,0.0330783948302269,0.03221427649259567,-0.017246369272470474
1772796989031976400,1.3839765625,0.036840733140707016,0.02085474506020546,-0.019510779529809952
1772796989042001400,1.39400146484375,0.03614085540175438,0.020628908649086952,-0.01829211786389351
1772796989052027400,1.40402734375,0.03703949972987175,0.017212510108947754,-0.006974470801651478
1772796989062052600,1.414052490234375,0.02958211861550808,0.02056516334414482,-0.004967246204614639
1772796989072078600,1.42407861328125,0.021429214626550674,0.018370889127254486,-0.0038428481202572584
1772796989082103600,1.434103515625,0.01809307187795639,0.01519799791276455,-0.0019083276856690645
1772796989092129500,1.444129638671875,0.017025677487254143,0.0090106762945652,0.004632395692169666
1772796989102154500,1.454154541015625,0.019690435379743576,0.004476111847907305,0.014452802948653698
1772796989112180500,1.464180419921875,0.015665777027606964,0.008545511402189732,0.026394343003630638
1772796989122205400,1.474205322265625,0.020856810733675957,0.009561507031321526,0.03887471556663513
1772796989132231400,1.4842314453125,0.017227962613105774,0.003959838300943375,0.046032946556806564
1772796989142256400,1.49425634765625,0.012824427336454391,-0.003047204576432705,0.04535064473748207
1772796989152282400,1.504282470703125,0.0038409230764955282,-0.004068664275109768,0.040601130574941635
1772796989162307600,1.5143076171875,-0.003048408543691039,0.0006067818030714989,0.034272126853466034
1772796989172333600,1.52433349609375,-0.006570825818926096,-0.0037955697625875473,0.022553328424692154
1772796989182358500,1.534358642578125,-0.011319508776068687,-0.003975332714617252,0.009915296919643879
1772796989192384500,1.544384521484375,-0.010528582148253918,-0.0006058691069483757,0.002707432257011533
1772796989202409500,1.554409423828125,-0.005866984836757183,-0.007662447169423103,-0.007706859149038792
1772796989212435500,1.564435546875,0.0009133814601227641,-0.011127178557217121,-0.012343380600214005
1772796989222460400,1.57446044921875,0.004613843746483326,-0.01395119447261095,-0.007011199835687876
1772796989232486400,1.584486328125,-0.0005901167169213295,-0.005753044039011002,0.003081254195421934
1772796989242511600,1.59451171875,-0.00531722791492939,0.004972837399691343,0.008620629087090492
1772796989252537600,1.60453759765625,-0.007162193767726421,0.0038537075743079185,0.009908998385071754
1772796989262562600,1.6145625,-0.006256719119846821,-0.009213890880346298,0.005139543209224939
1772796989272588500,1.624588623046875,-0.00368923950009048,-0.01909494586288929,-0.003304520156234503
1772796989282613500,1.634613525390625,-0.0023427449632436037,-0.03497644141316414,-0.006507770158350468
1772796989292639500,1.644639404296875,-0.0034312831703573465,-0.04459434002637863,0.009749813936650753
1772796989302664400,1.65466455078125,-0.0031282154377549887,-0.03808078169822693,0.03780035674571991
1772796989312690400,1.6646904296875,-0.004462176002562046,-0.018601372838020325,0.07830318808555603
1772796989322715600,1.674715576171875,-0.0072752730920910835,-0.003762771375477314,0.1074429601430893
1772796989332741400,1.684741455078125,-0.009169775061309338,-0.003315701149404049,0.11529761552810669
1772796989342766600,1.6947666015625,-0.009492283686995506,-0.0066470494493842125,0.10651317983865738
1772796989352792600,1.70479248046875,-0.010436134412884712,-0.005262449383735657,0.0893160030245781
1772796989362817500,1.714817626953125,-0.008430774323642254,-0.000685008242726326,0.059467289596796036
1772796989372843500,1.724843505859375,-0.008681576699018478,-0.008761638775467873,0.023345282301306725
1772796989382868500,1.734868408203125,-0.004443155601620674,-0.020039860159158707,-0.003762767883017659
1772796989392894500,1.74489453125,-0.006276159547269344,-0.023086829110980034,-0.018296007066965103
1772796989402919400,1.75491943359375,-0.006721174344420433,-0.0150587297976017,-0.023012733086943626
1772796989412945400,1.7649453125,-0.005225317552685738,-0.017446745187044144,-0.02647000551223755
1772796989422970600,1.774970703125,-0.06925436109304428,-0.01886967197060585,-0.024812454357743263
1772796989432996600,1.78499658203125,0.054550718516111374,-0.008774489164352417,-0.02881859615445137
1772796989443021600,1.795021484375,-0.05913030728697777,-0.019040975719690323,-0.01092481892555952
1772796989453047600,1.805047607421875,0.0630098283290863,-0.0002175997942686081,0.007887904532253742
1772796989463072500,1.815072509765625,-0.04621412977576256,-0.005914900451898575,0.036635398864746094
1772796989473098500,1.825098388671875,0.07293661683797836,0.0013450258411467075,0.0420721173286438
1772796989483123500,1.83512353515625,-0.03942214697599411,-0.015902671962976456,0.04953030124306679
1772796989493149400,1.8451494140625,0.07448535412549973,-0.014705151319503784,0.04843968525528908
1772796989503174700,1.855174560546875,-0.037389785051345825,-0.026333844289183617,0.060094479471445084
1772796989513200600,1.86520068359375,0.07357954978942871,-0.008987289853394032,0.05746237188577652
1772796989523225600,1.8752255859375,-0.03899972140789032,-0.010234181769192219,0.05964643135666847
1772796989533251600,1.88525146484375,0.07532303780317307,0.0023056683130562305,0.04375847429037094
1772796989543276500,1.895276611328125,-0.028250224888324738,-0.012740658596158028,0.03051057830452919
1772796989553302500,1.905302490234375,0.08318373560905457,-0.0077422866597771645,0.00745601300150156
1772796989563327500,1.915327392578125,-0.023578129708766937,-0.014482214115560055,0.0005965090822428465
1772796989573353500,1.925353515625,0.08113101869821548,-0.0002548699267208576,-0.010233985260128975
1772796989583378400,1.93537841796875,-0.026489445939660072,-0.002566227689385414,-0.009227311238646507
1772796989593404400,1.945404296875,0.07235252857208252,0.0032255391124635935,-0.018499186262488365
1772796989603430400,1.955430419921875,-0.028293916955590248,-0.009356564842164516,-0.01690901257097721
1772796989613455600,1.96545556640625,0.07102111726999283,-0.005729522556066513,-0.025475727394223213
1772796989623481600,1.975481689453125,-0.027477752417325974,-0.010957307182252407,-0.017408480867743492
1772796989633506600,1.985506591796875,0.07145657390356064,0.002411738969385624,-0.012533214874565601
1772796989643532500,1.995532470703125,-0.02486410178244114,-0.005664563737809658,0.00269287615083158
1772796989653557500,2.0055576171875,0.07342313230037689,0.006801607087254524,-0.00006576301530003548
1772796989663583500,2.01558349609375,-0.026525303721427917,-0.0053866151720285416,0.005607036408036947
1772796989673608400,2.0256083984375,0.05699225142598152,-0.002387384884059429,-0.003890777239575982
1772796989683634400,2.035634521484375,-0.030667826533317566,-0.00964449904859066,-0.0038425743114203215
1772796989693659600,2.04565966796875,0.050106264650821686,-0.004478643648326397,-0.009837174788117409
1772796989703685600,2.055685546875,-0.028010910376906395,-0.01297679077833891,0.0033523966558277607
1772796989713710600,2.065710693359375,0.05795600637793541,-0.0029399553313851357,0.00883064791560173
1772796989723736600,2.075736572265625,-0.019152361899614334,-0.008895582519471645,0.026597660034894943
1772796989733761500,2.085761474609375,0.05645396560430527,0.0010947478003799915,0.031373895704746246
1772796989743787500,2.09578759765625,-0.02350318431854248,-0.00041393330320715904,0.03435610234737396
1772796989753812500,2.1058125,0.04832761362195015,0.005814387463033199,0.018303511664271355
1772796989763838500,2.11583837890625,-0.023132720962166786,-0.0011953185312449932,0.006013822741806507
1772796989773863700,2.12586376953125,0.05246168002486229,-0.0009511704556643963,-0.016700973734259605
1772796989783889400,2.135889404296875,-0.005542238242924213,-0.01952804997563362,-0.031324394047260284
1772796989793915400,2.145915283203125,0.05278361588716507,-0.012979540973901749,-0.03716480731964111
1772796989803940600,2.155940673828125,0.022905077785253525,-0.0024613849818706512,-0.031050190329551697
1772796989813966600,2.165966552734375,0.013481905683875084,0.008833426982164383,-0.026464566588401794
1772796989823991600,2.175991455078125,0.008080748841166496,0.01038232073187828,-0.02758149616420269
1772796989834017500,2.186017578125,0.01085262093693018,0.004927552305161953,-0.025757519528269768
1772796989844042500,2.19604248046875,0.014124314300715923,-0.008522210642695427,-0.02631252259016037
1772796989854068500,2.206068359375,0.013673562556505203,-0.022771000862121582,-0.01801542565226555
1772796989864093400,2.216093505859375,0.01287088543176651,-0.03173679858446121,0.0012248478597030044
1772796989874119400,2.226119384765625,0.006010454148054123,-0.020474428310990334,0.028275609016418457
1772796989884144600,2.23614453125,0.003002946265041828,-0.01509244553744793,0.05123019218444824
1772796989894170600,2.246170654296875,0.0025419164448976517,-0.008131448179483414,0.06535796821117401
1772796989904195600,2.256195556640625,0.004224235191941261,-0.004986521787941456,0.07151013612747192
1772796989914221600,2.2662216796875,0.006251524668186903,-0.0014209202490746975,0.06235073506832123
1772796989924246500,2.27624658203125,0.006860323250293732,0.003750672098249197,0.0359492190182209
1772796989934272500,2.2862724609375,0.008079040795564651,0.005359450355172157,0.00017861207015812397
1772796989944298500,2.296298583984375,0.010105440393090248,-0.003458010032773018,-0.02603142149746418
1772796989954323500,2.306323486328125,0.010537644848227501,-0.004052408039569855,-0.03363669291138649
1772796989964349400,2.316349365234375,0.010483315214514732,0.0016643330454826355,-0.034342698752880096
1772796989974374700,2.326374755859375,0.0026548709720373154,0.001764565473422408,-0.028751190751791
1772796989984400400,2.336400390625,-0.004748450592160225,-0.00372207909822464,-0.02934827283024788
1772796989994425600,2.346425537109375,-0.011712214909493923,-0.0038924338296055794,-0.031145863234996796
1772796990004451600,2.35645166015625,-0.019443370401859283,-0.003059930168092251,-0.02726350724697113
1772796990014476500,2.3664765625,-0.02602527290582657,0.0034753528889268637,-0.017687104642391205
1772796990024502500,2.37650244140625,-0.023053186014294624,0.007836811244487762,-0.005622453521937132
1772796990034528500,2.386528564453125,-0.020688142627477646,0.002301284344866872,0.005215131677687168
1772796990044553500,2.396553466796875,-0.017247071489691734,-0.004088704474270344,0.0157812237739563
1772796990054579500,2.406579345703125,-0.013765878044068813,-0.0056215133517980576,0.024405336007475853
1772796990064604400,2.4166044921875,-0.015853529796004295,-0.005413520149886608,0.03360868990421295
1772796990074630400,2.42663037109375,-0.015265303663909435,0.00019620265811681747,0.038882430642843246
1772796990084655600,2.436655517578125,-0.014771020971238613,0.0039576515555381775,0.045363765209913254
1772796990094681600,2.446681640625,-0.011961475014686584,0.0026000188663601875,0.04589452967047691
1772796990104706600,2.45670654296875,-0.008933726698160172,-0.0005009658634662628,0.03822888806462288
1772796990114732500,2.466732666015625,-0.006110155954957008,0.006671945098787546,0.02434343472123146
1772796990124757500,2.476757568359375,0.0007067378610372543,0.0007275035604834557,0.0025949967093765736
1772796990134783500,2.486783447265625,0.004106826148927212,0.0014645876362919807,-0.014440357685089111
1772796990144809500,2.4968095703125,0.007534846663475037,0.0007143751718103886,-0.02581178955733776
1772796990154834400,2.50683447265625,0.005421973764896393,0.004446487873792648,-0.026876460760831833
1772796990164860400,2.5168603515625,0.011044438928365707,0.0094172777608037,-0.018941307440400124
1772796990174885600,2.5268857421875,0.008334357291460037,0.004514159169048071,-0.01637372374534607
1772796990184911600,2.53691162109375,0.011697397567331791,0.005252387374639511,-0.01739797554910183
1772796990194936600,2.5469365234375,0.010488736443221569,0.0014694919809699059,-0.01370772160589695
1772796990204962600,2.556962646484375,0.012431778945028782,-0.0012661069631576538,-0.011612612754106522
1772796990214988500,2.566988525390625,0.005896085873246193,0.004380342084914446,-0.0012775070499628782
1772796990225013500,2.577013427734375,0.004527486860752106,0.0052711693570017815,0.004356410354375839
1772796990235039500,2.58703955078125,0.0060254549607634544,0.0012522214092314243,0.008648713119328022
1772796990245064400,2.597064453125,0.005864866077899933,-0.003174218349158764,0.01775246299803257
1772796990255090400,2.60709033203125,0.0026206737384200096,0.00006228778511285782,0.029209503903985023
1772796990265115400,2.617115478515625,-0.002181538613513112,0.0049553136341273785,0.0324215441942215
1772796990275141400,2.627141357421875,-0.010068058036267757,-0.00011210283264517784,0.029722481966018677
1772796990285167400,2.63716748046875,-0.010001212358474731,0.0017230813391506672,0.01831802725791931
1772796990295192600,2.647192626953125,-0.011448727920651436,0.0012709898874163628,0.004387833643704653
1772796990305218600,2.657218505859375,-0.00933950487524271,-0.00010266853496432304,-0.004960660357028246
1772796990315243500,2.667243408203125,-0.0073404074646532536,0.013965082354843616,-0.016490519046783447
1772796990325269500,2.67726953125,-0.003472698852419853,0.015170428901910782,-0.025027018040418625
1772796990335294500,2.68729443359375,0.00011738436296582222,0.006634781137108803,-0.031049855053424835
1772796990345320400,2.697320556640625,0.0017214062390848994,0.009352803230285645,-0.027034875005483627
1772796990355346400,2.707346435546875,-0.0010109548456966877,0.01993965357542038,-0.016835466027259827
1772796990365371400,2.717371337890625,-0.008418803103268147,0.029114509001374245,-0.010252932086586952
1772796990375397400,2.7273974609375,-0.015650970861315727,0.035351213067770004,-0.011486503295600414
1772796990385422600,2.737422607421875,-0.017209453508257866,0.026466108858585358,-0.01811164990067482
1772796990395448300,2.7474482421875,-0.014330672100186348,0.011218298226594925,-0.028037454932928085
1772796990405473500,2.7574736328125,-0.005134245380759239,-0.006905046291649342,-0.03557313606142998
1772796990415499500,2.76749951171875,0.0002123834565281868,-0.014654415659606457,-0.03125790134072304
1772796990425525500,2.777525390625,0.006234323605895042,-0.019722413271665573,-0.01286105252802372
1772796990435550500,2.787550537109375,0.00812426209449768,-0.012281684204936028,0.014346187934279442
1772796990445576400,2.797576416015625,0.009666765108704567,-0.007313556969165802,0.0441962294280529
1772796990455601400,2.807601318359375,0.010782438330352306,-0.00008744606748223305,0.06722117960453033
1772796990465627400,2.81762744140625,0.010459663346409798,0.010039223358035088,0.07411450147628784
1772796990475652400,2.82765234375,0.012450035661458969,0.014446514658629894,0.06685326248407364
1772796990485678300,2.83767822265625,0.015714006498456,0.018081463873386383,0.04471813514828682
1772796990495704300,2.847704345703125,0.019666681066155434,0.011207574047148228,0.017396971583366394
1772796990505729500,2.8577294921875,0.02132982388138771,0.005231973249465227,-0.012094873934984207
1772796990515755500,2.867755615234375,0.02343415841460228,0.0043769534677267075,-0.03312552347779274
1772796990525780500,2.877780517578125,0.020451417192816734,-0.0002300492487847805,-0.04589245095849037
1772796990535806500,2.887806396484375,0.01494082622230053,-0.0016178297810256481,-0.047168221324682236
1772796990545832400,2.89783251953125,0.005704983603209257,0.0001254752278327942,-0.04305922985076904
1772796990555857400,2.907857421875,-0.0034958969336003065,0.003348585916683078,-0.033095233142375946
1772796990565883400,2.91788330078125,-0.0062285661697387695,0.010013146325945854,-0.024309195578098297
1772796990575908400,2.927908447265625,-0.008959637954831123,0.01167362742125988,-0.012581698596477509
1772796990585934300,2.937934326171875,-0.006119643338024616,0.015911782160401344,0.0011184001341462135
1772796990595960300,2.947960205078125,-0.005458465777337551,0.014139565639197826,0.017724547535181046
1772796990605985300,2.9579853515625,-0.0050422134809195995,0.01762484386563301,0.02972901239991188
1772796990616011300,2.96801123046875,-0.008136359974741936,0.02391641214489937,0.04178887978196144
1772796990626036500,2.978036376953125,-0.009517209604382515,0.027266934514045715,0.04733411222696304
1772796990636062500,2.9880625,-0.005542600993067026,0.023830443620681763,0.0420113168656826
1772796990646088400,2.99808837890625,-0.006534628104418516,0.015742957592010498,0.035879120230674744
1772796990656113400,3.008113525390625,-0.0032816294115036726,0.01463758759200573,0.03123786672949791
1772796990666139400,3.018139404296875,-0.0010610856115818024,0.021657414734363556,0.034461356699466705
1772796990676164400,3.028164306640625,0.0033071779180318117,0.038119249045848846,0.040533728897571564
1772796990686190300,3.0381904296875,0.004999084398150444,0.04229268431663513,0.039818666875362396
1772796990696216600,3.048216552734375,0.01683230884373188,0.03633306175470352,0.03875074163079262
1772796990706241300,3.0582412109375,0.019976701587438583,0.031548161059617996,0.03462124243378639
1772796990716267500,3.068267578125,0.025447936728596687,0.024044591933488846,0.024509964510798454
1772796990726292500,3.07829248046875,0.029146535322070122,0.01667536050081253,0.017184674739837646
1772796990736318500,3.088318359375,0.02609894797205925,0.014779425226151943,0.014480088837444782
1772796990746343400,3.098343505859375,0.027829203754663467,0.01822129637002945,0.012759421020746231
1772796990756369400,3.108369384765625,0.02782985381782055,0.006331308279186487,0.009275374002754688
1772796990766395600,3.118395751953125,0.023957084864377975,-0.0063253650441765785,0.002345829037949443
1772796990776420400,3.12842041015625,0.017892716452479362,-0.014879410155117512,-0.004125990904867649
1772796990786446600,3.138446533203125,0.011886488646268845,-0.017344430088996887,0.0016272359061986208
1772796990796472600,3.14847265625,0.00698581337928772,-0.011676542460918427,0.018490152433514595
1772796990806497500,3.15849755859375,-0.002818081295117736,0.0012206141836941242,0.03565528988838196
1772796990816523500,3.1685234375,-0.0068222940899431705,0.003451148746535182,0.04881725087761879
1772796990826548500,3.178548583984375,-0.016703153029084206,0.004121732898056507,0.051200512796640396
1772796990836574500,3.188574462890625,-0.019517676904797554,-0.002102483529597521,0.03991064429283142
1772796990846600400,3.198600341796875,-0.022414663806557655,-0.007560632191598415,0.026278721168637276
1772796990856625700,3.208625732421875,-0.024652795866131783,-0.014374594204127789,0.0071370406076312065
1772796990866651600,3.218651611328125,-0.026167068630456924,-0.012567372061312199,-0.010210790671408176
1772796990876676600,3.228676513671875,-0.027466988191008568,-0.003930574283003807,-0.019115852192044258
1772796990886702600,3.23870263671875,-0.02482859417796135,0.005201404914259911,-0.025900254026055336
1772796990896728600,3.248728515625,-0.021648600697517395,0.004152081441134214,-0.03560677915811539
1772796990906753500,3.25875341796875,-0.017980895936489105,0.0020148945041000843,-0.038247834891080856
1772796990916779500,3.268779541015625,-0.018078697845339775,0.005240265280008316,-0.03446740657091141
1772796990926804500,3.278804443359375,-0.022300608456134796,0.013020690530538559,-0.03478538990020752
1772796990936830500,3.28883056640625,-0.023171739652752876,0.008503971621394157,-0.043944209814071655
1772796990946856400,3.2988564453125,-0.01638920046389103,-0.00854079145938158,-0.059385746717453
1772796990956881400,3.30888134765625,-0.01343275886029005,-0.025973591953516006,-0.06458297371864319
1772796990966907400,3.318907470703125,-0.00662944745272398,-0.035663239657878876,-0.053810495883226395
1772796990976932600,3.3289326171875,0.00018961424939334393,-0.025696203112602234,-0.020619835704565048
1772796990986958600,3.33895849609375,0.004728971980512142,-0.00858592614531517,0.02510157972574234
1772796990996984600,3.348984619140625,0.009511439129710197,-0.0036166226491332054,0.06507248431444168
1772796991007009800,3.359009765625,0.011254478245973587,-0.0059458231553435326,0.08746087551116943
1772796991017036000,3.3690361328125,0.010703680105507374,-0.008847324177622795,0.09006307274103165
1772796991027060700,3.379060791015625,0.005606922321021557,-0.00869392603635788,0.08443713933229446
1772796991037087000,3.3890869140625,0.0061669060960412025,-0.010530426166951656,0.0634094849228859
1772796991047113000,3.399113037109375,0.00704228738322854,-0.0019457261078059673,0.03841784596443176
1772796991057137700,3.4091376953125,0.00794170517474413,-0.005146060138940811,0.007109655067324638
1772796991067164000,3.419163818359375,0.006515049375593662,-0.011258014477789402,-0.022284185513854027
1772796991077188600,3.429188720703125,0.003212290583178401,-0.012323937378823757,-0.040131960064172745
1772796991087214800,3.43921484375,-0.00130602833814919,-0.015658214688301086,-0.046879880130290985
1772796991097240800,3.44924072265625,-0.00806170329451561,-0.016758892685174942,-0.047291968017816544
1772796991107266000,3.45926611328125,-0.011994127184152603,-0.013200377114117146,-0.048450443893671036
1772796991117292000,3.4692919921875,-0.016768286004662514,-0.008562500588595867,-0.0409061573445797
1772796991127318000,3.479318115234375,-0.019620263949036598,-0.00671213585883379,-0.02810594253242016
1772796991137343000,3.489343017578125,-0.01702827773988247,0.011879937723279,-0.004394148476421833
1772796991147369000,3.499368896484375,-0.017284739762544632,0.013035750016570091,0.011154983192682266
1772796991157394000,3.509393798828125,-0.012263132259249687,0.012447839602828026,0.011075465008616447
1772796991167420000,3.519419921875,-0.0110122449696064,-0.0010426691733300686,0.005086015909910202
1772796991177446000,3.52944580078125,-0.009514978155493736,-0.00823225174099207,-0.004915539175271988
1772796991187470800,3.539470947265625,-0.009544805623590946,-0.012277592904865742,-0.009651705622673035
1772796991197496800,3.549496826171875,-0.011100324802100658,-0.011881055310368538,-0.006900028791278601
1772796991207521800,3.559521728515625,-0.009145298041403294,-0.0037088794633746147,0.011094950139522552
1772796991217547800,3.5695478515625,-0.004855223000049591,0.008540065959095955,0.024791112169623375
1772796991227573800,3.57957373046875,-0.004803824238479137,0.015089577995240688,0.029533935710787773
1772796991237599000,3.589598876953125,-0.004033216275274754,0.010954716242849827,0.021188125014305115
1772796991247625000,3.599625,-0.003658509813249111,0.007612981833517551,0.007273375056684017
1772796991257650000,3.60964990234375,-0.006537889130413532,0.006512082181870937,-0.005409009754657745
1772796991267676000,3.619676025390625,-0.003034766996279359,-0.00023956364020705223,-0.011849066242575645
1772796991277702000,3.629701904296875,-0.0021326057612895966,0.005549054592847824,-0.008627903647720814
1772796991287726800,3.639726806640625,0.004789748694747686,0.011692434549331665,-0.0039396751672029495
1772796991297752800,3.6497529296875,0.009105958975851536,0.00837988406419754,0.0010494929738342762
1772796991307778800,3.65977880859375,0.012940112501382828,0.003076198510825634,0.000430041691288352
1772796991317803800,3.6698037109375,0.011657568626105785,0.0038272039964795113,0.0035076886415481567
1772796991327829800,3.679829833984375,0.010201351717114449,0.007587853819131851,0.005589747801423073
1772796991337855000,3.68985498046875,0.005646026227623224,0.005853601265698671,0.006283711642026901
1772796991347881000,3.699880859375,0.0012203851947560906,0.0068901036866009235,-0.0005970976781100035
1772796991357907000,3.709906982421875,-0.0026751705445349216,0.00011888658627867699,-0.008097274228930473
1772796991367932000,3.719931884765625,-0.006767650134861469,0.0006264848634600639,-0.007389405742287636
1772796991377958000,3.7299580078125,-0.007055758964270353,0.011495103128254414,-0.005157102830708027
1772796991387982800,3.73998291015625,-0.013199139386415482,0.010941698215901852,-0.0018952630925923586
1772796991398008800,3.7500087890625,-0.009004207327961922,0.006076383404433727,0.0026964193675667048
1772796991408034800,3.760034912109375,-0.005818534642457962,0.001631035003811121,0.00883234292268753
1772796991418059800,3.770059814453125,-0.004623608663678169,0.003916033077985048,0.012690098956227303
1772796991428085800,3.780085693359375,-0.007672661915421486,0.004193001426756382,0.009008278138935566
1772796991438111700,3.79011181640625,-0.009963015094399452,0.009606525301933289,-0.0032589833717793226
1772796991448136700,3.80013671875,-0.009741174057126045,0.00936950370669365,-0.01275954395532608
1772796991458162700,3.81016259765625,-0.01084328256547451,0.0029209419153630733,-0.017253980040550232
1772796991468188000,3.82018798828125,-0.0067406827583909035,-0.0031231017783284187,-0.012472540140151978
1772796991478214000,3.8302138671875,-0.0012027465272694826,0.003465260611847043,-0.003769051283597946
1772796991488239900,3.840239990234375,-0.000293543329462409,0.011832647025585175,0.003031862899661064
1772796991498264800,3.850264892578125,-0.0013418071903288364,0.008705995976924896,0.001214593299664557
1772796991508290800,3.860290771484375,0.0009897904237732291,0.0033836679067462683,-0.006170086096972227
1772796991518315800,3.870315673828125,-0.0017611626535654068,-0.009944136254489422,-0.014503564685583115
1772796991528341800,3.880341796875,-0.010872902348637581,-0.015605750493705273,-0.015655115246772766
1772796991538367700,3.89036767578125,-0.014958469197154045,-0.018405262380838394,-0.009741775691509247
1772796991548392700,3.900392822265625,-0.017487406730651855,-0.02012353390455246,0.006806841120123863
1772796991558418700,3.910418701171875,-0.01623748056590557,-0.021482940763235092,0.03187371790409088
1772796991568444700,3.920444580078125,-0.017960280179977417,-0.015546222217381,0.05117471143603325
1772796991578469600,3.9304697265625,-0.01091798022389412,-0.007647305727005005,0.06561945378780365
1772796991588495600,3.94049560546875,-0.008792512118816376,0.0003110184334218502,0.07073511928319931
1772796991598520800,3.950520751953125,-0.003584767458960414,0.014577852562069893,0.05460496246814728
1772796991608546800,3.960546875,-0.001452108146622777,0.010915473103523254,0.02278844267129898
1772796991618573000,3.970572998046875,0.003893908578902483,0.005265730433166027,-0.011072422377765179
1772796991628597800,3.98059765625,0.015746839344501495,-0.0016614175401628017,-0.04007904231548309
1772796991638624000,3.9906240234375,0.024905219674110413,-0.00801454670727253,-0.057441528886556625
1772796991648648700,4.000648681640625,0.030997734516859055,-0.007452352903783321,-0.05861944332718849
1772796991658675000,4.010675048828125,0.032418426126241684,0.003875530092045665,-0.049613576382398605
1772796991668701000,4.020700927734375,0.025934958830475807,0.016057096421718597,-0.035113461315631866
1772796991678726000,4.030725830078125,0.020764676854014397,0.022280260920524597,-0.021510343998670578
1772796991688751900,4.040751953125,0.006653384305536747,0.022520214319229126,-0.014682264998555183
1772796991698777900,4.05077783203125,-0.0010145509149879217,0.022062934935092926,-0.0073556117713451385
1772796991708802800,4.060802734375,-0.011009127832949162,0.01852226071059704,-0.003431709948927164
1772796991718828800,4.070828857421875,-0.017737258225679398,0.01638532429933548,0.0027299169450998306
1772796991728854000,4.08085400390625,-0.020804155617952347,0.011797761544585228,0.009210453368723392
1772796991738880000,4.0908798828125,-0.02096579410135746,0.012095393612980843,0.014573585242033005
1772796991748906000,4.100906005859375,-0.021047286689281464,0.009690026752650738,0.013890484347939491
1772796991758931000,4.110930908203125,-0.014076407998800278,0.005383684765547514,0.010884294286370277
1772796991768957000,4.12095703125,-0.009010808542370796,0.005571171175688505,0.003704678500071168
1772796991778982000,4.13098193359375,-0.00434513483196497,0.011192448437213898,-0.0003225675318390131
1772796991789008000,4.1410078125,-0.0036790778394788504,0.01478718314319849,-0.005003605969250202
1772796991799033900,4.151033935546875,-0.0003064624033868313,0.018896708264946938,-0.011892082169651985
1772796991809058800,4.161058837890625,0.0016174052143469453,0.021640032529830933,-0.019518312066793442
1772796991819084800,4.171084716796875,0.0017234450206160545,0.022103145718574524,-0.03233606368303299
1772796991829110800,4.18111083984375,0.0005106414901092649,0.012560241855680943,-0.048011962324380875
1772796991839136000,4.191135986328125,0.004004882648587227,0.0017009496223181486,-0.05938960239291191
1772796991849162000,4.201161865234375,0.004307417199015617,0.003187526250258088,-0.051588140428066254
1772796991859187000,4.21118701171875,0.008490445092320442,0.014057218097150326,-0.03665313124656677
1772796991869213000,4.221212890625,0.010893947444856167,0.020697545260190964,-0.018750831484794617
1772796991879239000,4.231239013671875,0.01210629940032959,0.023457098752260208,-0.004821024835109711
1772796991889263900,4.241263916015625,0.015028053894639015,0.011086450889706612,0.002533560385927558
1772796991899289900,4.251289794921875,0.007793250493705273,0.00803458597511053,0.011932821944355965
1772796991909314800,4.261314697265625,-0.00040475837886333466,0.0090873334556818,0.01870976760983467
1772796991919340800,4.2713408203125,-0.009692437946796417,0.011051556095480919,0.025950301438570023
1772796991929366800,4.28136669921875,-0.013013133779168129,0.00837667752057314,0.027655523270368576
1772796991939391700,4.291391845703125,-0.011068170890212059,0.0023398115299642086,0.018772000446915627
1772796991949417700,4.301417724609375,-0.012671926990151405,-0.00513115432113409,0.00931538175791502
1772796991959443700,4.311443603515625,-0.012226123362779617,-0.005492917262017727,0.0030659115873277187
1772796991969469000,4.321468994140625,-0.013879146426916122,-0.00030055176466703415,-0.006119064055383205
1772796991979495000,4.331494873046875,-0.022442124783992767,-0.00033477647230029106,-0.011136011220514774
1772796991989520000,4.341519775390625,-0.02251775749027729,0.0031750036869198084,-0.00988059677183628
1772796991999545900,4.3515458984375,-0.02429385669529438,0.01004953682422638,-0.005367548670619726
1772796992009571600,4.361571533203125,-0.02260221727192402,0.019088570028543472,-0.0011773314327001572
1772796992019596500,4.371596435546875,-0.02159496210515499,0.020699933171272278,-0.0083280298858881
1772796992029622500,4.38162255859375,-0.02013395167887211,0.018534250557422638,-0.023885950446128845
1772796992039647500,4.3916474609375,-0.015540579333901405,0.011990448459982872,-0.03519921377301216
1772796992049673500,4.401673583984375,-0.01924769952893257,0.015781190246343613,-0.03706129640340805
1772796992059699500,4.411699462890625,-0.028795743361115456,0.024126753211021423,-0.041825830936431885
1772796992069724700,4.421724609375,-0.032643213868141174,0.024922240525484085,-0.04675054922699928
1772796992079750700,4.431750732421875,-0.030429350212216377,0.01371193490922451,-0.057730115950107574
1772796992089776600,4.441776611328125,-0.028198687359690666,-0.0019855359569191933,-0.0655486211180687
1772796992099801600,4.451801513671875,-0.02404613606631756,-0.008385780267417431,-0.06187594309449196
1772796992109827600,4.46182763671875,-0.017042554914951324,-0.01737022027373314,-0.04273500666022301
1772796992119852500,4.4718525390625,-0.01543731614947319,-0.017430812120437622,-0.014086933806538582
1772796992129878500,4.48187841796875,-0.017584357410669327,-0.009961176663637161,0.01985825039446354
1772796992139904500,4.491904541015625,-0.02090664952993393,-0.0018228222616016865,0.04785899072885513
1772796992149929500,4.501929443359375,-0.022368991747498512,0.006768801715224981,0.06472692638635635
1772796992159955500,4.51195556640625,-0.022941293194890022,0.018173255026340485,0.06394842267036438
1772796992169980400,4.52198046875,-0.023790841922163963,0.01537826657295227,0.039603669196367264
1772796992180006400,4.53200634765625,-0.017201464623212814,0.010714927688241005,0.007442816626280546
1772796992190032400,4.542032470703125,-0.011663155630230904,0.0032325107604265213,-0.02368048205971718
1772796992200057600,4.5520576171875,-0.01364436000585556,0.00586692476645112,-0.0439094603061676
1772796992210083600,4.56208349609375,-0.01297883689403534,0.013501941226422787,-0.057095836848020554
1772796992220108500,4.572108642578125,-0.020894980058073997,0.015708882361650467,-0.056552257388830185
1772796992230134500,4.582134521484375,-0.0232582688331604,0.011163399554789066,-0.05828730762004852
1772796992240160800,4.592160888671875,-0.02501022256910801,0.003993661142885685,-0.06017833575606346
1772796992250185500,4.602185546875,-0.023554537445306778,0.005697818007320166,-0.05650743097066879
1772796992260211700,4.612211669921875,-0.02533920481801033,0.010396025143563747,-0.043664321303367615
1772796992270237700,4.62223779296875,-0.022290950641036034,0.0218082033097744,-0.021391507238149643
1772796992280262700,4.6322626953125,-0.017676005139946938,0.02712121605873108,0.001028537517413497
1772796992290288600,4.64228857421875,-0.014060496352612972,0.03127175197005272,0.017496192827820778
1772796992300313600,4.652313720703125,-0.009638470597565174,0.03193272650241852,0.0275591854006052
1772796992310339600,4.662339599609375,-0.007755083031952381,0.027643440291285515,0.0246595349162817
1772796992320365600,4.672365478515625,-0.0058868154883384705,0.020872503519058228,0.011100150644779205
1772796992330390800,4.682390869140625,-0.0017988632898777723,0.011649442836642265,-0.003885722951963544
1772796992340416800,4.692416748046875,0.006299239583313465,0.010004520416259766,-0.011859173886477947
1772796992350441700,4.702441650390625,0.01303224265575409,0.0041543543338775635,-0.018492575734853745
1772796992360467700,4.7124677734375,0.017702490091323853,0.005137462168931961,-0.016759095713496208
1772796992370493700,4.72249365234375,0.02532179467380047,0.011522923596203327,-0.011250879615545273
1772796992380518700,4.7325185546875,0.0214619692414999,0.01616334170103073,-0.0067031411454081535
1772796992390544600,4.742544677734375,0.021199913695454597,0.01401896495372057,-0.009261906147003174
1772796992400569600,4.752569580078125,0.019636904820799828,0.008292635902762413,-0.009582551196217537
1772796992410595600,4.762595703125,0.015352144837379456,0.005825483240187168,-0.006760665215551853
1772796992420621600,4.77262158203125,0.015480797737836838,0.01319550909101963,-0.007368779741227627
1772796992430646800,4.782646728515625,0.019448908045887947,0.01325622946023941,-0.007244676351547241
1772796992440672500,4.792672607421875,0.022786986082792282,0.0018045189790427685,-0.007177518680691719
1772796992450698500,4.802698486328125,0.026593443006277084,-0.00004930747672915459,-0.00862414762377739
1772796992460723700,4.8127236328125,0.033179450780153275,-0.00578655768185854,-0.0055447909981012344
1772796992470749700,4.822749755859375,0.036724917590618134,0.00026414403691887856,0.005483359098434448
1772796992480774700,4.832774658203125,0.03586582839488983,0.006011663004755974,0.017420336604118347
1772796992490800600,4.842800537109375,0.03374781832098961,0.0061149937100708485,0.02223799377679825
1772796992500826600,4.85282666015625,0.02372911013662815,0.00883075688034296,0.022134538739919662
1772796992510851600,4.8628515625,0.01902703382074833,0.005545481573790312,0.021291647106409073
1772796992520877600,4.872877685546875,0.014201869256794453,0.008548046462237835,0.013816265389323235
1772796992530902500,4.882902587890625,0.007668070495128632,0.009301986545324326,0.007081663701683283
1772796992540928500,4.892928466796875,0.008499776013195515,0.006003928370773792,-0.004860749468207359
1772796992550954500,4.90295458984375,0.007543168030679226,0.001272822730243206,-0.012587377801537514
1772796992560979700,4.912979736328125,0.006659429520368576,0.0017828370910137892,-0.02153962291777134
1772796992571005700,4.923005615234375,0.00008674757555127144,0.004550660494714975,-0.02635541744530201
1772796992581030700,4.93303076171875,-0.005934962537139654,0.0034950985573232174,-0.029865140095353127
1772796992591056600,4.943056640625,-0.010362999513745308,0.011615876108407974,-0.029808415099978447
1772796992601082600,4.95308251953125,-0.014446308836340904,0.018515730276703835,-0.023744313046336174
1772796992611107600,4.963107666015625,-0.00852556899189949,0.017203323543071747,-0.020221484825015068
1772796992621133600,4.973133544921875,-0.004204545170068741,0.011264198459684849,-0.02102225460112095
1772796992631158500,4.983158447265625,-0.0032346220687031746,0.012832267209887505,-0.02115914225578308
1772796992641184500,4.9931845703125,-0.006172782275825739,0.012087254785001278,-0.028341813012957573
1772796992651210500,5.00321044921875,-0.005443875212222338,0.00948614627122879,-0.04079688340425491
1772796992661235500,5.0132353515625,-0.010227223858237267,-0.0010887249372899532,-0.04941118508577347
1772796992671261400,5.023261474609375,-0.0123883793130517,-0.01321170013397932,-0.05783316493034363
1772796992681287400,5.033287353515625,-0.017853857949376106,-0.01329891849309206,-0.055999018251895905
1772796992691312600,5.043312744140625,-0.017674360424280167,-0.01504382025450468,-0.03083188086748123
1772796992701338600,5.053338623046875,-0.01325085386633873,-0.017261330038309097,0.0058581046760082245
1772796992711363600,5.063363525390625,-0.009398059919476509,-0.014397635124623775,0.0408959835767746
1772796992721389600,5.0733896484375,-0.008135637268424034,-0.006381107494235039,0.07153856754302979
1772796992731415600,5.08341552734375,-0.012542370706796646,0.00529978284612298,0.08819238096475601
1772796992741440500,5.0934404296875,-0.014809541404247284,0.00920797698199749,0.09019093215465546
1772796992751466500,5.103466552734375,-0.018833311274647713,0.014521250501275063,0.07431928813457489
1772796992761491500,5.113491455078125,-0.02129843831062317,0.010206522420048714,0.04376336932182312
1772796992771517400,5.123517333984375,-0.013572340831160545,-0.00626965519040823,0.007753703743219376
1772796992781543400,5.13354345703125,-0.00900942087173462,-0.016875561326742172,-0.022510696202516556
1772796992791568600,5.143568603515625,-0.0032426114194095135,-0.02558303251862526,-0.047533757984638214
1772796992801594400,5.153594482421875,-0.005013622809201479,-0.02746891975402832,-0.057955604046583176
1772796992811619600,5.16361962890625,-0.00127454474568367,-0.024366337805986404,-0.05112352967262268
1772796992821645600,5.1736455078125,-0.0020929924212396145,-0.009923895820975304,-0.03401787579059601
1772796992831671600,5.183671630859375,-0.006666971370577812,0.0013282261788845062,-0.015027673915028572
1772796992841696500,5.193696533203125,-0.008155439049005508,0.004125718958675861,0.00048363651148974895
1772796992851722500,5.203722412109375,-0.009657195769250393,0.005120409652590752,0.017717750743031502
1772796992861747500,5.21374755859375,-0.0047607519663870335,0.005325750447809696,0.02536897361278534
1772796992871773400,5.2237734375,-0.0009244685061275959,-0.007840917445719242,0.020633606240153313
1772796992881799700,5.233799560546875,0.0075722793117165565,-0.016902577131986618,0.02254955656826496
1772796992891824400,5.243824462890625,0.01126901339739561,-0.021467499434947968,0.026107007637619972
1772796992901850600,5.2538505859375,0.01154407113790512,-0.019230235368013382,0.03132353350520134
1772796992911875600,5.26387548828125,0.012045278213918209,-0.014911388047039509,0.03735532611608505
1772796992921901800,5.27390185546875,0.010906718671321869,-0.01093323901295662,0.04862602427601814
1772796992931927800,5.283927734375,0.005322336219251156,-0.0005280021578073502,0.051342714577913284
1772796992941952800,5.293952880859375,0.007476922124624252,0.00003496930003166199,0.04488968849182129
1772796992951978800,5.303978759765625,0.0072987568564713,-0.0006105806678533554,0.034523602575063705
1772796992962004700,5.314004638671875,0.0062984898686409,-0.004479461349546909,0.021294942125678062
1772796992972029700,5.32402978515625,0.004241463728249073,-0.00641078595072031,0.00744011253118515
1772796992982055700,5.3340556640625,0.0013695897068828344,-0.0035375189036130905,-0.005534138530492783
1772796992992080600,5.34408056640625,-0.008746961131691933,-0.007517612539231777,-0.01749812252819538
1772796993002106600,5.354106689453125,-0.009362777695059776,-0.01117401011288166,-0.023070186376571655
1772796993012131800,5.3641318359375,-0.01329546794295311,-0.014847572892904282,-0.027385573834180832
1772796993022157800,5.37415771484375,-0.013721025548875332,-0.012943786568939686,-0.02138381265103817
1772796993032183800,5.384183837890625,-0.011048276908695698,-0.00950990617275238,-0.009134337306022644
1772796993042209000,5.394208984375,-0.013553868979215622,0.00024201208725571632,0.01138014905154705
1772796993052235000,5.404235107421875,-0.004915372468531132,0.0024212768767029047,0.021171262487769127
1772796993062260000,5.414260009765625,0.0030815245117992163,-0.00290769524872303,0.024317216128110886
1772796993072286000,5.424285888671875,0.010349025018513203,-0.011422885581851006,0.02116057276725769
1772796993082312000,5.43431201171875,0.016817927360534668,-0.017380764707922935,0.02003937028348446
1772796993092337000,5.4443369140625,0.01760862022638321,-0.015283524990081787,0.025375545024871826
1772796993102363000,5.45436279296875,0.016832202672958374,-0.012837285175919533,0.027542417868971825
1772796993112387800,5.464387939453125,0.02030283212661743,-0.00828114990144968,0.02685878425836563
1772796993122413800,5.474413818359375,0.01935887150466442,-0.0029522953554987907,0.024308303371071815
1772796993132439800,5.484439697265625,0.024548839777708054,-0.0036124931648373604,0.02137935906648636
1772796993142464800,5.49446484375,0.027696216478943825,-0.009493567049503326,0.01935427263379097
1772796993152490800,5.50449072265625,0.03300229832530022,-0.014028663747012615,0.019453343003988266
1772796993162516700,5.514516845703125,0.027089666575193405,-0.013809082098305225,0.018103204667568207
1772796993172542000,5.5245419921875,0.014139512553811073,-0.008146136067807674,0.022264927625656128
1772796993182568000,5.53456787109375,0.0033815032802522182,0.006980054546147585,0.025975259020924568
1772796993192593000,5.544593017578125,-0.005735029932111502,0.012842204421758652,0.02225508913397789
1772796993202619000,5.554618896484375,-0.005900252610445023,0.008923664689064026,0.009041057899594307
1772796993212643800,5.564643798828125,-0.0024690355639904737,-0.004771375097334385,-0.002414529211819172
1772796993222669800,5.574669921875,0.004264288116246462,-0.006885409355163574,-0.011782750487327576
1772796993232695800,5.58469580078125,0.005665643606334925,-0.004708008840680122,-0.012851743027567863
1772796993242720800,5.594720703125,0.0028437580913305283,-0.001682125497609377,-0.010755836963653564
1772796993252746800,5.604746826171875,0.00047114782501012087,-0.0017819940112531185,-0.007440733257681131
1772796993262772700,5.614772705078125,-0.0011095982044935226,-0.00653479527682066,-0.005632835440337658
1772796993272797700,5.624797607421875,0.0013639457756653428,-0.018831409513950348,-0.0050844913348555565
1772796993282823700,5.63482373046875,-0.0006050893571227789,-0.02246248722076416,0.008184319362044334
1772796993292849000,5.644848876953125,0.0025046837981790304,-0.024644415825605392,0.026944957673549652
1772796993302875000,5.654875,0.00516923051327467,-0.01835058443248272,0.057965170592069626
1772796993312900900,5.66490087890625,0.007004148326814175,-0.006300047039985657,0.08682611584663391
1772796993322925800,5.67492578125,0.014303851872682571,-0.003186272457242012,0.10648408532142639
1772796993332951800,5.684951904296875,0.018289539963006973,-0.001509279478341341,0.10621537268161774
1772796993342976800,5.694976806640625,0.025371257215738297,-0.004594409838318825,0.08714435249567032
1772796993353002800,5.705002685546875,0.02834121324121952,-0.009425117634236813,0.05392647907137871
1772796993363028700,5.71502880859375,0.02886645309627056,-0.013428667560219765,0.023203907534480095
1772796993373053700,5.7250537109375,0.025351880118250847,-0.010133272036910057,-0.00035015353932976723
1772796993383079700,5.73507958984375,0.022732414305210114,-0.007602836936712265,-0.01655835099518299
1772796993393105000,5.74510498046875,0.023339347913861275,-0.009715522639453411,-0.02467486634850502
1772796993403131000,5.755130859375,0.02290481887757778,-0.01516757346689701,-0.019657185301184654
1772796993413155800,5.76515576171875,0.02416396141052246,-0.013746777549386024,-0.015162568539381027
1772796993423181800,5.775181884765625,0.02157810516655445,-0.0028220731765031815,-0.011524908244609833
1772796993433207800,5.785207763671875,0.020232941955327988,-0.006144633516669273,-0.009783467277884483
1772796993443232800,5.795232666015625,0.017369383946061134,-0.009580245241522789,-0.0011010582093149424
1772796993453258800,5.8052587890625,0.018747836351394653,-0.006813753396272659,0.00876142643392086
1772796993463283700,5.81528369140625,0.017899619415402412,-0.007126142270863056,0.015406012535095215
1772796993473309700,5.825309814453125,0.021059991791844368,-0.012919848784804344,0.024611495435237885
1772796993483335700,5.835335693359375,0.022854622453451157,-0.013041974045336246,0.03145976737141609
1772796993493360600,5.845360595703125,0.022778455168008804,-0.01107443030923605,0.03265765681862831
1772796993503386600,5.85538671875,0.028983866795897484,-0.013361013494431973,0.03485008329153061
1772796993513411800,5.865411865234375,0.03058922104537487,-0.00702535267919302,0.027059005573391914
1772796993523437800,5.875437744140625,0.029125215485692024,-0.012063144706189632,0.01449516974389553
1772796993533464000,5.885464111328125,0.027076445519924164,-0.012023464776575565,0.0025168040301650763
1772796993543488800,5.89548876953125,0.031242994591593742,-0.008454395458102226,-0.005556821823120117
1772796993553515000,5.905514892578125,0.03099691867828369,-0.004861258901655674,-0.008778980001807213
1772796993563539700,5.915539794921875,0.033389415591955185,-0.007178623229265213,-0.012398207560181618
1772796993573566000,5.92556591796875,0.037670448422431946,-0.005123462527990341,-0.009934782981872559
1772796993583592000,5.935592041015625,0.036820732057094574,-0.001035364344716072,-0.00793428160250187
1772796993593617000,5.945616943359375,0.03192077949643135,-0.005062863230705261,-0.00651162164285779
1772796993603643000,5.955642822265625,0.028301138430833817,-0.006547706201672554,-0.008342516608536243
1772796993613667800,5.965667724609375,0.02297002263367176,-0.007496857084333897,-0.004152565263211727
1772796993623693800,5.97569384765625,0.018754588440060616,-0.0004851403646171093,0.0017114393413066864
1772796993633719800,5.9857197265625,0.018648061901330948,0.0014890609309077263,0.006940023507922888
1772796993643745000,5.9957451171875,0.021460479125380516,0.005676046945154667,0.00876978412270546
1772796993653771000,6.00577099609375,0.021822670474648476,0.010616477578878403,0.01229820679873228
1772796993663796000,6.0157958984375,0.027555443346500397,0.00949899572879076,0.01732170395553112
1772796993673822000,6.025822021484375,0.02606487087905407,0.01442877296358347,0.02255881018936634
1772796993683848000,6.035847900390625,0.02243215963244438,0.018711812794208527,0.02382768504321575
1772796993693873000,6.045872802734375,0.019455011934041977,0.015871815383434296,0.021312329918146133
1772796993703899000,6.05589892578125,0.020357461646199226,0.011517846956849098,0.013353457674384117
1772796993713923800,6.065923828125,0.019518831744790077,0.0039310334250330925,-0.0014859423972666264
1772796993723949800,6.07594970703125,0.01270618848502636,-0.005894696339964867,-0.009850341826677322
1772796993733975800,6.085975830078125,0.012630821205675602,-0.007489663548767567,-0.0115750040858984
1772796993744001000,6.0960009765625,0.010793793946504593,-0.008971719071269035,-0.01481379009783268
1772796993754027000,6.106027099609375,0.008772721514105797,-0.0063077593222260475,-0.01120680384337902
1772796993764052000,6.116052001953125,0.007887870073318481,-0.006193904206156731,-0.009892714209854603
1772796993774078000,6.126077880859375,0.00946952123194933,-0.00859820656478405,-0.010103902779519558
1772796993784103000,6.13610302734375,0.011264044791460037,-0.007818726822733879,-0.008244410157203674
1772796993794129000,6.14612890625,0.00745892059057951,0.0059021455235779285,-0.005112798884510994
1772796993804155000,6.15615478515625,0.009847776032984257,0.010671067982912064,-0.0062952423468232155
1772796993814179800,6.166179931640625,0.019570976495742798,-0.0018809428438544273,-0.010894788429141045
1772796993824205800,6.176205810546875,0.025080258026719093,-0.003437293693423271,-0.015431749634444714
1772796993834230800,6.186230712890625,0.021304428577423096,0.00033134547993540764,-0.008774112910032272
1772796993844256800,6.1962568359375,0.010712876915931702,0.01365448348224163,-0.006138238590210676
1772796993854282800,6.20628271484375,0.008152247406542301,0.009873061440885067,-0.01586942933499813
1772796993864308000,6.216307861328125,0.007285090629011393,0.0012388364411890507,-0.03017495945096016
1772796993874334000,6.226333984375,0.012844173237681389,-0.017238173633813858,-0.03850559517741203
1772796993884359000,6.23635888671875,0.014282908290624619,-0.03094283491373062,-0.03710262477397919
1772796993894385000,6.246385009765625,0.015892788767814636,-0.025929700583219528,-0.014686266891658306
1772796993904411000,6.256410888671875,0.012484187260270119,-0.029747866094112396,0.016153253614902496
1772796993914435800,6.266435791015625,0.013371819630265236,-0.012865821830928326,0.04253532737493515
1772796993924461800,6.2764619140625,0.007396250497549772,-0.004833740182220936,0.06311473250389099
1772796993934486800,6.28648681640625,0.005850018933415413,0.0020579879637807608,0.06771080940961838
1772796993944512800,6.2965126953125,0.007758142426609993,0.0070160068571567535,0.06558898091316223
1772796993954538800,6.306538818359375,0.002913319505751133,0.015415883623063564,0.05908527597784996
1772796993964564000,6.31656396484375,0.006374271120876074,0.023199696093797684,0.038767024874687195
1772796993974590000,6.32658984375,0.005650689825415611,0.017369236797094345,0.012072298675775528
1772796993984615000,6.336614990234375,0.007370322477072477,0.00670497165992856,-0.018812373280525208
1772796993994641000,6.346640869140625,0.0049074310809373856,0.0010875659063458443,-0.038287803530693054
1772796994004665900,6.356665771484375,0.0038068313151597977,0.0002060304395854473,-0.04989591985940933
1772796994014690800,6.36669091796875,-0.0018449288327246904,0.0012981928884983063,-0.05564834550023079
1772796994024716800,6.376716796875,-0.007228327449411154,0.011046722531318665,-0.04588846489787102
1772796994034741800,6.38674169921875,-0.011536523699760437,0.015677958726882935,-0.03543582558631897
1772796994044767700,6.396767822265625,-0.007155026774853468,0.019612492993474007,-0.02413051947951317
1772796994054793000,6.40679296875,-0.007719085086137056,0.02180507406592369,-0.024727599695324898
1772796994064819000,6.41681884765625,-0.014595739543437958,0.015953699126839638,-0.01951673813164234
1772796994074845200,6.42684521484375,-0.016314543783664703,0.0024560000747442245,-0.007778322324156761
1772796994084870000,6.436869873046875,-0.02080128900706768,0.011975064873695374,0.01114974170923233
1772796994094896000,6.446896240234375,-0.01995813101530075,0.023342233151197433,0.025503912940621376
1772796994104920800,6.4569208984375,-0.01626013033092022,0.019811971113085747,0.02025596983730793
1772796994114947000,6.466947021484375,-0.015216436237096786,0.012810520827770233,0.012325341813266277
1772796994124973000,6.47697314453125,-0.016331257298588753,0.00634224247187376,-0.0020476235076785088
1772796994134998000,6.486998046875,-0.014834561385214329,0.004374432843178511,-0.019623421132564545
1772796994145024000,6.49702392578125,-0.01897723600268364,-0.00018716463819146156,-0.03800831362605095
1772796994155049000,6.507049072265625,-0.021827617660164833,-0.009147636592388153,-0.05408794805407524
1772796994165075000,6.517074951171875,-0.022041456773877144,-0.009858970530331135,-0.052098095417022705
1772796994175100200,6.52710009765625,-0.02341271936893463,-0.002045256085693836,-0.040841177105903625
1772796994185126100,6.537126220703125,-0.02524671144783497,0.009217120707035065,-0.030851898714900017
1772796994195152100,6.547152099609375,-0.023313522338867188,0.006364875473082066,-0.02943349815905094
1772796994205177000,6.557177001953125,-0.020096926018595695,-0.008430327288806438,-0.027404077351093292
1772796994215203000,6.567203125,-0.0197637639939785,-0.013398188166320324,-0.018584752455353737
1772796994225228000,6.57722802734375,-0.01970766857266426,-0.00010090554133057594,-0.003925585187971592
1772796994235254000,6.58725390625,-0.019054127857089043,0.008670748211443424,0.010502356104552746
1772796994245280000,6.597280029296875,-0.009969045408070087,0.014301556162536144,0.022319786250591278
1772796994255305000,6.607304931640625,-0.0019273643847554922,0.014365739189088345,0.028924159705638885
1772796994265331000,6.6173310546875,0.0036534015089273453,0.007107358425855637,0.028215566650032997
1772796994275356200,6.627356201171875,0.004838508553802967,0.0024287167470902205,0.02588876336812973
1772796994285382100,6.637382080078125,0.003890212159603834,0.004473276901990175,0.02603681944310665
1772796994295407000,6.647406982421875,0.002322942018508911,0.0024599272292107344,0.02398778311908245
1772796994305433000,6.65743310546875,0.002322918036952615,-0.0011726883240044117,0.017911624163389206
1772796994315459000,6.667458984375,0.0025423625484108925,-0.007986651733517647,0.008013718761503696
1772796994325484000,6.677484130859375,0.002605489920824766,-0.006316321901977062,-0.00172019237652421
1772796994335510000,6.687510009765625,-0.00431979401037097,0.00017486652359366417,-0.0016237860545516014
1772796994345535000,6.697534912109375,-0.005819348618388176,-0.002198039088398218,-0.00586554454639554
1772796994355561000,6.70756103515625,-0.011386686936020851,0.00040759798139333725,-0.014280334115028381
1772796994365587000,6.7175869140625,-0.016390187665820122,0.002518055494874716,-0.032319292426109314
1772796994375612000,6.72761181640625,-0.01830020733177662,0.0027436253149062395,-0.04823434352874756
1772796994385638000,6.737637939453125,-0.017158349975943565,-0.0003985147923231125,-0.06129862368106842
1772796994395663000,6.7476630859375,-0.015361250378191471,0.000007883645594120026,-0.06909449398517609
1772796994405689000,6.757689208984375,-0.012765169143676758,0.0013937796466052532,-0.06751222163438797
1772796994415714000,6.767714111328125,-0.011143038049340248,0.0035149871837347746,-0.05637834221124649
1772796994425740000,6.777739990234375,-0.012087937444448471,0.00559465354308486,-0.034732647240161896
1772796994435766000,6.78776611328125,-0.01803078129887581,0.013777215965092182,-0.022260528057813644
1772796994445791000,6.797791015625,-0.02395988442003727,0.01313258707523346,-0.01468637865036726
1772796994455817000,6.80781689453125,-0.022439485415816307,0.00041066715493798256,-0.02176186628639698
1772796994465842000,6.817842041015625,-0.017099464312195778,-0.007721155881881714,-0.021857120096683502
1772796994475868000,6.827867919921875,-0.013883430510759354,-0.007368020713329315,-0.013661240227520466
1772796994485894000,6.837893798828125,-0.006364057771861553,-0.01440726313740015,-0.003747008740901947
1772796994495919000,6.847919189453125,-0.004691059701144695,-0.011664473451673985,0.019750861451029778
1772796994505945000,6.857945068359375,-0.005773188546299934,-0.00611752737313509,0.044005874544382095
1772796994515970000,6.867969970703125,-0.005669591948390007,-0.002093224786221981,0.05359405279159546
1772796994525996000,6.87799609375,-0.003008464118465781,-0.0011678943410515785,0.06087986379861832
1772796994536021000,6.88802099609375,-0.002466510748490691,0.003218331839889288,0.05564915016293526
1772796994546047000,6.898046875,-0.0033489027991890907,0.012765878811478615,0.035005394369363785
1772796994556073000,6.908072998046875,0.0013166891876608133,0.008887783624231815,0.006730612833052874
1772796994566098000,6.918097900390625,0.0011696552392095327,0.004996191244572401,-0.021294713020324707
1772796994576124000,6.9281240234375,0.0029776752926409245,-0.004906239919364452,-0.05434161052107811
1772796994586148900,6.93814892578125,0.0009446041658520699,-0.018289225175976753,-0.07318556308746338
1772796994596174800,6.9481748046875,-0.0006809893529862165,-0.01267528161406517,-0.07131975144147873
1772796994606200000,6.958199951171875,-0.005540771409869194,0.0025578292552381754,-0.05781721696257591
1772796994616226000,6.96822607421875,-0.004588957875967026,0.008656734600663185,-0.03270653635263443
1772796994626252000,6.978251953125,-0.0047578634694218636,0.012053622864186764,-0.01733042672276497
1772796994636277000,6.988277099609375,-0.0035301463212817907,0.009633874520659447,-0.0028199278749525547
1772796994646303000,6.998302978515625,0.00010621524415910244,0.01251351460814476,0.008924944326281548
1772796994656328000,7.008327880859375,0.0034325034357607365,0.012110046111047268,0.017920037731528282
1772796994666354000,7.01835400390625,-0.0011515857186168432,0.007021007128059864,0.01782916486263275
1772796994676380000,7.0283798828125,0.0033568795770406723,0.000612376257777214,0.013387011364102364
1772796994686404900,7.03840478515625,0.005232839845120907,-0.0010119001381099224,0.00254617165774107
1772796994696430800,7.048430908203125,0.004233888350427151,-0.0024822307750582695,0.002207683864980936
1772796994706456000,7.0584560546875,0.006998732686042786,-0.006199980154633522,-0.006458748131990433
1772796994716482000,7.06848193359375,0.004377116449177265,-0.0011359797790646553,-0.0070222727954387665
1772796994726507000,7.078507080078125,0.006900881417095661,0.005284149665385485,-0.009873609989881516
1772796994736533000,7.088532958984375,0.0036081490106880665,0.004219950642436743,-0.010665101930499077
1772796994746559000,7.09855908203125,0.0033307198900729418,0.003131221979856491,-0.013508966192603111
1772796994756584000,7.108583984375,-0.00025496003217995167,0.002724557416513562,-0.011945423670113087
1772796994766610000,7.11860986328125,-0.0040052710101008415,0.0003642905503511429,-0.009276103228330612
1772796994776635000,7.128634765625,-0.0019642242696136236,0.008556174114346504,0.0027949402574449778
1772796994786660900,7.138660888671875,-0.0043867467902600765,0.013367490842938423,0.009402087889611721
1772796994796685800,7.148685791015625,-0.0038844747468829155,0.011435633525252342,0.011622898280620575
1772796994806711800,7.1587119140625,-0.003924391232430935,0.010916038416326046,0.00317064905539155
1772796994816737800,7.16873779296875,-0.006440279074013233,0.004447752609848976,-0.0073243360966444016
1772796994826763000,7.178762939453125,-0.00481207063421607,0.003974868915975094,-0.021345313638448715
1772796994836789000,7.1887890625,-0.005173195619136095,0.002265918767079711,-0.02823757380247116
1772796994846814000,7.19881396484375,-0.008315718732774258,-0.00037042098119854927,-0.028732722625136375
1772796994856840000,7.20883984375,-0.01522049680352211,0.0017286823131144047,-0.026323625817894936
1772796994866866000,7.218865966796875,-0.020953785628080368,0.002447294071316719,-0.028226478025317192
1772796994876891000,7.228890869140625,-0.02584974095225334,0.005935502238571644,-0.0312638133764267
1772796994886916900,7.238916748046875,-0.031696394085884094,0.001888537546619773,-0.039208319038152695
1772796994896941800,7.24894189453125,-0.02877677232027054,0.0028989408165216446,-0.03792067989706993
1772796994906967800,7.2589677734375,-0.030285827815532684,0.006862310692667961,-0.03643851727247238
1772796994916993000,7.268992919921875,-0.02364923059940338,0.014782285317778587,-0.03022243082523346
1772796994927019000,7.27901904296875,-0.015567122027277946,0.012268280610442162,-0.02487611025571823
1772796994937044700,7.289044677734375,-0.015035821124911308,0.00590971764177084,-0.01963687315583229
1772796994947070000,7.299070068359375,-0.016159752383828163,0.008546424098312855,-0.009174162521958351
1772796994957096000,7.309095947265625,-0.018707331269979477,0.009442578069865704,0.004467613063752651
1772796994967121000,7.319120849609375,-0.02087373286485672,0.017828501760959625,0.01423055399209261
1772796994977147000,7.32914697265625,-0.01713705249130726,0.02538921684026718,0.02418891154229641
1772796994987171800,7.339171875,-0.01150854118168354,0.02108585089445114,0.027307942509651184
1772796994997197800,7.34919775390625,-0.004033847711980343,0.009246236644685268,0.018124299123883247
1772796995007224000,7.35922412109375,-0.0005811168812215328,-0.001738672610372305,0.0058019449934363365
1772796995017250000,7.36925,-0.003365718061104417,-0.003825259394943714,-0.0036064705345779657
1772796995027276000,7.379276123046875,-0.009747082367539406,0.0019544032402336597,-0.0035528065636754036
1772796995037301000,7.389301025390625,-0.011295443400740623,0.01457485742866993,-0.00024409499019384384
1772796995047327000,7.399326904296875,-0.008864350616931915,0.009740011766552925,0.0008154322858899832
1772796995057352200,7.409352294921875,-0.0008583557792007923,0.0006836662068963051,-0.0073767174035310745
1772796995067378000,7.4193779296875,0.001045404002070427,-0.0061673736199736595,-0.013264927081763744
1772796995077404000,7.42940380859375,0.001283756922930479,-0.012434856966137886,-0.010225195437669754
1772796995087429000,7.43942919921875,0.004457416012883186,-0.010763974860310555,-0.008547759614884853
1772796995097455000,7.449455078125,0.0027343505062162876,-0.008448622189462185,0.0033549717627465725
1772796995107480000,7.45947998046875,0.004343235865235329,-0.010562675073742867,0.015664488077163696
1772796995117506000,7.469506103515625,0.008315074257552624,-0.004784148186445236,0.02748226746916771
1772796995127531000,7.479531005859375,0.009838382713496685,0.005342799238860607,0.03709319978952408
1772796995137557000,7.489556884765625,0.012251738458871841,0.018459400162100792,0.03934064134955406
1772796995147583000,7.4995830078125,0.010263807140290737,0.023234587162733078,0.029584240168333054
1772796995157608000,7.50960791015625,0.004347595386207104,0.021178893744945526,0.012736550532281399
1772796995167634000,7.519634033203125,0.003219875041395426,0.01488464791327715,-0.012358920648694038
1772796995177659100,7.5296591796875,-0.000798568595200777,0.004968900699168444,-0.03024684078991413
1772796995187685000,7.53968505859375,-0.007011615205556154,-0.0006741923280060291,-0.04574629291892052
1772796995197710000,7.5497099609375,-0.012791473418474197,-0.0007317163981497288,-0.055051375180482864
1772796995207736000,7.559736083984375,-0.02134273573756218,-0.0034528085961937904,-0.05024898424744606
1772796995217762000,7.569761962890625,-0.027218468487262726,0.005478101782500744,-0.03996598720550537
1772796995227787000,7.579787109375,-0.02744544856250286,0.015590762719511986,-0.026133321225643158
1772796995237813000,7.58981298828125,-0.028362108394503593,0.02193387970328331,-0.01513206772506237
1772796995247838000,7.599837890625,-0.026096273213624954,0.021036315709352493,-0.004826556891202927
1772796995257864000,7.609864013671875,-0.02577562816441059,0.027721118181943893,-0.0022017459850758314
1772796995267889000,7.619888916015625,-0.022342782467603683,0.030733469873666763,-0.003518585581332445
1772796995277915000,7.629914794921875,-0.012022234499454498,0.016248002648353577,-0.004201952833682299
1772796995287940900,7.63994091796875,-0.0014663515612483025,0.003639314789324999,-0.0146681759506464
1772796995297966000,7.649966064453125,0.006768408231437206,0.005493939854204655,-0.00957940798252821
1772796995307992000,7.659991943359375,0.01264496985822916,0.005407372023910284,-0.002068405505269766
1772796995318017000,7.67001708984375,0.017995793372392654,0.007451880723237991,0.006395120173692703
1772796995328043000,7.68004296875,0.016757935285568237,0.016400646418333054,0.015788473188877106
1772796995338068000,7.69006787109375,0.01599813625216484,0.01861240155994892,0.015853988006711006
1772796995348094000,7.700093994140625,0.012974402867257595,0.014893552288413048,0.011996014043688774
1772796995358120000,7.710119873046875,0.00484936498105526,0.007342158816754818,-0.001762941014021635
1772796995368145000,7.720144775390625,-0.003483025124296546,0.0020846924744546413,-0.012142729945480824
1772796995378171000,7.7301708984375,-0.01208450272679329,-0.005210238508880138,-0.023714164271950722
1772796995388196000,7.740196044921875,-0.013578163459897041,-0.004958627745509148,-0.02767546847462654
1772796995398222000,7.75022216796875,-0.018790235742926598,-0.008936058729887009,-0.023895379155874252
1772796995408247000,7.7602470703125,-0.023997869342565536,-0.000674352515488863,-0.01689286157488823
1772796995418273000,7.77027294921875,-0.0243118554353714,0.0004183421842753887,-0.015261676162481308
1772796995428299000,7.780299072265625,-0.025773121044039726,0.00775108439847827,-0.013996999710798264
1772796995438324000,7.790323974609375,-0.024568306282162666,0.0010713436640799046,-0.015700357034802437
1772796995448350000,7.800349853515625,-0.021715499460697174,-0.0015361723490059376,-0.022388264536857605
1772796995458375000,7.810375,-0.021352777257561684,-0.005852890200912952,-0.016733307391405106
1772796995468401000,7.82040087890625,-0.019507234916090965,-0.002498357556760311,-0.01183637697249651
1772796995478425900,7.83042578125,-0.023913968354463577,0.001235660631209612,-0.009764437563717365
1772796995488451800,7.840451904296875,-0.021079516038298607,0.00194137217476964,-0.0059383041225373745
1772796995498477800,7.850477783203125,-0.01306793000549078,0.0015610726550221443,0.006573226302862167
1772796995508503000,7.8605029296875,-0.011875029653310776,-0.003571735695004463,0.014981210231781006
1772796995518529000,7.870529052734375,-0.011677157133817673,-0.0062404898926615715,0.02342449501156807
1772796995528554000,7.880553955078125,-0.012693341821432114,0.004419771954417229,0.028398538008332253
1772796995538580000,7.890580078125,-0.01342704240232706,0.007278408855199814,0.029203878715634346
1772796995548605000,7.90060498046875,-0.011117431335151196,0.0004071248695254326,0.023280035704374313
1772796995558631000,7.910630859375,-0.009268398396670818,-0.004446752369403839,0.014393866062164307
1772796995568657000,7.920656982421875,-0.010319606401026249,-0.0010653049685060978,0.007818076759576797
1772796995578681900,7.930681884765625,-0.012074628844857216,0.004179791081696749,-0.0024939491413533688
1772796995588707800,7.940707763671875,-0.012363996356725693,0.004320813808590174,-0.012480448931455612
1772796995598733000,7.950733154296875,-0.012141356244683266,0.009027950465679169,-0.02118978463113308
1772796995608759000,7.960759033203125,-0.01529955118894577,0.0022986484691500664,-0.03322170674800873
1772796995618784000,7.970783935546875,-0.015450019389390945,-0.0021224655210971832,-0.034582048654556274
1772796995628810000,7.98081005859375,-0.01818486861884594,0.00777227059006691,-0.026229817420244217
1772796995638836000,7.9908359375,-0.026928825303912163,0.013948407024145126,-0.023310992866754532
1772796995648861000,8.00086083984375,-0.032487522810697556,0.011709627695381641,-0.027605250477790833
1772796995658887000,8.010886962890625,-0.027674390003085136,-0.0007073609158396721,-0.035991013050079346
1772796995668911900,8.020911865234375,-0.02621440589427948,-0.01298508606851101,-0.0413346141576767
1772796995678937900,8.030937744140624,-0.01641184277832508,-0.024983160197734833,-0.03828848898410797
1772796995688962800,8.040962890625,-0.008930068463087082,-0.03175439313054085,-0.01854609325528145
1772796995698988800,8.05098876953125,-0.0019661677069962025,-0.017296090722084045,0.018072105944156647
1772796995709014000,8.061013916015625,0.0016895143780857325,-0.00400396715849638,0.051625773310661316
1772796995719040000,8.0710400390625,0.002994463313370943,-0.005164572969079018,0.06881142407655716
1772796995729066000,8.08106591796875,0.005333103239536285,-0.006343146786093712,0.0734025314450264
1772796995739091000,8.091091064453124,0.00307367742061615,0.0017872173339128494,0.06814704835414886
1772796995749117000,8.101116943359376,0.004207532852888107,0.0017343461513519287,0.04871733486652374
1772796995759142000,8.111141845703125,0.009874473325908184,-0.0004334668628871441,0.023277491331100464
1772796995769168000,8.12116796875,0.012280616909265518,-0.0019636498764157295,-0.0055154250003397465
1772796995779192800,8.13119287109375,0.011048905551433563,-0.006490491330623627,-0.024272600188851357
1772796995789218800,8.14121875,0.006619902327656746,-0.007836299017071724,-0.0409855917096138
1772796995799244800,8.151244873046876,-0.0005298862233757973,-0.009850714355707169,-0.05152851343154907
1772796995809270000,8.16127001953125,-0.004046757705509663,-0.008810862898826599,-0.05655795335769653
1772796995819296000,8.1712958984375,-0.00682949461042881,-0.004869917407631874,-0.0500585101544857
1772796995829321000,8.181321044921875,-0.0034698783420026302,-0.005294980481266975,-0.04220428690314293
1772796995839347000,8.191346923828124,0.00393370958045125,-0.007193281315267086,-0.027449574321508408
1772796995849372000,8.201371826171876,0.005130424629896879,0.0018607862293720245,-0.010482457466423512
1772796995859398000,8.21139794921875,0.007986931130290031,0.013933427631855011,0.01091763935983181
1772796995869422800,8.2214228515625,0.0036316541954874992,0.016957145184278488,0.027729550376534462
1772796995879448800,8.23144873046875,0.002577841281890869,0.013973072171211243,0.033336035907268524
1772796995889474800,8.241474853515625,0.004998540505766869,0.007432419341057539,0.027114808559417725
1772796995899499800,8.251499755859374,0.0058808461762964725,-0.0014422987587749958,0.01782064326107502
1772796995909525800,8.26152587890625,0.009540381841361523,-0.0026168040931224823,0.009997071698307991
1772796995919551000,8.271551025390625,0.015347404405474663,0.0040605394169688225,0.0014816143084317446
1772796995929577000,8.281576904296875,0.020626578480005264,0.001606975682079792,-0.002549286698922515
1772796995939602000,8.291601806640625,0.02378269098699093,0.000008812639862298965,-0.003631595289334655
1772796995949628000,8.3016279296875,0.024241141974925995,0.00570699293166399,-0.004372395575046539
1772796995959654000,8.31165380859375,0.022247767075896263,0.013307122513651848,-0.0015574342105537653
1772796995969678800,8.321678955078125,0.013715313747525215,0.01292493287473917,-0.004411838948726654
1772796995979704800,8.331704833984375,0.012258032336831093,0.007187418639659882,-0.013385361060500145
1772796995989729800,8.341729736328125,0.009985723532736301,-0.001494638156145811,-0.02145680971443653
1772796995999755800,8.351755859375,0.006702844984829426,-0.0013865139335393906,-0.02427097223699093
1772796996009781000,8.361781005859376,0.009238293394446373,0.001532185822725296,-0.025469839572906494
1772796996019805700,8.3718056640625,0.013096148148179054,-0.002927277237176895,-0.024635737761855125
1772796996029831700,8.381831787109375,0.017152070999145508,-0.006666792556643486,-0.017243454232811928
1772796996039856600,8.391856689453125,0.016961656510829926,-0.006110990419983864,-0.008072858676314354
1772796996049882600,8.401882568359374,0.012726038694381714,0.0019507354591041803,0.013682208955287933
1772796996059907600,8.411907470703126,0.007463365793228149,0.008860306814312935,0.02143094316124916
1772796996069933600,8.42193359375,0.005589268635958433,0.004024615976959467,0.015468567609786987
1772796996079958800,8.431958740234375,0.007057735696434975,-0.007699151523411274,0.009611478075385094
1772796996089984800,8.44198486328125,0.008789945393800735,-0.013477254658937454,-0.001229716930538416
1772796996100009700,8.452009765625,0.008640808053314686,-0.014549707993865013,-0.008086823858320713
1772796996110035700,8.46203564453125,0.006943732965737581,-0.010703451931476593,-0.01117757149040699
1772796996120061700,8.472061767578126,0.0026443256065249443,0.0016155317425727844,-0.008318135514855385
1772796996130086700,8.482086669921875,0.0004565769340842962,0.003924469463527203,-0.005019249394536018
1772796996140112600,8.492112548828125,-0.004644974134862423,0.0028895654249936342,0.003623774042353034
1772796996150137600,8.5021376953125,-0.006468127481639385,-0.00033635180443525314,-0.0017369352281093597
1772796996160163600,8.51216357421875,-0.00778719037771225,-0.004325767047703266,-0.008897908963263035
1772796996170188500,8.5221884765625,-0.00247255340218544,-0.013035973533987999,-0.01563960686326027
1772796996180214500,8.532214599609375,-0.005353827495127916,-0.013856759294867516,-0.012116245925426483
1772796996190239700,8.54223974609375,-0.004979495890438557,-0.005160355009138584,0.0010300339199602604
1772796996200265700,8.552265625,-0.0033363252878189087,0.005273377522826195,0.013357274234294891
1772796996210291700,8.562291748046874,-0.006204226054251194,0.013862303458154202,0.01894555799663067
1772796996220316700,8.572316650390626,-0.0023546272423118353,0.01304524578154087,0.012446647509932518
1772796996230342700,8.5823427734375,0.0004935761680826545,0.0029915757477283478,0.0023074925411492586
1772796996240367600,8.59236767578125,0.0003244653344154358,-0.004311610944569111,-0.004996227100491524
1772796996250393600,8.6023935546875,-0.005350769497454166,-0.00035839201882481575,-0.012980944477021694
1772796996260418600,8.61241845703125,-0.013114948756992817,-0.000015377067029476166,-0.020531274378299713
1772796996270444500,8.622444580078126,-0.01832755282521248,-0.005128379911184311,-0.02773725427687168
1772796996280470500,8.632470458984375,-0.01653790846467018,-0.0081300288438797,-0.032935742288827896
1772796996290495700,8.642495849609375,-0.014762451872229576,-0.00837228074669838,-0.03410925343632698
1772796996300521700,8.652521728515625,-0.020126057788729668,-0.014561467804014683,-0.02159479260444641
1772796996310546700,8.662546630859374,-0.02103421278297901,-0.010650292038917542,-0.0004590991884469986
1772796996320572700,8.67257275390625,-0.023273132741451263,-0.00700176227837801,0.019010204821825027
1772796996330597600,8.68259765625,-0.01929679699242115,-0.008507007732987404,0.04106755182147026
1772796996340623600,8.69262353515625,-0.016791827976703644,-0.008412731811404228,0.05814054608345032
1772796996350648600,8.702648681640625,-0.015496548265218735,-0.006361730396747589,0.06818752735853195
1772796996360674600,8.712674560546875,-0.012829924002289772,0.0023758350871503353,0.07509656995534897
1772796996370700500,8.722700439453124,-0.010728404857218266,0.009519221261143684,0.05861787125468254
1772796996380725500,8.7327255859375,-0.009804021567106247,0.010542940348386765,0.0347285196185112
1772796996390751500,8.74275146484375,-0.00437829177826643,0.0034180893562734127,0.007236560340970755
1772796996400776700,8.752776611328125,0.0009536227444186807,-0.0029777586460113525,-0.015018410980701447
1772796996410802700,8.762802734375,0.003910844214260578,-0.006538166664540768,-0.03354605659842491
1772796996420827600,8.77282763671875,0.01312724594026804,-0.005512316711246967,-0.031574517488479614
1772796996430853600,8.782853515625,0.014927593991160393,-0.0013490831479430199,-0.020472358912229538
1772796996440878600,8.792878662109375,0.016628023236989975,0.01104100700467825,-0.0021378251258283854
1772796996450904600,8.802904541015625,0.017286818474531174,0.012144185602664948,0.010014591738581657
1772796996460930600,8.8129306640625,0.020532146096229553,0.014948761090636253,0.016195522621273994
1772796996470955500,8.82295556640625,0.015533730387687683,0.007434021681547165,0.017388472333550453
1772796996480981500,8.8329814453125,0.013301467522978783,-0.000546939205378294,0.01924043335020542
1772796996491006700,8.8430068359375,0.012945076450705528,-0.006596485152840614,0.023950321599841118
1772796996501032700,8.85303271484375,0.013824984431266785,-0.008848187513649464,0.024355655536055565
1772796996511057700,8.8630576171875,0.010471454821527004,-0.004721041768789291,0.01811128295958042
1772796996521083600,8.873083740234375,0.012297051958739758,-0.00883775670081377,0.016009517014026642
1772796996531109600,8.883109619140624,0.01353510469198227,-0.0072837164625525475,0.014837753027677536
1772796996541134600,8.893134521484376,0.010512949898838997,0.00027992716059088707,0.002070825081318617
1772796996551160600,8.90316064453125,0.008241105824708939,-0.005617222748696804,-0.007609024178236723
1772796996561185500,8.913185546875,0.007470121141523123,0.001486492808908224,-0.00917176716029644
1772796996571211500,8.92321142578125,-0.002211406361311674,0.005240886937826872,-0.017353765666484833
1772796996581236500,8.933236572265624,-0.007691126316785812,0.002294099424034357,-0.024062268435955048
1772796996591262500,8.943262451171876,-0.004926837049424648,-0.0009892163798213005,-0.021700168028473854
1772796996601287700,8.95328759765625,-0.0028192109894007444,0.0009202701039612293,-0.019724102690815926
1772796996611313700,8.963313720703125,0.0030909571796655655,-0.0011312640272080898,-0.01989155262708664
1772796996621338600,8.973338623046875,0.007617798633873463,0.00036223651841282845,-0.01439558807760477
1772796996631364600,8.983364501953124,0.01064450852572918,0.0011885976418852806,-0.0043718935921788216
1772796996641390600,8.993390625,0.01877220906317234,0.000851441640406847,-0.0005758241750299931
1772796996651415600,9.00341552734375,0.020064357668161392,-0.0066509367898106575,0.0024634941946715117
1772796996661441500,9.013441650390625,0.021028155460953712,-0.0028825635090470314,0.005702164489775896
1772796996671466500,9.023466552734375,0.01918572187423706,-0.003654581494629383,0.007130774669349194
1772796996681492500,9.033492431640624,0.026386909186840057,-0.009527650661766529,0.010644815862178802
1772796996691517700,9.043517578125,0.02901676669716835,-0.013796636834740639,0.013011088594794273
1772796996701543700,9.053543701171876,0.03557959571480751,-0.015773234888911247,0.016889449208974838
1772796996711568600,9.063568603515625,0.041154056787490845,-0.018053613603115082,0.02240626886487007
1772796996721594600,9.0735947265625,0.04467102885246277,-0.016568901017308235,0.02835443802177906
1772796996731620600,9.08362060546875,0.03666136413812637,-0.013105805031955242,0.03415771201252937
1772796996741645600,9.0936455078125,0.03561607375741005,-0.0065818605944514275,0.03385038301348686
1772796996751671600,9.103671630859376,0.029184214770793915,-0.010654863901436329,0.03471227362751961
1772796996761696500,9.113696533203125,0.021472232416272163,-0.011709208600223064,0.029397670179605484
1772796996771722500,9.123722412109375,0.01763775572180748,-0.015892203897237778,0.022152097895741463
1772796996781747500,9.13374755859375,0.019712889567017555,-0.014773408882319927,0.019631948322057724
1772796996791773400,9.1437734375,0.01819673739373684,-0.01622903160750866,0.018800830468535423
1772796996801799400,9.15379931640625,0.01814773678779602,-0.012993823736906052,0.017590422183275223
1772796996811824600,9.16382470703125,0.021090196445584297,-0.015494223684072495,0.011493267491459846
1772796996821850600,9.1738505859375,0.017306644469499588,-0.014189541339874268,0.0011657953727990389
1772796996831875600,9.18387548828125,0.01238797977566719,-0.018403366208076477,-0.009377248585224152
1772796996841901600,9.193901611328124,0.005958043970167637,-0.017895232886075974,-0.013504082337021828
1772796996851926500,9.203926513671876,0.0004022768698632717,-0.007897053845226765,-0.009736418724060059
1772796996861952500,9.213952392578125,0.0008558132685720921,-0.003528670407831669,-0.006311860401183367
1772796996871977500,9.2239775390625,-0.0013945959508419037,0.00030310964211821556,-0.006030658259987831
1772796996882003500,9.23400341796875,0.0026046731509268284,-0.0034713884815573692,-0.008205395191907883
1772796996892029400,9.244029541015625,0.007322049234062433,-0.012872738763689995,-0.014444027096033096
1772796996902054700,9.2540546875,0.010130353271961212,-0.02362338826060295,-0.014842968434095383
1772796996912080600,9.26408056640625,0.011981591582298279,-0.027255719527602196,-0.013299079611897469
1772796996922105600,9.274105712890625,0.014055928215384483,-0.0274642463773489,-0.006811618804931641
1772796996932131600,9.284131591796875,0.012010810896754265,-0.02709774672985077,0.014265116304159164
1772796996942156500,9.294156494140625,0.0054684896022081375,-0.0160866416990757,0.041459716856479645
1772796996952182500,9.3041826171875,0.002291046781465411,-0.0005619456060230732,0.06569139659404755
1772796996962207500,9.31420751953125,0.005782716907560825,-0.000038368161767721176,0.0816035196185112
1772796996972233500,9.3242333984375,0.009893801994621754,0.003440010594204068,0.08373668789863586
1772796996982258400,9.334258544921875,0.01242753304541111,0.0069908034056425095,0.06688793003559113
1772796996992284400,9.344284423828125,0.01753661409020424,-0.0006693406030535698,0.03187946975231171
1772796997002310700,9.354310546875,0.01435147225856781,-0.0055296095088124275,-0.005395464599132538
1772796997012337000,9.3643369140625,0.012111525982618332,-0.01143572572618723,-0.03273092210292816
1772796997022363000,9.37436279296875,0.0012711285380646586,-0.006211136467754841,-0.04927074909210205
1772796997032388000,9.38438818359375,-0.0018772045150399208,-0.013695454224944115,-0.05051134526729584
1772796997042413800,9.394413818359375,-0.001559223048388958,-0.013270149007439613,-0.050864480435848236
1772796997052439000,9.40443896484375,-0.0046475669369101524,-0.006723211146891117,-0.03825245052576065
1772796997062465000,9.414465087890624,-0.005404969677329063,0.000170114915817976,-0.027258120477199554
1772796997072491000,9.424490966796874,-0.001997303916141391,0.002518662018701434,-0.01840939186513424
1772796997082516000,9.434515869140625,-0.0010377669241279364,0.003452898934483528,-0.01369186956435442
1772796997092542000,9.4445419921875,-0.0018918986897915602,0.0018486480694264174,-0.0114443339407444
1772796997102567000,9.45456689453125,0.0035081931855529547,0.0027871462516486645,-0.00685837073251605
1772796997112593000,9.464593017578125,-0.0018903191667050123,0.004291578195989132,-0.006761046126484871
1772796997122617900,9.474617919921876,-0.0028991245198994875,0.003555746516212821,-0.00654186774045229
1772796997132643800,9.484643798828126,-0.0033321641385555267,-0.0032329121604561806,-0.010329088196158409
1772796997142669000,9.4946689453125,-0.00424190005287528,-0.0017567225731909275,-0.00383896566927433
1772796997152695000,9.504695068359375,-0.001970966113731265,0.004599409177899361,0.004928866866976023
1772796997162720000,9.514719970703124,0.0037841247394680977,0.006808501668274403,0.00763410609215498
1772796997172746000,9.52474609375,0.009465822018682957,0.009017208591103554,0.004303972702473402
1772796997182772000,9.53477197265625,0.01047888770699501,0.00893811322748661,-0.0015999891329556704
1772796997192797000,9.544796875,0.008485210128128529,0.007951744832098484,-0.007172486744821072
1772796997202823000,9.554822998046875,-0.00030615110881626606,0.00907240342348814,-0.015720967203378677
1772796997212847900,9.564847900390625,-0.00874199066311121,0.008678218349814415,-0.026405170559883118
1772796997222873900,9.574873779296874,-0.014951417222619057,0.006140758749097586,-0.0316353514790535
1772796997232899000,9.584899169921876,-0.020871367305517197,0.004994006361812353,-0.03583323583006859
1772796997242925000,9.594925048828125,-0.02462136372923851,0.006683782208710909,-0.029263749718666077
1772796997252950000,9.604949951171875,-0.02681015059351921,0.007632092572748661,-0.02158840373158455
1772796997262976000,9.61497607421875,-0.020586077123880386,0.00886273942887783,-0.02377459406852722
1772796997273002000,9.625001953125,-0.019583947956562042,0.011558935046195984,-0.03220284357666969
1772796997283027000,9.63502685546875,-0.009905753657221794,0.002889547497034073,-0.0372825562953949
1772796997293053000,9.645052978515626,-0.0019671188201755285,-0.003120686858892441,-0.0384502112865448
1772796997303078000,9.655077880859375,0.005246852058917284,0.0005864338018000126,-0.030216781422495842
1772796997313104000,9.665103759765625,0.011742392554879189,0.00310993823222816,-0.01598191447556019
1772796997323128800,9.67512890625,0.010959690436720848,0.0016028555110096931,-0.005647251848131418
1772796997333154800,9.68515478515625,0.011855162680149078,-0.002125426661223173,0.0048414310440421104
1772796997343180000,9.695179931640626,0.0179482102394104,0.0009127072989940643,0.017432857304811478
1772796997353206000,9.7052060546875,0.023105120286345482,0.0039000436663627625,0.02411942556500435
1772796997363232000,9.71523193359375,0.025641247630119324,0.0028608781285583973,0.02459799498319626
1772796997373257000,9.725257080078125,0.02544029802083969,0.002009342657402158,0.02115275338292122
1772796997383283000,9.735282958984374,0.021135298535227776,-0.001149699091911316,0.008382097817957401
1772796997393308000,9.745307861328126,0.016353344544768333,-0.0022650440223515034,-0.003322615986689925
1772796997403334000,9.755333984375,0.011814786121249199,0.0022450194228440523,-0.00546566117554903
1772796997413358800,9.76535888671875,0.012995756231248379,0.004540487192571163,-0.009670428931713104
1772796997423384800,9.775384765625,0.016635766252875328,0.0006836969405412674,-0.014395142905414104
1772796997433410000,9.78541015625,0.019618820399045944,-0.0019376804120838642,-0.015617298893630505
1772796997443436000,9.79543603515625,0.020040132105350494,-0.004487923346459866,-0.016120901331305504
1772796997453461800,9.805461669921876,0.008483454585075378,0.003732603043317795,-0.01903105527162552
1772796997463487000,9.815487060546875,-0.005655001848936081,0.009140684269368649,-0.02120259590446949
1772796997473513000,9.825512939453125,-0.013235000893473625,0.005909323692321777,-0.028274236246943474
1772796997483538000,9.835537841796874,-0.014618245884776115,-0.006866925396025181,-0.03288017585873604
1772796997493564000,9.84556396484375,-0.010657526552677155,-0.015320106409490108,-0.03170667216181755
1772796997503588900,9.8555888671875,-0.0115965586155653,-0.014209835790097713,-0.022005043923854828
1772796997513614800,9.86561474609375,-0.01443338580429554,-0.012897410430014133,-0.0016359419096261263
1772796997523639800,9.875639892578125,-0.01220112293958664,-0.007020080462098122,0.03374308720231056
1772796997533665800,9.885665771484375,-0.007174396887421608,-0.0025952449068427086,0.06156826764345169
1772796997543691800,9.89569189453125,-0.003762622131034732,-0.0017624744214117527,0.07962183654308319
1772796997553717000,9.905717041015626,0.0035817152820527554,0.0021082942839711905,0.07978798449039459
1772796997563743000,9.915742919921875,0.011034837923943996,0.0035972674377262592,0.05927978456020355
1772796997573768000,9.925767822265625,0.013179628178477287,0.007431544363498688,0.03161637485027313
1772796997583794000,9.9357939453125,0.011040044948458672,0.008176164701581001,-0.0017138859257102013
1772796997593819000,9.94581884765625,0.01276460662484169,0.006427377928048372,-0.025516897439956665
1772796997603844900,9.955844970703126,0.018464837223291397,0.0006919940933585167,-0.03801457956433296
1772796997613869800,9.965869873046875,0.01762569136917591,-0.00391799584031105,-0.038155775517225266
1772796997623895800,9.975895751953125,0.016267213970422745,0.0014530676417052746,-0.03155273571610451
1772796997633921000,9.985921142578125,0.01063164509832859,0.002203629817813635,-0.016560180112719536
1772796997643947000,9.995947021484374,0.006283234804868698,0.013664277270436287,-0.003901110263541341
1772796997653973000,10.005972900390624,0.0015612465795129538,0.020167095586657524,0.0067250849679112434
1772796997663998000,10.015998046875,-0.0011341387871652842,0.012213032692670822,0.007478758692741394
1772796997674024000,10.02602392578125,-0.0005072837229818106,0.0038124388083815575,0.0001857168972492218
1772796997684049000,10.036048828125,-0.0028758994303643703,-0.0018331962637603283,-0.006585369817912579
1772796997694075000,10.046074951171875,-0.0017420537769794464,-0.006654452532529831,-0.002793058753013611
1772796997704099800,10.056099853515626,-0.0028390097431838512,-0.003214714117348194,0.012042345479130745
1772796997714125800,10.066125732421876,-0.0043725501745939255,-0.0012582517229020596,0.025737915188074112
1772796997724150800,10.07615087890625,-0.009866384789347649,0.00956030748784542,0.03281766176223755
1772796997734176800,10.0861767578125,-0.016382891684770584,0.011730796657502651,0.028539413586258888
1772796997744202000,10.096201904296874,-0.017031637951731682,0.01365200150758028,0.0208444744348526
1772796997754228000,10.10622802734375,-0.015128313563764095,0.006189050152897835,0.011915137059986591
1772796997764254000,10.11625390625,-0.010135951451957226,0.0028150915168225765,0.004408485256135464
1772796997774279000,10.12627880859375,-0.0039800554513931274,-0.00005499739199876785,-0.004362636245787144
1772796997784305000,10.136304931640625,-0.005854387767612934,-0.002618023194372654,-0.007876144722104073
1772796997794329900,10.146329833984375,-0.0028646227438002825,0.0006149415858089924,-0.007977401837706566
1772796997804355800,10.15635595703125,-0.004430827684700489,0.0035870294086635113,-0.010143617168068886
1772796997814380800,10.166380859375,-0.004694314673542976,0.0070753502659499645,-0.010338769294321537
1772796997824406800,10.17640673828125,0.0015622494975104928,0.0029285422060638666,-0.010169658809900284
1772796997834432000,10.186431884765625,0.0035689319483935833,-0.000811329111456871,-0.00942630972713232
1772796997844458000,10.1964580078125,0.0069239819422364235,0.002924020402133465,-0.007049971260130405
1772796997854484000,10.20648388671875,0.01025235466659069,-0.0003138217143714428,-0.0026213680393993855
1772796997864509000,10.216509033203126,0.01295199990272522,-0.005346396937966347,-0.0015973830595612526
1772796997874535200,10.22653515625,0.01347997598350048,-0.0051790205761790276,-0.002634181408211589
1772796997884560000,10.236559814453125,0.013213127851486206,-0.0049132369458675385,0.0035608639009296894
1772796997894586000,10.246586181640625,0.008189359679818153,-0.0028945719823241234,0.005268629640340805
1772796997904610800,10.25661083984375,0.002977287396788597,0.003535896772518754,0.01100907288491726
1772796997914637000,10.266636962890624,-0.0029561887495219707,0.0035121645778417587,0.01857081800699234
1772796997924661800,10.276661865234376,-0.00728568946942687,-0.0036852946504950523,0.01767067052423954
1772796997934687700,10.286687744140625,-0.009702307172119617,-0.0019251271151006222,0.019025767222046852
1772796997944713000,10.296712890625,-0.011364652775228024,0.0018403164576739073,0.02044975943863392
1772796997954739000,10.306739013671875,-0.009703537449240685,0.002319308463484049,0.025837013497948647
1772796997964765200,10.31676513671875,-0.007458492647856474,0.006632830481976271,0.026923317462205887
1772796997974790000,10.326789794921876,-0.0051582008600234985,0.010170983150601387,0.02156060002744198
1772796997984816000,10.336816162109375,-0.009477049112319946,0.013601134531199932,0.005320110823959112
1772796997994840800,10.3468408203125,-0.009316304698586464,0.005199510604143143,-0.015408753417432308
1772796998004867000,10.3568671875,-0.009899003431200981,-0.00435351487249136,-0.03796999156475067
1772796998014891800,10.366891845703124,-0.009313264861702919,-0.0002161436714231968,-0.04210146889090538
1772796998024917800,10.376917724609376,-0.019821565598249435,0.0015687067061662674,-0.04931330680847168
1772796998034943000,10.38694287109375,-0.021840684115886688,0.00479768356308341,-0.0512387678027153
1772796998044969000,10.396968994140625,-0.025071630254387856,0.005160406231880188,-0.05416771396994591
1772796998054994000,10.406993896484375,-0.023315835744142532,0.0032131215557456017,-0.04664836451411247
1772796998065020000,10.41702001953125,-0.015179612673819065,-0.004326820373535156,-0.03568519279360771
1772796998075046000,10.4270458984375,-0.0068773627281188965,-0.010576536878943443,-0.02502235397696495
1772796998085070800,10.43707080078125,-0.0032203104346990585,-0.019565770402550697,-0.0063583883456885815
1772796998095096800,10.447096923828125,0.0003186063840985298,-0.016448700800538063,0.018647052347660065
1772796998105121800,10.457121826171875,0.004148764535784721,-0.011702680960297585,0.040243957191705704
1772796998115147800,10.467147705078125,0.005866101011633873,-0.005670441314578056,0.058626651763916016
1772796998125172700,10.4771728515625,0.012150362133979797,-0.005196664482355118,0.0663658007979393
1772796998135198700,10.48719873046875,0.008006914518773556,0.0017835479229688644,0.06323351711034775
1772796998145224000,10.497223876953125,0.00890493206679821,0.00957835465669632,0.04470324143767357
1772796998155250000,10.50725,0.001420807559043169,0.01162191666662693,0.01810796558856964
1772796998165275000,10.51727490234375,-0.002134778769686818,0.006263902876526117,-0.014413759112358093
1772796998175300900,10.52730078125,-0.006636558100581169,-0.0016435729339718819,-0.041882578283548355
1772796998185326800,10.537326904296876,-0.008616617880761623,-0.008634104393422604,-0.06049514561891556
1772796998195351800,10.547351806640625,-0.011043732054531574,-0.01127389445900917,-0.0670817494392395
1772796998205377800,10.557377685546875,-0.012141753919422626,-0.005394967272877693,-0.059987351298332214
1772796998215402800,10.56740283203125,-0.015638547018170357,0.005201530642807484,-0.0439768061041832
1772796998225428700,10.5774287109375,-0.01566997356712818,0.0226614810526371,-0.020483462139964104
1772796998235454000,10.587453857421876,-0.006652362644672394,0.02767154388129711,-0.002584713976830244
1772796998245480000,10.59747998046875,0.00016799266450107098,0.018382437527179718,0.005735267419368029
1772796998255505000,10.6075048828125,0.007524864748120308,0.010061774402856827,0.009181247092783451
1772796998265531000,10.61753076171875,0.007243102416396141,0.005477408412843943,0.013818343169987202
1772796998275555800,10.627555908203124,0.0036219474859535694,0.005741898901760578,0.014502338133752346
1772796998285581800,10.637581787109376,-0.0015533734112977982,0.000762054231017828,0.010719850659370422
1772796998295607800,10.64760791015625,-0.001019841991364956,0.0065138377249240875,0.01059036422520876
1772796998305632800,10.6576328125,0.0035813013091683388,0.0017896562349051237,0.011113941669464111
1772796998315658800,10.66765869140625,0.0080649359151721,0.0021351545583456755,0.00622685719281435
1772796998325683700,10.67768359375,0.00966096855700016,0.005894206464290619,0.005541892256587744
1772796998335709700,10.687709716796874,0.009687746874988079,0.009071746841073036,0.007109871134161949
1772796998345735000,10.69773486328125,0.0012772177578881383,0.010988157242536545,0.0053575108759105206
1772796998355761000,10.707760986328125,0.00008624279871582985,0.009284007363021374,0.002588150091469288
1772796998365785900,10.717785888671875,-0.002380909863859415,0.010019572451710701,-0.002746694255620241
1772796998375811800,10.727811767578125,-0.002085941843688488,0.0046361093409359455,-0.014674876816570759
1772796998385837800,10.737837890625,-0.0014632944948971272,0.0029561875853687525,-0.026054032146930695
1772796998395862800,10.74786279296875,-0.0007133849430829287,-0.0024840915575623512,-0.03780365735292435
1772796998405888800,10.757888671875,0.0046499548479914665,-0.006752073764801025,-0.050970058888196945
1772796998415913700,10.767913818359375,0.008236203342676163,-0.013358380645513535,-0.05876316875219345
1772796998425939700,10.777939697265625,0.008381078951060772,-0.012060089036822319,-0.05438227206468582
1772796998435965000,10.78796484375,0.008763427846133709,-0.00432457122951746,-0.046660762280225754
1772796998445991000,10.797990966796876,0.00041042291559278965,-0.0009956201538443565,-0.045887913554906845
1772796998456016000,10.808015869140625,-0.0005276708398014307,-0.005985189229249954,-0.04617636650800705
1772796998466041900,10.818041748046875,-0.0029274451080709696,-0.008885637857019901,-0.04498779773712158
1772796998476066800,10.82806689453125,-0.0127374567091465,0.009682981297373772,-0.04116621986031532
1772796998486092800,10.8380927734375,-0.015038162469863892,0.011219624429941177,-0.002086994703859091
1772796998496117800,10.84811767578125,-0.02340685948729515,0.031089190393686295,0.032521460205316544
1772796998506143700,10.858143798828126,-0.027104392647743225,0.05106343328952789,0.027847614139318466
1772796998516169700,10.868169677734375,-0.023224959149956703,0.027235090732574463,0.02024601399898529
1772796998526194700,10.878194580078125,-0.028479909524321556,0.12656673789024353,0.11592646688222885
1772796998536220700,10.888220703125,-0.040322497487068176,0.15021830797195435,0.17217352986335754
1772796998546246000,10.898245849609374,-0.032129812985658646,0.1905103325843811,0.23579643666744232
1772796998556271900,10.90827197265625,-0.028109565377235413,0.1328985095024109,0.217411071062088
1772796998566296800,10.918296875,-0.020416758954524994,-0.052274540066719055,0.2621902525424957
1772796998576322800,10.92832275390625,0.0062848045490682125,-0.20508398115634918,0.35361984372138977
1772796998586347800,10.93834765625,0.032903630286455154,-0.19252824783325195,0.3280803859233856
1772796998596373800,10.948373779296874,0.032978355884552,-0.058129314333200455,0.22494161128997803
1772796998606398700,10.958398681640626,0.0026273743715137243,0.04739285260438919,0.06223658472299576
1772796998616424700,10.9684248046875,-0.02331600897014141,0.0306880921125412,0.013655655086040497
1772796998626450700,10.97845068359375,-0.014498548582196236,-0.01190410926938057,-0.011935458518564701
1772796998636476000,10.988475830078125,-0.008023708127439022,-0.07631228119134903,-0.07707472890615463
1772796998646502000,10.998501953125,-0.0004920219071209431,-0.10666273534297943,-0.15727102756500244
1772796998656526800,11.00852685546875,0.0012777503579854965,-0.09938309341669083,-0.20235440135002136
1772796998666552800,11.018552734375,-0.004108492750674486,-0.06949150562286377,-0.19329220056533813
