time,seconds_elapsed,z,y,x
1772809081250441000,0.06344091796875,0.20021271705627441,-0.1648225039243698,-0.015061507001519203
1772809081260464600,0.073464599609375,0.19219741225242615,-0.14097097516059875,-0.04718988388776779
1772809081270488800,0.08348876953125,0.18663886189460754,-0.12226466089487076,-0.04646683484315872
1772809081280512800,0.0935126953125,0.17812925577163696,-0.10445316880941391,-0.026066487655043602
1772809081290536700,0.10353662109375,0.17462480068206787,-0.10643962025642395,0.011828962713479996
1772809081300560600,0.113560546875,0.16468241810798645,-0.12662026286125183,0.054313041269779205
1772809081310584800,0.123584716796875,0.14781449735164642,-0.1522289514541626,0.10235806554555893
1772809081320608800,0.13360888671875,0.12523621320724487,-0.1728423535823822,0.14359205961227417
1772809081330632700,0.1436328125,0.10739223659038544,-0.18554829061031342,0.17581124603748322
1772809081340656600,0.15365673828125,0.10049864649772644,-0.17511563003063202,0.18585987389087677
1772809081350679800,0.1636796875,0.09949623048305511,-0.15367504954338074,0.18157538771629333
1772809081360703700,0.173703857421875,0.09573850780725479,-0.12725196778774261,0.1677650362253189
1772809081370727700,0.183727783203125,0.08604913204908371,-0.08093506097793579,0.14744910597801208
1772809081380752000,0.193751953125,0.0693601667881012,-0.021630993112921715,0.1281379908323288
1772809081390775800,0.20377587890625,0.04862426221370697,0.03364557772874832,0.10656265914440155
1772809081400799700,0.2137998046875,0.03608822822570801,0.09045106917619705,0.082767054438591
1772809081410824000,0.223823974609375,0.022726351395249367,0.13356605172157288,0.06015335023403168
1772809081420847600,0.23384765625,0.012343484908342361,0.15624366700649261,0.035466115921735764
1772809081430871800,0.243871826171875,0.008945824578404427,0.16054414212703705,0.00956900417804718
1772809081440895700,0.253895751953125,0.0013523531379178166,0.1416628509759903,-0.010150638408958912
1772809081450920000,0.263919921875,-0.002251702593639493,0.11124583333730698,-0.03051876090466976
1772809081460943600,0.273943603515625,-0.0046120621263980865,0.07077829539775848,-0.04175170883536339
1772809081470967800,0.2839677734375,-0.0006570018595084548,0.035959333181381226,-0.04647242650389671
1772809081480991700,0.29399169921875,0.0017454357584938407,0.012146677821874619,-0.039681632071733475
1772809081491015700,0.304015625,0.017911622300744057,-0.0036770266015082598,-0.019819777458906174
1772809081501039600,0.31403955078125,0.03225141391158104,-0.003866909770295024,0.006493585649877787
1772809081511063800,0.324063720703125,0.0487544909119606,0.006207828409969807,0.03314889967441559
1772809081521087700,0.334087646484375,0.06495396792888641,0.018694326281547546,0.05182830989360809
1772809081531111700,0.344111572265625,0.07561033964157104,0.023790018633008003,0.06615718454122543
1772809081541136000,0.354135986328125,0.08761081099510193,0.03627198562026024,0.07961546629667282
1772809081551159800,0.364159912109375,0.1059916764497757,0.0585048533976078,0.09505806863307953
1772809081561183700,0.374183837890625,0.11336410790681839,0.07154608517885208,0.1052292138338089
1772809081571207700,0.384207763671875,0.12184601277112961,0.07862956076860428,0.11249218881130219
1772809081581231900,0.39423193359375,0.12534593045711517,0.05961406230926514,0.11701956391334534
1772809081591255600,0.404255615234375,0.11884728819131851,0.02105228789150715,0.12436855584383011
1772809081601279700,0.41427978515625,0.10332611948251724,-0.026389796286821365,0.12333418428897858
1772809081611303700,0.4243037109375,0.07126299291849136,-0.07389099895954132,0.10886869579553604
1772809081621327600,0.43432763671875,0.02671310305595398,-0.08717191964387894,0.07550780475139618
1772809081631351800,0.444351806640625,-0.014810637570917606,-0.07982878386974335,0.020677048712968826
1772809081641375700,0.454375732421875,-0.050388604402542114,-0.040773794054985046,-0.04695446044206619
1772809081651400000,0.46439990234375,-0.08377372473478317,0.0189015194773674,-0.12715262174606323
1772809081661423600,0.474423583984375,-0.103343166410923,0.06607489287853241,-0.2013072818517685
1772809081671447800,0.48444775390625,-0.11047884076833725,0.07497917115688324,-0.25785842537879944
1772809081681471700,0.4944716796875,-0.09921446442604065,0.055210523307323456,-0.286318302154541
1772809081691495700,0.50449560546875,-0.07641994208097458,0.03133795037865639,-0.2776782214641571
1772809081701519600,0.51451953125,-0.041671015322208405,0.01877768151462078,-0.23174135386943817
1772809081711543800,0.524543701171875,0.0032088428270071745,0.0030511836521327496,-0.17375235259532928
1772809081721567700,0.534567626953125,0.04209978133440018,-0.0062429821118712425,-0.11293933540582657
1772809081731591700,0.544591796875,0.07184542715549469,-0.025433188304305077,-0.05700469762086868
1772809081741615900,0.554615966796875,0.08936343342065811,-0.049249839037656784,-0.007652593310922384
1772809081751639800,0.564639892578125,0.09418162703514099,-0.0779627114534378,0.043410059064626694
1772809081761663700,0.574663818359375,0.09410466253757477,-0.0880182757973671,0.09434381127357483
1772809081771687700,0.584687744140625,0.09559869766235352,-0.06836121529340744,0.13291729986667633
1772809081781712000,0.5947119140625,0.09133550524711609,-0.03381602093577385,0.1607939451932907
1772809081791735600,0.604735595703125,0.09463436156511307,-0.01549613568931818,0.16904202103614807
1772809081801759700,0.614759765625,0.09788715094327927,-0.022003035992383957,0.1626669466495514
1772809081811783700,0.62478369140625,0.10265927016735077,-0.026628680527210236,0.15019775927066803
1772809081821807900,0.634807861328125,0.10694722086191177,-0.011800200678408146,0.14063647389411926
1772809081831831800,0.644831787109375,0.10428033024072647,0.016760071739554405,0.1363983154296875
1772809081841855700,0.654855712890625,0.09415579587221146,0.043894752860069275,0.13923218846321106
1772809081851880000,0.6648798828125,0.07578504085540771,0.07314930856227875,0.1463542878627777
1772809081861903600,0.674903564453125,0.05979409068822861,0.09494595229625702,0.16074679791927338
1772809081871927800,0.684927734375,0.0423639677464962,0.10211411863565445,0.18453894555568695
1772809081881951700,0.69495166015625,0.018279405310750008,0.11675910651683807,0.2086469531059265
1772809081891975700,0.7049755859375,-0.0012333098566159606,0.12675395607948303,0.2240128517150879
1772809081901998800,0.714998779296875,-0.02251542918384075,0.1275654137134552,0.21953102946281433
1772809081912021800,0.725021728515625,-0.037580665200948715,0.1087387278676033,0.19897648692131042
1772809081922046000,0.7350458984375,-0.046959251165390015,0.08090469986200333,0.157056987285614
1772809081932070000,0.74506982421875,-0.043594881892204285,0.0449640117585659,0.10624494403600693
1772809081942093800,0.75509375,-0.034686341881752014,-0.001996039180085063,0.052314069122076035
1772809081952118000,0.765117919921875,-0.019058113917708397,-0.03984461724758148,0.005665608681738377
1772809081962141700,0.7751416015625,-0.006712497677654028,-0.035418976098299026,-0.018760904669761658
1772809081972166000,0.785165771484375,0.0017145430902019143,0.012570120394229889,-0.016163790598511696
1772809081982189800,0.79518994140625,0.008155930787324905,0.09297974407672882,0.0017955031944438815
1772809081992213800,0.8052138671875,0.013557087630033493,0.14868775010108948,0.017199493944644928
1772809082002237700,0.81523779296875,0.02942500077188015,0.1499205231666565,0.022160163149237633
1772809082012262000,0.825261962890625,0.0588686428964138,0.08752185851335526,0.006425408646464348
1772809082022285800,0.835285888671875,0.09113763272762299,-0.0033771544694900513,-0.011502192355692387
1772809082032309800,0.845309814453125,0.117194265127182,-0.09622586518526077,-0.036485571414232254
1772809082042334000,0.855333984375,0.1292000561952591,-0.14097869396209717,-0.06184978410601616
1772809082052358000,0.86535791015625,0.11735326051712036,-0.13250771164894104,-0.08163227885961533
1772809082062381800,0.8753818359375,0.08729122579097748,-0.09596700966358185,-0.09295816719532013
1772809082072405800,0.88540576171875,0.04734887182712555,-0.06720806658267975,-0.1088324710726738
1772809082082430000,0.895429931640625,0.018868230283260345,-0.06262663006782532,-0.12473367899656296
1772809082092454000,0.905453857421875,-0.003963849041610956,-0.036002207547426224,-0.13693387806415558
1772809082102477800,0.915477783203125,-0.019302058964967728,0.004417917691171169,-0.15391233563423157
1772809082112501800,0.925501708984375,0.001773398951627314,0.08098673075437546,-0.17463652789592743
1772809082122526000,0.93552587890625,0.032947562634944916,0.16656208038330078,-0.18669025599956512
1772809082132550000,0.9455498046875,0.02985403500497341,0.25729623436927795,-0.18115167319774628
1772809082142573800,0.95557373046875,0.046963512897491455,0.26243826746940613,-0.16858768463134766
1772809082152598000,0.965597900390625,0.08987023681402206,0.20554596185684204,-0.15600131452083588
1772809082162621700,0.97562158203125,0.11056140065193176,0.10538048297166824,-0.13251596689224243
1772809082172646000,0.98564599609375,0.1203668937087059,-0.02942047268152237,-0.09983338415622711
1772809082182669800,0.995669921875,0.11942359805107117,-0.1492547243833542,-0.0654466524720192
1772809082192694000,1.005694091796875,0.09953324496746063,-0.22717402875423431,-0.03279629722237587
1772809082202717700,1.0157177734375,0.07220948487520218,-0.248060405254364,-0.013288374990224838
1772809082212742000,1.025741943359375,0.05856557562947273,-0.2671739161014557,-0.0008609999786131084
1772809082222765800,1.035765869140625,0.049606435000896454,-0.28129133582115173,0.015476960688829422
1772809082232789800,1.045789794921875,0.044741373509168625,-0.2864706516265869,0.023870445787906647
1772809082242814000,1.05581396484375,0.048834118992090225,-0.2746028006076813,0.03105485439300537
1772809082252838000,1.065837890625,0.060447897762060165,-0.23513075709342957,0.031555529683828354
1772809082262861800,1.07586181640625,0.07406517118215561,-0.18616588413715363,0.024445155635476112
1772809082272885800,1.0858857421875,0.0935472622513771,-0.1468360424041748,0.009515208192169666
1772809082282910000,1.095909912109375,0.11715085804462433,-0.1310562938451767,-0.005825132131576538
1772809082292934000,1.105933837890625,0.15116848051548004,-0.14730049669742584,-0.012256133370101452
1772809082302957800,1.115957763671875,0.17622749507427216,-0.1762770265340805,-0.00129695946816355
1772809082312981800,1.125981689453125,0.19311033189296722,-0.19467787444591522,0.036500751972198486
1772809082323006000,1.136005859375,0.19251112639904022,-0.19538787007331848,0.08601637184619904
1772809082333029600,1.146029541015625,0.18127471208572388,-0.175081267952919,0.12795263528823853
1772809082343053800,1.1560537109375,0.16855812072753906,-0.15305879712104797,0.15101107954978943
1772809082353078000,1.166078125,0.15119777619838715,-0.15568387508392334,0.14491377770900726
1772809082363102000,1.17610205078125,0.1279481053352356,-0.19877994060516357,0.10625053942203522
1772809082373126000,1.1861259765625,0.1038220003247261,-0.2582573890686035,0.06210305169224739
1772809082383149800,1.19614990234375,0.07225129008293152,-0.3075160086154938,0.019027486443519592
1772809082393174000,1.206174072265625,0.02636662684381008,-0.31705519556999207,-0.010193515568971634
1772809082403197700,1.21619775390625,-0.012828180566430092,-0.28753218054771423,-0.030111562460660934
1772809082413222000,1.226221923828125,-0.04819922149181366,-0.24104830622673035,-0.05144082009792328
1772809082423245800,1.236245849609375,-0.06778783351182938,-0.18306222558021545,-0.06726985424757004
1772809082433269800,1.246269775390625,-0.06463838368654251,-0.1275920420885086,-0.07106165587902069
1772809082443293700,1.256293701171875,-0.03882649168372154,-0.06573693454265594,-0.03801875561475754
1772809082453318000,1.26631787109375,0.0022863238118588924,0.042338401079177856,0.03891411051154137
1772809082463341800,1.276341796875,0.05320356786251068,0.15554991364479065,0.13695386052131653
1772809082473365800,1.28636572265625,0.07837043702602386,0.18714378774166107,0.21688544750213623
1772809082483390000,1.296389892578125,0.06830129027366638,0.10190106183290482,0.23240235447883606
1772809082493414000,1.306413818359375,0.02202833630144596,-0.07876858115196228,0.1877499222755432
1772809082503437800,1.316437744140625,-0.02804308570921421,-0.2382945865392685,0.11982174217700958
1772809082513461800,1.326461669921875,-0.061646319925785065,-0.29054901003837585,0.06710260361433029
1772809082523486000,1.33648583984375,-0.08112068474292755,-0.23167024552822113,0.029948310926556587
1772809082533509600,1.346509521484375,-0.08404989540576935,-0.1084124967455864,0.010181797668337822
1772809082543533800,1.356533935546875,-0.07050106674432755,0.04771292582154274,-0.001743305241689086
1772809082553557800,1.366557861328125,-0.0427224300801754,0.19606591761112213,-0.005359877832233906
1772809082563582000,1.37658203125,0.0021486382465809584,0.2926265299320221,-0.011828962713479996
1772809082573606000,1.38660595703125,0.05277399718761444,0.3130745589733124,-0.025726668536663055
1772809082583629800,1.3966298828125,0.09632813185453415,0.26242443919181824,-0.03929174691438675
1772809082593654000,1.406654052734375,0.10912435501813889,0.15228354930877686,-0.04382551088929176
1772809082603677700,1.416677734375,0.10324250161647797,0.021941252052783966,-0.030991205945611
1772809082613702000,1.426701904296875,0.08078459650278091,-0.09181460738182068,0.004821120295673609
1772809082623725800,1.436725830078125,0.07143263518810272,-0.17872820794582367,0.04484843090176582
1772809082633749800,1.446749755859375,0.06460242718458176,-0.24977707862854004,0.09373021870851517
1772809082643773700,1.456773681640625,0.058460380882024765,-0.3113544285297394,0.15482152998447418
1772809082653798000,1.4667978515625,0.049308162182569504,-0.33882784843444824,0.23180820047855377
1772809082663821800,1.47682177734375,0.02972380630671978,-0.3263693153858185,0.3095400035381317
1772809082673845800,1.486845703125,-0.0016828514635562897,-0.28487274050712585,0.36430472135543823
1772809082683870000,1.496869873046875,-0.02827850915491581,-0.2092328518629074,0.3915342092514038
1772809082693894000,1.506893798828125,-0.05872270092368126,-0.10502468794584274,0.3764849603176117
1772809082703917800,1.516917724609375,-0.08454418182373047,0.00806272029876709,0.3218560516834259
1772809082713941800,1.526941650390625,-0.10838959366083145,0.11025087535381317,0.24257563054561615
1772809082723966000,1.536966064453125,-0.1208643689751625,0.1775502860546112,0.150984987616539
1772809082733990000,1.546989990234375,-0.14387167990207672,0.1934397667646408,0.05680522695183754
1772809082744013800,1.557013916015625,-0.17535850405693054,0.15899284183979034,-0.027404991909861565
1772809082754037800,1.567037841796875,-0.211488276720047,0.10306992381811142,-0.09245456755161285
1772809082764062000,1.57706201171875,-0.2397817075252533,0.041316546499729156,-0.12012054771184921
1772809082774086000,1.5870859375,-0.2724171280860901,-0.006310892757028341,-0.12615500390529633
1772809082784109800,1.59710986328125,-0.28857719898223877,-0.010698450729250908,-0.10604867339134216
1772809082794134000,1.607134033203125,-0.28402239084243774,0.014011689461767673,-0.07204490154981613
1772809082804157700,1.61715771484375,-0.26432564854621887,0.05423127859830856,-0.03038107603788376
1772809082814182000,1.627181884765625,-0.2286779135465622,0.09836678206920624,0.00023222764139063656
1772809082824205800,1.637205810546875,-0.19592024385929108,0.1499471515417099,0.0212461668998003
1772809082834230000,1.64722998046875,-0.16732507944107056,0.19980978965759277,0.027520308271050453
1772809082844253700,1.657253662109375,-0.13749581575393677,0.2457360029220581,0.018099907785654068
1772809082854278000,1.66727783203125,-0.11364054679870605,0.26817312836647034,-0.003013632958754897
1772809082864301800,1.6773017578125,-0.10562735795974731,0.2630300223827362,-0.018486065790057182
1772809082874325800,1.68732568359375,-0.1015508621931076,0.2336321920156479,-0.040957819670438766
1772809082884349700,1.697349609375,-0.11084209382534027,0.1631164848804474,-0.06366526335477829
1772809082894374000,1.707373779296875,-0.11898870766162872,0.061169080436229706,-0.0906049981713295
1772809082904402400,1.71740234375,-0.1308152675628662,-0.0451379157602787,-0.10749157518148422
1772809082914426600,1.727426513671875,-0.14536279439926147,-0.14324797689914703,-0.1201261430978775
1772809082924450300,1.7374501953125,-0.1652456820011139,-0.22293561697006226,-0.12288597226142883
1772809082934474500,1.747474609375,-0.18191200494766235,-0.26198527216911316,-0.12976491451263428
1772809082944498400,1.75749853515625,-0.18885327875614166,-0.2428257018327713,-0.13896188139915466
1772809082954522400,1.7675224609375,-0.18294239044189453,-0.17086495459079742,-0.1499367654323578
1772809082964546600,1.777546630859375,-0.16039259731769562,-0.07810145616531372,-0.15854863822460175
1772809082974570500,1.787570556640625,-0.13427577912807465,-0.003320429241284728,-0.16627392172813416
1772809082984594700,1.7975947265625,-0.1105952188372612,0.03387754037976265,-0.1753731518983841
1772809082994618400,1.807618408203125,-0.08046501129865646,0.033226128667593,-0.1739957630634308
1772809083004642600,1.817642578125,-0.05085998401045799,0.006862965878099203,-0.16564196348190308
1772809083014666500,1.82766650390625,-0.017969945445656776,-0.026162361726164818,-0.1452602595090866
1772809083024690400,1.8376904296875,0.009761550463736057,-0.06646664440631866,-0.11577773094177246
1772809083034714400,1.84771435546875,0.021687185391783714,-0.07851585000753403,-0.08719189465045929
1772809083044738600,1.857738525390625,0.029411152005195618,-0.07403108477592468,-0.06210571527481079
1772809083054762200,1.86776220703125,0.024404408410191536,-0.061581339687108994,-0.03790849819779396
1772809083064786400,1.877786376953125,0.018556373193860054,-0.036195289343595505,-0.013451892882585526
1772809083074810600,1.887810546875,0.016986174508929253,0.015384282916784286,0.008015582337975502
1772809083084834600,1.89783447265625,0.013660152442753315,0.08004370331764221,0.024086693301796913
1772809083094858500,1.9078583984375,0.013817545026540756,0.1384636014699936,0.031920380890369415
1772809083104882400,1.91788232421875,0.008747951127588749,0.17118266224861145,0.037163615226745605
1772809083114906600,1.92790673828125,-0.005816077347844839,0.15935823321342468,0.03677292913198471
1772809083124930300,1.937930419921875,-0.02191062457859516,0.0862928107380867,0.025827335193753242
1772809083134954500,1.94795458984375,-0.05534474924206734,-0.01961790956556797,0.015563513152301311
1772809083144978400,1.957978515625,-0.0923866555094719,-0.11512978374958038,0.004083691164851189
1772809083155002400,1.96800244140625,-0.1221565380692482,-0.16998158395290375,-0.0006785734440200031
1772809083165027300,1.97802734375,-0.13709527254104614,-0.1881432682275772,0.0015611450653523207
1772809083175051500,1.988051513671875,-0.1341327726840973,-0.1626664102077484,-0.0028543761000037193
1772809083185075500,1.998075439453125,-0.12832282483577728,-0.09907758235931396,-0.01732679270207882
1772809083195099400,2.008099365234375,-0.11878444254398346,-0.020123111084103584,-0.02761032246053219
1772809083205123300,2.018123291015625,-0.09578511863946915,0.08815595507621765,-0.030664701014757156
1772809083215147500,2.0281474609375,-0.0644114762544632,0.244120255112648,-0.011022291146218777
1772809083225171500,2.03817138671875,-0.037227530032396317,0.45452144742012024,0.02280544675886631
1772809083235195400,2.0481953125,-0.0010511496802791953,0.6690686345100403,0.06326578557491302
1772809083245219600,2.058219482421875,0.04258660972118378,0.7849840521812439,0.07763833552598953
1772809083255243500,2.068243408203125,0.09546872973442078,0.7668551206588745,0.06715746223926544
1772809083265267500,2.078267333984375,0.14888322353363037,0.665361225605011,0.04514004662632942
1772809083275291400,2.08829150390625,0.19731973111629486,0.5355105400085449,0.02515568770468235
1772809083285315600,2.098315673828125,0.24518552422523499,0.41196972131729126,0.014565893448889256
1772809083295339500,2.108339599609375,0.2808700203895569,0.28016695380210876,0.00926327332854271
1772809083305363500,2.118363525390625,0.29980534315109253,0.15633314847946167,0.007650462910532951
1772809083315387400,2.128387451171875,0.30168822407722473,0.056724533438682556,0.012781308963894844
1772809083325411600,2.13841162109375,0.2866069972515106,0.0043707797303795815,0.03269003704190254
1772809083335435300,2.148435302734375,0.2728134095668793,-0.0007989483419805765,0.06532121449708939
1772809083345459500,2.15845947265625,0.2653619050979614,0.02911847084760666,0.10350242257118225
1772809083355483600,2.168483642578125,0.26817020773887634,0.09308227151632309,0.14268498122692108
1772809083365507300,2.17850732421875,0.2780127227306366,0.19194360077381134,0.1821887195110321
1772809083375531500,2.188531494140625,0.30034971237182617,0.29988765716552734,0.2127695232629776
1772809083385555500,2.198555419921875,0.3219367563724518,0.38809022307395935,0.22286397218704224
1772809083395579600,2.20857958984375,0.33980125188827515,0.4300270080566406,0.2186327427625656
1772809083405604400,2.218604248046875,0.3543919026851654,0.3996049165725708,0.19607283174991608
1772809083415628500,2.228628662109375,0.3621414303779602,0.3115541636943817,0.16869686543941498
1772809083425652500,2.238652587890625,0.35793524980545044,0.18062996864318848,0.14843180775642395
1772809083435676700,2.2486767578125,0.35177934169769287,0.027412449941039085,0.12834198772907257
1772809083445700400,2.258700439453125,0.3402864634990692,-0.09802749752998352,0.11154543608427048
1772809083455724500,2.268724609375,0.3343992829322815,-0.17786161601543427,0.09268972277641296
1772809083465748500,2.27874853515625,0.3234773874282837,-0.21067868173122406,0.0602303184568882
1772809083475772400,2.2887724609375,0.3019776940345764,-0.21266965568065643,0.013729128055274487
1772809083485796400,2.29879638671875,0.2622896730899811,-0.18591420352458954,-0.04119670391082764
1772809083495820500,2.308820556640625,0.21454451978206635,-0.1580791175365448,-0.10497462004423141
1772809083505844500,2.318844482421875,0.16874641180038452,-0.12350250035524368,-0.170354962348938
1772809083515868400,2.328868408203125,0.13007357716560364,-0.08095050603151321,-0.2307397425174713
1772809083525892600,2.338892578125,0.10357033461332321,-0.03111690655350685,-0.27088770270347595
1772809083535916500,2.34891650390625,0.08640412986278534,0.0057372478768229485,-0.29292961955070496
1772809083545940500,2.3589404296875,0.07925886660814285,0.03545386344194412,-0.283814936876297
1772809083555964400,2.36896435546875,0.10085257887840271,0.0624532587826252,-0.2383507788181305
1772809083565988600,2.378988525390625,0.14460964500904083,0.08427706360816956,-0.16351862251758575
1772809083576012300,2.38901220703125,0.21351280808448792,0.09997586905956268,-0.06808051466941833
1772809083586037500,2.39903759765625,0.2965182065963745,0.11903797090053558,0.03975407034158707
1772809083596061400,2.4090615234375,0.3738985061645508,0.14155499637126923,0.14309856295585632
1772809083606085600,2.419085693359375,0.4410865902900696,0.13597062230110168,0.22410473227500916
1772809083616109300,2.429109375,0.47541844844818115,0.08177262544631958,0.277502179145813
1772809083626133500,2.439133544921875,0.46736133098602295,0.0029031119775027037,0.2939181625843048
1772809083636157400,2.449157470703125,0.42891380190849304,-0.08694981038570404,0.2757759094238281
1772809083646181600,2.459181640625,0.37572407722473145,-0.1716199517250061,0.227570578455925
1772809083656205300,2.469205322265625,0.31525489687919617,-0.2248661369085312,0.1645631194114685
1772809083666229500,2.4792294921875,0.25597453117370605,-0.2411055564880371,0.08984946459531784
1772809083676253400,2.48925341796875,0.2063417136669159,-0.2595559358596802,0.023396935313940048
1772809083686277400,2.49927734375,0.16519054770469666,-0.26387932896614075,-0.022484270855784416
1772809083696301600,2.509301513671875,0.11822330951690674,-0.24887213110923767,-0.04116741195321083
1772809083706325500,2.519325439453125,0.07848016172647476,-0.2170867770910263,-0.03887256607413292
1772809083716349400,2.529349365234375,0.058948539197444916,-0.18447797000408173,-0.020987574011087418
1772809083726373400,2.539373291015625,0.049915894865989685,-0.17280319333076477,0.005104747135192156
1772809083736397600,2.5493974609375,0.0410425066947937,-0.16616660356521606,0.03888774290680885
1772809083746422500,2.559422607421875,0.02485661394894123,-0.14955992996692657,0.08081602305173874
1772809083756446500,2.569446533203125,0.0051809134893119335,-0.12309157103300095,0.11309672892093658
1772809083766470400,2.579470458984375,-0.023745808750391006,-0.0910007432103157,0.13240757584571838
1772809083776494600,2.58949462890625,-0.05799885466694832,-0.0683329850435257,0.14048494398593903
1772809083786518500,2.5995185546875,-0.11157393455505371,-0.037578798830509186,0.14055684208869934
1772809083796542500,2.60954248046875,-0.16111378371715546,0.007284544408321381,0.13638527691364288
1772809083806566400,2.61956640625,-0.20882192254066467,0.03442934527993202,0.11528664827346802
1772809083816590600,2.629590576171875,-0.2445700615644455,0.056588176637887955,0.08651172369718552
1772809083826614300,2.6396142578125,-0.27135932445526123,0.06618115305900574,0.059061456471681595
1772809083836638500,2.649638427734375,-0.28923794627189636,0.06973140686750412,0.04060255363583565
1772809083846662400,2.659662353515625,-0.3006298840045929,0.07505107671022415,0.026336532086133957
1772809083856686300,2.669686279296875,-0.3060121238231659,0.07736536115407944,0.015681492164731026
1772809083866710500,2.67971044921875,-0.30037447810173035,0.0834999531507492,0.012033226899802685
1772809083876735500,2.689735595703125,-0.2836599349975586,0.09001857042312622,0.011299259960651398
1772809083886759400,2.699759521484375,-0.25725042819976807,0.09137758612632751,0.017430122941732407
1772809083896783400,2.709783447265625,-0.22276170551776886,0.08818179368972778,0.030419424176216125
1772809083906803700,2.7198037109375,-0.18638132512569427,0.06957028806209564,0.04163186624646187
1772809083916827600,2.72982763671875,-0.14606505632400513,0.05224136635661125,0.05889500677585602
1772809083926851600,2.7398515625,-0.096842922270298,0.08219260722398758,0.0889626294374466
1772809083936875500,2.74987548828125,-0.0350959338247776,0.13086533546447754,0.12944693863391876
1772809083946899700,2.759899658203125,0.012089420109987259,0.1276293247938156,0.14397315680980682
1772809083956923400,2.76992333984375,0.03900066390633583,0.05254443362355232,0.1251201033592224
1772809083966947600,2.779947509765625,0.041482195258140564,-0.06772232055664062,0.0718611404299736
1772809083976971500,2.789971435546875,0.014586399309337139,-0.2011224627494812,-0.018966233357787132
1772809083986995700,2.79999560546875,-0.024645425379276276,-0.29892438650131226,-0.12200633436441422
1772809083997020400,2.8100205078125,-0.06960650533437729,-0.31701338291168213,-0.22063569724559784
1772809084007044600,2.820044677734375,-0.12433580309152603,-0.21300575137138367,-0.2951946258544922
1772809084017068500,2.830068603515625,-0.17197228968143463,-0.018621888011693954,-0.334065318107605
1772809084027092700,2.8400927734375,-0.18731583654880524,0.20681282877922058,-0.34006810188293457
1772809084037116400,2.850116455078125,-0.166804701089859,0.38918983936309814,-0.313325434923172
1772809084047140600,2.860140625,-0.10590752214193344,0.4646156132221222,-0.2721489667892456
1772809084057164500,2.87016455078125,-0.021411016583442688,0.4218425750732422,-0.21457675099372864
1772809084067188500,2.8801884765625,0.07477010786533356,0.3413506746292114,-0.13980956375598907
1772809084077212700,2.890212646484375,0.16007116436958313,0.257808119058609,-0.03923821449279785
1772809084087236600,2.900236572265625,0.2283623367547989,0.17171290516853333,0.08227330446243286
1772809084097260500,2.910260498046875,0.2676556706428528,0.06572388857603073,0.20891860127449036
1772809084107285500,2.920285400390625,0.2744717597961426,-0.0692211464047432,0.3135366141796112
1772809084117309700,2.930309814453125,0.23913215100765228,-0.23623357713222504,0.37870389223098755
1772809084127333600,2.940333740234375,0.17409616708755493,-0.37820908427238464,0.4055080711841583
1772809084137357600,2.950357666015625,0.09627167135477066,-0.471204549074173,0.38867610692977905
1772809084147381500,2.960381591796875,0.011900868266820908,-0.5277621150016785,0.3310575485229492
1772809084157405700,2.97040576171875,-0.0749802365899086,-0.5475384593009949,0.23200127482414246
1772809084167429600,2.9804296875,-0.15567268431186676,-0.5303767919540405,0.10395196825265884
1772809084177453600,2.99045361328125,-0.2323557436466217,-0.47676387429237366,-0.027528563514351845
1772809084187477500,3.0004775390625,-0.30549919605255127,-0.38833707571029663,-0.12816356122493744
1772809084197501700,3.010501708984375,-0.3707764744758606,-0.2838652729988098,-0.20937186479568481
1772809084207526700,3.020526611328125,-0.4171668589115143,-0.1957671046257019,-0.26003050804138184
1772809084217550600,3.030550537109375,-0.4421055018901825,-0.109415702521801,-0.27916666865348816
1772809084227574500,3.040574462890625,-0.4356934130191803,-0.039570845663547516,-0.2703467905521393
1772809084237598700,3.0505986328125,-0.39796921610832214,0.010332532227039337,-0.23077702522277832
1772809084247622400,3.060622314453125,-0.34976625442504883,0.006119677796959877,-0.1799308806657791
1772809084257646600,3.070646484375,-0.30138248205184937,-0.050693269819021225,-0.11605789512395859
1772809084267670500,3.08067041015625,-0.2586289048194885,-0.11242534220218658,-0.03461576625704765
1772809084277694700,3.09069482421875,-0.22260618209838867,-0.16261661052703857,0.04324254393577576
1772809084287718700,3.10071875,-0.19084025919437408,-0.19784995913505554,0.10246671736240387
1772809084297743600,3.11074365234375,-0.16836850345134735,-0.20823469758033752,0.13592320680618286
1772809084307767600,3.120767578125,-0.1568295657634735,-0.18816378712654114,0.1453273743391037
1772809084317791700,3.130791748046875,-0.15388090908527374,-0.16459107398986816,0.1269611418247223
1772809084327815400,3.1408154296875,-0.1524910032749176,-0.14954422414302826,0.0903775691986084
1772809084337839600,3.150839599609375,-0.15561889111995697,-0.12557044625282288,0.05211034044623375
1772809084347863600,3.160863525390625,-0.16155587136745453,-0.10070450603961945,0.012567190453410149
1772809084357887500,3.170887451171875,-0.17663069069385529,-0.10162249952554703,-0.0237018670886755
1772809084367911700,3.18091162109375,-0.2001919448375702,-0.10950492322444916,-0.05585873872041702
1772809084377935600,3.190935546875,-0.22291137278079987,-0.10997257381677628,-0.08122561126947403
1772809084387960600,3.200960693359375,-0.23810310661792755,-0.09291662275791168,-0.0972682312130928
1772809084397984500,3.210984619140625,-0.25360962748527527,-0.060204751789569855,-0.10662657767534256
1772809084408008400,3.221008544921875,-0.26619574427604675,-0.03719770163297653,-0.10837627202272415
1772809084418032600,3.23103271484375,-0.27311861515045166,-0.02731311321258545,-0.11260057985782623
1772809084428056600,3.241056640625,-0.2697151005268097,-0.036496758460998535,-0.11088524013757706
1772809084438080500,3.25108056640625,-0.2609160244464874,-0.05128076300024986,-0.1102101281285286
1772809084448104700,3.261104736328125,-0.2537180185317993,-0.06921368837356567,-0.10880424082279205
1772809084458128600,3.271128662109375,-0.24127572774887085,-0.07228245586156845,-0.10184673964977264
1772809084468152600,3.281152587890625,-0.2216583639383316,-0.0710534006357193,-0.0810149610042572
1772809084478177500,3.291177490234375,-0.19906383752822876,-0.04685592278838158,-0.04935050383210182
1772809084488201700,3.30120166015625,-0.1758573204278946,-0.009120261296629906,-0.006044842768460512
1772809084498225700,3.3112255859375,-0.15790148079395294,0.0057588196359574795,0.03007987141609192
1772809084508249600,3.32124951171875,-0.1423502266407013,0.0009853695519268513,0.05174628645181656
1772809084518273500,3.3312734375,-0.13490934669971466,-0.0101951127871871,0.06180424615740776
1772809084528297700,3.341297607421875,-0.13575756549835205,-0.014916897751390934,0.05963509902358055
1772809084538321400,3.3513212890625,-0.14899533987045288,-0.026585804298520088,0.06299121677875519
1772809084548345600,3.361345703125,-0.17302823066711426,-0.02901247702538967,0.07611527293920517
1772809084558370600,3.37137060546875,-0.20758701860904694,-0.01401728205382824,0.09714385867118835
1772809084568394800,3.381394775390625,-0.23951086401939392,-0.015273494645953178,0.11326290667057037
1772809084578418400,3.39141845703125,-0.27052444219589233,-0.01936917006969452,0.11338701099157333
1772809084588442600,3.401442626953125,-0.30617856979370117,-0.023132748901844025,0.11107592284679413
1772809084598466600,3.411466552734375,-0.33457958698272705,-0.0004753742541652173,0.10534080117940903
1772809084608490800,3.42149072265625,-0.34890952706336975,0.06433584541082382,0.10211838036775589
1772809084618514400,3.431514404296875,-0.3523463308811188,0.16715064644813538,0.11256276071071625
1772809084628538600,3.44153857421875,-0.34118902683258057,0.30596524477005005,0.13245365023612976
1772809084638563600,3.4515634765625,-0.31265750527381897,0.4097853899002075,0.12849591672420502
1772809084648587800,3.461587890625,-0.2769940495491028,0.42064496874809265,0.10620073974132538
1772809084658611500,3.471611572265625,-0.2553422749042511,0.35548993945121765,0.06887813657522202
1772809084668635600,3.4816357421875,-0.2344500571489334,0.2613067030906677,0.03302586078643799
1772809084678659600,3.49165966796875,-0.21892675757408142,0.17538993060588837,0.007906125858426094
1772809084688683500,3.50168359375,-0.2208375781774521,0.1031213253736496,-0.020799554884433746
1772809084698707500,3.51170751953125,-0.25358912348747253,0.04204865172505379,-0.054007574915885925
1772809084708732700,3.521732666015625,-0.30339211225509644,-0.0011249192757532,-0.08306266367435455
1772809084718756600,3.531756591796875,-0.35101741552352905,-0.016275376081466675,-0.09498270601034164
1772809084728780500,3.541780517578125,-0.38441959023475647,0.026981815695762634,-0.08624433726072311
1772809084738804500,3.551804443359375,-0.3926905691623688,0.11339712888002396,-0.06351666152477264
1772809084748828700,3.56182861328125,-0.3579517602920532,0.23648230731487274,-0.03219601884484291
1772809084758852600,3.5718525390625,-0.2932896614074707,0.38304591178894043,0.015452193096280098
1772809084768876500,3.58187646484375,-0.21228936314582825,0.5214386582374573,0.07237566262483597
1772809084778900700,3.591900634765625,-0.12422900646924973,0.5987566113471985,0.12822294235229492
1772809084788925700,3.60192578125,-0.03512469679117203,0.6169061064720154,0.17944006621837616
1772809084798949400,3.611949462890625,0.043308325111866,0.5765038132667542,0.22211216390132904
1772809084808973600,3.6219736328125,0.11539343744516373,0.4852990508079529,0.25879108905792236
1772809084818997500,3.63199755859375,0.176202192902565,0.34295469522476196,0.28059571981430054
1772809084829021700,3.642021728515625,0.22853970527648926,0.16573357582092285,0.2823334336280823
1772809084839045600,3.652045654296875,0.2638082206249237,-0.02587740309536457,0.26361486315727234
1772809084849069600,3.662069580078125,0.284339040517807,-0.20031338930130005,0.22274678945541382
1772809084859094500,3.672094482421875,0.28138267993927,-0.32780903577804565,0.17157815396785736
1772809084869118700,3.68211865234375,0.255534827709198,-0.39618542790412903,0.10939227044582367
1772809084879142400,3.692142333984375,0.2145642340183258,-0.4204031527042389,0.03609222546219826
1772809084889166600,3.70216650390625,0.16344058513641357,-0.3989010453224182,-0.043463319540023804
1772809084899190800,3.712190673828125,0.10864605009555817,-0.35470375418663025,-0.12316267937421799
1772809084909214200,3.722214111328125,0.046603187918663025,-0.2825009226799011,-0.1909867376089096
1772809084919238400,3.73223828125,-0.014139254577457905,-0.19548241794109344,-0.22866220772266388
1772809084929263400,3.742263427734375,-0.06769302487373352,-0.10910598188638687,-0.2401188611984253
1772809084939287600,3.75228759765625,-0.10296819359064102,-0.031742483377456665,-0.2361145317554474
1772809084949311200,3.762311279296875,-0.11773542314767838,0.01684635877609253,-0.2184537798166275
1772809084959335400,3.77233544921875,-0.11267461627721786,0.039498139172792435,-0.1854364424943924
1772809084969359400,3.782359375,-0.0928492471575737,0.03758625686168671,-0.1376529335975647
1772809084979383300,3.79238330078125,-0.06353263556957245,0.026075808331370354,-0.08085756748914719
1772809084989408300,3.802408203125,-0.03641792759299278,0.017667943611741066,-0.01931777223944664
1772809084999432400,3.812432373046875,-0.0249644722789526,0.0037856835406273603,0.031679634004831314
1772809085009456400,3.822456298828125,-0.03195127472281456,-0.011770639568567276,0.06227216124534607
1772809085019480300,3.832480224609375,-0.054129280149936676,-0.04047978296875954,0.06796254217624664
1772809085029504300,3.842504150390625,-0.08889365196228027,-0.08534605801105499,0.05320010334253311
1772809085039528400,3.852528564453125,-0.13488377630710602,-0.13203953206539154,0.028682511299848557
1772809085049552400,3.862552490234375,-0.17724108695983887,-0.15292376279830933,0.00018562232435215265
1772809085059577300,3.872577392578125,-0.21909213066101074,-0.1567925363779068,-0.022405706346035004
1772809085069601300,3.882601318359375,-0.25401097536087036,-0.15977022051811218,-0.041555166244506836
1772809085079625500,3.89262548828125,-0.27729925513267517,-0.16303978860378265,-0.055336493998765945
1772809085089649400,3.9026494140625,-0.29135647416114807,-0.17200584709644318,-0.06283435225486755
1772809085099673300,3.91267333984375,-0.3121533691883087,-0.17137441039085388,-0.06423544138669968
1772809085109697300,3.922697265625,-0.33963772654533386,-0.1548287272453308,-0.050210971385240555
1772809085119722200,3.93272216796875,-0.37247955799102783,-0.13322436809539795,-0.02845427766442299
1772809085129746400,3.942746337890625,-0.4059523046016693,-0.12324284017086029,-0.016215987503528595
1772809085139770400,3.952770263671875,-0.4368090033531189,-0.1470022350549698,-0.017833059653639793
1772809085149794300,3.962794189453125,-0.4653221368789673,-0.2019573599100113,-0.028895830735564232
1772809085159818500,3.972818603515625,-0.4859299659729004,-0.26507773995399475,-0.043958935886621475
1772809085169842200,3.98284228515625,-0.5022000074386597,-0.3239903151988983,-0.0593690499663353
1772809085179866400,3.992866455078125,-0.5208615660667419,-0.37365826964378357,-0.0683596134185791
1772809085189891300,4.002891357421875,-0.5385904908180237,-0.41094785928726196,-0.07743646949529648
1772809085199915500,4.01291552734375,-0.5551633834838867,-0.43009811639785767,-0.07869640737771988
1772809085209939200,4.022939208984375,-0.5712442994117737,-0.46796268224716187,-0.0903187096118927
1772809085219963400,4.03296337890625,-0.5944130420684814,-0.5098866820335388,-0.09330358356237411
1772809085229987300,4.0429873046875,-0.6104886531829834,-0.5217680931091309,-0.08532208949327469
1772809085240011500,4.053011474609375,-0.6094326972961426,-0.5416182279586792,-0.06314274668693542
1772809085250035200,4.06303515625,-0.5911530256271362,-0.5680251121520996,-0.018014686182141304
1772809085260060400,4.073060302734375,-0.5748017430305481,-0.5675944685935974,0.04477918893098831
1772809085270084400,4.08308447265625,-0.5591874122619629,-0.5367691516876221,0.1136874184012413
1772809085280108500,4.093108642578125,-0.5430776476860046,-0.46830010414123535,0.17662669718265533
1772809085290132200,4.10313232421875,-0.5208922028541565,-0.37959232926368713,0.23801229894161224
1772809085300156400,4.113156494140625,-0.500458300113678,-0.2974415421485901,0.2885010242462158
1772809085310180400,4.123180419921875,-0.49519801139831543,-0.21865670382976532,0.3412625193595886
1772809085320205600,4.13320556640625,-0.48233547806739807,-0.1489119827747345,0.3915824294090271
1772809085330229200,4.143229248046875,-0.46502548456192017,-0.15439090132713318,0.41582223773002625
1772809085340253400,4.15325341796875,-0.46454957127571106,-0.3302689790725708,0.37547507882118225
1772809085350277400,4.16327734375,-0.49586355686187744,-0.6479228734970093,0.2779863476753235
1772809085360301300,4.17330126953125,-0.5588555335998535,-0.9340126514434814,0.1552143543958664
1772809085370325200,4.1833251953125,-0.6113725900650024,-1.0522972345352173,0.05522970110177994
1772809085380350500,4.1933505859375,-0.6263123750686646,-1.0346447229385376,0.0012096078135073185
1772809085390374400,4.20337451171875,-0.6232057809829712,-0.9649442434310913,-0.016209064051508904
1772809085400398300,4.2133984375,-0.609168291091919,-0.8067982792854309,0.006730873137712479
1772809085410422300,4.22342236328125,-0.5665534138679504,-0.5611434578895569,0.06344395130872726
1772809085420446500,4.233446533203125,-0.49861031770706177,-0.25267618894577026,0.13902100920677185
1772809085430470100,4.24347021484375,-0.42290598154067993,0.05477749556303024,0.2087702602148056
1772809085440495400,4.253495361328125,-0.3654405474662781,0.30080750584602356,0.25319311022758484
1772809085450519300,4.263519287109375,-0.3255562484264374,0.45357948541641235,0.27079927921295166
1772809085460543500,4.27354345703125,-0.2865356206893921,0.5258597731590271,0.273021936416626
1772809085470567200,4.283567138671875,-0.2328345775604248,0.5142920613288879,0.26591476798057556
1772809085480591400,4.29359130859375,-0.1765446811914444,0.42607301473617554,0.25245168805122375
1772809085490615300,4.303615234375,-0.1023269072175026,0.2872408330440521,0.23239968717098236
1772809085500640500,4.313640625,-0.030427681282162666,0.13264086842536926,0.21187444031238556
1772809085510664200,4.323664306640625,0.027546938508749008,-0.021828865632414818,0.19835889339447021
1772809085520688400,4.3336884765625,0.06286205351352692,-0.15571662783622742,0.18490061163902283
1772809085530712300,4.34371240234375,0.06571749597787857,-0.2433580607175827,0.17378804087638855
1772809085540736500,4.353736572265625,0.04273255169391632,-0.2660908102989197,0.164621964097023
1772809085550760200,4.36376025390625,0.028537102043628693,-0.23345190286636353,0.15187421441078186
1772809085560785400,4.373785400390625,0.03158455714583397,-0.19585685431957245,0.13552986085414886
1772809085570809300,4.383809326171875,0.04290858656167984,-0.14719131588935852,0.11861719191074371
1772809085580833500,4.39383349609375,0.0701492577791214,-0.08849844336509705,0.10468992590904236
1772809085590857200,4.403857177734375,0.11776205152273178,-0.014316088519990444,0.08817832916975021
1772809085600881400,4.41388134765625,0.17052114009857178,0.07703779637813568,0.08896822482347488
1772809085610905300,4.4239052734375,0.2226160317659378,0.18194477260112762,0.10367686301469803
1772809085620930600,4.4339306640625,0.25764939188957214,0.2700192332267761,0.12725302577018738
1772809085630954200,4.443954345703125,0.26692596077919006,0.3072563409805298,0.14122876524925232
1772809085640978400,4.453978515625,0.26051759719848633,0.30277904868125916,0.1416972130537033
1772809085651002400,4.46400244140625,0.24751178920269012,0.2860693037509918,0.1267654001712799
1772809085661026300,4.4740263671875,0.2436201125383377,0.27268293499946594,0.0971534475684166
1772809085671050200,4.48405029296875,0.2580539286136627,0.2550791800022125,0.050762247294187546
1772809085681075500,4.494075439453125,0.28717637062072754,0.2393002063035965,-0.003939614165574312
1772809085691099400,4.504099365234375,0.3151233196258545,0.20509456098079681,-0.0653020441532135
1772809085701123300,4.514123291015625,0.33843210339546204,0.1526864767074585,-0.11677828431129456
1772809085711147300,4.524147216796875,0.3685985505580902,0.10830996185541153,-0.13743509352207184
1772809085721171500,4.53417138671875,0.39783552289009094,0.09191234409809113,-0.1373053938150406
1772809085731195400,4.5441953125,0.4174792468547821,0.10561031848192215,-0.11329380422830582
1772809085741220400,4.554220458984375,0.4305498003959656,0.1672065705060959,-0.08446481823921204
1772809085751244300,4.564244384765625,0.446397989988327,0.2588464617729187,-0.061708636581897736
1772809085761268500,4.5742685546875,0.46304354071617126,0.3564811646938324,-0.06567248702049255
1772809085771292400,4.58429248046875,0.4887465238571167,0.4200103282928467,-0.08731359988451004
1772809085781316400,4.59431640625,0.5277644991874695,0.4366452395915985,-0.11278966814279556
1772809085791341300,4.60434130859375,0.590420126914978,0.4077288806438446,-0.1252916157245636
1772809085801365200,4.614365234375,0.6610754132270813,0.3038610816001892,-0.129632830619812
1772809085811389400,4.624389404296875,0.7393803596496582,0.16540999710559845,-0.1223221868276596
1772809085821413400,4.634413330078125,0.8084536790847778,0.05299956724047661,-0.09693720191717148
1772809085831437300,4.644437255859375,0.8576387763023376,-0.018078869208693504,-0.07492217421531677
1772809085841461500,4.65446142578125,0.8764154314994812,-0.05974162742495537,-0.07524974644184113
1772809085851486500,4.664486572265625,0.8739954233169556,-0.05740390345454216,-0.09858009964227676
1772809085861510400,4.674510498046875,0.8593046069145203,0.011092332191765308,-0.13664919137954712
1772809085871534300,4.684534423828125,0.841690182685852,0.10984953492879868,-0.17672736942768097
1772809085881558500,4.69455859375,0.8214302062988281,0.23525166511535645,-0.1999293565750122
1772809085891582200,4.704582275390625,0.8025776743888855,0.3713383972644806,-0.20864428579807281
1772809085901606400,4.7146064453125,0.7917593717575073,0.5017065405845642,-0.20263992249965668
1772809085911631600,4.724631591796875,0.805525004863739,0.5827025771141052,-0.18610143661499023
1772809085921655300,4.7346552734375,0.8482413291931152,0.5813376903533936,-0.15553073585033417
1772809085931679500,4.744679443359375,0.9141761064529419,0.5080310106277466,-0.10671685636043549
1772809085941703700,4.75470361328125,0.9914919137954712,0.42581042647361755,-0.03726428002119064
1772809085951727400,4.764727294921875,1.0699249505996704,0.4129108786582947,0.056887783110141754
1772809085961751600,4.77475146484375,1.1274007558822632,0.4654579758644104,0.16349677741527557
1772809085971776500,4.784776611328125,1.1544020175933838,0.5403732061386108,0.24857786297798157
1772809085981800400,4.794800537109375,1.1422582864761353,0.5925293564796448,0.3000016212463379
1772809085991824400,4.804824462890625,1.0980322360992432,0.607374906539917,0.3074813783168793
1772809086001848600,4.8148486328125,1.0290260314941406,0.5841204524040222,0.29517439007759094
1772809086011872500,4.82487255859375,0.9636656045913696,0.5364828705787659,0.28211796283721924
1772809086021896400,4.834896484375,0.9146674871444702,0.45968183875083923,0.2778659760951996
1772809086031921400,4.84492138671875,0.8756846189498901,0.35474318265914917,0.3015792965888977
1772809086041945300,4.8549453125,0.843781054019928,0.2501872181892395,0.3514632284641266
1772809086051969500,4.864969482421875,0.8272182941436768,0.18287500739097595,0.438215970993042
1772809086061993500,4.874993408203125,0.8199462890625,0.174819216132164,0.5442540049552917
1772809086072017400,4.885017333984375,0.8226571083068848,0.17937934398651123,0.6423707008361816
1772809086082042400,4.89504248046875,0.8213878273963928,0.12543195486068726,0.7003098726272583
1772809086092066600,4.905066650390625,0.8069971799850464,0.005859486758708954,0.6930266618728638
1772809086102090200,4.91509033203125,0.760020911693573,-0.14650768041610718,0.6413533687591553
1772809086112114400,4.925114501953125,0.6578623056411743,-0.27453622221946716,0.5469648241996765
1772809086122138600,4.935138671875,0.5070445537567139,-0.3630690276622772,0.42879289388656616
1772809086132162600,4.94516259765625,0.3276159465312958,-0.4259622395038605,0.2892158329486847
1772809086142187300,4.955187255859375,0.1387014240026474,-0.45786821842193604,0.1374819576740265
1772809086152211500,4.96521142578125,-0.009132511913776398,-0.408474326133728,0.0002790992730297148
1772809086162235400,4.9752353515625,-0.08653009682893753,-0.25915753841400146,-0.0984826311469078
1772809086172259600,4.985259521484375,-0.10303343832492828,-0.05976372957229614,-0.14964808523654938
1772809086182283500,4.995283447265625,-0.0785861536860466,0.14387115836143494,-0.15108805894851685
1772809086192307500,5.005307373046875,-0.015455123037099838,0.3212414085865021,-0.09400266408920288
1772809086202332400,5.01533251953125,0.04754514992237091,0.4473402202129364,0.007189203519374132
1772809086212356600,5.025356689453125,0.08324641734361649,0.5055630207061768,0.12445776909589767
1772809086222380300,5.03538037109375,0.10138494521379471,0.48536935448646545,0.22546587884426117
1772809086232404500,5.045404541015625,0.10932222753763199,0.3799273669719696,0.2932923436164856
1772809086242428400,5.055428466796875,0.11702115833759308,0.20720617473125458,0.3192538917064667
1772809086252453600,5.06545361328125,0.12525725364685059,-0.013642042875289917,0.3072270452976227
1772809086262477300,5.075477294921875,0.12449212372303009,-0.2354077249765396,0.26224175095558167
1772809086272501500,5.08550146484375,0.10462947189807892,-0.41391274333000183,0.19491729140281677
1772809086282525400,5.095525390625,0.06222822144627571,-0.536476194858551,0.11154596507549286
1772809086292549400,5.10554931640625,0.0017417073249816895,-0.5838780999183655,0.02484249882400036
1772809086302573600,5.115573486328125,-0.07883302867412567,-0.5901711583137512,-0.04959631338715553
1772809086312598500,5.1255986328125,-0.17752417922019958,-0.5674919486045837,-0.10167203098535538
1772809086322622500,5.13562255859375,-0.27642467617988586,-0.5130574703216553,-0.13986656069755554
1772809086332646400,5.145646484375,-0.36362534761428833,-0.4247467517852783,-0.15144944190979004
1772809086342670300,5.15567041015625,-0.43634748458862305,-0.3081650137901306,-0.14879347383975983
1772809086352694500,5.165694580078125,-0.49120914936065674,-0.17938679456710815,-0.12857981026172638
1772809086362718500,5.175718505859375,-0.5283860564231873,-0.08947502076625824,-0.10251811891794205
1772809086372743400,5.185743408203125,-0.5532011389732361,-0.05403340607881546,-0.07520633935928345
1772809086382767400,5.195767333984375,-0.5742433071136475,-0.07028667628765106,-0.050991278141736984
1772809086392791600,5.20579150390625,-0.5894057750701904,-0.1351570188999176,-0.024949291720986366
1772809086402815500,5.2158154296875,-0.6009390950202942,-0.21056042611598969,-0.001201618229970336
1772809086412839400,5.22583935546875,-0.6255725622177124,-0.2770792841911316,0.013764281757175922
1772809086422863400,5.23586328125,-0.6619814038276672,-0.33802303671836853,0.003236006945371628
1772809086432888600,5.245888671875,-0.7106847763061523,-0.39547568559646606,-0.0209478922188282
1772809086442912500,5.25591259765625,-0.7806071043014526,-0.3892441689968109,-0.06019330024719238
1772809086452936400,5.2659365234375,-0.8677880764007568,-0.3413027226924896,-0.11902438849210739
1772809086462960400,5.27596044921875,-0.9507397413253784,-0.25545066595077515,-0.19406189024448395
1772809086472984600,5.285984619140625,-1.0128635168075562,-0.13488218188285828,-0.2747330367565155
1772809086483009500,5.296009521484375,-1.045209527015686,0.00532632227987051,-0.3580348491668701
1772809086493033500,5.306033447265625,-1.038138747215271,0.1272847205400467,-0.43122541904449463
1772809086503057400,5.316057373046875,-0.9909870028495789,0.17681525647640228,-0.4926006495952606
1772809086513081600,5.32608154296875,-0.9163340926170349,0.1371740996837616,-0.5431391596794128
1772809086523105300,5.336105224609375,-0.8177715539932251,0.02105388604104519,-0.5736321210861206
1772809086533129500,5.34612939453125,-0.7068833708763123,-0.1317492425441742,-0.5695356130599976
1772809086543154400,5.356154541015625,-0.5932444334030151,-0.29153862595558167,-0.5344687104225159
1772809086553178600,5.3661787109375,-0.4851730763912201,-0.4145636260509491,-0.47542911767959595
1772809086563202300,5.376202392578125,-0.395289808511734,-0.49972379207611084,-0.4090258479118347
1772809086573226500,5.3862265625,-0.3303976356983185,-0.5581788420677185,-0.35858210921287537
1772809086583250400,5.39625048828125,-0.2721385657787323,-0.6162147521972656,-0.33633488416671753
1772809086593275600,5.406275634765625,-0.21647557616233826,-0.6683740615844727,-0.3321020305156708
1772809086603299300,5.41629931640625,-0.15822584927082062,-0.6917643547058105,-0.32896509766578674
1772809086613323500,5.426323486328125,-0.10887482017278671,-0.6795481443405151,-0.3220858871936798
1772809086623347500,5.436347412109375,-0.06768397241830826,-0.608944296836853,-0.30016061663627625
1772809086633371400,5.446371337890625,-0.050767041742801666,-0.5245066285133362,-0.27328452467918396
1772809086643395300,5.456395263671875,-0.05879567191004753,-0.48532727360725403,-0.2614971101284027
1772809086653420500,5.466420654296875,-0.07315437495708466,-0.48307478427886963,-0.2558962106704712
1772809086663444500,5.476444580078125,-0.0703071877360344,-0.4664236307144165,-0.24910542368888855
1772809086673468400,5.486468505859375,-0.049850113689899445,-0.46805936098098755,-0.223964661359787
1772809086683492400,5.496492431640625,-0.01600106991827488,-0.48272591829299927,-0.19683955609798431
1772809086693516500,5.5065166015625,0.023432621732354164,-0.4685989022254944,-0.148874431848526
1772809086703540500,5.51654052734375,0.05463128536939621,-0.4454898536205292,-0.09798994660377502
1772809086713565400,5.5265654296875,0.08234760165214539,-0.4354441463947296,-0.06465036422014236
1772809086723589400,5.53658935546875,0.11631914973258972,-0.4378921091556549,-0.03657052665948868
1772809086733613600,5.546613525390625,0.14784565567970276,-0.43127256631851196,-0.0063095614314079285
1772809086743637500,5.556637451171875,0.17183460295200348,-0.40344732999801636,0.038969237357378006
1772809086753661400,5.566661376953125,0.1786554902791977,-0.36879268288612366,0.08789150416851044
1772809086763686400,5.576686279296875,0.16341795027256012,-0.34663093090057373,0.12127822637557983
1772809086773710600,5.586710693359375,0.13828223943710327,-0.3138276934623718,0.14415930211544037
1772809086783734500,5.596734619140625,0.12345562875270844,-0.24065814912319183,0.17368470132350922
1772809086793758500,5.606758544921875,0.12291287630796432,-0.12868234515190125,0.19624274969100952
1772809086803782400,5.616782470703125,0.13242462277412415,0.013699566945433617,0.2041696459054947
1772809086813807400,5.626807373046875,0.16049300134181976,0.14713884890079498,0.19593967497348785
1772809086823831600,5.63683154296875,0.1995847523212433,0.2282124012708664,0.17112115025520325
1772809086833855500,5.64685546875,0.23029392957687378,0.22962254285812378,0.12847621738910675
1772809086843879400,5.65687939453125,0.2613663673400879,0.20910900831222534,0.10109412670135498
1772809086853903600,5.666903564453125,0.2842080295085907,0.1763976663351059,0.0917871743440628
1772809086863927300,5.67692724609375,0.2984519302845001,0.13794028759002686,0.09974310547113419
1772809086873952500,5.686952392578125,0.30701693892478943,0.10124991834163666,0.11947819590568542
1772809086883976400,5.6969765625,0.31712523102760315,0.06991570442914963,0.15211576223373413
1772809086894000600,5.707000732421875,0.3242172300815582,0.044024981558322906,0.1828252077102661
1772809086904024300,5.7170244140625,0.3207671046257019,-0.014489993453025818,0.1944911926984787
1772809086914048000,5.727048095703125,0.3058730959892273,-0.10464012622833252,0.18252933025360107
1772809086924071700,5.73707177734375,0.27909448742866516,-0.17400747537612915,0.15366865694522858
1772809086934097000,5.747096923828125,0.24894696474075317,-0.1963639259338379,0.11096912622451782
1772809086944120800,5.757120849609375,0.2142726182937622,-0.1759960651397705,0.056949835270643234
1772809086954145000,5.76714501953125,0.16894428431987762,-0.12165293097496033,-0.007800665218383074
1772809086964168700,5.777168701171875,0.11090121418237686,-0.051540154963731766,-0.08244161307811737
1772809086974193000,5.78719287109375,0.05114041641354561,0.014545386657118797,-0.16632239520549774
1772809086984217900,5.7972177734375,-0.0017526262672618032,0.05132950097322464,-0.2529856562614441
1772809086994242000,5.807241943359375,-0.03355689346790314,0.07008401304483414,-0.32723963260650635
1772809087004265700,5.817265625,-0.04289766773581505,0.0804775282740593,-0.381845623254776
1772809087014290000,5.8272900390625,-0.03339790552854538,0.09243325889110565,-0.40225929021835327
1772809087024313900,5.83731396484375,-0.006344182416796684,0.09363195300102234,-0.3746678829193115
1772809087034338000,5.847338134765625,0.05291274935007095,0.11405280232429504,-0.3100239038467407
1772809087044362800,5.85736279296875,0.1360478550195694,0.14160452783107758,-0.2203534096479416
1772809087054387000,5.867386962890625,0.23297466337680817,0.1591622233390808,-0.13169065117835999
1772809087064411000,5.877410888671875,0.3296490013599396,0.19065970182418823,-0.0494125559926033
1772809087074435000,5.88743505859375,0.40459302067756653,0.23200100660324097,0.013962686993181705
1772809087084458800,5.897458740234375,0.4445202052593231,0.24321584403514862,0.046427153050899506
1772809087094484000,5.90748388671875,0.4468674957752228,0.2121431529521942,0.04652542248368263
1772809087104508000,5.9175078125,0.42067718505859375,0.1512686163187027,0.023190805688500404
1772809087114532000,5.927531982421875,0.3783811330795288,0.0995340496301651,-0.007652060594409704
1772809087124555800,5.9375556640625,0.33212095499038696,0.090762659907341,-0.04133012890815735
1772809087134580000,5.947580078125,0.30199846625328064,0.0903509333729744,-0.07720663398504257
1772809087144605000,5.95760498046875,0.28115683794021606,0.09137039631605148,-0.11219018697738647
1772809087154629000,5.967629150390625,0.26007047295570374,0.10008851438760757,-0.13958106935024261
1772809087164652800,5.97765283203125,0.23244549334049225,0.11751917004585266,-0.15334002673625946
1772809087174677000,5.987677001953125,0.20634570717811584,0.14643657207489014,-0.16348613798618317
1772809087184701000,5.997700927734375,0.18158896267414093,0.1790722757577896,-0.16413514316082
1772809087194724900,6.007724853515625,0.16820712387561798,0.19261205196380615,-0.16858156025409698
1772809087204749800,6.017749755859375,0.16275162994861603,0.19194653630256653,-0.17184020578861237
1772809087214774000,6.02777392578125,0.16999410092830658,0.1869342029094696,-0.17270812392234802
1772809087224798000,6.0377978515625,0.18435759842395782,0.1888841688632965,-0.15960776805877686
1772809087234822000,6.04782177734375,0.20237946510314941,0.2048380970954895,-0.12331420928239822
1772809087244845800,6.057845703125,0.21705321967601776,0.2324790507555008,-0.07544868439435959
1772809087254870800,6.067870849609375,0.2234908789396286,0.2661113142967224,-0.01877635158598423
1772809087264895000,6.07789501953125,0.23389798402786255,0.29992467164993286,0.026670759543776512
1772809087274919000,6.0879189453125,0.2432488650083542,0.3142034709453583,0.06657583266496658
1772809087284942800,6.09794287109375,0.2588992118835449,0.2926430404186249,0.09027876704931259
1772809087294967000,6.107967041015625,0.2825608551502228,0.22742916643619537,0.10095324367284775
1772809087304990700,6.11799072265625,0.2995872497558594,0.13987533748149872,0.11196861416101456
1772809087315015700,6.128015625,0.30490371584892273,0.04453737288713455,0.12357733398675919
1772809087325039900,6.138039794921875,0.2911846935749054,-0.029620476067066193,0.14612312614917755
1772809087335063800,6.148063720703125,0.2703806161880493,-0.06155417487025261,0.16074441373348236
1772809087345087700,6.158087646484375,0.24953553080558777,-0.04898698255419731,0.16638392210006714
1772809087355112000,6.16811181640625,0.23382633924484253,0.018278073519468307,0.15614992380142212
1772809087365137000,6.178136962890625,0.22058403491973877,0.10387899726629257,0.13899970054626465
1772809087375160800,6.188160888671875,0.2049265205860138,0.2285764515399933,0.12686766684055328
1772809087385184800,6.198184814453125,0.19520917534828186,0.38422277569770813,0.12707725167274475
1772809087395209000,6.208208984375,0.20744213461875916,0.5048317313194275,0.1255219727754593
1772809087405233000,6.21823291015625,0.23291261494159698,0.4468967914581299,0.08565365523099899
1772809087415257900,6.2282578125,0.26903384923934937,0.27896958589553833,0.032466065138578415
1772809087425282000,6.238281982421875,0.32106029987335205,0.13471867144107819,0.009304818697273731
1772809087435305700,6.2483056640625,0.37601250410079956,0.046132076531648636,0.013741378672420979
1772809087445330000,6.258329833984375,0.41096943616867065,0.0006178533658385277,0.0352029949426651
1772809087455353900,6.268353759765625,0.4101443886756897,-0.014547251164913177,0.05836477130651474
1772809087465377800,6.278377685546875,0.3671945035457611,-0.003581685246899724,0.07394906133413315
1772809087475402800,6.28840283203125,0.29015111923217773,0.03901184722781181,0.0620279498398304
1772809087485427000,6.298427001953125,0.1989772766828537,0.14645788073539734,0.02208559401333332
1772809087495451000,6.308450927734375,0.1333724409341812,0.32627877593040466,-0.02696477249264717
1772809087505474800,6.318474853515625,0.08265413343906403,0.5345198512077332,-0.06873752176761627
1772809087515498800,6.328498779296875,0.05432315915822983,0.7037200927734375,-0.10081023722887039
1772809087525524000,6.33852392578125,0.052808620035648346,0.8310215473175049,-0.08801454305648804
1772809087535548000,6.3485478515625,0.08553381264209747,0.9159867763519287,-0.025190575048327446
1772809087545571800,6.35857177734375,0.13396099209785461,0.9570492506027222,0.0704435408115387
1772809087555595800,6.368595703125,0.18736429512500763,0.9172994494438171,0.15676990151405334
1772809087565620000,6.378619873046875,0.24376259744167328,0.8055604100227356,0.2190585732460022
1772809087575645000,6.38864501953125,0.2947528064250946,0.640711784362793,0.25223252177238464
1772809087585668900,6.3986689453125,0.3374214470386505,0.47085219621658325,0.2551327049732208
1772809087595692800,6.40869287109375,0.34175360202789307,0.2906973361968994,0.22671809792518616
1772809087605717000,6.418717041015625,0.32064858078956604,0.10910011827945709,0.17034563422203064
1772809087615740700,6.42874072265625,0.2860083281993866,-0.05618550628423691,0.09334592521190643
1772809087625764900,6.438764892578125,0.2525326609611511,-0.17404264211654663,0.0030269487760961056
1772809087635789800,6.448789794921875,0.22323255240917206,-0.23427535593509674,-0.07775577902793884
1772809087645814000,6.45881396484375,0.2044958770275116,-0.24690406024456024,-0.13461320102214813
1772809087655837700,6.468837646484375,0.17227962613105774,-0.2230173647403717,-0.16162244975566864
1772809087665862000,6.47886181640625,0.14400909841060638,-0.17270466685295105,-0.16022749245166779
1772809087675885800,6.4888857421875,0.12389504909515381,-0.0852842703461647,-0.13966389000415802
1772809087685911000,6.4989111328125,0.1162768080830574,0.0167334396392107,-0.11064555495977402
1772809087695934700,6.508934814453125,0.11733435094356537,0.10625720024108887,-0.09272700548171997
1772809087705959000,6.518958984375,0.1252596527338028,0.16918130218982697,-0.08112361282110214
1772809087715982800,6.52898291015625,0.14180053770542145,0.19991923868656158,-0.07748600095510483
1772809087726007000,6.539007080078125,0.15927647054195404,0.17716705799102783,-0.07593151926994324
1772809087736031700,6.54903173828125,0.17400269210338593,0.09900833666324615,-0.07867270708084106
1772809087746056000,6.559055908203125,0.19988861680030823,-0.02105175517499447,-0.07784872502088547
1772809087756079900,6.569079833984375,0.22982467710971832,-0.1277073621749878,-0.06931009888648987
1772809087766104000,6.57910400390625,0.24680845439434052,-0.18353015184402466,-0.04790973663330078
1772809087776127700,6.589127685546875,0.25284263491630554,-0.1965884268283844,-0.013365606777369976
1772809087786153000,6.599153076171875,0.2420797497034073,-0.17378617823123932,0.02351970784366131
1772809087796177000,6.609177001953125,0.2209550142288208,-0.13958506286144257,0.05245495215058327
1772809087806201000,6.619201171875,0.1918059140443802,-0.09870367497205734,0.0589517317712307
1772809087816224800,6.629224853515625,0.17182955145835876,-0.050699662417173386,0.04806925728917122
1772809087826249000,6.6392490234375,0.16847050189971924,-0.006572415120899677,0.025042502209544182
1772809087836273000,6.64927294921875,0.16038541495800018,0.012720055878162384,0.002770486520603299
1772809087846297900,6.6592978515625,0.1499607414007187,0.023061908781528473,-0.006931142881512642
1772809087856321800,6.66932177734375,0.1272391825914383,0.05686274915933609,-0.008169779554009438
1772809087866346000,6.679345947265625,0.09764240682125092,0.09359333664178848,0.0006735134520567954
1772809087876370000,6.689369873046875,0.06136295944452286,0.10999681055545807,-0.00953864399343729
1772809087886393900,6.699393798828125,0.036862943321466446,0.1038702055811882,-0.040237169712781906
1772809087896418800,6.709418701171875,0.037282925099134445,0.05534261837601662,-0.08146982640028
1772809087906443000,6.719443115234375,0.05426137521862984,-0.010729077272117138,-0.10426674783229828
1772809087916467200,6.72946728515625,0.07964662462472916,-0.07668199390172958,-0.09264098852872849
1772809087926491100,6.7394912109375,0.1190534234046936,-0.13045388460159302,-0.04989858344197273
1772809087936515300,6.749515380859375,0.14763286709785461,-0.18826071918010712,0.004947354551404715
1772809087946540000,6.7595400390625,0.158362478017807,-0.24641084671020508,0.05174015834927559
1772809087956564200,6.769564208984375,0.14752766489982605,-0.30144187808036804,0.07770491391420364
1772809087966588200,6.779588134765625,0.1284565031528473,-0.34397467970848083,0.07953689992427826
1772809087976612400,6.7896123046875,0.10226085782051086,-0.36224424839019775,0.06349881738424301
1772809087986636300,6.79963623046875,0.06386712938547134,-0.33940762281417847,0.04181455820798874
1772809087996661200,6.8096611328125,0.019216571003198624,-0.3035236597061157,0.0067809405736625195
1772809088006685200,6.819685302734375,-0.02040114626288414,-0.2563697397708893,-0.026043318212032318
1772809088016709400,6.82970947265625,-0.05378520116209984,-0.19546297192573547,-0.04062359407544136
1772809088026733000,6.839733154296875,-0.07672380656003952,-0.13226482272148132,-0.0445895716547966
1772809088036757200,6.84975732421875,-0.07644151151180267,-0.06292197108268738,-0.026452912017703056
1772809088046782200,6.8597822265625,-0.051892757415771484,-0.004764928016811609,0.014156831428408623
1772809088056806400,6.869806396484375,-0.017522267997264862,0.04290672019124031,0.07221028208732605
1772809088066830000,6.879830078125,0.028307272121310234,0.0732627585530281,0.14017868041992188
1772809088076854300,6.889854248046875,0.04682556167244911,0.018977154046297073,0.17389509081840515
1772809088086878200,6.899878173828125,0.03383466228842735,-0.11271509528160095,0.17170864343643188
1772809088096902100,6.909902099609375,-0.006645385641604662,-0.2402309775352478,0.14421816170215607
1772809088106927000,6.919927001953125,-0.06339947879314423,-0.35808730125427246,0.08516735583543777
1772809088116951300,6.929951416015625,-0.12962935864925385,-0.4204934239387512,0.016462596133351326
1772809088126975200,6.939975341796875,-0.18925034999847412,-0.39955803751945496,-0.0390656441450119
1772809088136999200,6.949999267578125,-0.23861630260944366,-0.31913459300994873,-0.08137528598308563
1772809088147023000,6.960023193359375,-0.27449893951416016,-0.20432303845882416,-0.10594241321086884
1772809088157048300,6.97004833984375,-0.29335251450538635,-0.07644736766815186,-0.11975489556789398
1772809088167072300,6.980072265625,-0.30591970682144165,0.03399631753563881,-0.11311323940753937
1772809088177096200,6.99009619140625,-0.3093879520893097,0.1323346048593521,-0.08658149838447571
1772809088187120000,7.0001201171875,-0.3112657368183136,0.2471751719713211,-0.029640449211001396
1772809088197144300,7.010144287109375,-0.3086678385734558,0.3750721514225006,0.05023094639182091
1772809088207169300,7.020169189453125,-0.29840320348739624,0.4744269549846649,0.14618730545043945
1772809088217193200,7.030193115234375,-0.277018278837204,0.5195382237434387,0.2381121665239334
1772809088227217200,7.040217041015625,-0.24353383481502533,0.4752051532268524,0.3009933829307556
1772809088237241300,7.050241455078125,-0.19904199242591858,0.34725064039230347,0.3158375918865204
1772809088247265000,7.06026513671875,-0.1500938981771469,0.16840632259845734,0.30043092370033264
1772809088257290200,7.070290283203125,-0.11103544384241104,-0.02436845563352108,0.27694663405418396
1772809088267314200,7.080314208984375,-0.0957811176776886,-0.22044715285301208,0.256128191947937
1772809088277338400,7.09033837890625,-0.11010972410440445,-0.397571325302124,0.24409149587154388
1772809088287362000,7.100362060546875,-0.15371845662593842,-0.5252150297164917,0.22661156952381134
1772809088297386200,7.11038623046875,-0.21016468107700348,-0.5799297094345093,0.19403551518917084
1772809088307411200,7.1204111328125,-0.2796127498149872,-0.5723511576652527,0.1414644569158554
1772809088317435400,7.130435302734375,-0.3410710394382477,-0.55979323387146,0.05590960383415222
1772809088327459000,7.140458984375,-0.4060764014720917,-0.5080166459083557,-0.04170616716146469
1772809088337483300,7.150483154296875,-0.46131250262260437,-0.4185626208782196,-0.13747157156467438
1772809088347507200,7.160507080078125,-0.5092036128044128,-0.26995956897735596,-0.21200306713581085
1772809088357531400,7.170531494140625,-0.5272305011749268,-0.06905283778905869,-0.25570419430732727
1772809088367556400,7.180556396484375,-0.5128233432769775,0.16389653086662292,-0.2583894729614258
1772809088377580300,7.190580322265625,-0.4604158103466034,0.38605794310569763,-0.2356703132390976
1772809088387604200,7.200604248046875,-0.38711389899253845,0.5373222827911377,-0.2021203488111496
1772809088397628400,7.21062841796875,-0.3151068091392517,0.6199690103530884,-0.17053285241127014
1772809088407652000,7.220652099609375,-0.2633589208126068,0.6475361585617065,-0.14367540180683136
1772809088417677000,7.230677001953125,-0.22317104041576385,0.5857665538787842,-0.11189990490674973
1772809088427701200,7.240701171875,-0.18937206268310547,0.4323849678039551,-0.0644783228635788
1772809088437725200,7.25072509765625,-0.16707554459571838,0.25452521443367004,0.0006945523782633245
1772809088447749000,7.2607490234375,-0.15176476538181305,0.04735340178012848,0.062067899852991104
1772809088457773300,7.270773193359375,-0.143641859292984,-0.15353283286094666,0.11746218055486679
1772809088467798300,7.28079833984375,-0.14070598781108856,-0.29322096705436707,0.16213378310203552
1772809088477822200,7.290822265625,-0.14751861989498138,-0.3614327609539032,0.19157768785953522
1772809088487846100,7.30084619140625,-0.1539197862148285,-0.3438838720321655,0.20213232934474945
1772809088497870000,7.3108701171875,-0.16808222234249115,-0.26627296209335327,0.18755312263965607
1772809088507894300,7.320894287109375,-0.1774565428495407,-0.15111121535301208,0.15229979157447815
1772809088517919200,7.330919189453125,-0.18697229027748108,-0.02231489308178425,0.09571640938520432
1772809088527943200,7.340943115234375,-0.197329580783844,0.09792549908161163,0.03806908801198006
1772809088537967000,7.350967041015625,-0.20906692743301392,0.1860332489013672,-0.01889645867049694
1772809088547991300,7.3609912109375,-0.22794048488140106,0.22057737410068512,-0.06028837338089943
1772809088558015200,7.37101513671875,-0.2355635166168213,0.21935045719146729,-0.08400674909353256
1772809088568040200,7.381040283203125,-0.22582992911338806,0.18994170427322388,-0.07964689284563065
1772809088578064100,7.391064208984375,-0.2064727544784546,0.15375041961669922,-0.04783117026090622
1772809088588088300,7.40108837890625,-0.17282423377037048,0.12520718574523926,0.009435580112040043
1772809088598112000,7.411112060546875,-0.13384728133678436,0.10053539276123047,0.08193055540323257
1772809088608136200,7.42113623046875,-0.0968831330537796,0.08491329103708267,0.15698082745075226
1772809088618160000,7.43116015625,-0.058629490435123444,0.07708492875099182,0.22909337282180786
1772809088628185300,7.441185302734375,-0.022818762809038162,0.06443119049072266,0.2762978971004486
1772809088638209000,7.451208984375,-0.00025592977181077003,0.021136710420250893,0.28984805941581726
1772809088648233200,7.461233154296875,0.010848386213183403,-0.027956001460552216,0.2809387147426605
1772809088658257200,7.471257080078125,0.00039840888348408043,-0.07188723981380463,0.2623911499977112
1772809088668281300,7.48128125,-0.0167976226657629,-0.12922216951847076,0.23566631972789764
1772809088678306000,7.49130615234375,-0.04712996259331703,-0.17814897000789642,0.2162843644618988
1772809088688330200,7.501330322265625,-0.07809693366289139,-0.19349463284015656,0.20346097648143768
1772809088698354200,7.511354248046875,-0.10813339054584503,-0.17936043441295624,0.18616747856140137
1772809088708378400,7.52137841796875,-0.14263597130775452,-0.1651623249053955,0.16670003533363342
1772809088718402000,7.531402099609375,-0.18248645961284637,-0.12634621560573578,0.15185929834842682
1772809088728427300,7.54142724609375,-0.22157660126686096,-0.06769941747188568,0.14079520106315613
1772809088738451200,7.551451171875,-0.2506932020187378,0.0015811186749488115,0.1281430572271347
1772809088748475400,7.561475341796875,-0.26455363631248474,0.0832488164305687,0.1307862401008606
1772809088758499000,7.5714990234375,-0.25740569829940796,0.18325583636760712,0.15288914740085602
1772809088768523300,7.581523193359375,-0.23555472493171692,0.28215524554252625,0.18710464239120483
1772809088778548200,7.59154833984375,-0.19931630790233612,0.32337966561317444,0.21084246039390564
1772809088788572400,7.601572509765625,-0.17156483232975006,0.25573456287384033,0.20827357470989227
1772809088798596000,7.61159619140625,-0.15627296268939972,0.12296800315380096,0.18491019308567047
1772809088808620300,7.621620361328125,-0.13973340392112732,-0.015458052046597004,0.15991270542144775
1772809088818644200,7.631644287109375,-0.11866886168718338,-0.12273843586444855,0.13831552863121033
1772809088828669200,7.641669189453125,-0.11811039596796036,-0.19764064252376556,0.11396518349647522
1772809088838693000,7.651693115234375,-0.1309148669242859,-0.2348143756389618,0.09850446879863739
1772809088848717300,7.66171728515625,-0.16564355790615082,-0.20592813193798065,0.09153071790933609
1772809088858741200,7.6717412109375,-0.20613878965377808,-0.11021625250577927,0.10251785069704056
1772809088868765200,7.68176513671875,-0.2434033304452896,0.019957195967435837,0.11654844880104065
1772809088878790100,7.6917900390625,-0.272378534078598,0.17671911418437958,0.12115545570850372
1772809088888814300,7.701814453125,-0.2801975607872009,0.32355064153671265,0.11170203238725662
1772809088898838300,7.71183837890625,-0.2666380703449249,0.4383256733417511,0.10488779842853546
1772809088908866000,7.721865966796875,-0.23125265538692474,0.5234150290489197,0.12363352626562119
1772809088918890200,7.73189013671875,-0.16915813088417053,0.5681787729263306,0.1701381802558899
1772809088928915200,7.741915283203125,-0.08970671892166138,0.5522080659866333,0.23429825901985168
1772809088938939400,7.751939453125,0.00009400958515470847,0.4982643723487854,0.30783799290657043
1772809088948963000,7.761963134765625,0.08523420244455338,0.3967702388763428,0.37905704975128174
1772809088958987300,7.7719873046875,0.15683434903621674,0.269391268491745,0.4339546263217926
1772809088969011200,7.78201123046875,0.21404917538166046,0.1393035650253296,0.46783432364463806
1772809088979035100,7.79203515625,0.2514205276966095,0.027367442846298218,0.48001375794410706
1772809088989060000,7.80206005859375,0.26753395795822144,-0.0542677640914917,0.47307088971138
1772809088999084300,7.812084228515625,0.26739227771759033,-0.10207976400852203,0.4467737674713135
1772809089009108200,7.822108154296875,0.25024473667144775,-0.13103099167346954,0.4020659625530243
1772809089019132200,7.832132080078125,0.23098687827587128,-0.14302267134189606,0.331821084022522
1772809089029156000,7.842156005859375,0.21406115591526031,-0.13700206577777863,0.24071620404720306
1772809089039181300,7.852181396484375,0.20320823788642883,-0.12293791025876999,0.1445947289466858
1772809089049205200,7.862205322265625,0.19309142231941223,-0.10709182918071747,0.06101302057504654
1772809089059229200,7.872229248046875,0.17883072793483734,-0.10320468246936798,-0.009031311608850956
1772809089069253000,7.882253173828125,0.15691931545734406,-0.12814359366893768,-0.0637478232383728
1772809089079277300,7.89227734375,0.12723731994628906,-0.17147934436798096,-0.11030573397874832
1772809089089302300,7.90230224609375,0.0917229950428009,-0.2117878794670105,-0.14869333803653717
1772809089099326200,7.912326171875,0.056120261549949646,-0.23035463690757751,-0.17486129701137543
1772809089109350100,7.92235009765625,0.024631842970848083,-0.21953608095645905,-0.18711848556995392
1772809089119374300,7.932374267578125,0.00951174646615982,-0.17617715895175934,-0.18198764324188232
1772809089129398000,7.94239794921875,0.010910971090197563,-0.1122591644525528,-0.1535528004169464
1772809089139423200,7.95242333984375,0.02943458780646324,-0.030642597004771233,-0.11213292926549911
1772809089149447200,7.962447265625,0.06089264526963234,0.05559588596224785,-0.06499950587749481
1772809089159471400,7.972471435546875,0.09649644792079926,0.14479632675647736,-0.027630828320980072
1772809089169495000,7.9824951171875,0.12668870389461517,0.21368564665317535,-0.01221405528485775
1772809089179519200,7.992519287109375,0.13700366020202637,0.22521980106830597,-0.02106187492609024
1772809089189543200,8.002543212890625,0.11848296970129013,0.17350654304027557,-0.05247173085808754
1772809089199568400,8.012568359375,0.0837755873799324,0.09421677887439728,-0.09941127896308899
1772809089209592000,8.022592041015624,0.037227530032396317,0.00800386443734169,-0.13000433146953583
1772809089219616300,8.0326162109375,0.002529470482841134,-0.05385817214846611,-0.1492864191532135
1772809089229640200,8.04264013671875,-0.03446050360798836,-0.10134100168943405,-0.1451641172170639
1772809089239664400,8.052664306640626,-0.0649142861366272,-0.12020257115364075,-0.1299513429403305
1772809089249689000,8.062689208984375,-0.08658495545387268,-0.13255244493484497,-0.11433696001768112
1772809089259713300,8.07271337890625,-0.09861365705728531,-0.1384180635213852,-0.10587210208177567
1772809089269737200,8.0827373046875,-0.10381747782230377,-0.11966488510370255,-0.10075058043003082
1772809089279761400,8.092761474609375,-0.11319579929113388,-0.09038235992193222,-0.10628915578126907
1772809089289785000,8.10278515625,-0.12417814135551453,-0.06840675324201584,-0.1193556860089302
1772809089299810000,8.11281005859375,-0.1453300267457962,-0.062305185943841934,-0.14103461802005768
1772809089309834200,8.122834228515625,-0.1776120662689209,-0.07176819443702698,-0.16786250472068787
1772809089319858400,8.1328583984375,-0.20519310235977173,-0.08341393619775772,-0.18129335343837738
1772809089329882000,8.142882080078126,-0.22213560342788696,-0.09662933647632599,-0.18183983862400055
1772809089339906300,8.15290625,-0.2401667982339859,-0.11198805272579193,-0.17589938640594482
1772809089349931300,8.16293115234375,-0.25298377871513367,-0.1439710259437561,-0.1649324893951416
1772809089359955200,8.172955078125,-0.2665230333805084,-0.19333989918231964,-0.15542367100715637
1772809089369979100,8.182979248046875,-0.2825249135494232,-0.2343110293149948,-0.13733895123004913
1772809089380003300,8.19300341796875,-0.30467867851257324,-0.26364603638648987,-0.11952666193246841
1772809089390027300,8.20302734375,-0.3259991407394409,-0.25967657566070557,-0.10656505823135376
1772809089400052200,8.21305224609375,-0.35612908005714417,-0.22458836436271667,-0.08902281522750854
1772809089410076200,8.223076171875,-0.39608103036880493,-0.195481076836586,-0.07860665768384933
1772809089420100000,8.23310009765625,-0.43324196338653564,-0.18276582658290863,-0.07963916659355164
1772809089430124300,8.243124267578125,-0.4653194844722748,-0.1592532992362976,-0.08281898498535156
1772809089440148200,8.253148193359374,-0.4861752390861511,-0.1411544680595398,-0.09368361532688141
1772809089450173200,8.263173095703126,-0.5027544498443604,-0.1317867934703827,-0.10559939593076706
1772809089460197000,8.273197021484375,-0.5180119872093201,-0.1329633742570877,-0.11420194059610367
1772809089470221300,8.28322119140625,-0.5296675562858582,-0.1443672925233841,-0.11268686503171921
1772809089480245000,8.293244873046875,-0.5429208278656006,-0.1582610160112381,-0.09813056141138077
1772809089490269200,8.303269287109375,-0.5431314706802368,-0.14618037641048431,-0.06858784705400467
1772809089500294100,8.313294189453124,-0.5270307660102844,-0.12542715668678284,-0.02370666153728962
1772809089510318300,8.323318359375,-0.49931207299232483,-0.11497478932142258,0.029039375483989716
1772809089520342000,8.333342041015625,-0.4636089503765106,-0.10162515938282013,0.08995838463306427
1772809089530366200,8.3433662109375,-0.427232027053833,-0.10410669445991516,0.15298235416412354
1772809089540390100,8.35339013671875,-0.4117848873138428,-0.1763603836297989,0.15976569056510925
1772809089550415400,8.363415283203125,-0.42106813192367554,-0.3083471655845642,0.09934256225824356
1772809089560439000,8.37343896484375,-0.4482289254665375,-0.4667021930217743,0.000737695605494082
1772809089570463200,8.383463134765625,-0.48311206698417664,-0.605950117111206,-0.1046862006187439
1772809089580487200,8.393487060546875,-0.5403167605400085,-0.6726899743080139,-0.20425567030906677
1772809089590511400,8.403511474609376,-0.6052683591842651,-0.6537072658538818,-0.2793533504009247
1772809089600535000,8.41353515625,-0.666102409362793,-0.536612331867218,-0.3226049542427063
1772809089610560300,8.423560302734375,-0.7070146799087524,-0.33331191539764404,-0.33532074093818665
1772809089620584200,8.433584228515626,-0.7151075005531311,-0.09487005323171616,-0.329950213432312
1772809089630608400,8.4436083984375,-0.6801676154136658,0.10352958738803864,-0.3179345726966858
1772809089640632000,8.453632080078124,-0.6166477799415588,0.2082464098930359,-0.2905609905719757
1772809089650656300,8.46365625,-0.5448936820030212,0.2079918086528778,-0.2548842132091522
1772809089660681200,8.47368115234375,-0.47566133737564087,0.13122646510601044,-0.18474188446998596
1772809089670705400,8.483705322265624,-0.4158238470554352,0.009367402642965317,-0.08967182785272598
1772809089680729000,8.49372900390625,-0.37510597705841064,-0.1323617696762085,0.019542541354894638
1772809089690753300,8.503753173828125,-0.34471771121025085,-0.24927987158298492,0.1348150670528412
1772809089700777200,8.513777099609374,-0.33146634697914124,-0.3011761009693146,0.24545156955718994
1772809089710802400,8.523802490234376,-0.3361425995826721,-0.3206339478492737,0.3277032971382141
1772809089720826000,8.533826171875,-0.3562382757663727,-0.3496224582195282,0.3568025827407837
1772809089730850300,8.543850341796874,-0.3904055655002594,-0.3948831260204315,0.3330408036708832
1772809089740874200,8.553874267578125,-0.43259376287460327,-0.43834593892097473,0.27540600299835205
1772809089750898200,8.563898193359375,-0.4827197790145874,-0.466277152299881,0.18705590069293976
1772809089760923100,8.573923095703124,-0.5430545210838318,-0.4844188690185547,0.08227036893367767
1772809089770947300,8.583947265625,-0.5982679724693298,-0.497244656085968,-0.034108966588974
1772809089780971300,8.59397119140625,-0.6463364362716675,-0.49744653701782227,-0.15217062830924988
1772809089790995200,8.6039951171875,-0.6879591941833496,-0.47577664256095886,-0.25280535221099854
1772809089801019100,8.61401904296875,-0.7185434699058533,-0.4261401295661926,-0.32453545928001404
1772809089811044000,8.624044189453125,-0.7311854958534241,-0.3551785945892334,-0.358720064163208
1772809089821068300,8.634068359375,-0.732907772064209,-0.2613442540168762,-0.3545045554637909
1772809089831092200,8.64409228515625,-0.7208942770957947,-0.1784733384847641,-0.33141040802001953
1772809089841116200,8.6541162109375,-0.6935873031616211,-0.12921497225761414,-0.29038041830062866
1772809089851140400,8.664140380859376,-0.6557799577713013,-0.10706306993961334,-0.24509631097316742
1772809089861165300,8.674165283203125,-0.6179510951042175,-0.11436492204666138,-0.19976158440113068
1772809089871189000,8.68418896484375,-0.5816503763198853,-0.166995108127594,-0.16205920279026031
1772809089881213200,8.694213134765626,-0.5467797517776489,-0.2389257550239563,-0.12969328463077545
1772809089891237400,8.7042373046875,-0.517488420009613,-0.294501930475235,-0.10431335866451263
1772809089901261300,8.71426123046875,-0.4987536072731018,-0.3426974415779114,-0.08732052147388458
1772809089911286000,8.7242861328125,-0.4859408736228943,-0.3764364719390869,-0.09261249005794525
1772809089921306000,8.73430615234375,-0.484732061624527,-0.4153071939945221,-0.11024927347898483
1772809089931330300,8.744330322265625,-0.48501595854759216,-0.438886821269989,-0.13199585676193237
1772809089941354000,8.75435400390625,-0.48980164527893066,-0.45124974846839905,-0.14813832938671112
1772809089951378200,8.764378173828124,-0.5019864439964294,-0.4483721852302551,-0.15951348841190338
1772809089961403100,8.774403076171875,-0.5220836997032166,-0.44603046774864197,-0.167947456240654
1772809089971427300,8.78442724609375,-0.5587591528892517,-0.43760156631469727,-0.18937498331069946
1772809089981451000,8.794450927734376,-0.6040246486663818,-0.4187506437301636,-0.20770445466041565
1772809089991475200,8.80447509765625,-0.6591712236404419,-0.39093899726867676,-0.22006259858608246
1772809090001499100,8.8144990234375,-0.7178335189819336,-0.35143765807151794,-0.22279472649097443
1772809090011524000,8.824524169921874,-0.7666212916374207,-0.31814467906951904,-0.21735788881778717
1772809090021548000,8.834548095703125,-0.8071412444114685,-0.28844937682151794,-0.21106857061386108
1772809090031572200,8.844572265625,-0.8378504514694214,-0.26455041766166687,-0.2000713050365448
1772809090041596200,8.85459619140625,-0.867623507976532,-0.27883535623550415,-0.20486925542354584
1772809090051620400,8.864620361328125,-0.8994805216789246,-0.3193036913871765,-0.21673017740249634
1772809090061645000,8.87464501953125,-0.938147783279419,-0.3721919357776642,-0.22716310620307922
1772809090071669000,8.8846689453125,-0.9760687947273254,-0.4077906906604767,-0.23016290366649628
1772809090081693200,8.894693115234375,-1.0047051906585693,-0.4192739725112915,-0.21739384531974792
1772809090091717000,8.904717041015624,-1.0122911930084229,-0.4038771688938141,-0.19257371127605438
1772809090101741000,8.914740966796876,-1.013775110244751,-0.3711112141609192,-0.16196893155574799
1772809090111766000,8.92476611328125,-1.0135765075683594,-0.3339627981185913,-0.1265275776386261
1772809090121790200,8.934790283203125,-1.007785677909851,-0.2880144715309143,-0.0774252861738205
1772809090131814100,8.944814208984376,-1.014868140220642,-0.23455524444580078,-0.01155785284936428
1772809090141838000,8.954838134765625,-1.0298612117767334,-0.19052493572235107,0.06011713296175003
1772809090151862300,8.9648623046875,-1.0521910190582275,-0.16366110742092133,0.12681253254413605
1772809090161887200,8.97488720703125,-1.0803669691085815,-0.1525256186723709,0.19413511455059052
1772809090171911200,8.9849111328125,-1.1121927499771118,-0.13688142597675323,0.24776959419250488
1772809090181935000,8.99493505859375,-1.1533775329589844,-0.13943752646446228,0.2851550281047821
1772809090191959000,9.004958984375,-1.1964000463485718,-0.16517537832260132,0.3104814291000366
1772809090201983200,9.014983154296875,-1.2489961385726929,-0.19275107979774475,0.3177843689918518
1772809090212008200,9.02500830078125,-1.3094110488891602,-0.204032763838768,0.3179002106189728
1772809090222032100,9.0350322265625,-1.3692229986190796,-0.1971607357263565,0.3162940442562103
1772809090232056000,9.04505615234375,-1.4179133176803589,-0.18203957378864288,0.30517029762268066
1772809090242080300,9.055080322265624,-1.4522502422332764,-0.164566308259964,0.3033313751220703
1772809090252104000,9.06510400390625,-1.4685591459274292,-0.11667708307504654,0.30429065227508545
1772809090262129200,9.075129150390625,-1.4668201208114624,-0.04025474563241005,0.32161104679107666
1772809090272153000,9.085153076171874,-1.4562023878097534,-0.029989590868353844,0.3293725848197937
1772809090282177300,9.09517724609375,-1.4400180578231812,-0.12588895857334137,0.3095703721046448
1772809090292201000,9.105200927734375,-1.4232475757598877,-0.289905846118927,0.2704099118709564
1772809090302225200,9.11522509765625,-1.4053468704223633,-0.4500494599342346,0.22039015591144562
1772809090312250000,9.12525,-1.3930039405822754,-0.5545441508293152,0.16618017852306366
1772809090322274300,9.1352744140625,-1.4058984518051147,-0.6114827990531921,0.10963009297847748
1772809090332298000,9.145298095703126,-1.438610553741455,-0.6093506813049316,0.046247657388448715
1772809090342322200,9.155322265625,-1.481857180595398,-0.5501044392585754,-0.019891150295734406
1772809090352346000,9.16534619140625,-1.5259844064712524,-0.4548220932483673,-0.08734262734651566
1772809090362371300,9.175371337890626,-1.551674246788025,-0.3494062125682831,-0.1380164623260498
1772809090372395000,9.18539501953125,-1.5510114431381226,-0.20858517289161682,-0.16395032405853271
1772809090382419200,9.195419189453125,-1.521693468093872,-0.0315382182598114,-0.15665778517723083
1772809090392443100,9.205443115234376,-1.4646052122116089,0.12346654385328293,-0.11656975746154785
1772809090402467300,9.21546728515625,-1.3734891414642334,0.20491532981395721,-0.049609363079071045
1772809090412492000,9.225491943359375,-1.2589784860610962,0.18183770775794983,0.031553130596876144
1772809090422516200,9.23551611328125,-1.1440836191177368,0.07185821235179901,0.10584787279367447
1772809090432540200,9.2455400390625,-1.027298927307129,-0.11055127531290054,0.17175337672233582
1772809090442564400,9.255564453125,-0.9234556555747986,-0.33868831396102905,0.22414521872997284
1772809090452588000,9.265588134765625,-0.8533327579498291,-0.5782862305641174,0.261141836643219
1772809090462613000,9.275613037109375,-0.8179097771644592,-0.7936760783195496,0.288263738155365
1772809090472637200,9.28563720703125,-0.8131067752838135,-0.9542401432991028,0.2803381681442261
1772809090482661000,9.2956611328125,-0.8303134441375732,-1.0493773221969604,0.23392674326896667
1772809090492685000,9.30568505859375,-0.8711642026901245,-1.0755589008331299,0.1577203869819641
1772809090502709200,9.315709228515624,-0.934483528137207,-1.042914867401123,0.059295013546943665
1772809090512734200,9.325734130859376,-1.0094109773635864,-0.9692241549491882,-0.05639989301562309
1772809090522758100,9.335758056640625,-1.0790084600448608,-0.8639107942581177,-0.16923749446868896
1772809090532782000,9.345781982421874,-1.1309115886688232,-0.7160113453865051,-0.25713273882865906
1772809090542806300,9.35580615234375,-1.1629254817962646,-0.5582768321037292,-0.3069809675216675
1772809090552830200,9.365830322265625,-1.1725291013717651,-0.4340915381908417,-0.3143928349018097
1772809090562855200,9.375855224609374,-1.1573176383972168,-0.38521239161491394,-0.28212517499923706
1772809090572879000,9.385879150390625,-1.1339598894119263,-0.4034917950630188,-0.20770925283432007
1772809090582903000,9.395903076171875,-1.114926815032959,-0.4727630317211151,-0.11130495369434357
1772809090592927200,9.40592724609375,-1.1023039817810059,-0.5674288272857666,0.00004340952364145778
1772809090602951200,9.415951171875,-1.1081511974334717,-0.6465465426445007,0.09826105833053589
1772809090612976000,9.42597607421875,-1.1335073709487915,-0.6995128393173218,0.16256441175937653
1772809090623000000,9.436,-1.1870718002319336,-0.707423746585846,0.18910335004329681
1772809090633024300,9.446024169921875,-1.2634172439575195,-0.6852182745933533,0.19083786010742188
1772809090643048000,9.4560478515625,-1.3561513423919678,-0.6473073959350586,0.16370584070682526
1772809090653072100,9.466072021484376,-1.4509152173995972,-0.6194589734077454,0.11708986759185791
1772809090663097000,9.47609716796875,-1.5424892902374268,-0.613437831401825,0.05999089777469635
1772809090673121300,9.486121337890625,-1.6273847818374634,-0.6256838440895081,0.0064776064828038216
1772809090683145000,9.49614501953125,-1.6885384321212769,-0.6760317087173462,-0.03562004491686821
1772809090693169200,9.506169189453125,-1.7212367057800293,-0.752995491027832,-0.059421513229608536
1772809090703193000,9.516193115234374,-1.7306424379348755,-0.8445158004760742,-0.06465702503919601
1772809090713218300,9.52621826171875,-1.73792564868927,-0.9487468600273132,-0.05034812539815903
1772809090723242000,9.536241943359375,-1.7440820932388306,-1.0412962436676025,-0.024529844522476196
1772809090733266200,9.54626611328125,-1.7700750827789307,-1.1097551584243774,0.0068448567762970924
1772809090743290000,9.5562900390625,-1.8075257539749146,-1.1547056436538696,0.022165756672620773
1772809090753314000,9.56631396484375,-1.8591455221176147,-1.1622858047485352,0.011302988044917583
1772809090763338000,9.576337890625,-1.9238041639328003,-1.125893473625183,-0.020749486982822418
1772809090773363200,9.58636328125,-1.9975383281707764,-1.0599119663238525,-0.0641438290476799
1772809090783387100,9.59638720703125,-2.072589635848999,-0.967514157295227,-0.11337529122829437
1772809090793411000,9.6064111328125,-2.1464641094207764,-0.8729556798934937,-0.15701891481876373
1772809090803435000,9.61643505859375,-2.210146188735962,-0.795521080493927,-0.19879725575447083
1772809090813460200,9.626460205078125,-2.2623205184936523,-0.7516425848007202,-0.22689546644687653
1772809090823484200,9.636484130859374,-2.3001437187194824,-0.7324420213699341,-0.2395193874835968
1772809090833508000,9.646508056640625,-2.329211473464966,-0.7332130074501038,-0.24296312034130096
1772809090843532000,9.656531982421875,-2.355398416519165,-0.7441293001174927,-0.2316707819700241
1772809090853556200,9.66655615234375,-2.3958566188812256,-0.7850426435470581,-0.23106011748313904
1772809090863580200,9.676580078125,-2.4466476440429688,-0.8247815370559692,-0.2286406308412552
1772809090873605400,9.68660546875,-2.4980173110961914,-0.8745988607406616,-0.23167744278907776
1772809090883629000,9.696629150390624,-2.557131290435791,-0.9250412583351135,-0.25398993492126465
1772809090893653200,9.7066533203125,-2.609935998916626,-0.9578122496604919,-0.29741278290748596
1772809090903677200,9.71667724609375,-2.6533055305480957,-1.0018577575683594,-0.36819666624069214
1772809090913701600,9.72670166015625,-2.674687147140503,-1.0535491704940796,-0.43876323103904724
1772809090923726600,9.7367265625,-2.6811258792877197,-1.0770012140274048,-0.5052916407585144
1772809090933750300,9.746750244140625,-2.6695148944854736,-1.0859862565994263,-0.5479251742362976
1772809090943774500,9.7567744140625,-2.6455435752868652,-1.086681604385376,-0.5756039023399353
1772809090953798700,9.766798583984375,-2.6203665733337402,-1.0919806957244873,-0.5865428447723389
1772809090963823600,9.77682373046875,-2.575880765914917,-1.0857795476913452,-0.5848184823989868
1772809090973847300,9.786847412109376,-2.522491216659546,-1.0619299411773682,-0.5645810961723328
1772809090983871500,9.79687158203125,-2.4550230503082275,-1.0166960954666138,-0.5219718217849731
1772809090993895400,9.8068955078125,-2.391939640045166,-0.9404503107070923,-0.46379294991493225
1772809091003919400,9.81691943359375,-2.3281097412109375,-0.8436838388442993,-0.41957250237464905
1772809091013943600,9.826943603515625,-2.257256507873535,-0.7727414965629578,-0.4065685570240021
1772809091023968500,9.836968505859375,-2.172614812850952,-0.7393537163734436,-0.4309695065021515
1772809091033992400,9.846992431640626,-2.08266544342041,-0.7441463470458984,-0.4762698709964752
1772809091044016400,9.857016357421875,-2.002671003341675,-0.7806872725486755,-0.5334977507591248
1772809091054040300,9.867040283203124,-1.946094274520874,-0.8405601978302002,-0.592219352722168
1772809091064064500,9.877064453125,-1.9137520790100098,-0.8913208842277527,-0.6507455110549927
1772809091074089500,9.88708935546875,-1.9031660556793213,-0.9271818995475769,-0.706756055355072
1772809091084113400,9.897113525390624,-1.8927717208862305,-0.9501248002052307,-0.7471621036529541
1772809091094137300,9.907137451171875,-1.8796409368515015,-0.9619470834732056,-0.7612345218658447
1772809091104161500,9.91716162109375,-1.8555207252502441,-0.9450911283493042,-0.743963360786438
1772809091114185500,9.927185546875,-1.816685676574707,-0.900580644607544,-0.7083361148834229
1772809091124210400,9.93721044921875,-1.7626045942306519,-0.8390981554985046,-0.6543083190917969
1772809091134234400,9.947234375,-1.6875882148742676,-0.7638566493988037,-0.588097095489502
1772809091144258600,9.957258544921874,-1.6027723550796509,-0.6782317757606506,-0.515023946762085
1772809091154282500,9.967282470703125,-1.5254698991775513,-0.6072028279304504,-0.4442674517631531
1772809091164306400,9.977306396484375,-1.4748599529266357,-0.5843806266784668,-0.3857407569885254
1772809091174331400,9.987331298828124,-1.4506709575653076,-0.6071463823318481,-0.34411555528640747
1772809091184355600,9.99735546875,-1.4485937356948853,-0.6512475609779358,-0.31219038367271423
1772809091194379500,10.007379638671875,-1.456542730331421,-0.6875727772712708,-0.2918078899383545
1772809091204403500,10.017403564453126,-1.4651830196380615,-0.7070754170417786,-0.2836815118789673
1772809091214427400,10.027427490234375,-1.4677742719650269,-0.7252578735351562,-0.28571829199790955
1772809091224452600,10.03745263671875,-1.4552364349365234,-0.7215121388435364,-0.28639286756515503
1772809091234476500,10.0474765625,-1.4389346837997437,-0.6957542896270752,-0.2881937026977539
1772809091244500500,10.05750048828125,-1.4122458696365356,-0.6892356872558594,-0.300627738237381
1772809091254524400,10.0675244140625,-1.3742374181747437,-0.6870564222335815,-0.3180256485939026
1772809091264548600,10.077548583984376,-1.3239191770553589,-0.6676959991455078,-0.337088018655777
1772809091274573600,10.087573486328125,-1.2813397645950317,-0.6307430863380432,-0.34525245428085327
1772809091284597500,10.097597412109375,-1.2562059164047241,-0.5558903813362122,-0.3442729711532593
1772809091294621400,10.107621337890626,-1.2466238737106323,-0.45328760147094727,-0.3342245817184448
1772809091304645600,10.117645751953125,-1.238876461982727,-0.3483044505119324,-0.3235042989253998
1772809091314669300,10.12766943359375,-1.234038233757019,-0.2509150505065918,-0.31227853894233704
1772809091324694300,10.1376943359375,-1.227770209312439,-0.16975973546504974,-0.31158798933029175
1772809091334718500,10.147718505859375,-1.2114200592041016,-0.09980595856904984,-0.3263400197029114
1772809091344742700,10.15774267578125,-1.1789557933807373,-0.029199164360761642,-0.3380097448825836
1772809091354766300,10.167766357421876,-1.1276476383209229,0.03123302012681961,-0.32985007762908936
1772809091364790500,10.17779052734375,-1.0547363758087158,0.10902182757854462,-0.2784039378166199
1772809091374815500,10.1878154296875,-0.9587470293045044,0.21940426528453827,-0.18098096549510956
1772809091384839400,10.19783935546875,-0.8582593202590942,0.27859941124916077,-0.06921449303627014
1772809091394863400,10.20786328125,-0.7725401520729065,0.25202637910842896,0.03738279268145561
1772809091404887600,10.217887451171874,-0.7104331254959106,0.1719406098127365,0.11274119466543198
1772809091414911500,10.227911376953125,-0.670214056968689,0.03551298752427101,0.1544729322195053
1772809091424936400,10.2379365234375,-0.6451491713523865,-0.13188506662845612,0.16523689031600952
1772809091434960400,10.24796044921875,-0.6380840539932251,-0.28631165623664856,0.16020724177360535
1772809091444984300,10.257984375,-0.6605504751205444,-0.4093582034111023,0.13120435178279877
1772809091455008500,10.268008544921875,-0.7003759145736694,-0.47625496983528137,0.0736185610294342
1772809091465032700,10.27803271484375,-0.7474215030670166,-0.49441584944725037,-0.007693339604884386
1772809091475057400,10.288057373046875,-0.7862035036087036,-0.5012330412864685,-0.1060449406504631
1772809091485081300,10.298081298828125,-0.819198727607727,-0.5120835304260254,-0.19392579793930054
1772809091495105500,10.30810546875,-0.8302226066589355,-0.5032436847686768,-0.243071511387825
1772809091505129500,10.31812939453125,-0.8310362100601196,-0.4746038019657135,-0.25548291206359863
1772809091515153400,10.3281533203125,-0.8231474161148071,-0.41003653407096863,-0.2365693897008896
1772809091525178400,10.338178466796874,-0.8024807572364807,-0.3025939464569092,-0.2021712064743042
1772809091535202600,10.34820263671875,-0.7750959992408752,-0.18017536401748657,-0.1697821170091629
1772809091545226500,10.3582265625,-0.749337911605835,-0.07944715768098831,-0.13912326097488403
1772809091555250400,10.36825048828125,-0.7210260629653931,-0.02045893669128418,-0.11853916198015213
1772809091565274400,10.3782744140625,-0.6844877600669861,0.01386761199682951,-0.10086482763290405
1772809091575299600,10.388299560546875,-0.6296378374099731,0.04072239622473717,-0.06990158557891846
1772809091585323500,10.398323486328126,-0.5750795602798462,0.05034386366605759,-0.02827291749417782
1772809091595347500,10.408347412109375,-0.5235692262649536,0.07158630341291428,0.018453309312462807
1772809091605371400,10.418371337890624,-0.4767873287200928,0.10614800453186035,0.06808611005544662
1772809091615395600,10.4283955078125,-0.4407411813735962,0.1453087329864502,0.10747505724430084
1772809091625420500,10.438420654296875,-0.41742652654647827,0.1612783670425415,0.13340306282043457
1772809091635444500,10.448444580078124,-0.40658241510391235,0.1578492820262909,0.1446533203125
1772809091645468400,10.458468505859376,-0.39945390820503235,0.13925908505916595,0.14870399236679077
1772809091655492600,10.46849267578125,-0.38938769698143005,0.11860866844654083,0.1497253179550171
1772809091665516300,10.478516357421874,-0.36217498779296875,0.12067501991987228,0.16469520330429077
1772809091675541500,10.48854150390625,-0.31781843304634094,0.15117247402668,0.19895757734775543
1772809091685565400,10.4985654296875,-0.2503153085708618,0.1827077567577362,0.2443559467792511
1772809091695589600,10.508589599609374,-0.16970515251159668,0.1902567595243454,0.2987011969089508
1772809091705613300,10.51861328125,-0.10155218839645386,0.18753474950790405,0.3456924259662628
1772809091715637500,10.528637451171875,-0.0456140898168087,0.23492994904518127,0.38169756531715393
1772809091725662500,10.538662353515624,-0.004775580484420061,0.32442253828048706,0.3912431299686432
1772809091735686700,10.548686767578126,0.013190902769565582,0.37086328864097595,0.3639278709888458
1772809091745710300,10.55871044921875,-0.0011606055777519941,0.2989664673805237,0.2827507257461548
1772809091755734500,10.568734619140624,-0.05090206116437912,0.12360582500696182,0.1594865918159485
1772809091765758500,10.578758544921875,-0.13095375895500183,-0.1150197982788086,0.028116323053836823
1772809091775783400,10.588783447265625,-0.2319813072681427,-0.35004881024360657,-0.08596550673246384
1772809091785807400,10.598807373046874,-0.33510369062423706,-0.513087272644043,-0.1488986611366272
1772809091795831600,10.60883154296875,-0.43255355954170227,-0.5613986253738403,-0.16361476480960846
1772809091805855500,10.61885546875,-0.5172502994537354,-0.48513713479042053,-0.14613564312458038
1772809091815879700,10.628879638671876,-0.5716568231582642,-0.2984846830368042,-0.1028137281537056
1772809091825904400,10.638904296875,-0.5925120711326599,-0.04291124641895294,-0.06647862493991852
1772809091835928300,10.64892822265625,-0.5833225846290588,0.19105836749076843,-0.05504860356450081
1772809091845952500,10.658952392578126,-0.5469807982444763,0.34777766466140747,-0.054665375500917435
1772809091855976700,10.668976806640625,-0.5043132305145264,0.4128192663192749,-0.07337834686040878
1772809091866000400,10.67900048828125,-0.4732615649700165,0.4369605481624603,-0.09413448721170425
1772809091876025300,10.689025390625,-0.43919360637664795,0.4911734461784363,-0.1361280083656311
1772809091886049500,10.699049560546875,-0.39505890011787415,0.5504868626594543,-0.20262554287910461
1772809091896073500,10.709073486328125,-0.3466615378856659,0.5384656190872192,-0.2769801914691925
1772809091906097400,10.719097412109376,-0.28287163376808167,0.5279192328453064,-0.3083117604255676
1772809091916121900,10.729121826171875,-0.2736334204673767,0.5464590787887573,-0.25663816928863525
1772809091926146800,10.739146728515625,-0.2189914733171463,0.4645245373249054,-0.19151750206947327
1772809091936170800,10.749170654296876,-0.13209624588489532,0.3944013714790344,-0.08165252208709717
1772809091946195000,10.75919482421875,-0.06458192318677902,0.3118918538093567,0.01967756450176239
1772809091956219000,10.769218994140624,-0.028238829225301743,0.19530904293060303,0.10456955432891846
1772809091966242800,10.779242919921876,-0.0012990899849683046,0.049367550760507584,0.1586141437292099
1772809091976267800,10.789267822265625,0.0145312724635005,-0.10504546016454697,0.18517012894153595
1772809091986292000,10.7992919921875,0.014752314426004887,-0.23037035763263702,0.19255053997039795
1772809091996316000,10.80931591796875,0.0057412427850067616,-0.2904278337955475,0.18605242669582367
1772809092006339800,10.81933984375,-0.013340040110051632,-0.3000282645225525,0.16260994970798492
1772809092016363800,10.82936376953125,-0.04463617876172066,-0.2736824154853821,0.1352856457233429
1772809092026389000,10.839388916015626,-0.07285396754741669,-0.21577037870883942,0.12589934468269348
1772809092036413000,10.849412841796875,-0.10196445137262344,-0.15511953830718994,0.1390250027179718
1772809092046436900,10.859436767578124,-0.13534797728061676,-0.11082105338573456,0.16365471482276917
1772809092056460800,10.869460693359375,-0.16415511071681976,-0.052916478365659714,0.18255063891410828
1772809092066485000,10.879485107421875,-0.18255090713500977,0.04201775789260864,0.19400516152381897
1772809092076510000,10.889510009765624,-0.19229593873023987,0.17893379926681519,0.206724151968956
1772809092086534000,10.899533935546875,-0.18579304218292236,0.2923296093940735,0.20393449068069458
1772809092096557800,10.909557861328125,-0.1761406809091568,0.32107868790626526,0.18286222219467163
1772809092106582000,10.91958203125,-0.15887540578842163,0.2727462947368622,0.14871464669704437
1772809092116605700,10.929605712890625,-0.14989975094795227,0.19104719161987305,0.10838239639997482
1772809092126630000,10.9396298828125,-0.14940813183784485,0.10761301219463348,0.08028178662061691
1772809092136654800,10.94965478515625,-0.1684739589691162,0.04936488717794418,0.05733572691679001
1772809092146679000,10.959678955078125,-0.20156720280647278,0.010395382530987263,0.03290734812617302
1772809092156702700,10.96970263671875,-0.24802204966545105,-0.04556748643517494,-0.004997954238206148
1772809092166727000,10.979726806640626,-0.30094385147094727,-0.07444813847541809,-0.03574494644999504
1772809092176750800,10.989750732421875,-0.3742705285549164,-0.11684299260377884,-0.02070607803761959
1772809092186775800,10.99977587890625,-0.4253648817539215,-0.18777042627334595,-0.02821698971092701
1772809092196799700,11.0097998046875,-0.45223191380500793,-0.2414158135652542,-0.055030494928359985
1772809092206824000,11.019823974609375,-0.4884066879749298,-0.2508958578109741,-0.08995412290096283
1772809092216848000,11.029847900390624,-0.5275653004646301,-0.21310961246490479,-0.1402559131383896
1772809092226871800,11.039871826171876,-0.5671632885932922,-0.20457790791988373,-0.1870090365409851
1772809092236896800,11.049896728515625,-0.6009183526039124,-0.2551902234554291,-0.2069593071937561
1772809092246920700,11.059920654296874,-0.6096417903900146,-0.33716151118278503,-0.18842796981334686
1772809092256945000,11.06994482421875,-0.5834168195724487,-0.3607693612575531,-0.1238124892115593
1772809092266968800,11.07996875,-0.5519188046455383,-0.33880123496055603,-0.05812189355492592
1772809092276992800,11.08999267578125,-0.521827757358551,-0.27143603563308716,-0.03513854742050171
