time,seconds_elapsed,z,y,x
1772797988258134000,0.058134033203125,2.0292768478393555,0.1914232224225998,0.47042983770370483
1772797988268161000,0.0681611328125,1.9433515071868896,-0.12673157453536987,0.27688753604888916
1772797988278187300,0.078187255859375,1.851872205734253,-0.36889174580574036,0.23774199187755585
1772797988288214300,0.08821435546875,1.8383190631866455,-0.5441064238548279,0.2114637792110443
1772797988298241000,0.098240966796875,1.876094937324524,-0.6475899815559387,0.16033561527729034
1772797988308268000,0.10826806640625,1.9172983169555664,-0.7016353607177734,0.17783896625041962
1772797988318294000,0.1182939453125,1.9219894409179688,-0.6883605718612671,0.3134143650531769
1772797988328321300,0.1283212890625,1.8583120107650757,-0.5927562713623047,0.5497342348098755
1772797988338348000,0.13834814453125,1.755033254623413,-0.44439423084259033,0.812101423740387
1772797988348375000,0.148375,1.6355550289154053,-0.26735126972198486,1.0279860496520996
1772797988358401000,0.158401123046875,1.5017967224121094,-0.09842004626989365,1.1283177137374878
1772797988368428300,0.16842822265625,1.4156134128570557,0.09477923810482025,1.1018439531326294
1772797988378455000,0.178455078125,1.3579671382904053,0.3303736448287964,0.9757909774780273
1772797988388482000,0.18848193359375,1.297178030014038,0.5790441632270813,0.7971528172492981
1772797988398508000,0.198508056640625,1.2141926288604736,0.8054965138435364,0.6431981325149536
1772797988408535300,0.208535400390625,1.1138393878936768,0.9857496023178101,0.5161850452423096
1772797988418562000,0.21856201171875,1.0314034223556519,1.0856146812438965,0.37741225957870483
1772797988428588000,0.228588134765625,0.9672960638999939,1.090064287185669,0.16315589845180511
1772797988438615000,0.238614990234375,0.9301870465278625,1.056727647781372,-0.11735991388559341
1772797988448642300,0.248642333984375,0.9034345149993896,0.9907315969467163,-0.4276354908943176
1772797988458669300,0.25866943359375,0.9049197435379028,0.9082993268966675,-0.742910623550415
1772797988468695000,0.268695068359375,0.941956102848053,0.8274787664413452,-1.015130639076233
1772797988478722000,0.27872216796875,0.9992928504943848,0.7346987724304199,-1.2058993577957153
1772797988488749300,0.288749267578125,1.065259575843811,0.6479665040969849,-1.3478889465332031
1772797988498776300,0.2987763671875,1.1239913702011108,0.5760545134544373,-1.4790858030319214
1772797988508802000,0.308802001953125,1.1607744693756104,0.5361361503601074,-1.598950743675232
1772797988518829000,0.3188291015625,1.1624882221221924,0.53954017162323,-1.6998299360275269
1772797988528856300,0.328856201171875,1.125535011291504,0.5711897015571594,-1.811205506324768
1772797988538883300,0.33888330078125,1.0497238636016846,0.6050485968589783,-1.9262281656265259
1772797988548909300,0.348909423828125,0.9833748936653137,0.6884170174598694,-2.068645477294922
1772797988558936000,0.35893603515625,0.9173545837402344,0.7874932885169983,-2.22650146484375
1772797988568963000,0.368963134765625,0.8504967093467712,0.8703879117965698,-2.332045078277588
1772797988578989300,0.3789892578125,0.768243134021759,0.9376643896102905,-2.336815595626831
1772797988589016300,0.389016357421875,0.6698281764984131,0.9689693450927734,-2.2370288372039795
1772797988599043000,0.39904296875,0.5725529789924622,0.9668231010437012,-2.096674919128418
1772797988609070000,0.409070068359375,0.48978888988494873,0.9256247878074646,-1.9451241493225098
1772797988619096000,0.419095947265625,0.4605359137058258,0.8542757630348206,-1.8020031452178955
1772797988629123300,0.429123291015625,0.46577727794647217,0.7642800807952881,-1.688897967338562
1772797988639150000,0.439150146484375,0.4712199866771698,0.6849985718727112,-1.5575600862503052
1772797988649177000,0.449177001953125,0.456111341714859,0.637193500995636,-1.3970080614089966
1772797988659203000,0.459203125,0.38535380363464355,0.5546533465385437,-1.2279728651046753
1772797988669230300,0.469230224609375,0.30341100692749023,0.4624728262424469,-1.1940053701400757
1772797988679257000,0.479257080078125,0.3923991918563843,0.31845149397850037,-1.5555137395858765
1772797988689284000,0.4892841796875,0.7429319024085999,-0.12444312870502472,-2.441831111907959
1772797988699310000,0.49931005859375,1.3534655570983887,-1.0165644884109497,-3.7866852283477783
1772797988709337300,0.50933740234375,1.9953089952468872,-2.2256381511688232,-5.161259651184082
1772797988719364000,0.519364013671875,2.5663437843322754,-3.070340633392334,-5.960173606872559
1772797988729391000,0.52939111328125,2.9642298221588135,-3.228632688522339,-5.2219696044921875
1772797988739417000,0.5394169921875,3.0266385078430176,-2.8428573608398438,-2.4529595375061035
1772797988749444400,0.5494443359375,2.8280816078186035,-1.6843290328979492,0.4140579104423523
1772797988759471000,0.55947119140625,2.413130044937134,-0.4247470200061798,2.150766372680664
1772797988769498000,0.569498046875,2.074514389038086,0.3368432819843292,2.7908432483673096
1772797988779524000,0.579524169921875,1.836479902267456,0.5439866185188293,2.8861515522003174
1772797988789551400,0.58955126953125,1.6421048641204834,0.5304329991340637,2.777616262435913
1772797988799578000,0.599578125,1.5049011707305908,0.5264850854873657,2.6079628467559814
1772797988809604000,0.60960400390625,1.4338229894638062,0.4478294551372528,2.455871343612671
1772797988819631000,0.619631103515625,1.476399540901184,0.22843530774116516,2.2217013835906982
1772797988829658400,0.629658447265625,1.6448817253112793,-0.12612570822238922,1.9011439085006714
1772797988839685000,0.63968505859375,1.7612578868865967,-0.5638444423675537,1.5397281646728516
1772797988849711000,0.649711181640625,1.8586102724075317,-0.9833085536956787,0.9920749068260193
1772797988859738000,0.659738037109375,1.9395266771316528,-1.3352450132369995,0.4036095142364502
1772797988869765000,0.66976513671875,1.8933451175689697,-1.6543532609939575,0.12399278581142426
1772797988879792000,0.679792236328125,1.7937144041061401,-1.8847044706344604,0.23285029828548431
1772797988889818000,0.689818115234375,1.70624840259552,-1.9960863590240479,0.6023063659667969
1772797988899845000,0.69984521484375,1.6157894134521484,-1.9267911911010742,1.1763379573822021
1772797988909872000,0.7098720703125,1.5443586111068726,-1.6934630870819092,1.7735496759414673
1772797988919899100,0.719899169921875,1.5350902080535889,-1.388181447982788,2.199610471725464
1772797988929925000,0.729925048828125,1.5986090898513794,-0.958321750164032,2.3749072551727295
1772797988939952000,0.7399521484375,1.6396536827087402,-0.4826350808143616,2.2974510192871094
1772797988949979100,0.749979248046875,1.7046105861663818,-0.056470997631549835,2.028782606124878
1772797988960006100,0.760006103515625,1.7277898788452148,0.25802916288375854,1.6887876987457275
1772797988970032000,0.7700322265625,1.7035953998565674,0.43062514066696167,1.3181257247924805
1772797988980059100,0.78005908203125,1.66192626953125,0.4486105442047119,0.9595329165458679
1772797988990086100,0.790086181640625,1.6418321132659912,0.3373447358608246,0.6903448700904846
1772797989000113200,0.800113037109375,1.6335092782974243,0.11545735597610474,0.49145975708961487
1772797989010139100,0.81013916015625,1.6295377016067505,-0.1314871907234192,0.26039403676986694
1772797989020166100,0.820166259765625,1.6095898151397705,-0.3652448058128357,-0.053160689771175385
1772797989030193200,0.830193115234375,1.5430538654327393,-0.5161874890327454,-0.4138994514942169
1772797989040220200,0.84022021484375,1.4467289447784424,-0.5416589975357056,-0.7221821546554565
1772797989050246100,0.85024609375,1.3604161739349365,-0.4521442949771881,-0.9256897568702698
1772797989060273200,0.860273193359375,1.285362720489502,-0.2928832769393921,-1.0315033197402954
1772797989070300200,0.870300048828125,1.2199240922927856,-0.0885692834854126,-1.0535739660263062
1772797989080327200,0.8803271484375,1.1525201797485352,0.12066277116537094,-1.0302566289901733
1772797989090353200,0.890353271484375,1.074583888053894,0.2985062599182129,-1.0333925485610962
1772797989100380200,0.900380126953125,0.9910378456115723,0.43712538480758667,-1.1086050271987915
1772797989110407200,0.9104072265625,0.9456576108932495,0.5465440154075623,-1.2689882516860962
1772797989120434000,0.920433837890625,0.9134344458580017,0.6134207844734192,-1.4549131393432617
1772797989130460200,0.930460205078125,0.9565102458000183,0.7605303525924683,-1.609269618988037
1772797989140487200,0.940487060546875,0.8933445811271667,0.8131229877471924,-1.7259554862976074
1772797989150514200,0.95051416015625,0.8228291273117065,0.9385088682174683,-1.826621174812317
1772797989160541200,0.960541259765625,0.6594293117523193,1.095876932144165,-1.903505563735962
1772797989170567400,0.9705673828125,0.4700410068035126,1.2312835454940796,-1.9456865787506104
1772797989180594400,0.980594482421875,0.29733872413635254,1.295292615890503,-1.8941357135772705
1772797989190621400,0.990621337890625,0.1513860523700714,1.3877756595611572,-1.6896196603775024
1772797989200648200,1.000648193359375,0.07727028429508209,1.4050281047821045,-1.4484515190124512
1772797989210675500,1.010675537109375,0.11210496723651886,1.3091423511505127,-1.2974950075149536
1772797989220701400,1.020701416015625,0.28499871492385864,1.1465706825256348,-1.2574822902679443
1772797989230728400,1.030728515625,0.5072081089019775,1.0247687101364136,-1.2750016450881958
1772797989240755200,1.040755126953125,0.6704289317131042,0.9308533668518066,-1.3462215662002563
1772797989250782500,1.050782470703125,0.790511429309845,0.7623069286346436,-1.4689122438430786
1772797989260808400,1.060808349609375,0.9585140347480774,0.5860959887504578,-1.574970006942749
1772797989270835500,1.07083544921875,1.1334818601608276,0.4266357421875,-1.6308261156082153
1772797989280862200,1.0808623046875,1.2057738304138184,0.20195415616035461,-1.548737645149231
1772797989290889500,1.090889404296875,1.5817493200302124,0.051961999386548996,-1.4683994054794312
1772797989300915500,1.10091552734375,2.3896522521972656,-0.05867742747068405,-1.244208574295044
1772797989310942500,1.1109423828125,3.259899616241455,-0.1879374086856842,-0.6776229739189148
1772797989320969200,1.12096923828125,3.811347723007202,-0.22675378620624542,0.22166527807712555
1772797989330996500,1.13099658203125,3.950007200241089,-0.22302375733852386,1.3660684823989868
1772797989341022500,1.1410224609375,3.4524405002593994,0.21405476331710815,2.396188259124756
1772797989351049500,1.151049560546875,2.871894359588623,0.748511791229248,3.0612282752990723
1772797989361076500,1.161076416015625,2.4410247802734375,1.089064598083496,3.179530382156372
1772797989371103500,1.171103515625,2.1951205730438232,1.2112873792648315,2.996453285217285
1772797989381129500,1.18112939453125,2.044692277908325,1.1103777885437012,2.8493025302886963
1772797989391156500,1.191156494140625,1.9539639949798584,0.8981928825378418,2.759815216064453
1772797989401183500,1.20118359375,1.889590859413147,0.599532425403595,2.595397472381592
1772797989411210200,1.211210205078125,1.8172937631607056,0.2649938464164734,2.3399569988250732
1772797989421236500,1.221236572265625,1.6754896640777588,-0.04776991903781891,2.0394935607910156
1772797989431263500,1.231263427734375,1.4812771081924438,-0.37527748942375183,1.692941427230835
1772797989441290500,1.24129052734375,1.2729244232177734,-0.6930671334266663,1.402899980545044
1772797989451317200,1.251317138671875,1.1268795728683472,-0.8813790082931519,1.131134033203125
1772797989461343500,1.261343505859375,1.0478515625,-0.9439382553100586,0.9967948198318481
1772797989471370500,1.27137060546875,1.0186662673950195,-0.8273067474365234,0.9638429880142212
1772797989481397500,1.2813974609375,1.032529354095459,-0.6547242999076843,0.9961644411087036
1772797989491424300,1.29142431640625,1.0764776468276978,-0.4683528244495392,1.0721734762191772
1772797989501450200,1.3014501953125,1.1652038097381592,-0.22745685279369354,1.1178088188171387
1772797989511477500,1.3114775390625,1.1863181591033936,0.06434836238622665,1.0875108242034912
1772797989521504500,1.32150439453125,1.1158785820007324,0.3504994213581085,1.0295774936676025
1772797989531531300,1.33153125,0.9963079690933228,0.5688037872314453,0.9366813898086548
1772797989541558500,1.34155859375,0.8150053024291992,0.6420026421546936,0.7562552094459534
1772797989551584500,1.35158447265625,0.6090433597564697,0.6175715923309326,0.43976831436157227
1772797989561611500,1.361611572265625,0.4167090654373169,0.5031800270080566,-0.029092371463775635
1772797989571638300,1.37163818359375,0.271745502948761,0.3723059296607971,-0.5640601515769958
1772797989581664300,1.381664306640625,0.2605988383293152,0.27473995089530945,-1.1212397813796997
1772797989591691500,1.39169140625,0.3286583125591278,0.17351320385932922,-1.6418849229812622
1772797989601718500,1.401718505859375,0.4422919452190399,0.10661113262176514,-2.0130198001861572
1772797989611745300,1.411745361328125,0.5446955561637878,0.07057084143161774,-2.2048516273498535
1772797989621772300,1.421772216796875,0.6227738261222839,0.052441902458667755,-2.2151072025299072
1772797989631798500,1.431798583984375,0.6732907891273499,0.04760373756289482,-2.11034893989563
1772797989641825500,1.441825439453125,0.6968845129013062,0.04484816640615463,-1.984330654144287
1772797989651852300,1.451852294921875,0.7343935370445251,0.048774197697639465,-1.9213346242904663
1772797989661879300,1.46187939453125,0.7458574175834656,0.04175090789794922,-1.936075210571289
1772797989671905500,1.471905517578125,0.7579073905944824,0.017530523240566254,-2.0058481693267822
1772797989681932500,1.4819326171875,0.7919801473617554,0.04038390889763832,-2.049760580062866
1772797989691959300,1.491959228515625,0.808957040309906,0.10374902933835983,-2.060070514678955
1772797989701986300,1.501986328125,0.7531070709228516,0.19701001048088074,-2.0111703872680664
1772797989712012300,1.51201220703125,0.6329289674758911,0.28377845883369446,-1.8429253101348877
1772797989722039600,1.52203955078125,0.5002617835998535,0.3890625238418579,-1.605966329574585
1772797989732066300,1.53206640625,0.42493292689323425,0.5476705431938171,-1.3778347969055176
1772797989742093300,1.54209326171875,0.3541516959667206,0.6488030552864075,-1.2640880346298218
1772797989752119300,1.552119384765625,0.29065874218940735,0.6140551567077637,-1.380993366241455
1772797989762146600,1.562146484375,0.27408427000045776,0.3449864089488983,-1.7722601890563965
1772797989772173300,1.57217333984375,0.4150232970714569,0.02755253203213215,-2.3930983543395996
1772797989782200300,1.582200439453125,0.6653505563735962,-0.23555073142051697,-2.8899099826812744
1772797989792226300,1.592226318359375,0.9321010708808899,-0.3500618636608124,-2.7192494869232178
1772797989802253600,1.602253662109375,1.0259852409362793,-0.44637322425842285,-2.2300424575805664
1772797989812280300,1.6122802734375,1.0998594760894775,-0.5162175297737122,-1.6175267696380615
1772797989822307300,1.622307373046875,1.1154581308364868,-0.6573927998542786,-0.5777717232704163
1772797989832333300,1.632333251953125,1.1924282312393188,-0.6090700030326843,0.8272939324378967
1772797989842360600,1.642360595703125,1.2320760488510132,-0.19960898160934448,2.2908380031585693
1772797989852387300,1.65238720703125,1.2342337369918823,0.48211365938186646,3.436223030090332
1772797989862414300,1.662414306640625,1.1212443113327026,0.9863584041595459,4.133565425872803
1772797989872440300,1.6724404296875,1.0300073623657227,1.079211711883545,4.263499736785889
1772797989882467600,1.682467529296875,1.0139559507369995,0.89564049243927,3.813797950744629
1772797989892494300,1.692494384765625,1.0666074752807617,0.507787823677063,3.1683902740478516
1772797989902521300,1.702521240234375,1.130702257156372,-0.004698348697274923,2.684232473373413
1772797989912547300,1.71254736328125,1.177091360092163,-0.507922887802124,2.3931803703308105
1772797989922574600,1.72257470703125,1.1652584075927734,-0.9753038883209229,2.196547269821167
1772797989932601300,1.732601318359375,1.1158844232559204,-1.3759729862213135,2.0604217052459717
1772797989942628400,1.74262841796875,0.9971197247505188,-1.6739155054092407,2.042619228363037
1772797989952655400,1.7526552734375,0.7900288701057434,-1.8303242921829224,2.1998565196990967
1772797989962681300,1.762681396484375,0.4821040630340576,-1.8093526363372803,2.49300479888916
1772797989972708400,1.772708251953125,0.15830442309379578,-1.6262686252593994,2.7863926887512207
1772797989982735400,1.7827353515625,-0.05759432166814804,-1.2788097858428955,2.926603078842163
1772797989992762400,1.792762451171875,-0.14716601371765137,-0.8924458026885986,2.875631809234619
1772797990002788400,1.802788330078125,-0.15823011100292206,-0.5135778188705444,2.6262805461883545
1772797990012815400,1.8128154296875,-0.04379062354564667,-0.15188567340373993,2.234292984008789
1772797990022842400,1.82284228515625,0.08339262753725052,0.15941043198108673,1.7769502401351929
1772797990032869400,1.832869384765625,0.18348540365695953,0.3833617568016052,1.3300009965896606
1772797990042895400,1.842895263671875,0.23051896691322327,0.4277060627937317,0.8334527611732483
1772797990052922400,1.85292236328125,0.19424431025981903,0.4119020700454712,0.2375584989786148
1772797990062949400,1.862949462890625,0.0928599014878273,0.36782729625701904,-0.48374271392822266
1772797990072976400,1.872976318359375,-0.026731479912996292,0.3156501054763794,-1.2357866764068604
1772797990083002400,1.88300244140625,-0.11899642646312714,0.25785577297210693,-1.8854115009307861
1772797990093029400,1.893029296875,-0.16715116798877716,0.1551232784986496,-2.3407881259918213
1772797990103056400,1.903056396484375,-0.1495889574289322,0.07099001854658127,-2.5539944171905518
1772797990113083400,1.91308349609375,-0.07981706410646439,0.018335064873099327,-2.5497710704803467
1772797990123109400,1.923109375,0.006119677796959877,-0.019646406173706055,-2.424964189529419
1772797990133136400,1.933136474609375,0.07295862585306168,-0.06528685986995697,-2.313483715057373
1772797990143163400,1.943163330078125,0.1046513095498085,-0.12447561323642731,-2.251614809036255
1772797990153190400,1.9531904296875,0.10457833856344223,-0.1779915690422058,-2.2172577381134033
1772797990163216400,1.96321630859375,0.06999106705188751,-0.23696275055408478,-2.1796367168426514
1772797990173243400,1.973243408203125,-0.0073479278944432735,-0.29111146926879883,-2.1588358879089355
1772797990183270100,1.983270263671875,-0.07501938194036484,-0.3355359137058258,-2.1770827770233154
1772797990193297400,1.99329736328125,-0.08163067698478699,-0.381992906332016,-2.2138545513153076
1772797990203323400,2.003323486328125,-0.0524086132645607,-0.3358994424343109,-2.252568006515503
1772797990213350400,2.013350341796875,0.011738148517906666,-0.19166024029254913,-2.30426287651062
1772797990223377200,2.023377197265625,0.013353089801967144,-0.045645780861377716,-2.328260898590088
1772797990233404400,2.033404296875,-0.06627675890922546,0.0017635452095419168,-2.3019168376922607
1772797990243430400,2.043430419921875,-0.12941338121891022,0.02052924409508705,-2.2730166912078857
1772797990253457400,2.05345751953125,-0.13835148513317108,0.09050433337688446,-2.311974048614502
1772797990263484200,2.063484130859375,-0.10123740136623383,0.23282739520072937,-2.3756003379821777
1772797990273511200,2.07351123046875,-0.036801159381866455,0.4194071292877197,-2.3573243618011475
1772797990283537400,2.083537353515625,0.03014378808438778,0.6728713512420654,-2.0795340538024902
1772797990293564400,2.093564453125,0.13578446209430695,0.8323217034339905,-1.3862160444259644
1772797990303591200,2.103591064453125,0.32299110293388367,0.620755136013031,-0.4770565629005432
1772797990313618200,2.1136181640625,0.5984333157539368,0.21561111509799957,0.2231752872467041
1772797990323644400,2.12364453125,0.9151811599731445,-0.1597406566143036,0.5795448422431946
1772797990333671400,2.13367138671875,0.9981439709663391,-0.30303603410720825,0.5089892148971558
1772797990343698200,2.1436982421875,0.8092776536941528,-0.21940292418003082,-0.266967236995697
1772797990353725200,2.15372509765625,0.8798056244850159,-0.23249156773090363,-0.8367476463317871
1772797990363751200,2.163751220703125,0.8286899924278259,-0.13961808383464813,-0.6847237348556519
1772797990373778400,2.1737783203125,0.6982949376106262,0.07397329062223434,0.49587634205818176
1772797990383805200,2.18380517578125,0.633013129234314,0.23535047471523285,2.4237306118011475
1772797990393832200,2.193832275390625,0.38904255628585815,0.578835129737854,3.8314781188964844
1772797990403858200,2.203858154296875,0.24807637929916382,0.9047125577926636,4.081547260284424
1772797990413885400,2.213885498046875,0.2476193904876709,0.8160306215286255,3.4888317584991455
1772797990423912200,2.223912109375,0.273165225982666,0.385766863822937,2.6377148628234863
1772797990433939200,2.233939208984375,0.2302451878786087,-0.14398619532585144,1.8854773044586182
1772797990443965200,2.243965087890625,0.09897052496671677,-0.5289884805679321,1.531799077987671
1772797990453992400,2.253992431640625,-0.05844786390662193,-0.6993151903152466,1.700060248374939
1772797990464019200,2.264019287109375,-0.14795804023742676,-0.7687275409698486,2.1956751346588135
1772797990474046200,2.274046142578125,-0.12409105896949768,-0.7944750189781189,2.742133140563965
1772797990484072200,2.284072265625,-0.05067542940378189,-0.7803552150726318,3.1018760204315186
1772797990494099500,2.294099365234375,-0.024647822603583336,-0.7402431964874268,3.1769680976867676
1772797990504126200,2.304126220703125,0.016270847991108894,-0.6950448155403137,2.982974052429199
1772797990514153200,2.3141533203125,0.04958513006567955,-0.6335910558700562,2.6021194458007812
1772797990524179200,2.32417919921875,0.08978607505559921,-0.5942180752754211,2.141740322113037
1772797990534206500,2.33420654296875,0.1775902360677719,-0.5735276937484741,1.7166011333465576
1772797990544233200,2.344233154296875,0.2633080780506134,-0.5664085745811462,1.3532246351242065
1772797990554260200,2.35426025390625,0.38135722279548645,-0.5720608234405518,1.0339810848236084
1772797990564287200,2.364287353515625,0.5376994013786316,-0.5378304123878479,0.6713696122169495
1772797990574313500,2.3743134765625,0.6554473638534546,-0.48641490936279297,0.2771165668964386
1772797990584340200,2.38434033203125,0.7218247652053833,-0.4421209692955017,-0.12343405187129974
1772797990594367200,2.3943671875,0.7159959077835083,-0.3932918906211853,-0.5274419784545898
1772797990604393200,2.404393310546875,0.6659732460975647,-0.33375081419944763,-0.9241605401039124
1772797990614420200,2.414420166015625,0.5623906254768372,-0.2665403485298157,-1.3026870489120483
1772797990624447200,2.424447265625,0.4408663511276245,-0.17235977947711945,-1.6299360990524292
1772797990634474200,2.43447412109375,0.2987307608127594,-0.05318226292729378,-1.8965107202529907
1772797990644500200,2.444500244140625,0.1792677640914917,0.0789768397808075,-2.063555955886841
1772797990654527200,2.45452734375,0.08886648714542389,0.19258569180965424,-2.0841853618621826
1772797990664554200,2.46455419921875,0.023869113996624947,0.2542005777359009,-2.002350330352783
1772797990674581200,2.474581298828125,-0.0333787277340889,0.27623051404953003,-1.849333643913269
1772797990684607200,2.484607177734375,-0.08698976039886475,0.29656562209129333,-1.705432415008545
1772797990694634200,2.49463427734375,-0.1483260840177536,0.3102465569972992,-1.658646583557129
1772797990704661200,2.5046611328125,-0.23603597283363342,0.3051343560218811,-1.6945537328720093
1772797990714688300,2.514688232421875,-0.33701929450035095,0.3127986490726471,-1.7822915315628052
1772797990724714200,2.52471435546875,-0.4043954014778137,0.3493361473083496,-1.9088693857192993
1772797990734741200,2.5347412109375,-0.432017982006073,0.4126474857330322,-2.070338249206543
1772797990744768300,2.544768310546875,-0.43631553649902344,0.49473142623901367,-2.1981537342071533
1772797990754795300,2.554795166015625,-0.4925987720489502,0.6177961230278015,-2.1906073093414307
1772797990764821200,2.5648212890625,-0.6138325333595276,0.6848049759864807,-2.052779197692871
1772797990774848300,2.57484814453125,-0.7620113492012024,0.6984472870826721,-1.8306694030761719
1772797990784875500,2.58487548828125,-0.9258066415786743,0.6900593638420105,-1.668501853942871
1772797990794902300,2.59490234375,-0.9955180883407593,0.6926692724227905,-1.6536906957626343
1772797990804928300,2.60492822265625,-0.9274607300758362,0.5947432518005371,-1.6387224197387695
1772797990814955300,2.614955322265625,-0.6184874773025513,0.3850422203540802,-1.618009328842163
1772797990824982300,2.624982177734375,-0.07226407527923584,0.19747179746627808,-1.62556791305542
1772797990835009300,2.63500927734375,0.5489392876625061,0.20784799754619598,-1.5142720937728882
1772797990845035300,2.64503515625,1.0867433547973633,0.3406910002231598,-1.3646976947784424
1772797990855062300,2.655062255859375,1.5547881126403809,0.08176570385694504,-1.2399505376815796
1772797990865089300,2.66508935546875,1.939052939414978,-0.4761532247066498,-0.8954617977142334
1772797990875116300,2.6751162109375,2.0755386352539062,-0.6595408916473389,-0.19360914826393127
1772797990885142300,2.685142333984375,1.9446287155151367,-0.6101171374320984,0.9517980813980103
1772797990895169300,2.695169189453125,1.555856466293335,-0.28055548667907715,1.9636365175247192
1772797990905196300,2.7051962890625,1.1441373825073242,0.08644567430019379,2.6478734016418457
1772797990915223300,2.715223388671875,1.0861425399780273,-0.04687695950269699,3.1079063415527344
1772797990925249300,2.725249267578125,1.2644054889678955,-0.06684187799692154,3.066765069961548
1772797990935276300,2.7352763671875,1.2821887731552124,0.06573933362960815,2.689744472503662
1772797990945303300,2.74530322265625,1.450122356414795,0.2081012725830078,2.0746636390686035
1772797990955330300,2.755330322265625,1.6569716930389404,0.17787812650203705,1.7303907871246338
1772797990965356300,2.765356201171875,1.8280589580535889,0.07686761766672134,1.7365925312042236
1772797990975383300,2.77538330078125,1.9486082792282104,-0.0034027209039777517,1.9907104969024658
1772797990985410300,2.785410400390625,1.9989409446716309,-0.0432787649333477,2.3886473178863525
1772797990995437300,2.795437255859375,1.9920074939727783,-0.06389482319355011,2.722832679748535
1772797991005463300,2.80546337890625,1.9184626340866089,-0.05578630045056343,2.9534709453582764
1772797991015490300,2.815490234375,1.7942399978637695,-0.04014315828680992,3.077540397644043
1772797991025517300,2.825517333984375,1.6695157289505005,0.007215834688395262,3.0549097061157227
1772797991035544300,2.83554443359375,1.6030222177505493,0.06866694241762161,2.893066644668579
1772797991045570300,2.8455703125,1.595890760421753,0.17793191969394684,2.6036758422851562
1772797991055597300,2.855597412109375,1.6565966606140137,0.31233420968055725,2.2181789875030518
1772797991065624300,2.865624267578125,1.745415210723877,0.40213438868522644,1.760360598564148
1772797991075651000,2.875651123046875,1.779686450958252,0.46604013442993164,1.2538604736328125
1772797991085677300,2.88567724609375,1.7367256879806519,0.47570928931236267,0.6993322372436523
1772797991095704300,2.895704345703125,1.6535348892211914,0.4238106608390808,0.10196631401777267
1772797991105731300,2.9057314453125,1.5375111103057861,0.3254004716873169,-0.5012189149856567
1772797991115758000,2.915758056640625,1.4172253608703613,0.1978968381881714,-1.0193179845809937
1772797991125784300,2.925784423828125,1.3276859521865845,0.06956363469362259,-1.4466745853424072
1772797991135811300,2.935811279296875,1.232398509979248,0.040231574326753616,-1.7206454277038574
1772797991145838300,2.94583837890625,1.1461310386657715,0.16457749903202057,-1.8425066471099854
1772797991155865000,2.955864990234375,1.1050105094909668,0.3811553418636322,-1.8481190204620361
1772797991165891000,2.96589111328125,1.094452142715454,0.6449438333511353,-1.7648028135299683
1772797991175918000,2.97591796875,1.090134859085083,0.9060375094413757,-1.6539524793624878
1772797991185945000,2.985945068359375,1.0869721174240112,1.083628535270691,-1.5909146070480347
1772797991195971000,2.99597119140625,1.085426688194275,1.1795252561569214,-1.589914321899414
1772797991205998000,3.005998046875,1.0488734245300293,1.2165173292160034,-1.6169257164001465
1772797991216025000,3.016025146484375,0.9722037315368652,1.1810495853424072,-1.661727786064148
1772797991226052000,3.026052001953125,0.8789904117584229,1.0810476541519165,-1.7124128341674805
1772797991236078000,3.036078125,0.7656974196434021,0.9268234372138977,-1.7816659212112427
1772797991246105000,3.04610498046875,0.6702665090560913,0.7857411503791809,-1.8826208114624023
1772797991256132000,3.056132080078125,0.6096675992012024,0.6589707136154175,-2.0081522464752197
1772797991266159000,3.0661591796875,0.5793613791465759,0.5575029253959656,-2.1423027515411377
1772797991276185000,3.07618505859375,0.5742984414100647,0.5141666531562805,-2.2453625202178955
1772797991286211800,3.0862119140625,0.5853564143180847,0.5513843297958374,-2.2709763050079346
1772797991296239000,3.096239013671875,0.596831202507019,0.6235339045524597,-2.2103986740112305
1772797991306266000,3.10626611328125,0.6106473803520203,0.6776445508003235,-2.10077166557312
1772797991316292000,3.1162919921875,0.6444790959358215,0.6679130792617798,-2.0244641304016113
1772797991326319000,3.126319091796875,0.6865283250808716,0.5314851999282837,-2.036945104598999
1772797991336346000,3.13634619140625,0.7361547350883484,0.2847675383090973,-2.0950071811676025
1772797991346373000,3.146373046875,0.8031044602394104,-0.031867120414972305,-2.242725372314453
1772797991356399000,3.156399169921875,0.8905554413795471,-0.3637518584728241,-2.5796549320220947
1772797991366426000,3.166426025390625,1.091089129447937,-0.4888375997543335,-2.899980306625366
1772797991376453000,3.176453125,1.342818021774292,-0.4946371614933014,-2.6088318824768066
1772797991386480000,3.186480224609375,1.6401351690292358,-0.3056581914424896,-1.676953673362732
1772797991396506000,3.196506103515625,1.970975399017334,-0.04950603470206261,-0.8925965428352356
1772797991406533000,3.206533203125,2.3649919033050537,-0.1397847980260849,-0.5508067011833191
1772797991416560000,3.21656005859375,2.650597333908081,-0.45882588624954224,-0.37296852469444275
1772797991426586000,3.226586181640625,2.738267421722412,-0.6525399684906006,0.06887893378734589
1772797991436613000,3.236613037109375,2.722184896469116,-0.6862968802452087,0.9108479619026184
1772797991446640000,3.24664013671875,2.608943223953247,-0.5426885485649109,1.797987699508667
1772797991456667100,3.256667236328125,2.434680461883545,-0.2663571238517761,2.3492958545684814
1772797991466693000,3.266693115234375,2.319711923599243,-0.04304094240069389,2.37062406539917
1772797991476720000,3.27672021484375,2.2967729568481445,-0.030414631590247154,2.014106273651123
1772797991486747100,3.2867470703125,2.3377978801727295,-0.16113163530826569,1.6438955068588257
1772797991496774000,3.29677392578125,2.2784268856048584,-0.30577242374420166,1.4739574193954468
1772797991506800000,3.306800048828125,2.1479952335357666,-0.3840307593345642,1.5262019634246826
1772797991516827100,3.3168271484375,2.0124266147613525,-0.36605867743492126,1.7155790328979492
1772797991526854100,3.326854248046875,1.9248228073120117,-0.38103950023651123,1.84148371219635
1772797991536881000,3.336880859375,1.8509910106658936,-0.47647494077682495,1.8853154182434082
1772797991546907100,3.3469072265625,1.7349830865859985,-0.6073509454727173,1.9151380062103271
1772797991556934100,3.35693408203125,1.5714796781539917,-0.7200833559036255,2.019998073577881
1772797991566961200,3.366961181640625,1.4027519226074219,-0.7144742012023926,2.206864356994629
1772797991576988000,3.37698779296875,1.2208378314971924,-0.5762076377868652,2.3777501583099365
1772797991587014000,3.387013916015625,1.0006824731826782,-0.3719586431980133,2.4413387775421143
1772797991597041200,3.397041259765625,0.9196608662605286,-0.13926148414611816,2.3901078701019287
1772797991607068200,3.407068115234375,0.8847734928131104,0.0702509954571724,2.2284581661224365
1772797991617094100,3.41709423828125,0.9062142968177795,0.2690389156341553,2.0054831504821777
1772797991627121000,3.427120849609375,0.9621822237968445,0.44545817375183105,1.7288594245910645
1772797991637148200,3.437148193359375,0.9954810738563538,0.370706707239151,1.3444933891296387
1772797991647175200,3.447175048828125,1.0850032567977905,0.1306094080209732,0.9334278106689453
1772797991657201200,3.457201171875,1.1507753133773804,-0.0960724726319313,0.4873579442501068
1772797991667228000,3.467227783203125,1.1529802083969116,-0.183002308011055,0.0014879080699756742
1772797991677255200,3.477255126953125,1.1196880340576172,-0.1412697732448578,-0.505527913570404
1772797991687282200,3.4872822265625,1.099226713180542,-0.04000946879386902,-1.017050862312317
1772797991697308200,3.49730810546875,1.1080549955368042,0.07761570066213608,-1.4481897354125977
1772797991707335000,3.5073349609375,1.1418145895004272,0.15955691039562225,-1.741347312927246
1772797991717362200,3.517362060546875,1.1992634534835815,0.22197739779949188,-1.8590270280838013
1772797991727389200,3.52738916015625,1.2402708530426025,0.27861112356185913,-1.8498245477676392
1772797991737415200,3.537415283203125,1.2486188411712646,0.3335452079772949,-1.796074390411377
1772797991747442000,3.54744189453125,1.218645453453064,0.3836251497268677,-1.7708828449249268
1772797991757469200,3.55746923828125,1.1629880666732788,0.4017157554626465,-1.7744008302688599
1772797991767495200,3.5674951171875,1.084671974182129,0.3939739465713501,-1.7880537509918213
1772797991777522200,3.577522216796875,1.0200148820877075,0.3671164810657501,-1.8116281032562256
1772797991787549000,3.587548828125,0.9772032499313354,0.36985236406326294,-1.8331413269042969
1772797991797576200,3.597576171875,0.9662366509437561,0.4157649874687195,-1.8198004961013794
1772797991807602200,3.607602294921875,0.9683890342712402,0.5060930252075195,-1.7272405624389648
1772797991817629200,3.617629150390625,0.9559888243675232,0.613953709602356,-1.5549614429473877
1772797991827656000,3.627656005859375,0.9057256579399109,0.7122541666030884,-1.355218529701233
1772797991837683000,3.637682861328125,0.8248294591903687,0.7653893232345581,-1.1770985126495361
1772797991847709200,3.647709228515625,0.7514814734458923,0.825476348400116,-1.0124976634979248
1772797991857736200,3.657736083984375,0.6891981363296509,0.9014696478843689,-0.9115520715713501
1772797991867763000,3.667762939453125,0.665054440498352,1.0500423908233643,-0.9172584414482117
1772797991877790000,3.6777900390625,0.6236502528190613,1.2430222034454346,-1.0428677797317505
1772797991887816200,3.687816162109375,0.5433325171470642,1.3771499395370483,-1.1208245754241943
1772797991897843200,3.69784326171875,0.46847906708717346,1.5152792930603027,-0.9217434525489807
1772797991907870000,3.707869873046875,0.48957476019859314,1.6985042095184326,-0.4887518286705017
1772797991917896000,3.71789599609375,0.5959613919258118,1.531481385231018,0.09534969180822372
1772797991927923000,3.7279228515625,0.9175434112548828,1.1796005964279175,0.7257683873176575
1772797991937950200,3.7379501953125,1.2901062965393066,1.139654278755188,0.8644168376922607
1772797991947977000,3.74797705078125,1.6947177648544312,0.9585185647010803,0.24019795656204224
1772797991958003000,3.7580029296875,2.1569766998291016,0.3279315233230591,-0.6709261536598206
1772797991968030000,3.768030029296875,2.575792074203491,-0.38966599106788635,-1.2292243242263794
1772797991978057200,3.77805712890625,2.987499237060547,-0.9441332221031189,-1.3034104108810425
1772797991988084000,3.788083984375,3.3236095905303955,-1.2956817150115967,-0.9334858655929565
1772797991998110000,3.79810986328125,3.5261647701263428,-1.3781269788742065,-0.2378612905740738
1772797992008137000,3.808136962890625,3.345048666000366,-1.0242829322814941,0.48683488368988037
1772797992018164200,3.818164306640625,2.9307730197906494,-0.48981818556785583,1.1380693912506104
1772797992028191000,3.82819091796875,2.4845945835113525,0.09754732996225357,1.5488699674606323
1772797992038217000,3.838217041015625,2.0295464992523193,0.47840625047683716,1.69219172000885
1772797992048244000,3.848243896484375,1.6152682304382324,0.6435337066650391,1.6521761417388916
1772797992058271200,3.858271240234375,1.303391456604004,0.5963392853736877,1.4866297245025635
1772797992068297200,3.868297119140625,1.1399940252304077,0.41091084480285645,1.2618533372879028
1772797992078324000,3.878323974609375,1.1189532279968262,0.1863136887550354,1.0478489398956299
1772797992088351000,3.88835107421875,1.18839430809021,-0.08126316219568253,0.9650448560714722
1772797992098378200,3.898378173828125,1.2555384635925293,-0.29518744349479675,1.0647107362747192
1772797992108404200,3.908404296875,1.0684802532196045,-0.46518394351005554,1.3629001379013062
1772797992118431000,3.918430908203125,1.0035622119903564,-0.4396578073501587,1.7446671724319458
1772797992128458000,3.9284580078125,0.8977939486503601,-0.2542107105255127,2.105400323867798
1772797992138484000,3.93848388671875,0.7613873481750488,0.06410840898752213,2.43805193901062
1772797992148511200,3.94851123046875,0.6112855076789856,0.39746665954589844,2.6355092525482178
1772797992158538000,3.9585380859375,0.5011898875236511,0.603198766708374,2.6333670616149902
1772797992168564700,3.968564697265625,0.41203123331069946,0.6694512963294983,2.639639139175415
1772797992178590700,3.9785908203125,0.4199591875076294,0.8131301999092102,2.6763792037963867
1772797992188617700,3.98861767578125,0.48187288641929626,0.8870531320571899,2.601757287979126
1772797992198645000,3.99864501953125,0.6149854063987732,0.870608925819397,2.334064483642578
1772797992208671700,4.008671630859375,0.7694202661514282,0.7523638010025024,1.810266137123108
1772797992218697700,4.01869775390625,0.892267644405365,0.536536693572998,1.1224597692489624
1772797992228724700,4.028724853515625,0.9510275721549988,0.27397987246513367,0.41487017273902893
1772797992238752000,4.038751953125,0.8633968234062195,0.06897986680269241,-0.3139970898628235
1772797992248778800,4.04877880859375,0.6937054991722107,-0.09535341709852219,-1.00308358669281
1772797992258804700,4.0588046875,0.48175597190856934,-0.15900962054729462,-1.5834598541259766
1772797992268831700,4.068831787109375,0.3006005883216858,-0.1488741636276245,-2.0115182399749756
1772797992278859000,4.07885888671875,0.2129271775484085,-0.07316982001066208,-2.263657331466675
1772797992288885000,4.088885009765625,0.19342458248138428,0.06129824370145798,-2.3172175884246826
1772797992298911700,4.098911865234375,0.22499263286590576,0.2400277704000473,-2.223759412765503
1772797992308938800,4.108938720703125,0.2702440023422241,0.41541236639022827,-2.0608842372894287
1772797992318965800,4.1189658203125,0.3157230615615845,0.5821590423583984,-1.8769458532333374
1772797992328992000,4.128991943359375,0.35741326212882996,0.718418300151825,-1.7428938150405884
1772797992339018800,4.139018798828125,0.366075724363327,0.8057806491851807,-1.6887242794036865
1772797992349045800,4.149045654296875,0.3078638017177582,0.8517276644706726,-1.7012637853622437
1772797992359071700,4.15907177734375,0.19612982869148254,0.8451714515686035,-1.805021047592163
1772797992369099000,4.16909912109375,0.05603131279349327,0.803886890411377,-1.9416835308074951
1772797992379125800,4.179125732421875,-0.08948993682861328,0.7489453554153442,-2.057434558868408
1772797992389152800,4.18915283203125,-0.1925252377986908,0.6714633107185364,-2.1727218627929688
1772797992399178800,4.1991787109375,-0.20730818808078766,0.5680623650550842,-2.2639012336730957
1772797992409205800,4.209205810546875,-0.12490252405405045,0.48520398139953613,-2.2680084705352783
1772797992419232800,4.219232666015625,0.03531937301158905,0.39949172735214233,-2.1923391819000244
1772797992429258800,4.2292587890625,0.29976755380630493,0.19235000014305115,-2.0795464515686035
1772797992439285800,4.23928564453125,0.6361026763916016,-0.1991107016801834,-2.0876834392547607
1772797992449312800,4.249312744140625,0.970127522945404,-0.7475171089172363,-2.3153672218322754
1772797992459339800,4.25933984375,1.246505618095398,-1.36135733127594,-2.7485227584838867
1772797992469365800,4.26936572265625,1.4740912914276123,-1.7205767631530762,-3.105919599533081
1772797992479392800,4.279392822265625,1.7826664447784424,-1.4836750030517578,-2.760232925415039
1772797992489419800,4.289419677734375,2.175286293029785,-0.6353045105934143,-1.5811195373535156
1772797992499446800,4.29944677734375,2.5276880264282227,0.4534207582473755,-0.3893600106239319
1772797992509472800,4.30947265625,2.7907209396362305,0.7689792513847351,0.5292321443557739
1772797992519499800,4.319499755859375,2.845736026763916,0.5077723860740662,1.257729172706604
1772797992529526800,4.32952685546875,2.7665112018585205,0.08691306412220001,1.86270010471344
1772797992539552800,4.339552734375,2.726501703262329,-0.2821131646633148,2.4034719467163086
1772797992549579800,4.349579833984375,2.5844340324401855,-0.14876097440719604,2.793980121612549
1772797992559606800,4.359606689453125,2.301297187805176,0.2106640338897705,3.1028168201446533
1772797992569633800,4.3696337890625,2.0806283950805664,0.48895370960235596,3.259385585784912
1772797992579659800,4.37965966796875,2.000561237335205,0.5599072575569153,3.0417094230651855
1772797992589686800,4.389686767578125,1.9074875116348267,0.5070757269859314,2.4794328212738037
1772797992599713800,4.3997138671875,1.71587073802948,0.5071159601211548,1.8372855186462402
1772797992609739800,4.40973974609375,1.5123636722564697,0.609093189239502,1.3558669090270996
1772797992619766800,4.419766845703125,1.3274366855621338,0.7706658244132996,1.134966254234314
1772797992629793800,4.429793701171875,1.2130013704299927,0.855209469795227,1.1206166744232178
1772797992639820800,4.43982080078125,1.208108901977539,0.7577649354934692,1.2325671911239624
1772797992649846800,4.4498466796875,1.2872908115386963,0.4917910397052765,1.491666555404663
1772797992659873800,4.459873779296875,1.399322509765625,0.18613632023334503,1.842147946357727
1772797992669900800,4.46990087890625,1.4923129081726074,-0.04861067980527878,2.1513023376464844
1772797992679927800,4.479927734375,1.5343754291534424,-0.1834699660539627,2.3280415534973145
1772797992689953800,4.489953857421875,1.5079505443572998,-0.1983029693365097,2.3386528491973877
1772797992699980800,4.499980712890625,1.3909146785736084,-0.1461111307144165,2.1866254806518555
1772797992710007600,4.510007568359375,1.2350188493728638,-0.03256966173648834,1.9400875568389893
1772797992720033800,4.52003369140625,1.0786579847335815,0.08130896836519241,1.6078230142593384
1772797992730060800,4.530060791015625,0.9627830386161804,0.10037587583065033,1.291850209236145
1772797992740087800,4.540087890625,0.8682767748832703,0.06792685389518738,1.0130730867385864
1772797992750114600,4.550114501953125,0.8019001483917236,0.0043444144539535046,0.7477421164512634
1772797992760140800,4.560140869140625,0.7245950102806091,-0.06744988262653351,0.5095950961112976
1772797992770167800,4.570167724609375,0.6200113296508789,-0.10151144117116928,0.2684152126312256
1772797992780194800,4.58019482421875,0.4835251271724701,-0.1140405535697937,-0.05956239625811577
1772797992790220800,4.590220703125,0.33928751945495605,-0.15398743748664856,-0.4803820550441742
1772797992800247600,4.60024755859375,0.19553780555725098,-0.1853482872247696,-0.9097352623939514
1772797992810274800,4.61027490234375,0.07007922232151031,-0.2512229084968567,-1.2954158782958984
1772797992820301800,4.6203017578125,0.017534784972667694,-0.3057279586791992,-1.6154758930206299
1772797992830327800,4.630327880859375,0.03435051813721657,-0.3380291759967804,-1.851191759109497
1772797992840354600,4.6403544921875,0.11878257989883423,-0.34812361001968384,-1.9972925186157227
1772797992850381800,4.6503818359375,0.25472497940063477,-0.32224568724632263,-2.0434184074401855
1772797992860407800,4.66040771484375,0.4130890369415283,-0.27715516090393066,-2.0155038833618164
1772797992870434800,4.670434814453125,0.5610697269439697,-0.24349229037761688,-1.9146770238876343
1772797992880461600,4.680461669921875,0.6651529669761658,-0.22866806387901306,-1.768202543258667
1772797992890488800,4.69048876953125,0.7318012714385986,-0.25329190492630005,-1.6108518838882446
1772797992900514800,4.700514892578125,0.7730283141136169,-0.2729548215866089,-1.518496036529541
1772797992910541800,4.710541748046875,0.7851638197898865,-0.27085039019584656,-1.5187557935714722
1772797992920568800,4.72056884765625,0.7571337819099426,-0.20857317745685577,-1.610545039176941
1772797992930594600,4.730594482421875,0.6984707117080688,-0.11107166111469269,-1.7573633193969727
1772797992940621800,4.740621826171875,0.6204472780227661,-0.015870841220021248,-1.9047820568084717
1772797992950648800,4.75064892578125,0.5312601327896118,0.010230799205601215,-1.9651087522506714
1772797992960675800,4.76067578125,0.47072944045066833,0.011917113326489925,-1.9059064388275146
1772797992970701600,4.77070166015625,0.44960817694664,-0.038845933973789215,-1.7482097148895264
1772797992980728800,4.780728759765625,0.4394703209400177,-0.04250325262546539,-1.5432277917861938
1772797992990755800,4.790755859375,0.43532511591911316,-0.013077719137072563,-1.470284342765808
1772797993000781800,4.80078173828125,0.4678015410900116,0.030460970476269722,-1.7772456407546997
1772797993010808800,4.810808837890625,0.5368509292602539,0.014137922786176205,-2.3364157676696777
1772797993020835800,4.8208359375,0.5926838517189026,0.17842566967010498,-2.80869460105896
1772797993030862800,4.83086279296875,0.6250404119491577,0.49077263474464417,-3.2191526889801025
1772797993040888800,4.840888916015625,0.794691264629364,0.4228511154651642,-3.484130382537842
1772797993050915800,4.850915771484375,1.1267818212509155,0.002700445242226124,-3.361079216003418
1772797993060942800,4.86094287109375,1.66456937789917,-0.5887529850006104,-2.5086753368377686
1772797993070968800,4.87096875,2.132662534713745,-1.1860473155975342,-0.806125283241272
1772797993080995800,4.880995849609375,2.1436409950256348,-1.5132554769515991,0.9213985800743103
1772797993091022800,4.89102294921875,1.872027039527893,-1.3244209289550781,1.90738046169281
1772797993101049900,4.9010498046875,1.461012601852417,-0.7753982543945312,2.120549440383911
1772797993111075800,4.911075927734375,1.0480529069900513,-0.22453589737415314,1.781326174736023
1772797993121102800,4.921102783203125,0.7265702486038208,0.2639687955379486,1.390419602394104
1772797993131129900,4.9311298828125,0.5284377336502075,0.6240742206573486,1.2785255908966064
1772797993141155800,4.94115576171875,0.4424988627433777,0.888154923915863,1.4418718814849854
1772797993151182800,4.951182861328125,0.45573902130126953,1.0339714288711548,1.6855967044830322
1772797993161209900,4.9612099609375,0.5744571685791016,1.0494675636291504,1.8692655563354492
1772797993171236900,4.97123681640625,0.7716557383537292,0.9227488040924072,1.9479608535766602
1772797993181262800,4.981262939453125,0.9211354851722717,0.6875477433204651,1.9845050573349
1772797993191289900,4.991289794921875,1.0147618055343628,0.43381163477897644,2.108121395111084
1772797993201316900,5.00131689453125,1.05522620677948,0.2274286299943924,2.343372344970703
1772797993211342800,5.0113427734375,1.001046061515808,0.10288723558187485,2.5994184017181396
1772797993221369900,5.021369873046875,0.8715335726737976,0.07806257903575897,2.725008487701416
1772797993231396900,5.03139697265625,0.7146733999252319,0.09682401269674301,2.661432981491089
1772797993241424000,5.041423828125,0.5583378672599792,0.09740698337554932,2.4615533351898193
1772797993251449900,5.051449951171875,0.4280930161476135,0.1169455274939537,2.180102586746216
1772797993261477000,5.06147705078125,0.3535271883010864,0.09432357549667358,1.795912265777588
1772797993271504000,5.07150390625,0.32430189847946167,0.03857801854610443,1.31180739402771
1772797993281529900,5.08152978515625,0.34213176369667053,-0.05132550373673439,0.7592392563819885
1772797993291556900,5.091556884765625,0.3665987551212311,-0.12839765846729279,0.11624617874622345
1772797993301584100,5.101584228515625,0.36191827058792114,-0.22327755391597748,-0.5573176145553589
1772797993311611000,5.11161083984375,0.336787611246109,-0.2565779983997345,-1.190406322479248
1772797993321636900,5.121636962890625,0.3043045103549957,-0.22481846809387207,-1.6992099285125732
1772797993331664000,5.131663818359375,0.2928102910518646,-0.11218778789043427,-2.056859254837036
1772797993341691100,5.141691162109375,0.2821997404098511,0.07792835682630539,-2.237046003341675
1772797993351717000,5.151717041015625,0.24229413270950317,0.29316794872283936,-2.2704126834869385
1772797993361744000,5.161743896484375,0.17635798454284668,0.4981059432029724,-2.187363386154175
1772797993371771000,5.17177099609375,0.09368947148323059,0.6479310989379883,-2.0123450756073
1772797993381796900,5.181796875,0.004746019374579191,0.7130022644996643,-1.8044003248214722
1772797993391824100,5.19182421875,-0.0807289332151413,0.7093124389648438,-1.6449075937271118
1772797993401851000,5.201850830078125,-0.1171969324350357,0.6657319664955139,-1.560386061668396
1772797993411878000,5.2118779296875,-0.10434690862894058,0.5922843813896179,-1.5441840887069702
1772797993421904000,5.22190380859375,-0.0750579982995987,0.4858332872390747,-1.6112723350524902
1772797993431931100,5.23193115234375,-0.06720247119665146,0.37403884530067444,-1.7430908679962158
1772797993441958000,5.2419580078125,-0.10712991654872894,0.2896004021167755,-1.8786969184875488
1772797993451984000,5.25198388671875,-0.1749691516160965,0.2500170171260834,-1.9602913856506348
1772797993462011000,5.262010986328125,-0.24499057233333588,0.2579713463783264,-1.982384443283081
1772797993472038000,5.272037841796875,-0.30209779739379883,0.26829802989959717,-1.9559186697006226
1772797993482065000,5.28206494140625,-0.3135853409767151,0.3150540888309479,-1.8573514223098755
1772797993492091000,5.2920908203125,-0.2652204930782318,0.358905166387558,-1.6502070426940918
1772797993502118000,5.302117919921875,-0.14055205881595612,0.2823275625705719,-1.405037760734558
1772797993512145000,5.312144775390625,0.06565357744693756,0.12180846184492111,-1.2548367977142334
1772797993522171100,5.322171142578125,0.33938151597976685,-0.07246407866477966,-1.2966151237487793
1772797993532198000,5.332197998046875,0.6485326886177063,-0.3715440034866333,-1.5213475227355957
1772797993542225000,5.342224853515625,0.9372518658638,-0.5848690271377563,-1.6667393445968628
1772797993552251000,5.3522509765625,1.1312421560287476,-0.2943730354309082,-1.3812460899353027
1772797993562278000,5.36227783203125,1.1863218545913696,0.5255883932113647,-0.865816593170166
1772797993572305000,5.372304931640625,1.198973536491394,1.3780889511108398,-0.5612345933914185
1772797993582332000,5.382331787109375,1.300621509552002,1.4268248081207275,-0.4389296770095825
1772797993592358000,5.39235791015625,1.44375741481781,0.8003875017166138,-0.3895658552646637
1772797993602385000,5.402385009765625,1.7142671346664429,-0.2795647978782654,-0.042325351387262344
1772797993612412000,5.412411865234375,2.104316234588623,-1.2878063917160034,0.7498452067375183
1772797993622438000,5.42243798828125,2.2512824535369873,-1.5151135921478271,1.6871745586395264
1772797993632465000,5.43246484375,2.008265256881714,-0.9339799284934998,2.377176284790039
1772797993642492000,5.442491943359375,1.5997533798217773,-0.4415680766105652,2.5106444358825684
1772797993652519000,5.452518798828125,1.2766512632369995,-0.3055537939071655,2.302267551422119
1772797993662545000,5.462544921875,1.0321365594863892,-0.2679568827152252,2.0147671699523926
1772797993672572000,5.472572021484375,0.8211129903793335,-0.262000173330307,1.895052433013916
1772797993682599000,5.482598876953125,0.662898063659668,-0.22673940658569336,1.8952199220657349
1772797993692625000,5.492625,0.5820740461349487,-0.18793608248233795,1.8445847034454346
1772797993702652000,5.50265185546875,0.5680333375930786,-0.2639552056789398,1.7423497438430786
1772797993712679000,5.512678955078125,0.5545883774757385,-0.41946810483932495,1.66358482837677
1772797993722705000,5.522704833984375,0.47980281710624695,-0.5393266081809998,1.614650011062622
1772797993732732000,5.53273193359375,0.3997306227684021,-0.5257338285446167,1.6539732217788696
1772797993742759000,5.542759033203125,0.2869982123374939,-0.3505830466747284,1.7897334098815918
1772797993752786000,5.552785888671875,0.15768736600875854,-0.07535680383443832,1.98963463306427
1772797993762812000,5.56281201171875,0.010661166161298752,0.1745893806219101,2.201305627822876
1772797993772839000,5.5728388671875,-0.05097449943423271,0.3782772719860077,2.4120824337005615
1772797993782866000,5.582865966796875,-0.056289639323949814,0.4412301182746887,2.592458486557007
1772797993792892000,5.592891845703125,0.017833059653639793,0.4500132203102112,2.6615493297576904
1772797993802919000,5.6029189453125,0.1889352947473526,0.37718695402145386,2.564302921295166
1772797993812946000,5.61294580078125,0.35130342841148376,0.20923976600170135,2.29459547996521
1772797993822972000,5.622971923828125,0.5293759703636169,-0.020506607368588448,1.8814905881881714
1772797993832999000,5.6329990234375,0.6790240406990051,-0.2735617756843567,1.3575599193572998
1772797993843026000,5.64302587890625,0.7638998031616211,-0.41453033685684204,0.777360200881958
1772797993853053000,5.653052978515625,0.7043898701667786,-0.4545272886753082,0.14639823138713837
1772797993863079000,5.663078857421875,0.6277979016304016,-0.3756657540798187,-0.45287853479385376
1772797993873106000,5.67310595703125,0.5918105840682983,-0.23959848284721375,-0.976116418838501
1772797993883133000,5.6831328125,0.6284950971603394,-0.05396895855665207,-1.38614821434021
1772797993893159000,5.693158935546875,0.6840257048606873,0.13056866824626923,-1.6665468215942383
1772797993903186000,5.70318603515625,0.7211147546768188,0.32100358605384827,-1.8197568655014038
1772797993913213000,5.713212890625,0.7049286365509033,0.42855748534202576,-1.8736227750778198
1772797993923240000,5.723239990234375,0.6436538100242615,0.4474688470363617,-1.8380248546600342
1772797993933266000,5.733265869140625,0.5400440692901611,0.4333666265010834,-1.7795028686523438
1772797993943293000,5.74329296875,0.39495664834976196,0.41309890151023865,-1.7525445222854614
1772797993953320000,5.75331982421875,0.23040232062339783,0.38667234778404236,-1.796044111251831
1772797993963346000,5.763345947265625,0.05781695991754532,0.3620098829269409,-1.9002197980880737
1772797993973373000,5.773373046875,-0.0797709971666336,0.3517601788043976,-2.0383946895599365
1772797993983400000,5.78339990234375,-0.1641058474779129,0.3094630539417267,-2.156785011291504
1772797993993426000,5.793426025390625,-0.2029659003019333,0.21767054498195648,-2.2253494262695312
1772797994003453000,5.803452880859375,-0.19980739057064056,0.08232762664556503,-2.2645883560180664
1772797994013480000,5.81347998046875,-0.19164879620075226,-0.0841529592871666,-2.2764415740966797
1772797994023507000,5.8235068359375,-0.17937108874320984,-0.21666200459003448,-2.2689173221588135
1772797994033533000,5.833532958984375,-0.19769789278507233,-0.2807312607765198,-2.2314951419830322
1772797994043559700,5.8435595703125,-0.25559157133102417,-0.2877124845981598,-2.1663575172424316
1772797994053587000,5.8535869140625,-0.3158112168312073,-0.29070746898651123,-2.1140496730804443
1772797994063613000,5.863613037109375,-0.41704490780830383,-0.3372928202152252,-2.014326810836792
1772797994073640000,5.873639892578125,-0.5396230220794678,-0.4152089059352875,-1.810394287109375
1772797994083666700,5.883666748046875,-0.6418337821960449,-0.5302550792694092,-1.5680005550384521
1772797994093693000,5.89369287109375,-0.6782597303390503,-0.6702281832695007,-1.4207282066345215
1772797994103720000,5.903719970703125,-0.6516550183296204,-0.7042902708053589,-1.470296025276184
1772797994113747000,5.913746826171875,-0.5978740453720093,-0.7078069448471069,-1.722252368927002
1772797994123773700,5.923773681640625,-0.4054047465324402,-0.47317421436309814,-2.050530195236206
1772797994133799700,5.933799560546875,0.06674041599035263,0.002499643014743924,-2.1946349143981934
1772797994143827000,5.943826904296875,0.6368238925933838,0.2609618306159973,-2.0478765964508057
1772797994153854000,5.95385400390625,1.2196614742279053,0.005135373678058386,-1.7506427764892578
1772797994163880700,5.963880615234375,1.579444408416748,-0.40862584114074707,-1.1933643817901611
1772797994173907700,5.97390771484375,1.5827903747558594,-0.2863992750644684,-0.21502815186977386
1772797994183935000,5.98393505859375,1.4720271825790405,0.2018692046403885,1.1859242916107178
1772797994193961000,5.9939609375,1.3371137380599976,0.74941086769104,2.4376747608184814
1772797994203987700,6.00398779296875,1.379498839378357,1.0421249866485596,3.1035408973693848
1772797994214014700,6.0140146484375,1.449656367301941,1.1284016370773315,3.077685594558716
1772797994224042000,6.0240419921875,1.5747404098510742,1.0014324188232422,2.587675094604492
1772797994234068000,6.03406787109375,1.613464117050171,0.6629835367202759,2.0131399631500244
1772797994244095000,6.044094970703125,1.4751211404800415,0.29244065284729004,1.655429720878601
1772797994254121700,6.054121826171875,1.2039836645126343,0.06022898480296135,1.571768045425415
1772797994264147700,6.064147705078125,0.9103131890296936,0.015530490316450596,1.6262118816375732
1772797994274175000,6.074175048828125,0.6521042585372925,0.055685099214315414,1.6615389585494995
1772797994284202000,6.084201904296875,0.47722116112709045,0.10993076115846634,1.6868208646774292
1772797994294227700,6.094227783203125,0.3397202789783478,0.09778834134340286,1.8046079874038696
1772797994304254700,6.104254638671875,0.2139253318309784,0.02420121058821678,2.132929801940918
1772797994314282000,6.114281982421875,0.11409887671470642,-0.06343090534210205,2.611482858657837
1772797994324309000,6.12430908203125,0.02388269640505314,-0.09094934910535812,3.112072467803955
1772797994334335000,6.1343349609375,-0.04596829041838646,-0.06492120772600174,3.4737133979797363
1772797994344361700,6.14436181640625,-0.06291797757148743,0.016043148934841156,3.6069960594177246
1772797994354388700,6.154388671875,-0.028134964406490326,0.0886065661907196,3.44145131111145
1772797994364415000,6.1644150390625,0.12736114859580994,0.1620168685913086,3.046203374862671
1772797994374442000,6.17444189453125,0.29855287075042725,0.2179563045501709,2.4995932579040527
1772797994384468700,6.18446875,0.5212568044662476,0.24607741832733154,1.8445613384246826
1772797994394494700,6.19449462890625,0.7364199757575989,0.2951994240283966,1.154837727546692
1772797994404522000,6.20452197265625,0.9020150303840637,0.3568404018878937,0.45893028378486633
1772797994414549000,6.214549072265625,0.9959884285926819,0.3971407115459442,-0.21924206614494324
1772797994424575700,6.22457568359375,0.9959639310836792,0.41744810342788696,-0.8522365689277649
1772797994434601700,6.234601806640625,0.8624708652496338,0.400519996881485,-1.3408981561660767
1772797994444628700,6.244628662109375,0.6565133929252625,0.305409699678421,-1.6375486850738525
1772797994454656000,6.254656005859375,0.43434691429138184,0.1292775571346283,-1.7597923278808594
1772797994464682000,6.264681884765625,0.17330627143383026,-0.03277312591671944,-1.723580241203308
1772797994474708700,6.274708740234375,-0.07156898826360703,-0.11389327794313431,-1.6184186935424805
1772797994484735700,6.28473583984375,-0.25104981660842896,-0.08046261966228485,-1.5176031589508057
1772797994494762000,6.294761962890625,-0.36960655450820923,-0.012175173498690128,-1.4580559730529785
1772797994504789000,6.3047890625,-0.39692923426628113,0.05715383216738701,-1.4493335485458374
1772797994514815700,6.314815673828125,-0.35291385650634766,0.09802137315273285,-1.503159999847412
1772797994524842800,6.3248427734375,-0.2697169780731201,0.11673726886510849,-1.6029353141784668
1772797994534868700,6.33486865234375,-0.1848422884941101,0.10446089506149292,-1.708256721496582
1772797994544896000,6.34489599609375,-0.11028575897216797,0.0938308909535408,-1.7960536479949951
1772797994554922800,6.3549228515625,-0.05041923001408577,0.06894444674253464,-1.8761141300201416
1772797994564948700,6.36494873046875,-0.01587590202689171,0.024707743898034096,-1.9403064250946045
1772797994574975700,6.374975830078125,0.0020069582387804985,-0.037457626312971115,-1.9797505140304565
1772797994585003000,6.3850029296875,0.03783925622701645,-0.07493762671947479,-1.9855191707611084
1772797994595029000,6.395029052734375,0.10105764120817184,-0.10432667285203934,-1.9693231582641602
1772797994605055700,6.4050556640625,0.2064588963985443,-0.10406195372343063,-1.909558653831482
1772797994615082800,6.415082763671875,0.3304887115955353,-0.0895618423819542,-1.808816909790039
1772797994625110000,6.425110107421875,0.4189160466194153,0.011952799744904041,-1.6756700277328491
1772797994635136000,6.435135986328125,0.44900017976760864,0.107845239341259,-1.6123147010803223
1772797994645162800,6.445162841796875,0.4010491669178009,0.1502174586057663,-1.5985467433929443
1772797994655189800,6.455189697265625,0.32065364718437195,0.06904351711273193,-1.6073015928268433
1772797994665215700,6.4652158203125,0.27335724234580994,-0.09894628822803497,-1.524159550666809
1772797994675243000,6.475242919921875,0.29349207878112793,-0.19720149040222168,-1.3618996143341064
1772797994685269800,6.485269775390625,0.3977404534816742,-0.2052900344133377,-1.0846991539001465
1772797994695295700,6.495295654296875,0.5391745567321777,-0.17215073108673096,-0.6196017265319824
1772797994705322800,6.50532275390625,0.703828752040863,-0.13546781241893768,-0.33161041140556335
1772797994715350000,6.51535009765625,0.9315391182899475,-0.23909246921539307,-0.42771804332733154
1772797994725376000,6.5253759765625,1.3077934980392456,-0.7015005946159363,-0.8607741594314575
1772797994735402800,6.53540283203125,1.752420425415039,-1.2172222137451172,-1.3100848197937012
1772797994745429800,6.5454296875,2.2403740882873535,-1.2994292974472046,-1.1677510738372803
1772797994755457000,6.55545703125,2.4881176948547363,-0.9546231627464294,-0.13150236010551453
1772797994765483000,6.56548291015625,2.344029664993286,-0.3526781499385834,1.4872643947601318
1772797994775509800,6.575509765625,1.907088041305542,0.38375431299209595,2.7646098136901855
1772797994785536800,6.585536865234375,1.5945186614990234,0.8875554203987122,3.2066845893859863
1772797994795562800,6.595562744140625,1.5080647468566895,1.0414129495620728,2.940499782562256
1772797994805590000,6.605590087890625,1.600074052810669,1.0131378173828125,2.3267197608947754
1772797994815616800,6.61561669921875,1.7465665340423584,0.8836536407470703,1.7535914182662964
1772797994825642800,6.625642822265625,1.853290319442749,0.6705751419067383,1.4594780206680298
1772797994835669800,6.635669677734375,1.9053218364715576,0.3969593346118927,1.3963887691497803
1772797994845697000,6.645697021484375,1.902815818786621,0.1017918735742569,1.3885066509246826
1772797994855723000,6.655722900390625,1.8501582145690918,-0.1984957754611969,1.415981650352478
1772797994865749800,6.665749755859375,1.7732149362564087,-0.49213913083076477,1.5212581157684326
1772797994875776800,6.67577685546875,1.692198395729065,-0.7125518918037415,1.6972706317901611
1772797994885804000,6.685803955078125,1.619114875793457,-0.787826418876648,1.8843414783477783
1772797994895830000,6.695830078125,1.5672423839569092,-0.7429676055908203,1.990624189376831
1772797994905856800,6.705856689453125,1.5279334783554077,-0.6588852405548096,1.9802093505859375
1772797994915883800,6.7158837890625,1.488892912864685,-0.4993629455566406,1.8797909021377563
1772797994925909800,6.72590966796875,1.472814917564392,-0.2736331522464752,1.6720558404922485
1772797994935937000,6.73593701171875,1.479636549949646,-0.03893115371465683,1.4037103652954102
1772797994945963800,6.7459638671875,1.4968738555908203,0.15623994171619415,1.124791145324707
1772797994955989800,6.75598974609375,1.4800679683685303,0.28196272253990173,0.8268846273422241
1772797994966016800,6.766016845703125,1.4829175472259521,0.37396854162216187,0.484510213136673
1772797994976044000,6.7760439453125,1.5030570030212402,0.4048098027706146,0.09754812717437744
1772797994986070800,6.78607080078125,1.4970896244049072,0.3292516767978668,-0.3037513494491577
1772797994996096800,6.7960966796875,1.466312289237976,0.18448328971862793,-0.604994535446167
1772797995006123800,6.806123779296875,1.4029146432876587,0.07086405158042908,-0.8163161277770996
1772797995016150800,6.81615087890625,1.3204855918884277,0.0014647386269643903,-1.005338191986084
1772797995026177000,6.826177001953125,1.253309726715088,-0.02640604041516781,-1.1938107013702393
1772797995036203800,6.836203857421875,1.1916157007217407,0.00043835630640387535,-1.3541069030761719
1772797995046230800,6.846230712890625,1.1415610313415527,0.023911191150546074,-1.45055091381073
1772797995056256800,6.8562568359375,1.1032423973083496,0.05156172811985016,-1.4995559453964233
1772797995066284000,6.866283935546875,1.067420244216919,0.06881768256425858,-1.5270932912826538
1772797995076310800,6.876310791015625,1.035279393196106,0.07327874004840851,-1.5386929512023926
1772797995086336800,6.886336669921875,1.0171000957489014,0.06934978067874908,-1.5605453252792358
1772797995096363800,6.89636376953125,1.0256198644638062,0.04406572878360748,-1.6049995422363281
1772797995106390800,6.906390869140625,1.0428621768951416,0.0006870955694466829,-1.651559591293335
1772797995116417000,6.9164169921875,1.0472936630249023,-0.038596928119659424,-1.658360242843628
1772797995126443800,6.92644384765625,1.0524916648864746,-0.031309984624385834,-1.582141399383545
1772797995136470800,6.936470703125,1.0620790719985962,0.010755442082881927,-1.4250974655151367
1772797995146497800,6.946497802734375,1.043708324432373,0.06531189382076263,-1.2139146327972412
1772797995156524000,6.95652392578125,1.0376394987106323,0.13606275618076324,-0.9787992835044861
1772797995166549800,6.9665498046875,1.0342020988464355,0.1802012026309967,-0.7552807331085205
1772797995176576800,6.97657666015625,1.0538514852523804,0.209187313914299,-0.5917171239852905
1772797995186602800,6.986602783203125,1.1345263719558716,0.21125338971614838,-0.5129908919334412
1772797995196629800,6.996629638671875,1.2587367296218872,0.18435679376125336,-0.5102946758270264
1772797995206656800,7.00665673828125,1.4195202589035034,0.1637391299009323,-0.5313687920570374
1772797995216682800,7.016682861328125,1.6049649715423584,0.15970177948474884,-0.5400967597961426
1772797995226709800,7.026709716796875,1.712298035621643,0.18761250376701355,-0.4640297293663025
1772797995236736800,7.03673681640625,1.7339980602264404,0.2537207007408142,-0.3008019030094147
1772797995246763800,7.046763671875,1.6710480451583862,0.3907533586025238,0.036682646721601486
1772797995256789800,7.056789794921875,1.6039800643920898,0.8416669964790344,0.5461759567260742
1772797995266816800,7.066816650390625,1.6357340812683105,1.6548185348510742,0.8663966059684753
1772797995276843800,7.07684375,1.6939568519592285,2.236922025680542,0.8924910426139832
1772797995286869800,7.086869873046875,1.8040447235107422,2.392035484313965,0.6697580814361572
1772797995296896800,7.096896728515625,1.9328621625900269,1.9728718996047974,0.2353201061487198
1772797995306923800,7.106923828125,2.0112040042877197,0.9600014090538025,-0.39424291253089905
1772797995316949800,7.11694970703125,2.093369245529175,-0.20845787227153778,-1.0895655155181885
1772797995326976800,7.126976806640625,2.113776683807373,-0.9395954608917236,-1.3951421976089478
1772797995337003800,7.137003662109375,1.981284499168396,-0.9528196454048157,-1.1374131441116333
1772797995347029800,7.14702978515625,1.8063420057296753,-0.417778879404068,-0.3735509514808655
1772797995357056800,7.157056884765625,1.740686058998108,0.3043532371520996,0.5271644592285156
1772797995367083800,7.167083740234375,1.7637500762939453,0.9810347557067871,1.1840976476669312
1772797995377109800,7.17710986328125,1.8449772596359253,1.3618156909942627,1.3796833753585815
1772797995387136800,7.18713671875,1.9241389036178589,1.3468303680419922,1.1886478662490845
1772797995397163800,7.197163818359375,1.9934409856796265,1.0493885278701782,0.7419651746749878
1772797995407190800,7.207190673828125,2.0070345401763916,0.57785564661026,0.1665429025888443
1772797995417216800,7.217216796875,1.9146242141723633,0.07517997175455093,-0.2881290018558502
1772797995427243800,7.227243896484375,1.6835167407989502,-0.3072480857372284,-0.47480887174606323
1772797995437270800,7.237270751953125,1.3641693592071533,-0.5241479277610779,-0.39616918563842773
1772797995447296800,7.247296875,1.0736302137374878,-0.5616092681884766,-0.12320315837860107
1772797995457323800,7.25732373046875,0.8982037901878357,-0.5181086659431458,0.2512527406215668
1772797995467350800,7.267350830078125,0.860294759273529,-0.41688084602355957,0.6649191379547119
1772797995477376800,7.277376708984375,0.8981286883354187,-0.2590629756450653,1.0788981914520264
1772797995487403800,7.28740380859375,0.9749308228492737,-0.028136828914284706,1.4234683513641357
1772797995497430800,7.2974306640625,1.063438057899475,0.2552187144756317,1.6546909809112549
1772797995507456800,7.307456787109375,1.1201977729797363,0.5056290626525879,1.7162374258041382
1772797995517483800,7.31748388671875,1.1110992431640625,0.6769822239875793,1.575109839439392
1772797995527510800,7.3275107421875,1.0168888568878174,0.7410035133361816,1.2521624565124512
1772797995537536800,7.337536865234375,0.8762550950050354,0.698467493057251,0.7887548208236694
1772797995547563800,7.347563720703125,0.7273851633071899,0.6101054549217224,0.2851020395755768
1772797995557590800,7.3575908203125,0.5965259671211243,0.4418194890022278,-0.18747003376483917
1772797995567617800,7.36761767578125,0.542978048324585,0.20549403131008148,-0.5914076566696167
1772797995577643800,7.377643798828125,0.6163947582244873,-0.07775764167308807,-0.9090378284454346
1772797995587670800,7.3876708984375,0.7808713316917419,-0.3069274425506592,-1.0991531610488892
1772797995597697800,7.39769775390625,0.9472834467887878,-0.4773881435394287,-1.1816805601119995
1772797995607723800,7.407723876953125,1.0714163780212402,-0.5716283321380615,-1.1957728862762451
1772797995617750800,7.417750732421875,1.1422449350357056,-0.6110622882843018,-1.1534168720245361
1772797995627777800,7.42777783203125,1.172455072402954,-0.6267904043197632,-1.0627549886703491
1772797995637803800,7.4378037109375,1.1684166193008423,-0.6447784304618835,-0.9874007701873779
1772797995647830800,7.447830810546875,1.1374802589416504,-0.6468658447265625,-0.9605121612548828
1772797995657857800,7.45785791015625,1.0928571224212646,-0.6516305208206177,-0.9556117057800293
1772797995667883800,7.4678837890625,1.0594151020050049,-0.6730601787567139,-0.9083546996116638
1772797995677910800,7.477910888671875,1.0604883432388306,-0.6898394227027893,-0.798584520816803
1772797995687937800,7.487937744140625,1.0919090509414673,-0.6242100596427917,-0.6661854982376099
1772797995697963800,7.4979638671875,1.1167774200439453,-0.5219457745552063,-0.5690911412239075
1772797995707990800,7.50799072265625,1.127128005027771,-0.4387824237346649,-0.5067793130874634
1772797995718017800,7.518017822265625,1.1224342584609985,-0.32476770877838135,-0.47666001319885254
1772797995728043800,7.528043701171875,1.1438652276992798,-0.13242168724536896,-0.4538617730140686
1772797995738070800,7.53807080078125,1.144660472869873,0.05306987464427948,-0.40128564834594727
1772797995748097800,7.548097900390625,1.1321220397949219,0.14034566283226013,-0.30769044160842896
1772797995758123800,7.558123779296875,1.1002274751663208,0.246980220079422,-0.11873170733451843
1772797995768150800,7.56815087890625,1.0813307762145996,0.34945547580718994,0.07944235950708389
1772797995778177800,7.578177734375,1.0948468446731567,0.4477181136608124,0.28161782026290894
1772797995788204500,7.58820458984375,1.1997652053833008,0.5148031711578369,0.5501661896705627
1772797995798230800,7.598230712890625,1.3823041915893555,0.559413731098175,0.8034360408782959
1772797995808257800,7.6082578125,1.6022804975509644,0.562168538570404,0.8734393119812012
1772797995818284800,7.618284912109375,1.8526666164398193,0.5234997272491455,0.6895243525505066
1772797995828310800,7.628310791015625,2.057328224182129,0.4549592435359955,0.24177934229373932
1772797995838337800,7.638337890625,2.168010950088501,0.4150981307029724,-0.34232378005981445
1772797995848364800,7.64836474609375,2.165193557739258,0.2638462781906128,-0.9196174740791321
1772797995858390800,7.658390869140625,2.1158955097198486,-0.02857332117855549,-1.3859719038009644
1772797995868417800,7.668417724609375,2.0963294506073,-0.37066808342933655,-1.5873396396636963
1772797995878444500,7.678444580078125,2.055979013442993,-0.5474857091903687,-1.2958930730819702
1772797995888470800,7.688470703125,1.8901019096374512,-0.37039509415626526,-0.6231794357299805
1772797995898497800,7.698497802734375,1.6552925109863281,0.1409619152545929,0.04499170929193497
1772797995908524800,7.70852490234375,1.435779094696045,0.790501594543457,0.4177325367927551
1772797995918550800,7.71855078125,1.2397992610931396,1.3061766624450684,0.4779604375362396
1772797995928577800,7.728577880859375,1.1175202131271362,1.6073620319366455,0.44609758257865906
1772797995938604800,7.738604736328125,1.0891258716583252,1.7022249698638916,0.4564301073551178
1772797995948630800,7.748630859375,1.0958812236785889,1.6270148754119873,0.5269956588745117
1772797995958657800,7.75865771484375,1.1301922798156738,1.4532891511917114,0.5611967444419861
1772797995968684800,7.768684814453125,1.1479854583740234,1.0972596406936646,0.4584783613681793
1772797995978710800,7.778710693359375,1.1620466709136963,0.585940957069397,0.2325056791305542
1772797995988737800,7.78873779296875,1.1709299087524414,0.020971594378352165,-0.03810717165470123
1772797995998764800,7.798764892578125,1.224169373512268,-0.3790181577205658,-0.25970959663391113
1772797996008790800,7.808790771484375,1.294862985610962,-0.5910430550575256,-0.34102362394332886
1772797996018817800,7.81881787109375,1.3740483522415161,-0.5859153866767883,-0.22052519023418427
1772797996028844800,7.8288447265625,1.447142243385315,-0.43576371669769287,0.013377857394516468
1772797996038871800,7.838871826171875,1.5165570974349976,-0.17755986750125885,0.20221781730651855
1772797996048897800,7.848897705078125,1.5266634225845337,0.06878998130559921,0.26081642508506775
1772797996058924800,7.8589248046875,1.4630333185195923,0.3046422004699707,0.24146828055381775
1772797996068951800,7.868951904296875,1.3551980257034302,0.4555986821651459,0.1514078974723816
1772797996078977800,7.878977783203125,1.2125838994979858,0.4788174629211426,0.013908891007304192
1772797996089004800,7.8890048828125,1.0817030668258667,0.4782653748989105,-0.18214423954486847
1772797996099031800,7.89903173828125,0.9838712811470032,0.41440197825431824,-0.41861990094184875
1772797996109057800,7.909057861328125,0.9370681047439575,0.33276116847991943,-0.6193937659263611
1772797996119084800,7.919084716796875,0.9176315665245056,0.26510170102119446,-0.7405619621276855
1772797996129111800,7.92911181640625,0.8448495268821716,0.32626092433929443,-0.6244915723800659
1772797996139137800,7.9391376953125,0.8247711062431335,0.25971120595932007,-0.5646234154701233
1772797996149164800,7.949164794921875,0.8006841540336609,0.21942582726478577,-0.49923351407051086
1772797996159191800,7.95919189453125,0.7810774445533752,0.23547163605690002,-0.4476153254508972
1772797996169217800,7.9692177734375,0.7729806303977966,0.3241290748119354,-0.4313175678253174
1772797996179245000,7.9792451171875,0.7535089254379272,0.41835731267929077,-0.4519786536693573
1772797996189271800,7.989271728515625,0.7428967952728271,0.46833205223083496,-0.4951021373271942
1772797996199297800,7.9992978515625,0.7533299922943115,0.470982164144516,-0.5318471193313599
1772797996209324800,8.00932470703125,0.7896959781646729,0.43018385767936707,-0.5352077484130859
1772797996219352000,8.01935205078125,0.8282486796379089,0.3479313552379608,-0.5290777087211609
1772797996229378000,8.0293779296875,0.8738062977790833,0.2931216359138489,-0.478530615568161
1772797996239404800,8.03940478515625,0.9205402731895447,0.2968449890613556,-0.3646477460861206
1772797996249431800,8.049431884765625,0.9518060684204102,0.3427586853504181,-0.22688613831996918
1772797996259457800,8.059457763671874,0.9704732298851013,0.39062419533729553,-0.086148202419281
1772797996269485000,8.069485107421874,1.00478196144104,0.3853279948234558,-0.032772328704595566
1772797996279511800,8.07951171875,1.0619828701019287,0.2591114640235901,-0.09288013726472855
1772797996289537800,8.089537841796876,1.1138452291488647,0.10294928401708603,-0.23582370579242706
1772797996299564800,8.099564697265626,1.1480541229248047,-0.015153919346630573,-0.35566195845603943
1772797996309592000,8.109592041015626,1.221997857093811,-0.05325816199183464,-0.26719868183135986
