time,seconds_elapsed,z,y,x
1772788787154808300,0.067808349609375,-0.004993427079170942,-0.012109925970435143,0.004935636185109615
1772788787164874200,0.077874267578125,-0.008117049001157284,0.013006612658500671,0.01270141452550888
1772788787174939100,0.087939208984375,-0.006877081003040075,0.026259833946824074,0.011098990216851234
1772788787185005300,0.09800537109375,-0.002641855739057064,0.02810593694448471,0.004177168011665344
1772788787195071200,0.1080712890625,-0.0004950816510245204,0.023981232196092606,-0.002915096003562212
1772788787205136400,0.118136474609375,0.0016785904299467802,0.010004164651036263,-0.013978665694594383
1772788787215202300,0.128202392578125,0.008329568430781364,-0.0000577905957470648,-0.022277342155575752
1772788787225268200,0.138268310546875,0.007896006107330322,-0.019213108345866203,-0.017646905034780502
1772788787235334100,0.148334228515625,0.010267018340528011,-0.02112499251961708,-0.011186075396835804
1772788787245399300,0.1583994140625,0.0062674833461642265,-0.020361997187137604,-0.0031641016248613596
1772788787255465200,0.16846533203125,0.0043683829717338085,-0.00654525076970458,0.0051923650316894054
1772788787265531400,0.178531494140625,0.0014016216155141592,0.006394249852746725,0.009208411909639835
1772788787275596000,0.188595947265625,0.0020804614759981632,0.018399780616164207,0.014023940078914165
1772788787285662200,0.198662109375,-0.0009171926649287343,0.021328192204236984,0.01404737588018179
1772788787295728000,0.20872802734375,-0.004132160916924477,0.016174176707863808,0.013586116023361683
1772788787305793300,0.218793212890625,-0.005605954211205244,0.007546066772192717,0.010748517699539661
1772788787315859200,0.228859130859375,-0.0044083306565880775,0.008617457002401352,0.005261341109871864
1772788787325925000,0.238925048828125,-0.005166532471776009,0.008276306092739105,0.00009187905379803851
1772788787335991000,0.248990966796875,-0.005629922728985548,0.010963168926537037,-0.011958925053477287
1772788787346056200,0.25905615234375,-0.006937001831829548,0.00407596817240119,-0.022427543997764587
1772788787356122400,0.269122314453125,-0.0016943031223490834,-0.002177933230996132,-0.023450730368494987
1772788787366188300,0.279188232421875,-0.0014631407102569938,-0.001344630029052496,-0.016927851364016533
1772788787376253200,0.289253173828125,0.00017070861940737814,-0.0009422263829037547,-0.006084257736802101
1772788787386319000,0.299319091796875,-0.0008556736283935606,0.007691475562751293,-0.005349491722881794
1772788787396385300,0.30938525390625,-0.0028218855150043964,0.016446352005004883,-0.004037618637084961
1772788787406451200,0.319451171875,-0.0032807481475174427,0.02142086997628212,0.003853061469271779
1772788787416516400,0.329516357421875,-0.00361790438182652,0.020742828026413918,0.0033095101825892925
1772788787426582300,0.339582275390625,-0.005014199763536453,0.01565645821392536,0.0014415690675377846
1772788787436648200,0.349648193359375,-0.0002913498319685459,0.012829512357711792,-0.002124936319887638
1772788787446713000,0.359713134765625,0.00273133791051805,-0.008884837850928307,-0.0007084008539095521
1772788787456779300,0.369779296875,0.0020096213556826115,-0.004098604898899794,-0.005389705300331116
1772788787466845200,0.37984521484375,0.0032863407395780087,0.012130964547395706,0.008598548360168934
1772788787476910000,0.38991015625,0.0006974819116294384,0.01369104441255331,0.018040519207715988
1772788787486976300,0.399976318359375,0.005230448208749294,0.00686083547770977,0.01696247234940529
1772788787497042200,0.410042236328125,0.004708202555775642,-0.004291683901101351,0.016685768961906433
1772788787507108000,0.420108154296875,0.002144377212971449,0.0035547874867916107,0.011930163018405437
1772788787517173200,0.43017333984375,0.00296250032261014,0.002124669961631298,0.013832724653184414
1772788787527239400,0.440239501953125,0.0014705975772812963,0.0019688750617206097,0.009401757270097733
1772788787537305000,0.45030517578125,-0.001859685406088829,-0.0006109291571192443,0.008859005756676197
1772788787547370200,0.460370361328125,-0.004635232035070658,0.0033750240691006184,0.003171292133629322
1772788787557436200,0.470436279296875,-0.006355633959174156,0.009193764999508858,0.0009046758059412241
1772788787567502300,0.48050244140625,-0.006391320377588272,0.01896357163786888,-0.00046605319948866963
1772788787577567200,0.490567138671875,-0.0054640076123178005,0.016507070511579514,-0.0021965752821415663
1772788787587633200,0.500633056640625,-0.0009126652730628848,0.013823936693370342,0.00011611382069531828
1772788787597699000,0.510698974609375,-0.0022892532870173454,0.015841281041502953,0.003910053055733442
1772788787607765200,0.52076513671875,-0.0019299928098917007,0.01889565959572792,0.00805899128317833
1772788787617830400,0.530830322265625,-0.001359277404844761,0.01315335277467966,0.007906392216682434
1772788787627896300,0.540896240234375,-0.002657302189618349,0.012350142933428288,0.014916897751390934
1772788787637962200,0.550962158203125,-0.004023237619549036,0.02298707515001297,0.014620221219956875
1772788787648027100,0.561027099609375,-0.0030929953791201115,0.019240273162722588,0.021627264097332954
1772788787658093300,0.57109326171875,-0.0035246936604380608,0.01751081645488739,0.02442624792456627
1772788787668159200,0.5811591796875,-0.00908590666949749,0.019352393224835396,0.025298697873950005
1772788787678224400,0.591224365234375,-0.0082483422011137,0.026090722531080246,0.023983895778656006
1772788787688290000,0.6012900390625,-0.009850500151515007,0.019593141973018646,0.017658889293670654
1772788787698356200,0.611356201171875,-0.00974477268755436,0.02016066201031208,0.018325744196772575
1772788787708422100,0.621422119140625,-0.0076331524178385735,0.013975470326840878,0.019700201228260994
1772788787718487300,0.6314873046875,-0.006743390113115311,0.004004062619060278,0.016453541815280914
1772788787728553200,0.64155322265625,-0.006102100946009159,0.01738910935819149,0.020013121888041496
1772788787738619400,0.651619384765625,-0.008084291592240334,0.024869929999113083,0.024413997307419777
1772788787748684300,0.661684326171875,-0.011246529407799244,0.03038613498210907,0.031562987715005875
1772788787758750200,0.671750244140625,-0.005286108236759901,0.03597531095147133,0.034035466611385345
1772788787768816000,0.681816162109375,-0.005346562247723341,0.0359867624938488,0.030010363087058067
1772788787778882300,0.69188232421875,-0.007838482037186623,0.03130226209759712,0.024533571675419807
1772788787788947500,0.701947509765625,-0.00444002216681838,0.01642797514796257,0.021557223051786423
1772788787799013000,0.71201318359375,-0.005118329077959061,-0.00018855179951060563,0.015024223364889622
1772788787809079300,0.722079345703125,-0.001008805469609797,-0.01079938467592001,0.008387892507016659
1772788787819144200,0.732144287109375,-0.00008948221511673182,-0.016482038423419,0.006729541812092066
1772788787829210400,0.74221044921875,-0.001859419047832489,-0.007132211700081825,0.003026416292414069
1772788787839276300,0.7522763671875,-0.0018636800814419985,0.0054307179525494576,0.005775064695626497
1772788787849341200,0.762341064453125,-0.003323092358186841,0.019270634278655052,0.002624012529850006
1772788787859407000,0.772406982421875,-0.0000018642127770363004,0.031077491119503975,0.0012631373247131705
1772788787869473300,0.782473388671875,0.002996056107804179,0.037942323833703995,-0.00024341292737517506
1772788787879538200,0.7925380859375,0.003304982790723443,0.03347087278962135,0.0006641923682764173
1772788787889604400,0.802604248046875,0.008485097438097,0.020900487899780273,0.0023965786676853895
1772788787899670000,0.812669921875,0.013697436079382896,0.003462641965597868,0.0006258428329601884
1772788787909736200,0.822736083984375,0.016380570828914642,-0.004283161833882332,0.001172323478385806
1772788787919801300,0.83280126953125,0.0177592895925045,-0.0035425368696451187,-0.00043276368523947895
1772788787929867300,0.8428671875,0.015093198977410793,0.0019592875614762306,0.002356364857405424
1772788787939933200,0.85293310546875,0.019476495683193207,0.009581787511706352,-0.004603806417435408
1772788787949998000,0.862998046875,0.015927035361528397,0.0172618106007576,-0.003022687742486596
1772788787960064300,0.873064208984375,0.011408449150621891,0.015487613156437874,-0.006167614832520485
1772788787970130200,0.883130126953125,0.00923504400998354,0.024145549163222313,-0.003318032482638955
1772788787980195300,0.8931953125,0.0041462755762040615,0.027533622458577156,0.00010120012302650139
1772788787990261200,0.90326123046875,0.001982190879061818,0.032338764518499374,-0.001389371114782989
1772788788000327200,0.9133271484375,-0.0003557983145583421,0.027464646846055984,-0.001751827308908105
1772788788010393000,0.92339306640625,-0.0027885958552360535,0.03218483552336693,-0.0019489012192934752
1772788788020458200,0.933458251953125,-0.0034197650384157896,0.03340562805533409,0.0016799219883978367
1772788788030524200,0.943524169921875,-0.003569967346265912,0.04342816770076752,0.006558034103363752
1772788788040590300,0.95359033203125,-0.004339354578405619,0.05221899598836899,0.009781524538993835
1772788788050655200,0.9636552734375,-0.0028959212359040976,0.053348176181316376,0.007864846847951412
1772788788060721200,0.97372119140625,-0.0015728629659861326,0.038411304354667664,0.010034524835646152
1772788788070787000,0.983787109375,0.0031907332595437765,0.015603460371494293,0.012161058373749256
1772788788080852200,0.993852294921875,0.004265052266418934,-0.0015598133904859424,0.016221847385168076
1772788788090918400,1.00391845703125,0.004749215207993984,0.008160990662872791,0.01895851083099842
1772788788100984300,1.013984375,0.005086371209472418,0.0105916578322649,0.02280438132584095
1772788788111050200,1.02405029296875,0.008639028295874596,0.01619148626923561,0.019595539197325706
1772788788121115100,1.034115234375,0.006700247060507536,0.017366472631692886,0.01696060784161091
1772788788131181800,1.044181884765625,0.00971574429422617,0.01516750082373619,0.01805543340742588
1772788788141247500,1.05424755859375,0.006932208314538002,0.03392787277698517,0.011811385862529278
1772788788151312600,1.064312744140625,0.004895688965916634,0.033307090401649475,0.012603409588336945
1772788788161378600,1.074378662109375,0.006461894139647484,0.02136893756687641,0.003879959462210536
1772788788171444700,1.08444482421875,0.0038304245099425316,0.010995392687618732,-0.003683684393763542
1772788788181509400,1.09450927734375,0.006653641816228628,0.008065382950007915,-0.006371346767991781
1772788788191575600,1.104575439453125,0.003421895671635866,0.01179221086204052,-0.012076104059815407
1772788788201641500,1.114641357421875,0.004643487744033337,0.01047447882592678,-0.003085272153839469
1772788788211706600,1.12470654296875,0.0017603494925424457,0.013637781143188477,-0.0015241270884871483
1772788788221772500,1.1347724609375,-0.0014365090755745769,0.01690441556274891,0.0015811186749488115
1772788788231838700,1.144838623046875,-0.004802478477358818,0.010850517079234123,0.005050951149314642
1772788788241904400,1.154904296875,-0.004400340840220451,0.00452764006331563,0.006876281928271055
1772788788251969500,1.164969482421875,-0.005031776614487171,-0.00007297061529243365,0.009617207571864128
1772788788262035700,1.17503564453125,-0.006627542432397604,0.008976451121270657,0.014068148098886013
1772788788272101600,1.1851015625,-0.009035040624439716,0.016943829134106636,0.011139203794300556
1772788788282166800,1.195166748046875,-0.006749515421688557,0.012632437981665134,0.010909639298915863
1772788788292232400,1.205232421875,-0.007787082809954882,0.020681310445070267,0.00902678444981575
1772788788302298600,1.215298583984375,-0.011035607196390629,0.02165629342198372,0.003005377249792218
1772788788312363500,1.225363525390625,-0.010961038060486317,0.020425379276275635,-0.003943875432014465
1772788788322429700,1.2354296875,-0.010059824213385582,0.025421736761927605,-0.003888215171173215
1772788788332495600,1.24549560546875,-0.012167183682322502,0.015061773359775543,-0.0013233247445896268
1772788788342560500,1.255560546875,-0.009258479811251163,0.004760134033858776,-0.002764893928542733
1772788788352626700,1.265626708984375,-0.008025968447327614,0.009206813760101795,-0.002426672261208296
1772788788362692600,1.275692626953125,-0.00824061967432499,0.006164418999105692,-0.008861668407917023
1772788788372758500,1.285758544921875,-0.00535348616540432,0.002275138394907117,-0.011650264263153076
1772788788382823700,1.29582373046875,-0.006124737672507763,0.0018170748371630907,-0.013287043198943138
1772788788392889600,1.3058896484375,-0.004043211229145527,0.00273693073540926,-0.014879080466926098
1772788788402955500,1.31595556640625,-0.0034285534638911486,0.0017600831342861056,-0.01275947131216526
1772788788413020700,1.326020751953125,-0.0034911378752440214,0.00794580765068531,-0.008761267177760601
1772788788423086600,1.336086669921875,-0.0009329052991233766,-0.0010040117194876075,-0.0057284594513475895
1772788788433152800,1.34615283203125,0.00221947836689651,-0.003850131994113326,-0.0018293253378942609
1772788788443217400,1.356217529296875,0.005828327964991331,-0.009984190575778484,-0.006283994764089584
1772788788453283600,1.36628369140625,0.006738862954080105,-0.012682505883276463,-0.007518636528402567
1772788788463349500,1.376349609375,0.007267233915627003,-0.015854863449931145,-0.010005230084061623
1772788788473414700,1.38641455078125,0.010316819883883,-0.009195362217724323,-0.010948521085083485
1772788788483480600,1.39648046875,0.004294613376259804,-0.007814247161149979,-0.013876400887966156
1772788788493546500,1.40654638671875,0.004147340543568134,-0.00523604080080986,-0.01449958048760891
1772788788503611600,1.416611572265625,0.003568103304132819,-0.0018972359830513597,-0.01618429645895958
1772788788513677600,1.426677490234375,0.0025995115283876657,-0.000559530162718147,-0.019510850310325623
1772788788523743700,1.43674365234375,-0.0022120214998722076,-0.004563592839986086,-0.015383750200271606
1772788788533809700,1.4468095703125,0.0003123887872789055,-0.009240370243787766,-0.015357118099927902
1772788788543874600,1.45687451171875,-0.0007006776868365705,-0.010915498249232769,-0.012478773482143879
1772788788553940500,1.4669404296875,-0.00743208359926939,-0.001651692553423345,-0.010068613104522228
1772788788564006700,1.477006591796875,-0.008132494986057281,0.006395048461854458,-0.001148088718764484
1772788788574071600,1.487071533203125,-0.012783972546458244,0.011109642684459686,0.00032863407977856696
1772788788584137700,1.4971376953125,-0.011573831550776958,0.008590025827288628,-0.00740358792245388
1772788788594203600,1.50720361328125,-0.010999388061463833,0.004334827419370413,-0.014504374004900455
1772788788604268500,1.5172685546875,-0.011751730926334858,0.012773585505783558,-0.021383585408329964
1772788788614334500,1.52733447265625,-0.01020017359405756,0.021582789719104767,-0.01685274951159954
1772788788624400600,1.537400634765625,-0.007862716913223267,0.01631745509803295,-0.010420949198305607
1772788788634465800,1.5474658203125,-0.009754626080393791,0.012744557112455368,0.0018101505702361465
1772788788644531500,1.557531494140625,-0.00700944010168314,-0.0005060005933046341,0.016686035320162773
1772788788654597600,1.56759765625,-0.005988916382193565,-0.0056861150078475475,0.020553212612867355
1772788788664662500,1.57766259765625,-0.00643845833837986,-0.004513791762292385,0.02540282905101776
1772788788674728700,1.587728759765625,-0.0076272934675216675,-0.006176136899739504,0.019026154652237892
1772788788684794600,1.597794677734375,-0.009154882282018661,-0.008341286331415176,0.008802546188235283
1772788788694859500,1.607859619140625,-0.0010780475568026304,-0.002126534003764391,-0.0018698053900152445
1772788788704925400,1.617925537109375,-0.0011411645682528615,-0.0005944175645709038,-0.01678217574954033
1772788788714991600,1.62799169921875,0.003350256709381938,-0.00498064374551177,-0.030165625736117363
1772788788725057500,1.6380576171875,0.002787797013297677,-0.009787117131054401,-0.02864762395620346
1772788788735122700,1.648122802734375,0.00446878420189023,-0.011086206883192062,-0.016771789640188217
1772788788745188600,1.658188720703125,0.0011464908020570874,-0.010891263373196125,-0.009723467752337456
1772788788755254500,1.668254638671875,0.002201369032263756,-0.011322695761919022,0.0009741843095980585
1772788788765319700,1.678319580078125,0.0002359560749027878,-0.0070576430298388,0.00526560191065073
1772788788775385600,1.688385498046875,0.0004977448261342943,0.00166580721270293,0.008807872422039509
1772788788785451800,1.69845166015625,0.0008207862265408039,0.009765544906258583,0.013220996595919132
1772788788795516400,1.708516357421875,-0.0009294432238675654,0.015268168412148952,0.016218651086091995
1772788788805582600,1.71858251953125,-0.002285258611664176,0.02888144925236702,0.018270883709192276
1772788788815648500,1.7286484375,-0.0035127094015479088,0.029414881020784378,0.018147844821214676
1772788788825713700,1.738713623046875,-0.0033771544694900513,0.02604571543633938,0.013952833600342274
1772788788835779600,1.748779541015625,-0.000319845654303208,0.010132795199751854,0.008816394954919815
1772788788845845800,1.758845703125,0.004310326185077429,-0.0014740596525371075,-0.001341700553894043
1772788788855910700,1.76891064453125,0.008253668434917927,0.010555172339081764,-0.008624913170933723
1772788788865976600,1.7789765625,0.009762349538505077,0.02575596421957016,-0.00686269998550415
1772788788876042500,1.78904248046875,0.007266168482601643,0.03824911639094353,-0.0007099987124092877
1772788788886107600,1.799107666015625,0.009434781037271023,0.038004372268915176,0.006126069463789463
1772788788896173800,1.809173828125,0.011517372913658619,0.03467835113406181,0.006347644608467817
1772788788906239500,1.819239501953125,0.012015383690595627,0.03063860349357128,0.016140887513756752
1772788788916305700,1.8293056640625,0.009305884130299091,0.011876100674271584,0.015497200191020966
1772788788926370600,1.83937060546875,0.014627411961555481,-0.0026165556628257036,0.011665444821119308
1772788788936436700,1.849436767578125,0.007678159512579441,0.003355050226673484,0.009339706040918827
1772788788946502700,1.859502685546875,0.005992378573864698,0.009911486878991127,0.008672051131725311
1772788788956567600,1.869567626953125,0.001683384063653648,0.010883806273341179,-0.0015164038632065058
1772788788966633500,1.879633544921875,0.00070520507870242,0.009079781360924244,-0.0073471288196742535
1772788788976699600,1.88969970703125,0.0036368127912282944,0.00911653321236372,-0.010299775749444962
1772788788986764500,1.8997646484375,0.0016357135027647018,0.009849701076745987,-0.01005210168659687
1772788788996830700,1.909830810546875,0.001189900329336524,0.006313822232186794,-0.004397677723318338
1772788789006896400,1.919896484375,0.0009709885343909264,0.00703793577849865,-0.000483363721286878
1772788789016961500,1.92996142578125,0.0012234562309458852,0.016276441514492035,-0.0021971079986542463
1772788789027027700,1.94002783203125,-0.0007952199084684253,0.016763800755143166,-0.00726457079872489
1772788789037093600,1.95009375,-0.0036962011363357306,0.015741944313049316,-0.014097176492214203
1772788789047158800,1.96015869140625,-0.0026296053547412157,0.0160687156021595,-0.016397349536418915
1772788789057224400,1.970224365234375,-0.0007803061744198203,0.01799391396343708,-0.01296560000628233
1772788789067290600,1.98029052734375,-0.004465055651962757,0.021442707628011703,-0.007308512926101685
1772788789077355500,1.99035546875,-0.0035292210523039103,0.016042616218328476,-0.004730306565761566
1772788789087421700,2.000421630859375,-0.0035414716694504023,0.015662582591176033,-0.005271194502711296
1772788789097487600,2.010487548828125,-0.0020719394087791443,0.016284963116049767,-0.004788896068930626
1772788789107552500,2.020552490234375,-0.0032059133518487215,0.013668141327798367,-0.007529022637754679
1772788789117618700,2.03061865234375,-0.003993143793195486,0.01679682359099388,-0.00917379092425108
1772788789127684600,2.0406845703125,-0.0034325483720749617,0.01961338147521019,-0.010806042701005936
1772788789137749500,2.05074951171875,-0.004680239129811525,0.018029334023594856,-0.01438399963080883
1772788789147815400,2.0608154296875,-0.004635232035070658,0.011495002545416355,-0.011998073197901249
1772788789157881300,2.07088134765625,-0.0017925737192854285,0.010994328185915947,-0.010036654770374298
1772788789167946200,2.0809462890625,-0.0034144388046115637,0.009368468075990677,-0.005726329050958157
1772788789178012400,2.091012451171875,-0.004704207647591829,0.0065409899689257145,-0.0020455741323530674
1772788789188078300,2.101078369140625,-0.0018868496408686042,-0.0014032195322215557,0.002296710154041648
1772788789198143200,2.111143310546875,-0.006670419592410326,-0.007059773895889521,0.005373992491513491
1772788789208209200,2.121209228515625,-0.0067841364070773125,-0.004727110732346773,0.003357979701831937
1772788789218275300,2.131275390625,-0.004077832214534283,0.0013872405979782343,0.00227833422832191
1772788789228340500,2.141340576171875,-0.005336974747478962,-0.0006005428149364889,-0.00020985709852539003
1772788789238406400,2.151406494140625,-0.004437359049916267,-0.0068358019925653934,-0.0019528960110619664
1772788789248472600,2.16147265625,-0.004992361646145582,-0.011758655309677124,0.0002383529208600521
1772788789258537200,2.171537109375,-0.0054448326118290424,-0.013863084837794304,0.008300540037453175
1772788789268603400,2.181603271484375,-0.004816326778382063,-0.01128061767667532,0.010669688694179058
1772788789278669300,2.19166943359375,-0.006882407236844301,-0.004129763692617416,0.0062736086547374725
1772788789288735500,2.201735595703125,-0.007622499484568834,0.003698598127812147,0.001181111903861165
1772788789298800400,2.21180029296875,-0.011631888337433338,0.01642211712896824,-0.008727178908884525
1772788789308866300,2.2218662109375,-0.010644921101629734,0.014271614141762257,-0.012800750322639942
1772788789318932200,2.23193212890625,-0.01116237323731184,0.012294217012822628,-0.015790414065122604
1772788789328997400,2.241997314453125,-0.008499212563037872,0.0026351979468017817,-0.012465458363294601
1772788789339063300,2.252063232421875,-0.0054142065346241,0.0013662016717717052,-0.01236345898360014
1772788789349129500,2.26212939453125,-0.006125270389020443,0.008619054220616817,-0.004836833104491234
1772788789359194400,2.2721943359375,-0.005589975044131279,0.02052658051252365,0.0036722328513860703
1772788789369260300,2.28226025390625,-0.00866246409714222,0.019810456782579422,0.006834203843027353
1772788789379326500,2.292326416015625,-0.006967362016439438,0.011937352828681469,0.005017928313463926
1772788789389391400,2.302391357421875,-0.004700745455920696,0.01004890538752079,0.0032527849543839693
1772788789399457500,2.31245751953125,-0.0031939290929585695,0.019533220678567886,0.0010191916953772306
1772788789409523200,2.322523193359375,-0.0018634138396009803,0.019961724057793617,-0.0011355718597769737
1772788789419588400,2.33258837890625,-0.0018913770327344537,0.008268582634627819,-0.0016626114957034588
1772788789429654300,2.342654296875,0.0004809668753296137,-0.005510080140084028,-0.0020274645648896694
1772788789439720400,2.352720458984375,0.0005667206714861095,-0.010205233469605446,0.00039468047907575965
1772788789449785300,2.362785400390625,-0.0034855452831834555,-0.01395869255065918,0.0049678608775138855
1772788789459851300,2.372851318359375,-0.006202768534421921,-0.00771757448092103,0.00714739179238677
1772788789469917200,2.382917236328125,-0.006529804784804583,0.004510595928877592,0.007435545790940523
1772788789479982300,2.392982421875,-0.00782436691224575,0.018500713631510735,0.00023142869758885354
1772788789490048500,2.403048583984375,-0.008733037859201431,0.0350370779633522,0.0012319782981649041
1772788789500114400,2.413114501953125,-0.007202519103884697,0.03147217258810997,-0.0054703992791473866
1772788789510179300,2.423179443359375,-0.0051771849393844604,0.021829931065440178,-0.006179332733154297
1772788789520245200,2.433245361328125,-0.006837399676442146,0.011005779728293419,-0.007638478651642799
1772788789530311400,2.4433115234375,-0.006704241503030062,0.0027254789602011442,-0.005480519030243158
1772788789540376300,2.453376220703125,-0.002546780975535512,-0.0028447885997593403,-0.00430020596832037
1772788789550442500,2.4634423828125,-0.0024202808272093534,-0.005703425966203213,0.0000828243064461276
1772788789560508200,2.473508056640625,-0.0006612628931179643,0.0014215953415259719,0.008018777705729008
1772788789570573300,2.4835732421875,-0.00347462622448802,0.011835354380309582,0.00956900417804718
1772788789580639500,2.493639404296875,-0.0015643407823517919,0.01369157712906599,0.013600231148302555
1772788789590705400,2.503705322265625,-0.0022983080707490444,0.016377907246351242,0.012590892612934113
1772788789600770300,2.513770263671875,-0.0009925601771101356,0.015861254185438156,0.015402392484247684
1772788789610836200,2.523836181640625,-0.0007411577389575541,0.018372083082795143,0.018690330907702446
1772788789620902400,2.53390234375,-0.0027118970174342394,0.015555789694190025,0.014897989109158516
1772788789630967300,2.54396728515625,-0.004295412451028824,0.012427907437086105,0.011710185557603836
1772788789641033500,2.554033447265625,-0.004531368613243103,0.01139859575778246,0.007487210910767317
1772788789651099400,2.564099365234375,-0.002722283359616995,0.016055399551987648,0.0052384380251169205
1772788789661164300,2.574164306640625,-0.0019715381786227226,0.022876286879181862,0.004304999951273203
1772788789671230200,2.584230224609375,-0.004974784795194864,0.022289592772722244,-0.001184574095532298
1772788789681296400,2.59429638671875,-0.002365419641137123,0.018095113337039948,-0.003194727934896946
1772788789691361500,2.604361572265625,-0.0012783173006027937,0.0065284729935228825,0.0017190704820677638
1772788789701427500,2.614427490234375,-0.0002596582053229213,-0.004020574036985636,-0.0010021475609391928
1772788789711493400,2.624493408203125,-0.0009944243356585503,-0.006299441214650869,0.003340935567393899
1772788789721558300,2.634558349609375,-0.0028389296494424343,-0.0036511938087642193,0.004563060123473406
1772788789731624400,2.64462451171875,-0.006265618838369846,-0.00020879182557109743,0.002822684356942773
1772788789741690400,2.6546904296875,-0.007219296880066395,0.009381784126162529,0.002927080262452364
1772788789751755300,2.66475537109375,-0.0054853130131959915,0.013994911685585976,0.003693005535751581
1772788789761821200,2.6748212890625,-0.008980179205536842,0.0180000402033329,0.0027265443932265043
1772788789771887400,2.684887451171875,-0.007195594720542431,0.026247316971421242,0.0028458540327847004
1772788789781952300,2.6949521484375,-0.007917577400803566,0.020503144711256027,-0.0006087986403144896
1772788789792018400,2.705018310546875,-0.005604622419923544,0.012922989204525948,-0.006380933802574873
1772788789802084400,2.71508447265625,-0.006988933775573969,0.01047181524336338,-0.00504083139821887
1772788789812149200,2.725149169921875,-0.007267233915627003,0.009854494594037533,-0.0025984463281929493
1772788789822215400,2.73521533203125,-0.0049675945192575455,0.011594338342547417,-0.006454969756305218
1772788789832281300,2.74528125,-0.004313522018492222,0.010513893328607082,-0.00361790438182652
1772788789842346500,2.755346435546875,-0.004230697639286518,0.01266892347484827,-0.00224877311848104
1772788789852412400,2.765412353515625,-0.002947586588561535,0.014860971830785275,-0.00012863067968282849
1772788789862478300,2.775478271484375,-0.00464588450267911,0.009560215286910534,0.005446963477879763
1772788789872543200,2.785543212890625,-0.004729507956653833,0.005727660376578569,0.00031904669594950974
1772788789882609400,2.795609375,-0.005115665961056948,0.003953462466597557,0.0027603665366768837
1772788789892675300,2.80567529296875,-0.010605506598949432,0.003856257302686572,0.009050220251083374
1772788789902740200,2.815740234375,-0.009821205399930477,0.006335926707834005,0.009129582904279232
1772788789912806400,2.825806396484375,-0.0089953588321805,0.0038658445701003075,0.004574778024107218
1772788789922872300,2.835872314453125,-0.008803345263004303,0.0025180187076330185,0.0026495789643377066
1772788789932937500,2.8459375,-0.009461145848035812,0.007780425250530243,0.0031643679831176996
1772788789943003400,2.85600341796875,-0.008961270563304424,0.007444866932928562,0.0013978932984173298
1772788789953069600,2.866069580078125,-0.009126120246946812,0.013331251218914986,-0.0035926043055951595
1772788789963134200,2.87613427734375,-0.009230515919625759,0.019029084593057632,-0.0022088258992880583
1772788789973200400,2.886200439453125,-0.011359447613358498,0.02479802444577217,-0.0009901633020490408
1772788789983266300,2.896266357421875,-0.010513893328607082,0.02557460218667984,0.0009315737406723201
1772788789993331500,2.90633154296875,-0.009741310961544514,0.024207601323723793,0.002335326047614217
1772788790003397400,2.9163974609375,-0.008095210418105125,0.017768876627087593,0.0015475628897547722
1772788790013462300,2.926462158203125,-0.005013400688767433,0.01540745235979557,-0.003052781568840146
1772788790023528400,2.936528564453125,-0.004257861990481615,0.010237190872430801,-0.008106661960482597
1772788790033594400,2.946594482421875,-0.002912432886660099,0.006918360013514757,-0.006128998938947916
1772788790043659500,2.956659423828125,-0.004456267226487398,0.009199623949825764,-0.00887951161712408
1772788790053725200,2.96672509765625,-0.006156163290143013,0.009384713135659695,-0.0049308426678180695
1772788790063791400,2.976791259765625,-0.0043806335888803005,0.00857138354331255,-0.003739344421774149
1772788790073856300,2.986856201171875,-0.004802478477358818,0.008066448383033276,-0.0018381137633696198
1772788790083922400,2.99692236328125,-0.0024676851462572813,0.008265652693808079,-0.0041555967181921005
1772788790093988400,3.00698828125,-0.005474393721669912,0.007217965554445982,-0.0017896442441269755
1772788790104053200,3.01705322265625,-0.005486377980560064,0.008232896216213703,-0.0008202536264434457
1772788790114119200,3.027119140625,-0.008261924609541893,0.01125105656683445,0.002019741339609027
1772788790124185300,3.037185302734375,-0.008904811926186085,0.012515791691839695,-0.0015640745405107737
1772788790134250800,3.047250732421875,-0.007513309828937054,0.015607455745339394,-0.001047421246767044
1772788790144317000,3.05731689453125,-0.005234443116933107,0.008519718423485756,0.00022663500567432493
1772788790154382800,3.0673828125,-0.004738562274724245,0.008490423671901226,-0.0012447615154087543
1772788790164448000,3.077447998046875,-0.0037758296821266413,0.01690308377146721,-0.004485029727220535
1772788790174514000,3.087513916015625,-0.005351888481527567,0.026800988242030144,-0.00039707732503302395
1772788790184579800,3.097579833984375,-0.004099936690181494,0.02744627185165882,0.002100168727338314
1772788790194645000,3.10764501953125,-0.0008386294357478619,0.026266491040587425,0.00014860439114272594
1772788790204711000,3.1177109375,-0.0010511496802791953,0.023729298263788223,-0.0008844357798807323
1772788790214777000,3.127777099609375,0.0009297095239162445,0.023262444883584976,-0.006145510356873274
1772788790224841700,3.137841796875,-0.0008415589109063148,0.018549982458353043,-0.01452780980616808
1772788790234908000,3.147907958984375,-0.0005704491049982607,0.008222510106861591,-0.01907595619559288
1772788790244973800,3.157973876953125,-0.0002950782363768667,0.0014532869681715965,-0.013876933604478836
1772788790255039000,3.1680390625,-0.002700445242226124,-0.0023156185634434223,-0.011736816726624966
1772788790265105000,3.17810498046875,-0.0013140037190169096,-0.0046935551799833775,-0.010012154467403889
1772788790275171000,3.188171142578125,-0.005730856209993362,0.005927663762122393,-0.008944759145379066
1772788790285236000,3.198236083984375,-0.00646615494042635,0.01571478135883808,-0.010310960933566093
1772788790295302000,3.208302001953125,-0.008557002991437912,0.02053057588636875,-0.014947790652513504
1772788790305368000,3.2183681640625,-0.010128534398972988,0.026339728385210037,-0.01552596315741539
1772788790315433000,3.228432861328125,-0.008726113475859165,0.0318351611495018,-0.0068054418079555035
1772788790325499000,3.238498779296875,-0.008440889418125153,0.03399365395307541,0.0011446266435086727
1772788790335564800,3.248564697265625,-0.008682969957590103,0.03328338637948036,0.006135124247521162
1772788790345630000,3.2586298828125,-0.005440838169306517,0.025308819487690926,0.001487641828134656
1772788790355695900,3.26869580078125,-0.0035028557758778334,0.012602077797055244,-0.0010785802733153105
1772788790365762000,3.278761962890625,-0.001116130850277841,0.0013052152935415506,0.006134058814495802
1772788790375827000,3.288826904296875,-0.002008023438975215,-0.0030892668291926384,0.01176478061825037
1772788790385892900,3.298892822265625,0.0002109223569277674,-0.0019747340120375156,0.01631665602326393
1772788790395958000,3.3089580078125,0.0008452873444184661,-0.0010713896481320262,0.01227344386279583
1772788790406024000,3.31902392578125,-0.0012415656819939613,0.00017470336752012372,0.007134608458727598
1772788790416090000,3.329090087890625,-0.0007901599165052176,0.00680197961628437,0.0005834985640831292
1772788790426154800,3.33915478515625,-0.003469299990683794,0.012879579328000546,-0.0008649947121739388
1772788790436221000,3.349220947265625,-0.005162005312740803,0.01420290395617485,-0.006800914648920298
1772788790446286800,3.359286865234375,-0.00768721429631114,0.012501942925155163,-0.009526659734547138
1772788790456352000,3.36935205078125,-0.007898669689893723,0.010133327916264534,-0.014736602082848549
1772788790466418000,3.37941796875,-0.009954629465937614,0.015570437535643578,-0.016685768961906433
1772788790476483800,3.38948388671875,-0.007349791936576366,0.024270186200737953,-0.013371732085943222
1772788790486549000,3.399549072265625,-0.007148190401494503,0.03134593740105629,-0.009327455423772335
1772788790496615000,3.409614990234375,-0.00512951472774148,0.03343891724944115,-0.004832305945456028
1772788790506681000,3.41968115234375,-0.004889563657343388,0.027245735749602318,-0.0011776498286053538
1772788790516746000,3.42974609375,-0.0021020330023020506,0.01883067935705185,0.000517718493938446
1772788790526812000,3.43981201171875,-0.0016996293561533093,0.012733371928334236,0.0026431872975081205
1772788790536877800,3.4498779296875,-0.0028599686920642853,0.013187441043555737,0.0029233519453555346
1772788790546943000,3.45994287109375,-0.005664010997861624,0.020007263869047165,0.005817409139126539
1772788790557009000,3.4700087890625,-0.009377256035804749,0.024755148217082024,0.007139136083424091
1772788790567075000,3.480074951171875,-0.01215679757297039,0.02574744075536728,0.012968529015779495
1772788790577140000,3.490139892578125,-0.009610283188521862,0.026011094450950623,0.018674084916710854
1772788790587206000,3.500205810546875,-0.010736001655459404,0.028485704213380814,0.011951467953622341
1772788790597271800,3.510271728515625,-0.011610849760472775,0.031927306205034256,0.004208593629300594
1772788790607337000,3.5203369140625,-0.010661965236067772,0.029398102313280106,-0.0009150621481239796
1772788790617403100,3.530403076171875,-0.005305283237248659,0.028666531667113304,-0.008195611648261547
1772788790627468800,3.54046875,-0.006695186719298363,0.02732349932193756,-0.014064153656363487
1772788790637534000,3.550533935546875,-0.008114385418593884,0.026314960792660713,-0.016039419919252396
1772788790647599900,3.560599853515625,-0.005914081819355488,0.0205092690885067,-0.00959616806358099
1772788790657665000,3.5706650390625,-0.007041131611913443,0.016524381935596466,-0.01082654856145382
1772788790667731000,3.58073095703125,-0.009739979170262814,0.008443552069365978,-0.002754773711785674
1772788790677796900,3.590796875,-0.009604690596461296,0.010481136851012707,0.00800359807908535
1772788790687862000,3.600862060546875,-0.010761833749711514,0.017050355672836304,0.020081566646695137
1772788790697928000,3.610927978515625,-0.009602826088666916,0.014515825547277927,0.030013559386134148
1772788790707994000,3.620994140625,-0.00905661191791296,0.02161208540201187,0.031023163348436356
1772788790718058800,3.631058837890625,-0.004456533584743738,0.010853447020053864,0.028065456077456474
1772788790728125000,3.641125,-0.0023369237314909697,0.012133894488215446,0.02557620033621788
1772788790738190800,3.65119091796875,-0.0030101709999144077,0.00714792450889945,0.023428360000252724
1772788790748256000,3.661256103515625,-0.002016279147937894,0.007938350550830364,0.01653982885181904
1772788790758322000,3.671322021484375,-0.002523611532524228,0.01067874301224947,0.009464874863624573
1772788790768388000,3.68138818359375,-0.0024762072134763002,0.01161804050207138,-0.00008229167724493891
1772788790778453000,3.691452880859375,-0.0011648666113615036,0.017001619562506676,-0.001413073274306953
1772788790788519000,3.701518798828125,0.002433863002806902,0.020534036681056023,-0.000871652620844543
1772788790798584800,3.711584716796875,-0.000603738590143621,0.026222283020615578,-0.0009105347562581301
1772788790808650000,3.72164990234375,-0.0008990831556729972,0.03193023428320885,-0.00096113485051319
1772788790818716200,3.731716064453125,0.0020652813836932182,0.02882392518222332,0.002947586588561535
1772788790828781800,3.74178173828125,0.0030085730832070112,0.018977418541908264,-0.000371777277905494
1772788790838847000,3.751846923828125,0.0026317357551306486,0.017015468329191208,-0.0012351741315796971
1772788790848913000,3.761912841796875,0.007749265991151333,0.010262224823236465,0.00005752427750849165
1772788790858979000,3.77197900390625,0.007270696107298136,0.005969741847366095,0.0001507349224993959
1772788790869043700,3.782043701171875,0.008318915963172913,-0.0009121326729655266,0.005555886775255203
1772788790879110000,3.79210986328125,0.00848696194589138,0.002508697798475623,0.007954329252243042
1772788790889175800,3.80217578125,0.0038722362369298935,0.006558566819876432,0.009338107891380787
1772788790899241000,3.812240966796875,0.004580104257911444,0.0043982104398310184,0.010788465850055218
1772788790909307000,3.822306884765625,0.005066397599875927,0.007243265397846699,0.008324774913489819
1772788790919371800,3.832371826171875,0.003823234001174569,0.008563128300011158,0.003626692807301879
1772788790929438000,3.84243798828125,0.004583033733069897,0.015797339379787445,0.006828078534454107
1772788790939503900,3.85250390625,0.0012950951931998134,0.00800066813826561,0.002438922878354788
1772788790949569000,3.862569091796875,-0.0013203952694311738,0.005939381662756205,-0.0011576761025935411
1772788790959635000,3.872635009765625,-0.006697051227092743,0.004848551005125046,-0.005058940965682268
1772788790969701000,3.882701171875,-0.006458698306232691,0.003878894029185176,-0.00016831177345011383
1772788790979766000,3.89276611328125,-0.0007928230334073305,0.008641424588859081,-0.00698041170835495
1772788790989832000,3.90283203125,-0.002585396869108081,0.01375016663223505,-0.011236941441893578
1772788790999897900,3.91289794921875,-0.0011249192757532,0.015087606385350227,-0.012110991403460503
1772788791009963000,3.922962890625,-0.0037614486645907164,0.014064153656363487,-0.014561099000275135
1772788791020029000,3.93302880859375,-0.003054911969229579,0.015095329843461514,-0.01685354858636856
1772788791030094800,3.9430947265625,-0.004713262431323528,0.013726730830967426,-0.021074391901493073
1772788791040160000,3.953159912109375,-0.0024053670931607485,0.007528489921241999,-0.019693277776241302
1772788791050226000,3.963225830078125,-0.004246943164616823,-0.005543902516365051,-0.015920110046863556
1772788791060292000,3.9732919921875,-0.005285841878503561,-0.013621003367006779,-0.013819674961268902
1772788791070356700,3.983356689453125,-0.0067756143398582935,-0.018802715465426445,-0.006754841655492783
1772788791080422000,3.993421875,-0.008580172434449196,-0.01647777669131756,-0.006412093061953783
1772788791090488000,4.003488037109375,-0.009701895527541637,-0.020014986395835876,-0.003239469137042761
1772788791100554000,4.013553955078125,-0.01158634852617979,-0.007703992538154125,-0.009434514679014683
1772788791110619000,4.023618896484375,-0.014597850851714611,0.011748534627258778,-0.006355101242661476
1772788791120684800,4.033684814453125,-0.017224526032805443,0.013654826208949089,-0.008356999605894089
1772788791130751000,4.0437509765625,-0.01312086172401905,0.01944587007164955,-0.008098406717181206
1772788791140815400,4.0538154296875,-0.012600214220583439,0.026456907391548157,-0.0044195158407092094
1772788791150881300,4.06388134765625,-0.01525671686977148,0.022652847692370415,0.00038296254933811724
1772788791160946400,4.073946533203125,-0.011687016114592552,0.019283948466181755,0.0033688987605273724
1772788791171012400,4.084012451171875,-0.011833489872515202,0.007937285117805004,0.003596865339204669
1772788791181078300,4.094078369140625,-0.012996758334338665,0.009769540280103683,-0.003855990944430232
1772788791191143200,4.10414306640625,-0.011419900692999363,0.00863130483776331,-0.007192132994532585
1772788791201209300,4.114209228515625,-0.014229802414774895,0.003778493031859398,-0.00845420453697443
1772788791211275300,4.124275146484375,-0.014301707968115807,0.011443336494266987,-0.011726430617272854
1772788791221340400,4.13434033203125,-0.016692161560058594,0.0160098597407341,-0.009312541224062443
1772788791231406300,4.14440625,-0.014422615058720112,0.011071027256548405,-0.008150071837008
1772788791241472300,4.15447216796875,-0.014407968148589134,0.0143507095053792,-0.007408381439745426
1772788791251537400,4.164537353515625,-0.013552826829254627,0.014219149947166443,-0.0043595945462584496
1772788791261603300,4.174603271484375,-0.012754145078361034,0.007196127437055111,0.004883171990513802
1772788791271669500,4.18466943359375,-0.009181514382362366,0.00577932596206665,0.007803861051797867
1772788791281734100,4.194734130859375,-0.009756224229931831,0.004824582487344742,0.0038567897863686085
1772788791291800300,4.20480029296875,-0.012821788899600506,0.01661173440515995,0.007794539909809828
1772788791301866200,4.2148662109375,-0.013217002153396606,0.021496502682566643,0.012586631812155247
1772788791311931400,4.224931396484375,-0.009644904173910618,0.02479030191898346,0.015788283199071884
1772788791321997300,4.234997314453125,-0.008846488781273365,0.014621553011238575,0.00900015328079462
1772788791332063200,4.245063232421875,-0.007411310914903879,0.004002997186034918,0.00041998049709945917
1772788791342128400,4.25512841796875,-0.008732771500945091,0.002457564929500222,0.0005619269795715809
1772788791352194300,4.2651943359375,-0.004776113200932741,-0.0007832356495782733,-0.0016559535870328546
1772788791362259500,4.275259521484375,-0.005273325368762016,0.0034416031558066607,-0.0016935041639953852
1772788791372325400,4.285325439453125,-0.00538491178303957,0.006325273774564266,0.0036631780676543713
1772788791382391300,4.295391357421875,-0.0030040456913411617,0.01137010008096695,0.006502640433609486
1772788791392456200,4.305456298828125,-0.004560663364827633,0.01696779765188694,0.012859872542321682
1772788791402522400,4.3155224609375,-0.004240018781274557,0.016932643949985504,0.013448962941765785
1772788791412588300,4.32558837890625,-0.005346295889467001,0.014573882333934307,0.0092321140691638
1772788791422653200,4.335653076171875,-0.0022447784431278706,0.01636406034231186,0.004612861201167107
1772788791432719000,4.345718994140625,0.000985103310085833,0.018082331866025925,-0.002931075170636177
1772788791442785300,4.355785400390625,0.0010982876410707831,0.020784374326467514,-0.014840731397271156
1772788791452850400,4.365850341796875,0.001070857048034668,0.022816365584731102,-0.02309786155819893
1772788791462916400,4.375916259765625,-0.00012836436508223414,0.019453326240181923,-0.021454691886901855
1772788791472982500,4.385982421875,0.006392385344952345,0.011530688032507896,-0.02178439125418663
1772788791483047200,4.396047119140625,0.006530603393912315,0.013067598454654217,-0.01684049889445305
1772788791493113300,4.40611328125,0.005115399602800608,0.017784057185053825,-0.00785366166383028
1772788791503179300,4.41617919921875,0.006304767448455095,0.016868462786078453,-0.00006498113361885771
1772788791513244400,4.426244384765625,0.005980127956718206,0.018975289538502693,0.001776062068529427
1772788791523310300,4.436310302734375,0.005335110705345869,0.016946226358413696,-0.000740625080652535
1772788791533376300,4.446376220703125,0.005471996963024139,0.017960891127586365,0.003641340183094144
1772788791543441400,4.45644140625,0.0014500912511721253,0.01948528364300728,0.005042961798608303
1772788791553507300,4.46650732421875,-0.0015643407823517919,0.019355587661266327,0.009046492166817188
1772788791563573200,4.4765732421875,-0.004292482975870371,0.02268986590206623,0.01206997875124216
1772788791573638100,4.48663818359375,-0.005796370096504688,0.011457717977464199,0.014435398392379284
1772788791583704300,4.496704345703125,-0.008070177398622036,0.010780476033687592,0.010788199491798878
1772788791593769200,4.506769287109375,-0.0060387179255485535,0.01200126949697733,0.006395048461854458
1772788791603835400,4.51683544921875,-0.011604458093643188,0.015483618713915348,0.0020969731267541647
1772788791613901300,4.5269013671875,-0.010660633444786072,0.02347097173333168,-0.0062634884379804134
1772788791623966200,4.53696630859375,-0.010568222030997276,0.03105618618428707,-0.011453989893198013
1772788791634032000,4.5470322265625,-0.007261641323566437,0.028070516884326935,-0.014815164729952812
1772788791644098300,4.557098388671875,-0.006750314496457577,0.02544384077191353,-0.01799258217215538
1772788791654163500,4.56716357421875,-0.0030634342692792416,0.027485420927405357,-0.0203995481133461
1772788791664229400,4.5772294921875,-0.0000876179983606562,0.023242738097906113,-0.019774770364165306
1772788791674295600,4.587295654296875,-0.0010615360224619508,0.017719607800245285,-0.01810789667069912
1772788791684361200,4.597361328125,-0.0007502124644815922,0.01619734615087509,-0.018207766115665436
1772788791694427100,4.60742724609375,-0.0007126618875190616,0.016559535637497902,-0.016289757564663887
1772788791704492300,4.6174921875,-0.004716458264738321,0.020608872175216675,-0.008526110090315342
1772788791714558500,4.627558349609375,-0.0013022858183830976,0.015482020564377308,-0.003999002743512392
1772788791724624400,4.637624267578125,-0.0025302693247795105,0.018398715183138847,-0.0028453213162720203
1772788791734689300,4.647689208984375,-0.0034298852551728487,0.02659272775053978,-0.001493234420195222
1772788791744755200,4.657755126953125,-0.003314570290967822,0.020783575251698494,0.0006838997360318899
1772788791754821400,4.6678212890625,-0.0037705034483224154,0.016083095222711563,0.006615558639168739
1772788791764886300,4.67788623046875,-0.004022172186523676,0.0005328985280357301,0.009577792137861252
1772788791774952400,4.687952392578125,-0.007521831896156073,-0.003029079409316182,0.008261125534772873
1772788791785017300,4.698017333984375,-0.007421431131660938,0.00956767238676548,0.009520800784230232
1772788791795083300,4.708083251953125,-0.013045760802924633,0.01828552968800068,0.011913917027413845
1772788791805149400,4.7181494140625,-0.011536813341081142,0.022111427038908005,0.012076370418071747
1772788791815214300,4.72821435546875,-0.013606622815132141,0.02575063705444336,0.007964449934661388
1772788791825280500,4.738280517578125,-0.012969860807061195,0.02624225616455078,0.0006916229031048715
1772788791835346200,4.74834619140625,-0.01110484916716814,0.021395303308963776,-0.006848318502306938
1772788791845411300,4.758411376953125,-0.009406817145645618,0.010152502916753292,-0.015417305752635002
1772788791855477200,4.768477294921875,-0.008268582634627819,0.012061722576618195,-0.010033725760877132
1772788791865543400,4.77854345703125,-0.00911759864538908,0.004516987595707178,-0.0073351445607841015
1772788791875608300,4.7886083984375,-0.011449728161096573,0.0034352114889770746,0.0007954862085171044
1772788791885674200,4.79867431640625,-0.011670771054923534,0.0055228634737432,0.00003488740912871435
1772788791895740200,4.808740234375,-0.013346431776881218,0.005024319514632225,0.005228584166616201
1772788791905805300,4.818805419921875,-0.013559484854340553,0.01654568687081337,0.005562810692936182
1772788791915871500,4.82887158203125,-0.015425029210746288,0.022951122373342514,0.0027947211638092995
1772788791925937400,4.8389375,-0.013835388235747814,0.024894697591662407,0.0025039040483534336
1772788791936002300,4.849002197265625,-0.01564527302980423,0.025261947885155678,-0.00487172044813633
1772788791946068200,4.859068115234375,-0.014125938527286053,0.02250371128320694,-0.00965475756675005
1772788791956133400,4.86913330078125,-0.011663313955068588,0.016694290563464165,-0.012321114540100098
1772788791966199300,4.87919921875,-0.012054798193275928,0.009338107891380787,-0.009382316842675209
1772788791976265200,4.88926513671875,-0.008412659168243408,0.007637413218617439,-0.010149839334189892
1772788791986330400,4.899330322265625,-0.011750399135053158,0.006179332733154297,-0.008625179529190063
1772788791996396300,4.909396240234375,-0.01059085875749588,0.004202468320727348,-0.00035366779775358737
1772788792006462200,4.919462158203125,-0.012510199099779129,0.007730357814580202,0.006483998149633408
1772788792016527400,4.92952734375,-0.009923471137881279,0.0030043120495975018,0.00771650904789567
1772788792026593300,4.93959326171875,-0.007919974625110626,0.010763698257505894,0.009150355122983456
1772788792036659200,4.9496591796875,-0.0065801385790109634,0.015935823321342468,0.01019671093672514
1772788792046724400,4.959724365234375,-0.005673065781593323,0.014614628627896309,0.012464659288525581
1772788792056790300,4.969790283203125,-0.002645317930728197,0.00387303507886827,0.008479504846036434
1772788792066856400,4.9798564453125,0.0007605988066643476,0.0027499801944941282,0.005599562544375658
1772788792076921300,4.98992138671875,-0.0001805623178370297,0.007362042553722858,0.0009712548344396055
1772788792086987300,4.9999873046875,-0.0008191883680410683,0.019947342574596405,0.0027244137600064278
1772788792097053200,5.01005322265625,-0.00714792450889945,0.013186908327043056,0.0022807312197983265
1772788792107118300,5.020118408203125,0.0030804784037172794,-0.008599347434937954,-0.0012037487467750907
1772788792117184500,5.0301845703125,-0.0020849888678640127,0.003858121344819665,-0.009572465904057026
1772788792127249200,5.040249267578125,-0.002947852946817875,0.004059989005327225,-0.0031646343413740396
1772788792137315600,5.050315673828125,-0.004209392238408327,-0.004767324775457382,-0.007224090863019228
1772788792147381500,5.060381591796875,-0.001446362817659974,-0.005398760084062815,-0.00418515782803297
1772788792157446400,5.0704462890625,-0.0017558221006765962,0.00032091091270558536,-0.003175020683556795
1772788792167512300,5.08051220703125,-0.0021113541442900896,0.022589199244976044,0.0051659997552633286
1772788792177578500,5.09057861328125,-0.01092561800032854,0.025912024080753326,0.01236239355057478
1772788792187643600,5.1006435546875,-0.00239205127581954,0.019961191341280937,0.014957644045352936
1772788792197709300,5.110709228515625,-0.0013683321885764599,0.026638802140951157,0.012731773778796196
1772788792207775200,5.120775146484375,-0.00227939966134727,0.014986938796937466,0.00896606408059597
1772788792217840400,5.13084033203125,0.0015257250051945448,0.007983624003827572,0.009587113745510578
1772788792227906600,5.140906494140625,-0.002167813014239073,-0.0007584682898595929,0.005222458858042955
1772788792237972500,5.150972412109375,0.0015907060587778687,-0.006515423767268658,0.0055817193351686
1772788792248037400,5.161037353515625,-0.0022623552940785885,-0.008585232309997082,0.00500967213883996
1772788792258103300,5.171103271484375,-0.0044168527238070965,-0.0024429175537079573,0.005844040773808956
1772788792268169500,5.18116943359375,-0.0028967203106731176,-0.001642637769691646,0.005276787560433149
1772788792278234400,5.191234375,-0.001791242160834372,-0.01775342971086502,0.008792959153652191
1772788792288300500,5.201300537109375,-0.004924184642732143,-0.0007126618875190616,0.007285609841346741
1772788792298365400,5.211365478515625,-0.005060005933046341,0.011630291119217873,-0.002974484581500292
1772788792308431400,5.221431396484375,-0.0012966931099072099,0.008621451444923878,-0.012114186771214008
1772788792318497500,5.23149755859375,-0.004055461846292019,0.003010969841852784,-0.012688098475337029
1772788792328562400,5.2415625,-0.004516721237450838,-0.0013369068037718534,-0.012791428714990616
1772788792338628600,5.251628662109375,0.00017789915727917105,0.003469299990683794,-0.0102539686486125
1772788792348694300,5.2616943359375,-0.0017632789677008986,0.005641906522214413,-0.011146394535899162
1772788792358759400,5.271759521484375,-0.004511927254498005,0.009720804169774055,-0.008830775506794453
1772788792368825300,5.281825439453125,-0.0037579864729195833,0.008521849289536476,-0.008947688154876232
1772788792378891500,5.2918916015625,-0.0012815131340175867,0.0068030450493097305,-0.009603625163435936
1772788792388956700,5.301956787109375,-0.0024746092967689037,0.013316870667040348,-0.008026234805583954
1772788792399022300,5.312022216796875,-0.004053597338497639,0.01930924877524376,-0.008024636656045914
1772788792409088300,5.322088134765625,0.0008215851848945022,0.022605177015066147,-0.008924518711864948
1772788792419153400,5.3321533203125,-0.0017606157343834639,0.019700467586517334,-0.008183893747627735
1772788792429219600,5.342219482421875,-0.0005914880894124508,0.022114356979727745,-0.008607069961726665
1772788792439284200,5.3522841796875,-0.002469282830134034,0.02623320184648037,-0.007753527257591486
1772788792449350400,5.362350341796875,-0.0029952572658658028,0.03181838244199753,-0.004580903332680464
1772788792459416300,5.372416259765625,-0.004255198873579502,0.03900119662284851,-0.005599296186119318
1772788792469481500,5.3824814453125,-0.0041036647744476795,0.04589718580245972,-0.0036538569256663322
1772788792479547400,5.39254736328125,-0.005821936298161745,0.04365027695894241,-0.0056829191744327545
1772788792489613600,5.402613525390625,-0.005780657287687063,0.02213699370622635,-0.006733270362019539
1772788792499678500,5.412678466796875,-0.0008282430935651064,0.004337490536272526,-0.00797563511878252
1772788792509744400,5.422744384765625,-0.000574177538510412,0.004780906718224287,-0.004707137122750282
1772788792519810600,5.432810546875,0.0004183826094958931,0.019601130858063698,-0.00007643271965207532
1772788792529875500,5.44287548828125,-0.003906324505805969,0.027163976803421974,0.004236556589603424
1772788792539941600,5.452941650390625,-0.002513491315767169,0.029376797378063202,0.009043828584253788
1772788792550006300,5.46300634765625,-0.0022027005907148123,0.036552153527736664,0.004433630499988794
1772788792560072400,5.473072509765625,-0.0011177286505699158,0.034564368426799774,-0.0011707255616784096
1772788792570138400,5.483138427734375,-0.0018391790799796581,0.03394891321659088,-0.008946623653173447
1772788792580203500,5.49320361328125,0.0005033374181948602,0.023025425150990486,-0.011386345140635967
1772788792590269400,5.50326953125,0.004224838688969612,0.012635634280741215,-0.014422082342207432
1772788792600335400,5.51333544921875,0.0023574302904307842,0.0031854070257395506,-0.00848829373717308
1772788792610400500,5.523400390625,0.003222425002604723,-0.002650377806276083,0.003626959165558219
1772788792620466400,5.533466552734375,0.00159443449229002,0.00042317630141042173,0.00395772373303771
1772788792630532600,5.54353271484375,0.0008402272942475975,0.01324070431292057,0.011877166107296944
1772788792640597200,5.55359716796875,0.0003102582704741508,0.02298014983534813,0.012056396342813969
1772788792650663400,5.563663330078125,-0.002528671408072114,0.024027837440371513,0.008156197145581245
1772788792660729300,5.573729248046875,0.00039308256236836314,0.020663199946284294,0.0012522183824330568
1772788792670794500,5.58379443359375,0.0006407565670087934,0.013935256749391556,0.0035262915771454573
1772788792680860400,5.5938603515625,0.004529770463705063,0.006213687360286713,0.00261841993778944
1772788792690925300,5.60392529296875,0.006987335626035929,0.0046325684525072575,-0.0018362496048212051
1772788792700991500,5.613991455078125,0.011098457500338554,0.004093278665095568,0.0062248725444078445
1772788792711057400,5.624057373046875,0.01423353049904108,0.003210174385458231,0.010601777583360672
1772788792721122600,5.63412255859375,0.014938469044864178,0.003239735495299101,0.019955065101385117
1772788792731188500,5.6441884765625,0.013253221288323402,0.007310110609978437,0.022492526099085808
1772788792741254400,5.65425439453125,0.014899320900440216,0.013336045667529106,0.024154605343937874
1772788792751319300,5.6643193359375,0.013667075894773006,0.018266089260578156,0.021859493106603622
1772788792761385500,5.674385498046875,0.013204751536250114,0.02022590860724449,0.009614011272788048
1772788792771451400,5.684451416015625,0.010407100431621075,0.01642850786447525,0.001975266495719552
1772788792781516500,5.6945166015625,0.010818026959896088,0.008324508555233479,-0.00013156015484128147
1772788792791582500,5.70458251953125,0.00806245394051075,0.00293293921276927,0.002484729280695319
1772788792801648400,5.7146484375,0.008786833845078945,0.011831625364720821,0.0010628675809130073
1772788792811713500,5.724713623046875,0.0014213290996849537,0.023271767422556877,0.0008532768115401268
1772788792821779500,5.734779541015625,-0.000740625080652535,0.028252676129341125,0.002913498319685459
1772788792831844400,5.74484423828125,0.00013635384675581008,0.021382519975304604,0.0017265273490920663
1772788792841910300,5.75491015625,0.0011432950850576162,0.01570066623389721,-0.001719603082165122
1772788792851976400,5.7649765625,-0.0013262542197480798,0.007596134208142757,-0.006129265297204256
1772788792862041600,5.77504150390625,0.0020535634830594063,0.005402754992246628,-0.0073351445607841015
1772788792872107500,5.785107421875,0.0020125508308410645,-0.007036071736365557,-0.010556237772107124
1772788792882173400,5.79517333984375,0.002061286708340049,-0.005050951149314642,-0.014515825547277927
1772788792892238300,5.80523828125,0.0010207896120846272,0.010915231890976429,-0.00794394314289093
1772788792902304500,5.815304443359375,0.0028397287242114544,0.019334549084305763,-0.0043686493299901485
1772788792912370400,5.825370361328125,0.0013334447285160422,0.015558453276753426,-0.0022303974255919456
1772788792922435600,5.835435546875,0.0020730046089738607,0.020073309540748596,0.0009235842735506594
1772788792932501200,5.845501220703125,0.002118811011314392,0.01587483659386635,0.002817890839651227
1772788792942566400,5.85556640625,0.004139084834605455,0.018253039568662643,-0.0002921487612184137
1772788792952632300,5.86563232421875,0.00044022052315995097,0.014423680491745472,-0.002817624481394887
1772788792962698500,5.875698486328125,-0.0004575310740619898,0.013491573743522167,-0.004619785584509373
1772788792972763600,5.885763671875,-0.0018437063554301858,0.01601252146065235,-0.01125318743288517
1772788792982829300,5.895829345703125,-0.001865011639893055,0.010804444551467896,-0.00643819198012352
1772788792992895500,5.9058955078125,-0.005428054835647345,0.007960987277328968,-0.004703941289335489
1772788793002960400,5.91596044921875,-0.006959372665733099,0.002376871183514595,-0.0011744539951905608
1772788793013026600,5.926026611328125,-0.007033142261207104,0.0041369544342160225,0.0000250337143370416
1772788793023092500,5.936092529296875,-0.00703926756978035,0.0044139232486486435,0.003884486621245742
1772788793033157400,5.946157470703125,-0.011805526912212372,0.003162237349897623,0.004255465231835842
1772788793043223300,5.956223388671875,-0.00930055696517229,0.005094361025840044,0.006105296779423952
1772788793053288400,5.966288330078125,-0.01389823853969574,0.006135656964033842,0.008439291268587112
1772788793063354400,5.976354248046875,-0.014090253040194511,0.0028506475500762463,0.008504805155098438
1772788793073420500,5.986420654296875,-0.013497432693839073,0.008618255145847797,0.007567904889583588
1772788793083485400,5.9964853515625,-0.01642664335668087,0.01443965919315815,0.004636829718947411
1772788793093551400,6.00655126953125,-0.01793266087770462,0.01661386340856552,0.0013550163712352514
1772788793103617500,6.016617431640625,-0.01498347707092762,0.020298879593610764,-0.00046605319948866963
1772788793113682400,6.026682373046875,-0.017527861520648003,0.015408516861498356,-0.004785966593772173
1772788793123748600,6.03674853515625,-0.01661812514066696,0.020774254575371742,-0.0034354778472334146
1772788793133814300,6.046814208984375,-0.013411412946879864,0.01381195243448019,-0.006914098747074604
1772788793143879700,6.056879638671875,-0.012864666059613228,0.0140183474868536,-0.0043894220143556595
1772788793153945600,6.066945556640625,-0.012500612065196037,0.009648632258176804,-0.007517304737120867
1772788793164010800,6.0770107421875,-0.01005210168659687,0.00851705577224493,-0.0025100293569266796
1772788793174076700,6.08707666015625,-0.010303237475454807,0.007112238090485334,-0.000014647385796706658
1772788793184142600,6.097142578125,-0.009882990270853043,0.00561128044500947,0.0031403994653373957
1772788793194207700,6.107207763671875,-0.006841394584625959,0.012370383366942406,0.0013432984706014395
1772788793204273700,6.117273681640625,-0.00762915750965476,0.01822560839354992,0.0030692932195961475
1772788793214339800,6.12733984375,-0.004533232655376196,0.011186874471604824,0.0037910097744315863
1772788793224404500,6.137404541015625,-0.0030866037122905254,0.0026466494891792536,0.003969707991927862
1772788793234470700,6.147470703125,-0.004898618441075087,0.007004646118730307,0.007122357841581106
1772788793244536600,6.15753662109375,-0.004683168604969978,0.016827981919050217,0.008464857004582882
1772788793254601700,6.167601806640625,-0.003641073824837804,0.01853267103433609,0.01366148330271244
1772788793264667600,6.177667724609375,-0.0015877765836194158,0.007277354132384062,0.008135423995554447
1772788793274732500,6.187732666015625,-0.0014434333425015211,0.00774607015773654,0.0024953819811344147
1772788793284798700,6.197798828125,-0.0007816377910785377,0.01624501682817936,-0.008956210687756538
1772788793294864600,6.20786474609375,-0.00026844663079828024,0.015443936921656132,-0.015280152671039104
1772788793304929800,6.2179296875,0.00030786142451688647,0.013062538579106331,-0.022460835054516792
1772788793314995700,6.22799560546875,0.0022423816844820976,0.0031430625822395086,-0.024654479697346687
1772788793325062000,6.238061767578125,0.0016700683627277613,-0.005839513149112463,-0.026748523116111755
1772788793335126500,6.24812646484375,0.0006769755273126066,-0.004947354551404715,-0.023136477917432785
1772788793345192700,6.258192626953125,0.0032234902027994394,-0.00185089698061347,-0.0167347714304924
1772788793355257900,6.2682578125,-0.00003808320252574049,-0.0005893575726076961,-0.012226305902004242
1772788793365323800,6.27832373046875,-0.0013752563390880823,0.0034442662727087736,-0.01061988715082407
1772788793375389700,6.2883896484375,-0.002156627830117941,0.014186925254762173,-0.007099454756826162
1772788793385454600,6.29845458984375,-0.0037800907157361507,0.020001403987407684,-0.005242166109383106
1772788793395520800,6.308520751953125,-0.001773398951627314,0.022344186902046204,-0.0023521038237959146
1772788793405586700,6.318586669921875,-0.002359027974307537,0.008175904862582684,-0.0024170849937945604
1772788793415651800,6.32865185546875,0.00014407701382879168,0.016212258487939835,-0.0011914982460439205
1772788793425717500,6.338717529296875,-0.0023044333793222904,0.005899434443563223,-0.009367136284708977
1772788793435783700,6.34878369140625,0.00035127095179632306,-0.008981244638562202,-0.011243865825235844
1772788793445848600,6.3588486328125,0.002217081608250737,-0.009928797371685505,-0.007239270955324173
1772788793455914800,6.368914794921875,0.001901230658404529,-0.010319748893380165,-0.0028597023338079453
1772788793465979600,6.378979736328125,0.0013148026773706079,-0.001976065570488572,0.002528405049815774
1772788793476045600,6.389045654296875,0.003722300287336111,-0.001255414099432528,0.0009475527331233025
1772788793486111700,6.39911181640625,0.002596848411485553,0.004355333745479584,0.00011424961121520028
1772788793496176600,6.4091767578125,0.0030216225422918797,0.007225422188639641,-0.005013933405280113
1772788793506242800,6.419242919921875,-0.0015456987312063575,0.013064403086900711,-0.007270163390785456
1772788793516308700,6.429308837890625,-0.003790477057918906,0.006648847833275795,-0.008655006997287273
1772788793526373600,6.43937353515625,-0.001020257011987269,0.004765193909406662,-0.006112221162766218
1772788793536439600,6.449439453125,-0.0029702235478907824,-0.006988401059061289,-0.004852545913308859
1772788793546504700,6.459504638671875,-0.004285558592528105,-0.001038366463035345,-0.0030458574183285236
1772788793556571000,6.46957080078125,-0.006128466222435236,0.013013004325330257,0.0031289479229599237
1772788793566636800,6.47963671875,-0.006339122075587511,0.021930066868662834,0.0049132658168673515
1772788793576701700,6.48970166015625,-0.009830792434513569,0.017370734363794327,-0.0007717840489931405
1772788793586767600,6.499767578125,-0.007507983595132828,0.001954760169610381,-0.0046695866622030735
1772788793596833800,6.509833740234375,-0.006160424090921879,-0.006696784868836403,-0.011651063337922096
1772788793606898700,6.519898681640625,-0.0067239492200315,-0.01140046026557684,-0.010790595784783363
1772788793616964600,6.529964599609375,-0.007209709845483303,-0.013732856139540672,-0.010068080388009548
1772788793627029800,6.54002978515625,-0.006779342889785767,-0.005288771353662014,-0.00293347192928195
1772788793637095700,6.550095703125,-0.007895207032561302,0.003060770919546485,-0.0015097459545359015
1772788793647161600,6.56016162109375,-0.01055969949811697,0.010362093336880207,0.007179083302617073
1772788793657226800,6.570226806640625,-0.013231117278337479,0.016228504478931427,0.01016714982688427
1772788793667292700,6.580292724609375,-0.012369850650429726,0.020728182047605515,0.012021775357425213
1772788793677358600,6.590358642578125,-0.012596751563251019,0.016102004796266556,0.008731972426176071
1772788793687423700,6.600423828125,-0.013134976848959923,0.010329869575798512,0.006990797817707062
1772788793697489700,6.61048974609375,-0.012233763001859188,0.007092264015227556,0.004995024763047695
1772788793707554600,6.620554443359375,-0.013606090098619461,0.009738381020724773,0.0011970909545198083
1772788793717620700,6.630620849609375,-0.011238539591431618,0.01058926060795784,-0.0036250948905944824
1772788793727686700,6.640686767578125,-0.009499762207269669,0.005419532768428326,-0.004805141594260931
1772788793737751800,6.650751708984375,-0.009563944302499294,0.003768372815102339,-0.00520674604922533
1772788793747817700,6.660817626953125,-0.009733321145176888,0.008114385418593884,-0.0014226606581360102
1772788793757884000,6.6708837890625,-0.011007376946508884,0.010994328185915947,0.0014777880860492587
1772788793767948500,6.680948486328125,-0.011524030938744545,0.012284629046916962,0.0041433461010456085
1772788793778014700,6.6910146484375,-0.010399910621345043,0.008168447762727737,0.0008764463127590716
1772788793788079600,6.70107958984375,-0.016996027901768684,0.005952697712928057,-0.0033252229914069176
1772788793798145800,6.711145751953125,-0.017470337450504303,0.004014182835817337,-0.0051809134893119335
1772788793808211500,6.72121142578125,-0.02069595642387867,-0.0002985403698403388,-0.0020240023732185364
1772788793818276600,6.731276611328125,-0.02047038823366165,-0.00452684098854661,0.00013555490295402706
1772788793828342800,6.7413427734375,-0.01991325430572033,0.001401089015416801,0.004326038993895054
1772788793838408700,6.75140869140625,-0.023859260603785515,0.006716758478432894,0.004656270612031221
1772788793848473900,6.761473876953125,-0.025056084617972374,0.0043771713972091675,0.011180749163031578
1772788793858539500,6.77153955078125,-0.02544730342924595,0.005376921966671944,0.007417968939989805
1772788793868604700,6.781604736328125,-0.028685174882411957,0.010615892708301544,0.006305566523224115
1772788793878670600,6.791670654296875,-0.02526940405368805,0.013463610783219337,0.009304818697273731
1772788793888736800,6.80173681640625,-0.02527499571442604,0.016768060624599457,0.009355684742331505
1772788793898801700,6.8118017578125,-0.021034978330135345,0.01299329660832882,0.009367136284708977
1772788793908867600,6.82186767578125,-0.016318252310156822,0.014330736361443996,0.010693390853703022
1772788793918933500,6.83193359375,-0.015019163489341736,0.019660253077745438,0.011751997284591198
1772788793928998700,6.84199853515625,-0.009486446157097816,0.015087073668837547,0.009605223312973976
1772788793939064800,6.85206494140625,-0.006783603690564632,0.018259165808558464,0.00860467366874218
1772788793949129500,6.86212939453125,-0.00782862864434719,0.022045647725462914,-0.00009507485083304346
1772788793959195600,6.872195556640625,-0.006283462047576904,0.021926337853074074,0.001796834752894938
1772788793969261600,6.882261474609375,-0.00939003936946392,0.00929416622966528,0.00003328951424919069
1772788793979326700,6.89232666015625,-0.007349791936576366,0.0062096924521028996,-0.0012737899087369442
1772788793989392600,6.902392578125,-0.005200620740652084,0.009840114042162895,-0.002822417998686433
1772788793999458800,6.912458740234375,-0.005819539539515972,0.01369477342814207,0.004570517223328352
1772788794009523700,6.922523681640625,-0.003943076357245445,0.016376575455069542,0.00854635052382946
1772788794019589600,6.932589599609375,-0.0020519655663520098,0.013974937610328197,0.00974477268755436
1772788794029654800,6.94265478515625,-0.006160690449178219,0.018819494172930717,0.012114453129470348
1772788794039720700,6.952720703125,-0.006915696896612644,0.021804098039865494,0.005651494022458792
1772788794049786600,6.96278662109375,-0.009317335672676563,0.0169755220413208,0.007850466296076775
1772788794059851500,6.9728515625,-0.012007393874228,-0.0005400890368036926,0.005514341406524181
1772788794069917700,6.982917724609375,-0.010693124495446682,-0.008656871505081654,0.008833705447614193
1772788794079983600,6.992983642578125,-0.013854030519723892,-0.011831625364720821,0.01378132589161396
1772788794090048800,7.003048828125,-0.016755810007452965,-0.007729026023298502,0.018731342628598213
1772788794100114700,7.01311474609375,-0.021272530779242516,-0.0018940401496365666,0.020682908594608307
1772788794110179600,7.0231796875,-0.022761238738894463,0.007141799200326204,0.021512748673558235
1772788794120245800,7.033245849609375,-0.02322090044617653,0.012945892289280891,0.012444418855011463
1772788794130311700,7.043311767578125,-0.022896261885762215,0.01883600652217865,0.007879228331148624
1772788794140380000,7.0533798828125,-0.017782459035515785,0.02352636493742466,0.010013485327363014
1772788794150445800,7.06344580078125,-0.019173428416252136,0.01649428717792034,0.00977646466344595
1772788794160511700,7.07351171875,-0.017720939591526985,0.014084394089877605,0.013516607694327831
1772788794170577000,7.083576904296875,-0.011402856558561325,0.006730074528604746,0.01583249308168888
1772788794180642800,7.093642822265625,-0.00894129741936922,0.0007246461464092135,0.018694858998060226
1772788794190708000,7.1037080078125,-0.005330849438905716,-0.0046416232362389565,0.015900935977697372
1772788794200773600,7.113773681640625,-0.004764395300298929,-0.002525475574657321,0.01793772168457508
1772788794210839800,7.12383984375,-0.004580636974424124,0.000883636821527034,0.017107347026467323
1772788794220904700,7.13390478515625,-0.002034388715401292,0.0041060615330934525,0.020250676199793816
1772788794230971000,7.143970947265625,-0.0020090886391699314,0.008504538796842098,0.01889672502875328
1772788794241036800,7.154036865234375,0.0017840516520664096,0.013172793202102184,0.010385795496404171
1772788794251101700,7.164101806640625,0.003971039317548275,0.020128438249230385,0.006087986286729574
1772788794261167900,7.17416796875,0.003079146845266223,0.022791864350438118,0.007285609841346741
1772788794271232800,7.184232666015625,0.004130030050873756,0.028240159153938293,0.005011270288378
1772788794281299000,7.194298828125,0.006533266510814428,0.02702629193663597,0.008197209797799587
1772788794291364900,7.20436474609375,0.010999654419720173,0.02261902578175068,0.0003701793903019279
1772788794301429800,7.2144296875,0.012491024099290371,0.029169602319598198,0.0038477350026369095
1772788794311495700,7.22449560546875,0.011743741109967232,0.02522173337638378,0.005274656694382429
1772788794321561900,7.234561767578125,0.014125140383839607,0.01531530637294054,0.007105580065399408
1772788794331627000,7.244626953125,0.014652445912361145,0.010979147627949715,0.004508465528488159
1772788794341693000,7.25469287109375,0.020079968497157097,0.011928564868867397,0.003478354774415493
1772788794351757800,7.2647578125,0.017600830644369125,0.010541324503719807,0.002028796123340726
1772788794361823700,7.27482373046875,0.017303623259067535,0.010180199518799782,0.002621882129460573
1772788794371890000,7.284889892578125,0.01762639731168747,0.01185346394777298,0.003585680155083537
1772788794381954800,7.294954833984375,0.01792760193347931,0.015360048040747643,0.005307147279381752
1772788794392020700,7.305020751953125,0.01503860391676426,0.021350828930735588,0.00980575941503048
1772788794402086700,7.315086669921875,0.013670538552105427,0.0261828675866127,0.006250971462577581
1772788794412151800,7.32515185546875,0.015993081033229828,0.02569284662604332,0.005879993550479412
1772788794422217700,7.3352177734375,0.014634336344897747,0.024927187711000443,0.00307568465359509
1772788794432283000,7.345282958984375,0.01287425309419632,0.02810007706284523,-0.005058674607425928
1772788794442348800,7.355348876953125,0.008853146806359291,0.02521267905831337,-0.015424762852489948
1772788794452414700,7.365414794921875,0.009184177033603191,0.021974807605147362,-0.019035743549466133
1772788794462480000,7.37547998046875,0.006659234408289194,0.019357452169060707,-0.028500350192189217
1772788794472545800,7.3855458984375,0.004548146389424801,0.01618882268667221,-0.028202610090374947
1772788794482610700,7.395610595703125,0.003063700394704938,0.015079616568982601,-0.017410682514309883
1772788794492676600,7.405676513671875,0.002055960241705179,0.009304285980761051,-0.01008166279643774
1772788794502742800,7.41574267578125,0.0030983216129243374,0.021347632631659508,-0.0049004824832081795
1772788794512808000,7.425807861328125,0.002758502261713147,0.02401532046496868,0.0036874127108603716
1772788794522873900,7.435873779296875,-0.000538491178303957,0.02526327781379223,0.011913117952644825
1772788794532940000,7.44593994140625,-0.0025859293527901173,0.018624549731612206,0.01136850193142891
1772788794543004700,7.456004638671875,-0.0016551546286791563,0.01411448698490858,0.012171179056167603
1772788794553070800,7.46607080078125,-0.0006612628931179643,0.008649947121739388,0.00615190202370286
1772788794563135700,7.4761357421875,-0.004590490832924843,0.005260542035102844,0.005307413637638092
1772788794573202000,7.486201904296875,-0.004475442226976156,0.01082654856145382,0.004994226153939962
1772788794583267800,7.496267822265625,-0.0061521683819592,0.014601846225559711,0.005316734779626131
1772788794593332700,7.506332763671875,-0.005787315312772989,0.02207707241177559,0.008332232013344765
1772788794603399000,7.51639892578125,-0.008986570872366428,0.024059530347585678,0.0027614317368716
1772788794613464800,7.52646484375,-0.007060306146740913,0.01780163310468197,0.006360427476465702
1772788794623530000,7.536530029296875,-0.008710401132702827,0.020429108291864395,0.0019297265680506825
1772788794633595600,7.546595703125,-0.008560464717447758,0.02093644067645073,-0.0011470235185697675
1772788794643660800,7.556660888671875,-0.0070366039872169495,0.01847168430685997,-0.003706853836774826
1772788794653726700,7.566726806640625,-0.006511695217341185,0.013598632998764515,-0.005902363918721676
1772788794663793000,7.57679296875,-0.006009955424815416,0.01583489030599594,-0.0014554174849763513
1772788794673858000,7.586858154296875,-0.004733502399176359,0.011394867673516273,0.004341219086199999
1772788794683923700,7.596923828125,-0.006384662352502346,0.009629989974200726,0.004019775427877903
1772788794693988900,7.60698876953125,-0.009378321468830109,0.005665875039994717,0.0017651431262493134
1772788794704054800,7.6170546875,-0.009612413123250008,0.0012386362068355083,0.00737376045435667
1772788794714121000,7.627120849609375,-0.01061882171779871,-0.004494350403547287,0.007111971732228994
1772788794724185600,7.637185546875,-0.010386594571173191,-0.005660016089677811,0.0103154880926013
1772788794734251800,7.647251708984375,-0.01155572198331356,-0.0037611823063343763,0.007296795025467873
1772788794744317700,7.657317626953125,-0.011268367059528828,0.0034557178150862455,0.006855242885649204
1772788794754382800,7.6673828125,-0.009563944302499294,0.005659749731421471,0.01082894578576088
1772788794764448800,7.67744873046875,-0.012746155261993408,0.008677111007273197,0.016993097960948944
1772788794774513700,7.687513671875,-0.012821788899600506,0.01750202849507332,0.018310030922293663
1772788794784579800,7.697579833984375,-0.010807107202708721,0.02623959258198738,0.02052924409508705
1772788794794645800,7.707645751953125,-0.010011621750891209,0.02641403116285801,0.01525778230279684
1772788794804711000,7.7177109375,-0.010224142111837864,0.024935709312558174,0.005197957623749971
1772788794814776800,7.72777685546875,-0.0084837656468153,0.022850187495350838,0.001847434788942337
1772788794824842800,7.7378427734375,-0.009007076732814312,0.016689764335751534,-0.0056863813661038876
1772788794834907600,7.74790771484375,-0.007674697786569595,0.006658168975263834,-0.007522364612668753
1772788794844973800,7.757973876953125,-0.006075202953070402,-0.006569485645741224,-0.010524014011025429
1772788794855039000,7.7680390625,-0.006157228257507086,-0.009551960043609142,-0.009424127638339996
1772788794865105000,7.77810498046875,-0.00552233075723052,-0.012336826883256435,-0.005767075344920158
1772788794875170800,7.7881708984375,-0.004847751930356026,-0.005108475685119629,-0.004550010897219181
1772788794885235700,7.798235595703125,-0.004347876645624638,0.010806309059262276,-0.007497064769268036
1772788794895302000,7.808302001953125,-0.006667756475508213,0.01985386572778225,-0.00791518110781908
1772788794905366800,7.81836669921875,-0.007097057998180389,0.023872043937444687,-0.00857271533459425
1772788794915432700,7.8284326171875,-0.007380950730293989,0.026942402124404907,-0.0062280683778226376
1772788794925498600,7.83849853515625,-0.003662645351141691,0.02357989363372326,-0.007900799624621868
1772788794935563800,7.848563720703125,-0.00250550196506083,0.014786669053137302,-0.0031678301747888327
1772788794945630000,7.8586298828125,-0.001668736687861383,0.01167716272175312,-0.0013512879377231002
1772788794955695900,7.86869580078125,-0.0004543352697510272,0.010548514313995838,-0.004831240512430668
1772788794965760800,7.8787607421875,-0.0008186557097360492,0.006383863277733326,-0.005863748025149107
1772788794975826700,7.88882666015625,-0.0016202671686187387,0.002877279184758663,-0.0011145329335704446
1772788794985891800,7.898891845703125,0.002636263146996498,0.012182097882032394,0.006727410946041346
1772788794995957800,7.908957763671875,0.001067927572876215,0.01071016862988472,0.014312094077467918
1772788795006024000,7.91902392578125,0.003052248852327466,0.007247793022543192,0.01055996585637331
1772788795016088800,7.9290888671875,0.0016735304379835725,0.009648898616433144,0.005204082932323217
1772788795026154800,7.93915478515625,0.006690925918519497,0.008608135394752026,-0.0025473134592175484
1772788795036220000,7.949219970703125,0.006512760184705257,0.009185775183141232,-0.008422513492405415
1772788795046285800,7.959285888671875,0.007516505662351847,0.010728278197348118,-0.011662514880299568
1772788795056352000,7.96935205078125,0.008914665319025517,0.01648629829287529,-0.009607353247702122
1772788795066416600,7.979416748046875,0.00896952673792839,0.026145849376916885,-0.009105880744755268
1772788795076482800,7.98948291015625,0.007015565410256386,0.03404691815376282,-0.006069876719266176
1772788795086548000,7.9995478515625,0.010118946433067322,0.031502265483140945,-0.008725314401090145
1772788795096614000,8.00961376953125,0.00809334684163332,0.01894865743815899,-0.010368485003709793
1772788795106678800,8.0196787109375,0.008710134774446487,0.007345797028392553,-0.010427074506878853
1772788795116744700,8.02974462890625,0.008469651453197002,0.0016144082183018327,-0.012807673774659634
1772788795126809900,8.039809814453125,0.008047273382544518,-0.0005339637864381075,-0.01200925838202238
1772788795136875800,8.049875732421874,0.002700977958738804,0.007464574184268713,-0.003960919566452503
1772788795146938400,8.0599384765625,0.0032682311721146107,0.016926253214478493,-0.0013909690314903855
1772788795157003500,8.07000341796875,0.00012889699428342283,0.020352942869067192,0.009030778892338276
1772788795167069400,8.0800693359375,-0.0025931198615580797,0.026823891326785088,0.013531255535781384
1772788795177135400,8.09013525390625,-0.0022269352339208126,0.029263081029057503,0.01709749363362789
1772788795187200300,8.1002001953125,-0.0032027175184339285,0.02418736182153225,0.01417440827935934
1772788795197266400,8.110266357421875,-0.000830107310321182,0.028026841580867767,0.010753312148153782
1772788795207331300,8.120331298828125,-0.0009350358741357923,0.023515978828072548,0.003979561384767294
1772788795217397500,8.1303974609375,0.0005358280031941831,0.01793798804283142,-0.002092445734888315
1772788795227463200,8.140463134765625,0.002371544949710369,0.014180533587932587,-0.003195260651409626
1772788795237528300,8.1505283203125,0.0038187066093087196,0.014368552714586258,-0.008233162574470043
1772788795247594200,8.16059423828125,0.0033132387325167656,0.011560249142348766,-0.00446798512712121
1772788795257659400,8.170659423828125,0.00458676228299737,0.007661914452910423,-0.0019715381786227226
1772788795267725600,8.1807255859375,0.0023284016642719507,0.013029515743255615,-0.0010910971323028207
1772788795277791200,8.190791259765625,0.001973402453586459,0.012740829028189182,0.003111104713752866
1772788795287856400,8.2008564453125,-0.0006359628750942647,0.014389592222869396,0.003992078360170126
1772788795297922300,8.21092236328125,-0.001948634977452457,0.0173781905323267,0.006682403851300478
1772788795307988500,8.220988525390625,-0.002177666872739792,0.011211109347641468,0.01028832420706749
1772788795318053000,8.23105322265625,-0.005549495108425617,0.018161160871386528,0.004676776938140392
1772788795328119300,8.241119384765625,-0.003982490859925747,0.019060509279370308,0.0016911072889342904
1772788795338184400,8.251184326171876,-0.008724515326321125,0.02082299068570137,0.0007017429452389479
1772788795348250400,8.26125048828125,-0.01040576957166195,0.017421068623661995,0.0014138722326606512
1772788795358316500,8.271316650390625,-0.01053573191165924,0.018859442323446274,0.0013638047967106104
1772788795368381200,8.281381103515624,-0.010783139616250992,0.017475130036473274,0.003998470026999712
1772788795378447400,8.291447265625,-0.010520551353693008,0.015674833208322525,0.00199310970492661
1772788795388512300,8.30151220703125,-0.010661698877811432,0.020482106134295464,0.0023997745011001825
1772788795398578400,8.311578369140625,-0.014168016612529755,0.018749453127384186,-0.0014908375451341271
1772788795408644400,8.321644287109375,-0.015183480456471443,0.017369668930768967,-0.003471430391073227
1772788795418709200,8.331709228515624,-0.015014901757240295,0.011234545148909092,-0.001910285442136228
1772788795428775400,8.341775390625,-0.011713913641870022,0.01206678245216608,0.0034322820138186216
1772788795438840300,8.35184033203125,-0.013945642858743668,0.012687299400568008,0.0027329358272254467
1772788795448906500,8.361906494140625,-0.013293701224029064,0.004166781902313232,-0.0022855247370898724
1772788795458972400,8.371972412109375,-0.010189520195126534,0.0023039006628096104,-0.00618252856656909
1772788795469037300,8.382037353515624,-0.01122043002396822,0.006029130425304174,-0.009058210067451
1772788795479103200,8.392103271484375,-0.010029731318354607,0.010464359074831009,-0.002264752285555005
1772788795489169400,8.40216943359375,-0.008804144337773323,0.018254904076457024,0.0007171892793849111
1772788795499234600,8.412234619140625,-0.010269948281347752,0.016980314627289772,0.001100684516131878
1772788795509300200,8.42230029296875,-0.008676046505570412,0.015512380748987198,0.0031108383554965258
1772788795519365400,8.432365478515624,-0.00894023198634386,0.014649782329797745,0.0060206083580851555
1772788795529431300,8.442431396484375,-0.009534915909171104,0.00592606607824564,0.0032892702147364616
1772788795539497500,8.45249755859375,-0.00752023421227932,0.0010833739070221782,0.0034171019215136766
1772788795549562400,8.462562255859375,-0.010743191465735435,-0.0022274679504334927,0.0018796591321006417
1772788795559628300,8.472628173828125,-0.010029198601841927,-0.0020807278342545033,-0.003025883575901389
1772788795569693400,8.482693359375,-0.007996940053999424,0.004550543148070574,-0.005604622419923544
1772788795579759400,8.49275927734375,-0.00592553336173296,-0.0026903252582997084,-0.00603392394259572
1772788795589825300,8.5028251953125,-0.004522047471255064,-0.00395585922524333,-0.005156146362423897
1772788795599890200,8.51289013671875,-0.005864014383405447,0.003953462466597557,-0.0031766186002641916
1772788795609956400,8.522956298828126,-0.0062368568032979965,0.015852732583880424,-0.0025398568250238895
1772788795620022300,8.533022216796875,-0.004001665860414505,0.015683887526392937,0.003727093804627657
1772788795630087400,8.54308740234375,-0.005139634478837252,0.014447915367782116,-0.001913214917294681
1772788795640153300,8.5531533203125,-0.000835966260638088,0.01284282747656107,-0.007821970619261265
1772788795650218200,8.56321826171875,-0.0014855111949145794,0.020602745935320854,-0.009618804790079594
1772788795660284200,8.5732841796875,-0.0022101574577391148,0.01449638418853283,-0.01560878660529852
1772788795670350300,8.583350341796875,-0.001333178486675024,0.00812077708542347,-0.008394017815589905
1772788795680416300,8.593416259765625,0.00024181502521969378,-0.0019803266040980816,-0.007318100426346064
1772788795690481400,8.6034814453125,0.0029640982393175364,-0.009447031654417515,-0.009958624839782715
1772788795700547600,8.613547607421875,0.0013526194961741567,-0.00871945545077324,-0.007216633763164282
1772788795710612200,8.6236123046875,0.0010484865633770823,-0.002092179376631975,-0.004084490239620209
1772788795720678400,8.633678466796875,-0.0000500674286740832,0.007700263988226652,-0.0017004283145070076
1772788795730744300,8.643744384765625,-0.0018471685471013188,0.014481737278401852,-0.0034618431236594915
1772788795740809500,8.6538095703125,-0.005178516730666161,0.015369368717074394,-0.007411044556647539
1772788795750875100,8.663875244140625,-0.006963367108255625,0.014133129268884659,-0.006346312817186117
1772788795760940300,8.673940185546876,-0.006442186422646046,0.009852631017565727,-0.012713397853076458
1772788795771006500,8.68400634765625,-0.008437160402536392,0.004960670135915279,-0.010705907829105854
1772788795781072400,8.694072265625,-0.00815113727003336,0.005736448802053928,-0.016273777931928635
1772788795791137500,8.704137451171874,-0.004972920753061771,-0.00015233281010296196,-0.013638846576213837
1772788795801203200,8.714203125,-0.00552392890676856,0.0003683151735458523,-0.012852149084210396
1772788795811268400,8.724268310546876,-0.007931692525744438,0.0038924762047827244,-0.01774384267628193
1772788795821334300,8.734334228515625,-0.005246693734079599,0.013614878058433533,-0.00959643442183733
1772788795831400400,8.744400390625,-0.007311708759516478,0.014455371536314487,-0.0062823970802128315
1772788795841465300,8.75446533203125,-0.0030775489285588264,0.00358860963024199,-0.002772883279249072
1772788795851531300,8.76453125,-0.0009616674506105483,-0.0021726067643612623,0.0019536949694156647
1772788795861597200,8.77459716796875,-0.00007137271313695237,0.0037438718136399984,0.011300325393676758
1772788795871662300,8.784662353515625,-0.00013502225920092314,0.0052200620993971825,0.013675332069396973
1772788795881728500,8.794728515625,-0.0008543420699425042,0.0005313006113283336,0.014284662902355194
1772788795891793200,8.804793212890624,-0.0007933556917123497,0.0032357405871152878,0.011651329696178436
1772788795901859300,8.814859375,0.0012476909905672073,0.011552526615560055,0.011782091110944748
1772788795911925200,8.82492529296875,-0.0014687333023175597,0.016117451712489128,0.007241401355713606
1772788795921990400,8.834990478515625,0.000472977408207953,0.020674118772149086,0.0013217268278822303
1772788795932056300,8.845056396484376,-0.002005360322073102,0.02394820936024189,-0.006429403554648161
1772788795942121200,8.855121337890624,-0.002567820018157363,0.020432304590940475,-0.013719274662435055
1772788795952187400,8.8651875,-0.0020010992884635925,0.014736602082848549,-0.023981232196092606
1772788795962253300,8.87525341796875,-0.00415373221039772,0.009337042458355427,-0.027099793776869774
1772788795972318500,8.885318359375,-0.004475708585232496,0.0005640574963763356,-0.028329109773039818
1772788795982384400,8.89538427734375,-0.002130262553691864,0.0014048174489289522,-0.02255777269601822
1772788795992449300,8.90544921875,-0.005417668726295233,0.008820655755698681,-0.012743491679430008
1772788796002515200,8.91551513671875,-0.005240834783762693,0.015873771160840988,-0.0026668894570320845
1772788796012581400,8.925581298828124,-0.006816094275563955,0.02310185693204403,0.006388390902429819
1772788796022646500,8.935646484375,-0.0065678879618644714,0.01998569257557392,0.006194246467202902
1772788796032712400,8.94571240234375,-0.006872553378343582,0.02304033748805523,0.0008503473363816738
1772788796042777300,8.95577734375,-0.00905474741011858,0.023962857201695442,-0.005508216097950935
1772788796052843300,8.96584326171875,-0.009017463773488998,0.020251475274562836,-0.011828696355223656
1772788796062909400,8.975909423828124,-0.004777178168296814,0.011831359006464481,-0.015813050791621208
1772788796072974300,8.985974365234375,-0.0035689021460711956,0.00791305024176836,-0.014851916581392288
1772788796083040300,8.996040283203126,-0.002261822810396552,0.008020642213523388,-0.014257232658565044
1772788796093105400,9.00610546875,-0.002683134749531746,0.006051767151802778,-0.01744317263364792
1772788796103171300,9.01617138671875,-0.0015880429418757558,0.006479470990598202,-0.015960590913891792
1772788796113237500,9.026237548828124,-0.006834736559540033,0.0015214639715850353,-0.014514227397739887
1772788796123302400,9.036302490234375,-0.0046879625879228115,-0.0011736550368368626,-0.017054351046681404
1772788796133368300,9.046368408203126,-0.0019651465117931366,-0.005206213798373938,-0.015000521205365658
1772788796143433500,9.05643359375,-0.003294330323114991,-0.002633866388350725,-0.014674816280603409
1772788796153499600,9.066499755859375,-0.006205431651324034,0.00035260253935121,-0.012838300317525864
1772788796163565600,9.076565673828124,-0.0065077003091573715,0.0073295519687235355,-0.01133920717984438
1772788796173630500,9.08663037109375,-0.007527158595621586,0.012112589552998543,-0.00803022924810648
1772788796183696400,9.0966962890625,-0.008284561336040497,0.012600214220583439,-0.004667456261813641
1772788796193762600,9.106762451171875,-0.011342935264110565,0.01720854826271534,-0.0008490157779306173
1772788796203827700,9.11682763671875,-0.014885738492012024,0.01684502698481083,-0.004882107023149729
1772788796213893600,9.1268935546875,-0.014249775558710098,0.009921073913574219,-0.009278186596930027
1772788796223958500,9.13695849609375,-0.01224707905203104,0.00897032581269741,-0.012112323194742203
1772788796234024400,9.1470244140625,-0.009088569320738316,0.005348159931600094,-0.016206933185458183
1772788796244090600,9.157090576171875,-0.006393184419721365,0.006742058787494898,-0.01848153956234455
1772788796254155500,9.167155517578125,-0.006432599388062954,0.008549279533326626,-0.019246399402618408
1772788796264221700,9.1772216796875,-0.006159092765301466,0.006421147845685482,-0.018996061757206917
1772788796274286600,9.18728662109375,-0.0014623417519032955,0.013532586395740509,-0.011357849463820457
1772788796284352500,9.1973525390625,0.0015563513152301311,0.016020245850086212,-0.003451723139733076
1772788796294418700,9.207418701171875,-0.001856223214417696,0.01678190939128399,0.00022130868455860764
1772788796304483600,9.217483642578125,0.00012623383372556418,0.014942730776965618,0.00005352953667170368
1772788796314549500,9.227549560546874,0.0016876452136784792,0.007178816944360733,-0.003605653764680028
1772788796324614400,9.237614501953125,-0.00008602010348113254,0.00669252360239625,-0.0067756143398582935
1772788796334680600,9.2476806640625,0.0003478088474366814,0.009223592467606068,-0.012955745682120323
1772788796344746500,9.25774658203125,0.0024719461798667908,0.01757153682410717,-0.0109842075034976
1772788796354811600,9.267811767578126,0.002010952914133668,0.01913028582930565,-0.017064204439520836
1772788796364877600,9.277877685546875,0.0007560714147984982,0.017471933737397194,-0.012985306791961193
1772788796374942500,9.2879423828125,0.0012892362428829074,0.009136772714555264,-0.012427641078829765
1772788796385008600,9.298008544921874,-0.0029640982393175364,0.007529022637754679,-0.015557121485471725
1772788796395074600,9.308074462890625,-0.00037470675306394696,0.012800750322639942,-0.012101669795811176
1772788796405139500,9.318139404296875,-0.0010953581659123302,0.015138738788664341,-0.006844324059784412
1772788796415205400,9.328205322265624,-0.004244545940309763,0.012191951274871826,-0.005058408249169588
1772788796425270500,9.3382705078125,-0.001323857344686985,0.01576085388660431,-0.0065172878094017506
1772788796435336700,9.348336669921874,-0.000026897927455138415,0.016826117411255836,-0.00618226220831275
1772788796445402600,9.358402587890625,0.00011584750609472394,0.025963157415390015,-0.006927148438990116
1772788796455467500,9.368467529296876,0.001139566651545465,0.01980539597570896,-0.0020684772171080112
1772788796465533400,9.378533447265625,-0.001106809708289802,0.008799084462225437,-0.0013366405619308352
1772788796475598600,9.3885986328125,-0.00020293287525419146,-0.00032676986302249134,-0.002272475278005004
1772788796485664500,9.39866455078125,-0.0005131911602802575,-0.00572925852611661,0.000764593540225178
1772788796495730700,9.408730712890625,-0.001564873498864472,-0.003057841444388032,-0.0014213290996849537
1772788796505795600,9.418795654296876,-0.004584631882607937,0.007466171868145466,-0.0036780918017029762
1772788796515861500,9.428861572265625,-0.002886333968490362,0.012236692942678928,-0.00842544250190258
1772788796525926700,9.4389267578125,-0.0041486723348498344,0.01985359936952591,-0.007016896735876799
1772788796535992600,9.44899267578125,-0.0038189729675650597,0.02654319442808628,-0.007480286993086338
1772788796546058800,9.459058837890625,-0.001981658162549138,0.02966308780014515,-0.004313522018492222
1772788796556123400,9.469123291015626,-0.004340153653174639,0.025970347225666046,-0.0024341291282325983
1772788796566189600,9.479189453125,-0.0015670040156692266,0.014475878328084946,-0.0028929917607456446
1772788796576254700,9.489254638671875,-0.000636495475191623,0.004887166898697615,-0.0036064526066184044
1772788796586320600,9.499320556640624,0.001725462032482028,0.0033012544736266136,-0.000036751622246811166
1772788796596386600,9.509386474609375,-0.00023089606838766485,0.007595335599035025,0.006301305256783962
1772788796606451500,9.519451416015626,-0.0008037420338951051,0.01131177693605423,0.013896108604967594
1772788796616517600,9.529517578125,-0.002246642718091607,0.016744358465075493,0.019938554614782333
1772788796626582500,9.53958251953125,-0.0037918086163699627,0.017547834664583206,0.023334084078669548
1772788796636648700,9.549648681640624,-0.002793123247101903,0.01512861903756857,0.025974875316023827
1772788796646714400,9.55971435546875,-0.005411010701209307,0.01860058307647705,0.028384236618876457
1772788796656779500,9.569779541015626,-0.006721019744873047,0.013514743186533451,0.029618611559271812
1772788796666845400,9.579845458984375,-0.007846205495297909,0.006975351367145777,0.025067003443837166
1772788796676910600,9.58991064453125,-0.009077384136617184,0.006875749211758375,0.014139520935714245
1772788796686976800,9.599976806640624,-0.004878378473222256,0.008643289096653461,0.00498170917853713
1772788796697042400,9.61004248046875,-0.007228351663798094,0.01980086974799633,0.002636529505252838
1772788796707107600,9.620107666015626,-0.005952964071184397,0.028375182300806046,0.004012318328022957
1772788796717173500,9.630173583984375,-0.004026965703815222,0.03038746677339077,0.0031904669012874365
1772788796727238700,9.64023876953125,-0.0024562333710491657,0.023124493658542633,0.0030839405953884125
1772788796737304600,9.6503046875,0.0013853764394298196,0.010430536232888699,0.005920473486185074
1772788796747370500,9.66037060546875,0.0008258462767116725,0.0023060310631990433,0.007949269376695156
1772788796757435600,9.670435546875,0.0027145601343363523,-0.0028189560398459435,0.007707986980676651
1772788796767501600,9.68050146484375,-0.000290018244413659,-0.0026373283471912146,0.005800098646432161
1772788796777566700,9.690566650390625,-0.0023252058308571577,0.00695005152374506,0.011663313955068588
1772788796787632400,9.70063232421875,-0.0000013315805063029984,0.016594955697655678,0.012554939836263657
1772788796797698600,9.710698486328125,-0.0019057580502703786,0.028714468702673912,0.014673750847578049
1772788796807763500,9.720763427734376,-0.0020999026019126177,0.02943192422389984,0.011502991430461407
1772788796817829600,9.73082958984375,0.0024346618447452784,0.025600168853998184,0.010554106906056404
1772788796827894500,9.74089453125,0.0012639362830668688,0.021882129833102226,0.0062184808775782585
1772788796837960400,9.75096044921875,0.0018186726374551654,0.023846210911870003,0.004776113200932741
1772788796848026600,9.761026611328125,0.0016919062472879887,0.016618924215435982,-0.0012623383663594723
1772788796858091500,9.771091552734376,0.0029547770973294973,0.016018914058804512,-0.0014295848086476326
1772788796868157700,9.78115771484375,0.0023547669406980276,0.012522183358669281,0.0012681973166763783
1772788796878222600,9.79122265625,-0.0007115966291166842,0.009064335376024246,0.003817375050857663
1772788796888288500,9.80128857421875,-0.0000125168571685208,0.004864796530455351,0.0032871398143470287
1772788796898354400,9.8113544921875,-0.0028820729348808527,0.0037617150228470564,0.005625395104289055
1772788796908419600,9.821419677734376,-0.003724963404238224,0.0054938350804150105,0.003412574529647827
1772788796918485800,9.83148583984375,-0.005845372099429369,0.0036799560766667128,0.006089850328862667
1772788796928550400,9.84155029296875,-0.005313006229698658,0.012143481522798538,0.008442752994596958
1772788796938616600,9.851616455078124,-0.006542587652802467,0.012094479985535145,0.007580687757581472
1772788796948682500,9.8616826171875,-0.01011095754802227,0.009708553552627563,0.00777696305885911
1772788796958747600,9.87174755859375,-0.0073199644684791565,-0.0006151901907287538,0.004620051942765713
1772788796968813600,9.8818134765625,-0.00634844321757555,0.003163036424666643,0.0026581010315567255
1772788796978878500,9.89187841796875,-0.0062309978529810905,0.011293134652078152,0.004450674634426832
1772788796988944600,9.901944580078125,-0.007029147353023291,0.017181649804115295,-0.003742540255188942
1772788796999010600,9.912010498046875,-0.003485811408609152,0.019039470702409744,-0.004013916477560997
1772788797009075700,9.92207568359375,-0.005655488930642605,0.017402958124876022,-0.00566907087340951
1772788797019141600,9.9321416015625,-0.00549170421436429,0.015981363132596016,-0.011212174780666828
1772788797029206500,9.94220654296875,-0.0038543930277228355,0.010056628845632076,-0.0065654912032186985
1772788797039272400,9.9522724609375,-0.0020066918805241585,0.005607285536825657,-0.004536428488790989
1772788797049338600,9.962338623046875,-0.0038040592335164547,0.01019591186195612,-0.004546015989035368
1772788797059403800,9.97240380859375,-0.005392901133745909,0.0030626351945102215,-0.0007329019135795534
1772788797069469400,9.982469482421875,-0.0009499495499767363,0.0014141384745016694,-0.0030626351945102215
1772788797079534600,9.99253466796875,-0.003353186184540391,0.003762513864785433,-0.0011973571963608265
1772788797089600500,10.0026005859375,-0.004326837603002787,0.0025949841365218163,0.002013349672779441
1772788797099666700,10.012666748046875,-0.0031004520133137703,0.0011544802691787481,0.006742591038346291
1772788797109731600,10.022731689453124,-0.005341236013919115,0.0033047166652977467,0.007399593014270067
1772788797119797500,10.032797607421875,-0.00595536082983017,-0.0028764803428202868,0.007822769694030285
1772788797129862700,10.042862548828126,-0.009215869009494781,-0.004050135146826506,0.010002566501498222
1772788797139928600,10.052928466796875,-0.009925334714353085,0.0028162929229438305,0.011156780645251274
1772788797149996800,10.062996826171876,-0.011037470772862434,0.007734085898846388,0.006930876523256302
1772788797160062700,10.073062744140625,-0.012489426881074905,0.003970507066696882,0.00424294825643301
1772788797170129000,10.08312890625,-0.00962945818901062,0.005898102652281523,-0.00012223910016473383
1772788797180193800,10.09319384765625,-0.007416104432195425,0.001490571303293109,-0.0017947042360901833
1772788797190259700,10.103259765625,-0.00726510351523757,-0.00549330236390233,-0.0031465247739106417
1772788797200324900,10.113324951171874,-0.008959938772022724,-0.0073380740359425545,-0.003367567202076316
1772788797210390800,10.123390869140625,-0.010424410924315453,-0.00005912217602599412,-0.006053897552192211
1772788797220457000,10.13345703125,-0.010291253216564655,0.0096246637403965,-0.008287491276860237
1772788797230521900,10.14352197265625,-0.011684618890285492,0.015327290631830692,-0.01191125437617302
1772788797240587800,10.153587890625,-0.01269608736038208,0.016221048310399055,-0.009412676095962524
1772788797250652700,10.163652587890626,-0.009193498641252518,0.009887252002954483,-0.010449711233377457
1772788797260718800,10.17371875,-0.007345797028392553,0.010863300412893295,-0.006746852304786444
1772788797270784800,10.18378466796875,-0.007703726179897785,0.014854580163955688,-0.006868292577564716
1772788797280849700,10.193849609375,-0.006013417616486549,0.016501478850841522,-0.008162855170667171
1772788797290915800,10.203915771484375,-0.0029345371294766665,0.016879115253686905,-0.009051818400621414
1772788797300980700,10.213980712890624,-0.0037982002831995487,0.021811289712786674,-0.010016947984695435
1772788797311047000,10.224046875,-0.0014831144362688065,0.020051471889019012,-0.005983057431876659
1772788797321112800,10.23411279296875,0.003299656556919217,0.014128069393336773,-0.0051897019147872925
1772788797331177700,10.244177734375,0.0023989754263311625,0.0008820389630272985,0.0002364887041039765
1772788797341243600,10.25424365234375,0.004613660275936127,-0.01284575741738081,0.00162399560213089
1772788797351308800,10.264308837890624,0.0024559672456234694,-0.01896357163786888,0.004947354551404715
1772788797361375000,10.274375,-0.000990695902146399,-0.01131071150302887,0.004991828929632902
1772788797371441000,10.28444091796875,-0.007028880994766951,-0.0035955337807536125,0.0033454629592597485
1772788797381505800,10.294505859375,-0.009786850772798061,0.0054941014386713505,0.002767290687188506
1772788797391571700,10.30457177734375,-0.013856426812708378,0.01423379685729742,-0.005948969163000584
1772788797401636900,10.314636962890624,-0.014785603620111942,0.022884277626872063,-0.006232862360775471
1772788797411702800,10.324702880859375,-0.015117433853447437,0.025682726874947548,-0.008526110090315342
1772788797421769000,10.33476904296875,-0.011718708090484142,0.025562085211277008,-0.007349259220063686
1772788797431833900,10.344833740234375,-0.0075937374494969845,0.020298080518841743,-0.013029249384999275
1772788797441899800,10.354899658203125,-0.006075735669583082,0.016022909432649612,-0.016287893056869507
1772788797451965000,10.36496484375,-0.004422445315867662,0.006863498594611883,-0.01335868239402771
1772788797462030800,10.37503076171875,-0.0012428972404450178,-0.00006870955257909372,-0.008143413811922073
1772788797472095700,10.385095703125,0.0009137305896729231,0.0031462584156543016,-0.002895122393965721
1772788797482161700,10.39516162109375,-0.0010791128734126687,0.004837632179260254,0.0036338833160698414
1772788797492227800,10.405227783203125,-0.0001179780374513939,0.011293401010334492,0.009571933187544346
1772788797502293000,10.41529296875,0.0003352919884491712,0.014185327105224133,0.01552170142531395
1772788797512359000,10.42535888671875,0.00034727618913166225,0.016574716195464134,0.017642643302679062
1772788797522423800,10.435423828125,-0.0004623247659765184,0.016570188105106354,0.011487012729048729
1772788797532489700,10.44548974609375,-0.0017323862994089723,0.014791728928685188,0.01136823557317257
1772788797542556000,10.455555908203126,-0.0024506407789885998,0.010808438993990421,0.013188772834837437
1772788797552620800,10.465620849609374,-0.0001155811914941296,0.01194241363555193,0.011018030345439911
1772788797562687000,10.47568701171875,0.0005451490869745612,0.013770673424005508,0.0060150157660245895
1772788797572752000,10.485751953125,0.0010900318156927824,0.02635916881263256,0.00887844618409872
1772788797582817800,10.49581787109375,0.0014207963831722736,0.028730181977152824,0.00350472005084157
1772788797592883700,10.5058837890625,0.0025965820532292128,0.019694076851010323,-0.0013526194961741567
1772788797602948900,10.515948974609374,0.0011856392957270145,0.01324017159640789,-0.0008932242053560913
1772788797613014800,10.526014892578125,0.005115133244544268,0.006297843065112829,-0.0006191849242895842
1772788797623079700,10.53607958984375,0.004341484978795052,0.004920722916722298,-0.0031760858837515116
1772788797633145900,10.546145751953125,0.004735366906970739,0.004030161537230015,-0.0013070794520899653
1772788797643211800,10.556211669921876,0.0072866748087108135,0.006885869428515434,0.008537295274436474
1772788797653277000,10.56627685546875,0.002567820018157363,0.016446085646748543,0.019416308030486107
1772788797663342600,10.576342529296875,-0.0016429040115326643,0.03501923754811287,0.029567213729023933
1772788797673407700,10.58640771484375,-0.004011519718915224,0.03286527097225189,0.025123462080955505
1772788797683474000,10.596473876953125,-0.0017443705582991242,0.02539217472076416,0.02515728399157524
1772788797693538800,10.606538818359375,-0.0033332123421132565,0.020663999021053314,0.018151840195059776
1772788797703604700,10.616604736328124,-0.0029502499382942915,0.02124057337641716,0.012065451592206955
1772788797713670700,10.626670654296875,0.000045273736759554595,0.021495705470442772,0.0004649879119824618
1772788797723735800,10.63673583984375,-0.002656503114849329,0.015026086941361427,-0.007760983891785145
1772788797733801700,10.6468017578125,0.0004828310920856893,0.02329200692474842,-0.010488061234354973
1772788797743867000,10.656866943359375,-0.0034847462084144354,0.02159450761973858,-0.011538145132362843
1772788797753932800,10.666932861328124,-0.00512818293645978,0.016938770189881325,-0.01176398154348135
1772788797763998700,10.676998779296875,-0.0070432620123028755,0.010899519547820091,-0.01363192219287157
1772788797774063900,10.68706396484375,-0.004948419518768787,0.003153448924422264,-0.014602112583816051
1772788797784129800,10.6971298828125,-0.007183344569057226,0.005364405456930399,-0.010647051967680454
1772788797794194700,10.707194580078125,-0.006494384724646807,0.0076512619853019714,-0.007197725586593151
1772788797804260600,10.717260498046874,-0.003739610780030489,0.006670952308923006,-0.0007350324303843081
1772788797814326800,10.727326904296875,-0.0030836742371320724,0.011726696975529194,0.006204366218298674
1772788797824392000,10.737391845703126,-0.0026559706311672926,0.020195549353957176,0.012927250005304813
1772788797834457900,10.747457763671875,-0.00196434766985476,0.019230153411626816,0.015123825520277023
1772788797844522800,10.757522705078125,-0.003570500062778592,0.01817847043275833,0.012777048163115978
1772788797854588700,10.767588623046874,-0.003073820611461997,0.01594407856464386,0.008491755463182926
1772788797864653800,10.77765380859375,-0.0022543659433722496,0.015675632283091545,0.0102553004398942
1772788797874719700,10.7877197265625,-0.00512791657820344,0.019167834892868996,0.0027427896857261658
1772788797884786000,10.797785888671875,-0.005904494319111109,0.023305056616663933,-0.0007475492893718183
1772788797894850800,10.807850830078126,-0.0031073763966560364,0.0275671798735857,-0.0034285534638911486
1772788797904916700,10.817916748046875,-0.004605670925229788,0.026464363560080528,-0.009274192154407501
1772788797914982000,10.82798193359375,-0.006119145080447197,0.00697881355881691,-0.009705890901386738
1772788797925047800,10.8380478515625,-0.007385478354990482,-0.018547585234045982,-0.01209607720375061
1772788797935114000,10.848114013671875,-0.006309827324002981,-0.008038219064474106,-0.0029550434555858374
1772788797945178600,10.8581787109375,-0.012064386159181595,0.07164489477872849,0.04728629067540169
1772788797955244800,10.868244873046875,-0.020606208592653275,0.08586883544921875,0.08346426486968994
1772788797965310000,10.87831005859375,-0.01992763578891754,0.04700372740626335,0.07819920033216476
1772788797975376000,10.8883759765625,-0.00908564031124115,0.007901065982878208,0.038958050310611725
1772788797985440800,10.898440673828125,-0.0048767803236842155,-0.017720939591526985,0.004650145769119263
1772788797995506700,10.908506591796876,-0.0017736653098836541,-0.03881450742483139,-0.0040946099907159805
1772788798005572900,10.91857275390625,-0.0026847326662391424,-0.05229329690337181,-0.004677576012909412
1772788798015637800,10.9286376953125,-0.0028868666850030422,-0.053224071860313416,0.0000029294772048160667
1772788798025704000,10.938703857421874,-0.009563677944242954,-0.04616296663880348,-0.009637447074055672
1772788798035768800,10.948768798828125,-0.015517706982791424,-0.023740217089653015,0.002843723399564624
1772788798045834800,10.958834716796876,-0.021515412256121635,0.01136876828968525,0.023570572957396507
1772788798055901000,10.96890087890625,-0.024953553453087807,0.02954537607729435,0.017783790826797485
1772788798065965800,10.9789658203125,-0.026007631793618202,0.017853032797574997,-0.004522313829511404
