time,seconds_elapsed,z,y,x
1772797337110514700,0.0935146484375,0.062190357595682144,-0.13510698080062866,0.1944912075996399
1772797337120540700,0.103540771484375,0.11140504479408264,-0.1513035148382187,0.27322515845298767
1772797337130566700,0.113566650390625,0.1445658653974533,-0.11278188228607178,0.37227532267570496
1772797337140592600,0.123592529296875,0.18037046492099762,-0.016720065847039223,0.4613144099712372
1772797337150619000,0.133618896484375,0.23700584471225739,-0.0015896456316113472,0.5212347507476807
1772797337160644900,0.143644775390625,0.28230249881744385,-0.029455097392201424,0.560366690158844
1772797337170670800,0.1536708984375,0.3017350733280182,-0.08671551942825317,0.5795944333076477
1772797337180696800,0.16369677734375,0.29461511969566345,-0.11345046013593674,0.5523143410682678
1772797337190721800,0.1737216796875,0.28929293155670166,-0.11419282108545303,0.4902312457561493
1772797337200747800,0.183747802734375,0.2967580258846283,-0.11396272480487823,0.4117414951324463
1772797337210773800,0.193773681640625,0.3079979121685028,-0.12076576054096222,0.33375218510627747
1772797337220799700,0.2037998046875,0.30386096239089966,-0.11807356774806976,0.28200721740722656
1772797337230825700,0.21382568359375,0.3084188997745514,-0.07869469374418259,0.2614910304546356
1772797337240851700,0.223851806640625,0.3041575849056244,-0.08593795448541641,0.24825191497802734
1772797337250877700,0.233877685546875,0.3248226046562195,-0.07114432007074356,0.236528679728508
1772797337260903700,0.243903564453125,0.35626548528671265,-0.03723561763763428,0.22016729414463043
1772797337270929700,0.2539296875,0.40669092535972595,0.02230300009250641,0.22545580565929413
1772797337280956000,0.263955810546875,0.48398783802986145,0.033886417746543884,0.2423279881477356
1772797337290980600,0.273980712890625,0.5470335483551025,0.020584022626280785,0.27729663252830505
1772797337301006800,0.2840068359375,0.5683695077896118,-0.010210109874606133,0.3152535855770111
1772797337311032800,0.29403271484375,0.5664986968040466,-0.027631836012005806,0.3353714048862457
1772797337321058800,0.304058837890625,0.5581233501434326,-0.042367640882730484,0.32971298694610596
1772797337331084800,0.314084716796875,0.5918356776237488,-0.1900358349084854,0.3021574914455414
1772797337341110800,0.32411083984375,0.6061754822731018,-0.19044248759746552,0.18779577314853668
1772797337351136800,0.33413671875,0.5993717908859253,-0.10735101252794266,0.07664737850427628
1772797337361161700,0.34416162109375,0.5998402237892151,-0.014267402701079845,-0.020779846236109734
1772797337371187700,0.354187744140625,0.6611557602882385,-0.0037792338989675045,-0.09404604136943817
1772797337381212700,0.364212646484375,0.7551155090332031,-0.0464412122964859,-0.14352810382843018
1772797337391238700,0.37423876953125,0.8928531408309937,-0.028704838827252388,-0.14668874442577362
1772797337401264600,0.3842646484375,0.9915506839752197,0.005201461724936962,-0.12285584211349487
1772797337411290600,0.39429052734375,1.090557336807251,0.07740273326635361,-0.11889810860157013
1772797337421316600,0.404316650390625,1.1666170358657837,0.11224806308746338,-0.1213972195982933
1772797337431342600,0.414342529296875,1.2158820629119873,0.14668643474578857,-0.10756717622280121
1772797337441368600,0.42436865234375,1.220680594444275,0.1568748950958252,-0.09231951087713242
1772797337451394800,0.434394775390625,1.1924302577972412,0.12590162456035614,-0.05670265480875969
1772797337461420800,0.4444208984375,1.1500886678695679,0.15322645008563995,0.008385535329580307
1772797337471446800,0.45444677734375,1.125016689300537,0.1928846687078476,0.0482996329665184
1772797337481472800,0.46447265625,1.1567034721374512,0.240897998213768,0.05983724445104599
1772797337491497700,0.474497802734375,1.221055269241333,0.27842265367507935,0.05703212693333626
1772797337501523700,0.484523681640625,1.3005505800247192,0.3535459041595459,0.019065305590629578
1772797337511549700,0.4945498046875,1.3632889986038208,0.4545738399028778,-0.04616160690784454
1772797337521575700,0.50457568359375,1.3043467998504639,0.5071134567260742,-0.1339987814426422
1772797337531601700,0.5146015625,1.163423776626587,0.5026677846908569,-0.13513410091400146
1772797337541627600,0.524627685546875,1.0728914737701416,0.42334818840026855,-0.010404950007796288
1772797337551653600,0.534653564453125,1.040071725845337,0.25919392704963684,0.22901351749897003
1772797337561679600,0.5446796875,0.9511626958847046,0.3598417043685913,0.49497541785240173
1772797337571705600,0.55470556640625,0.9134181141853333,0.3574047088623047,0.661033570766449
1772797337581731800,0.56473193359375,0.8513603806495667,0.21102593839168549,0.8453347086906433
1772797337591756500,0.574756591796875,0.821113109588623,-0.1234440729022026,1.0449999570846558
1772797337601782800,0.58478271484375,0.8045005798339844,-0.5441346168518066,1.1563246250152588
1772797337611808800,0.594808837890625,0.8307402729988098,-0.6900840997695923,0.9953255653381348
1772797337621834800,0.604834716796875,0.9267860651016235,-0.4575943946838379,0.4841163754463196
1772797337631860700,0.61486083984375,1.134260654449463,-0.0668766126036644,-0.03307320550084114
1772797337641886700,0.62488671875,1.313963532447815,0.3876301646232605,-0.3696219325065613
1772797337651912700,0.63491259765625,1.4644793272018433,0.8128865361213684,-0.4675982892513275
1772797337661938700,0.644938720703125,1.709256649017334,1.0992263555526733,-0.41549569368362427
1772797337671964700,0.654964599609375,2.0763158798217773,1.179384708404541,-0.2845430076122284
1772797337681990700,0.66499072265625,2.4519944190979004,1.1159701347351074,-0.1589651107788086
1772797337692015600,0.675015625,2.5550787448883057,0.9350177049636841,0.0172450952231884
1772797337702041600,0.68504150390625,2.497929096221924,0.7798420190811157,0.17160964012145996
1772797337712067600,0.695067626953125,2.3330795764923096,0.6808754801750183,0.30182117223739624
1772797337722093600,0.705093505859375,2.1296403408050537,0.500910222530365,0.4345696270465851
1772797337732119800,0.715119873046875,1.9130123853683472,0.31140637397766113,0.6613054871559143
1772797337742145800,0.725145751953125,1.7283350229263306,0.2530754506587982,0.9498456716537476
1772797337752171800,0.735171875,1.5683071613311768,0.23927420377731323,1.2135729789733887
1772797337762197800,0.74519775390625,1.4563257694244385,0.2070041447877884,1.4250562191009521
1772797337772223700,0.7552236328125,1.3671140670776367,0.2866055965423584,1.5103850364685059
1772797337782249700,0.765249755859375,1.308762550354004,0.3651107847690582,1.4888427257537842
1772797337792275700,0.775275634765625,1.2674026489257812,0.37046077847480774,1.3745815753936768
1772797337802300700,0.78530078125,1.1954896450042725,0.3108730912208557,1.283866286277771
1772797337812326700,0.79532666015625,1.1262996196746826,0.1257479041814804,1.2514302730560303
1772797337822352600,0.8053525390625,1.055812954902649,-0.11761147528886795,1.2251452207565308
1772797337832378600,0.815378662109375,1.0249727964401245,-0.3001781105995178,1.128502368927002
1772797337842404600,0.825404541015625,1.0220947265625,-0.2856215238571167,0.931476891040802
1772797337852430600,0.8354306640625,1.0335688591003418,0.05931038036942482,0.572032630443573
1772797337862456800,0.845456787109375,1.0465914011001587,0.30425381660461426,0.12371400743722916
1772797337872482800,0.85548291015625,1.1412363052368164,0.5851171016693115,-0.20508302748203278
1772797337882508800,0.8655087890625,1.2233692407608032,0.7270766496658325,-0.3788609504699707
1772797337892534800,0.87553466796875,1.2189539670944214,0.6331302523612976,-0.44920676946640015
1772797337902560800,0.885560791015625,1.1737086772918701,0.38598382472991943,-0.49005913734436035
1772797337912586800,0.895586669921875,1.1462805271148682,0.12876030802726746,-0.5883933901786804
1772797337922611700,0.90561181640625,1.1749159097671509,0.07889155298471451,-0.7580596208572388
1772797337932637700,0.9156376953125,1.2741292715072632,0.1446566879749298,-0.941830039024353
1772797337942663700,0.92566357421875,1.387277364730835,0.08537818491458893,-0.9142495393753052
1772797337952689700,0.935689697265625,1.4927241802215576,-0.04050331190228462,-0.8248195052146912
1772797337962715600,0.945715576171875,1.5880576372146606,-0.23347996175289154,-0.7902452945709229
1772797337972741600,0.95574169921875,1.5590208768844604,-0.2738182246685028,-0.7773990035057068
1772797337982767600,0.965767578125,1.4061721563339233,-0.19797192513942719,-0.7761321663856506
1772797337992793900,0.9757939453125,1.2197908163070679,-0.11229401081800461,-0.6898979544639587
1772797338002819800,0.98581982421875,1.0780727863311768,-0.022899415343999863,-0.5311604738235474
1772797338012845800,0.995845703125,1.0305020809173584,-0.10776744782924652,-0.35442566871643066
1772797338022871800,1.005871826171875,0.9415608048439026,-0.3115951418876648,-0.15008850395679474
1772797338032897800,1.015897705078125,0.7163931727409363,-0.7095803022384644,0.012178153730928898
1772797338042922800,1.0259228515625,0.4915562868118286,-1.0509694814682007,0.06740865111351013
1772797338052948700,1.03594873046875,0.412192702293396,-1.1116306781768799,0.07578379660844803
1772797338062974700,1.045974609375,0.40725013613700867,-1.0527777671813965,0.040813297033309937
1772797338073000700,1.056000732421875,0.41593804955482483,-0.9687826633453369,0.008296608924865723
1772797338083026700,1.066026611328125,0.4166589677333832,-0.7947070002555847,0.06678814440965652
1772797338093052700,1.076052734375,0.407090961933136,-0.6378578543663025,0.18466393649578094
1772797338103078700,1.08607861328125,0.4034530818462372,-0.5723704695701599,0.2510157823562622
1772797338113104600,1.096104736328125,0.42258840799331665,-0.544962465763092,0.22780396044254303
1772797338123131000,1.106130859375,0.441772997379303,-0.48398512601852417,0.18603946268558502
1772797338133156900,1.116156982421875,0.4544386565685272,-0.410818487405777,0.17461024224758148
1772797338143182800,1.126182861328125,0.5006301403045654,-0.3893805742263794,0.12222292274236679
1772797338153208800,1.136208740234375,0.5537627339363098,-0.5619106292724609,-0.01122700423002243
1772797338163233800,1.14623388671875,0.6242699027061462,-0.978374183177948,-0.17944343388080597
1772797338173259800,1.156259765625,0.5960556864738464,-1.3411921262741089,-0.4070523679256439
1772797338183285800,1.16628564453125,0.6242311596870422,-1.574586272239685,-0.46180564165115356
1772797338193311700,1.176311767578125,0.6536877751350403,-1.5468900203704834,-0.2517748773097992
1772797338203337700,1.186337646484375,0.5870738625526428,-1.319387435913086,-0.08122818917036057
1772797338213363700,1.19636376953125,0.509772777557373,-1.1130863428115845,0.055036429315805435
1772797338223389700,1.2063896484375,0.5156128406524658,-0.9685986638069153,0.2113432139158249
1772797338233415700,1.216415771484375,0.5606904625892639,-0.9249075651168823,0.2785797715187073
1772797338243441700,1.226441650390625,0.5404437780380249,-0.942430853843689,0.25157612562179565
1772797338253468000,1.236468017578125,0.42757683992385864,-0.9992344975471497,0.1580352634191513
1772797338263494000,1.246493896484375,0.27259019017219543,-1.0283063650131226,0.037204448133707047
1772797338273519900,1.256519775390625,0.14920751750469208,-1.038596749305725,-0.09486597031354904
1772797338283545900,1.2665458984375,0.08344341814517975,-0.9326626062393188,-0.17907832562923431
1772797338293570800,1.27657080078125,0.1485477089881897,-0.5404446721076965,-0.08663522452116013
1772797338303596800,1.2865966796875,0.2979387938976288,-0.36739882826805115,0.04302743449807167
1772797338313622800,1.296622802734375,0.4574231803417206,-0.21461421251296997,0.2012447863817215
1772797338323648800,1.306648681640625,0.4857530891895294,-0.1934516727924347,0.16336689889431
1772797338333674800,1.3166748046875,0.42480191588401794,-0.1345529854297638,-0.012395055964589119
1772797338343700700,1.32670068359375,0.3708081841468811,-0.021114574745297432,-0.20285527408123016
1772797338353727500,1.3367275390625,0.3439393937587738,-0.023349376395344734,-0.4217471480369568
1772797338363753500,1.34675341796875,0.2285832315683365,0.00922774150967598,-0.5399947166442871
1772797338373779500,1.356779541015625,0.17876243591308594,0.02281833626329899,-0.4193556606769562
1772797338383805400,1.366805419921875,0.35599392652511597,0.10562453418970108,-0.16235128045082092
1772797338393831400,1.37683154296875,0.5212846994400024,0.2767083942890167,0.08231014758348465
1772797338403857700,1.386857666015625,0.6337670087814331,0.4270251989364624,0.20384855568408966
1772797338413883600,1.396883544921875,0.7853413820266724,0.5682002305984497,0.2694520950317383
1772797338423909600,1.40690966796875,0.9823447465896606,0.6463102102279663,0.24150459468364716
1772797338433934600,1.4169345703125,1.0771665573120117,0.7883701324462891,0.2518259584903717
1772797338443960600,1.426960693359375,1.1081846952438354,0.8448318243026733,0.2989159822463989
1772797338453986600,1.436986572265625,1.1001098155975342,0.8581381440162659,0.39856263995170593
1772797338464012500,1.447012451171875,1.1119341850280762,0.7802401781082153,0.4852527976036072
1772797338474038500,1.45703857421875,1.159654974937439,0.656714141368866,0.5245479941368103
1772797338484064500,1.467064453125,1.2058666944503784,0.5058162212371826,0.5249722599983215
1772797338494090500,1.477090576171875,1.2281910181045532,0.3177780508995056,0.47653016448020935
1772797338504116500,1.487116455078125,1.2420439720153809,0.15704375505447388,0.42965054512023926
1772797338514142500,1.497142578125,1.2547343969345093,0.08532197773456573,0.4374226927757263
1772797338524168400,1.50716845703125,1.2806203365325928,0.12033908069133759,0.4677792489528656
1772797338534194700,1.517194580078125,1.3008300065994263,0.1673818677663803,0.4770377576351166
1772797338544220700,1.527220703125,1.305938482284546,0.24153651297092438,0.4512551426887512
1772797338554246700,1.53724658203125,1.2896467447280884,0.354340523481369,0.38698774576187134
1772797338564272600,1.547272705078125,1.2792688608169556,0.48278719186782837,0.31218674778938293
1772797338574298600,1.557298583984375,1.2950148582458496,0.6199719309806824,0.21741683781147003
1772797338584323600,1.567323486328125,1.3570595979690552,0.7454281449317932,0.13547828793525696
1772797338594349600,1.577349609375,1.4262813329696655,0.8140270113945007,0.10550814121961594
1772797338604375600,1.58737548828125,1.456277847290039,0.7807763814926147,0.1363254338502884
1772797338614401500,1.597401611328125,1.4414167404174805,0.6582748889923096,0.1658596396446228
1772797338624427500,1.607427490234375,1.4367409944534302,0.49230673909187317,0.17153456807136536
1772797338634453500,1.61745361328125,1.4429973363876343,0.31722861528396606,0.1539696753025055
1772797338644479500,1.6274794921875,1.4718303680419922,0.19203606247901917,0.15916390717029572
1772797338654505500,1.63750537109375,1.5272465944290161,0.10458871722221375,0.20496603846549988
1772797338664531700,1.64753173828125,1.5725847482681274,0.03209906816482544,0.30758294463157654
1772797338674557700,1.6575576171875,1.5739127397537231,0.005146685987710953,0.4290585219860077
1772797338684583700,1.667583740234375,1.5687960386276245,0.02871699258685112,0.5187937021255493
1772797338694609700,1.677609619140625,1.5682713985443115,0.12743091583251953,0.5475662350654602
1772797338704635600,1.6876357421875,1.5531460046768188,0.26747775077819824,0.5148706436157227
1772797338714661600,1.69766162109375,1.5179492235183716,0.4240923523902893,0.45485788583755493
1772797338724686600,1.7076865234375,1.4762952327728271,0.5683486461639404,0.37250494956970215
1772797338734712600,1.717712646484375,1.4534406661987305,0.6769332885742188,0.2865738272666931
1772797338744738600,1.727738525390625,1.4430506229400635,0.7445243000984192,0.22255249321460724
1772797338754764500,1.7377646484375,1.4767897129058838,0.6439314484596252,0.17656420171260834
1772797338764790500,1.74779052734375,1.5212613344192505,0.38753774762153625,0.14021418988704681
1772797338774816500,1.75781640625,1.5337198972702026,0.16931885480880737,0.1436147838830948
1772797338784842500,1.767842529296875,1.5735094547271729,-0.07267727702856064,0.1502966582775116
1772797338794868700,1.77786865234375,1.6206406354904175,-0.28622639179229736,0.16976460814476013
1772797338804894700,1.787894775390625,1.6592644453048706,-0.43756213784217834,0.219776913523674
1772797338814920700,1.797920654296875,1.690282940864563,-0.5031884908676147,0.24278023838996887
1772797338824946700,1.80794677734375,1.70388925075531,-0.4879394769668579,0.21879102289676666
1772797338834972700,1.81797265625,1.7014498710632324,-0.4506162405014038,0.17907585203647614
1772797338844998700,1.82799853515625,1.671288251876831,-0.41249197721481323,0.13648419082164764
1772797338855024600,1.838024658203125,1.6204134225845337,-0.37401366233825684,0.08509236574172974
1772797338865050600,1.848050537109375,1.5362682342529297,-0.23474577069282532,0.02102975733578205
1772797338875075600,1.85807568359375,1.42166006565094,-0.10160692036151886,-0.09130477160215378
1772797338885101600,1.8681015625,1.2723861932754517,0.017014268785715103,-0.23615941405296326
1772797338895127600,1.87812744140625,1.0721532106399536,0.20726436376571655,-0.3484329879283905
1772797338905153500,1.888153564453125,0.8557354211807251,0.417186439037323,-0.38047266006469727
1772797338915179500,1.898179443359375,0.6734020709991455,0.5820474624633789,-0.35443416237831116
1772797338925205800,1.908205810546875,0.5621227025985718,0.6540159583091736,-0.3145922124385834
1772797338935231700,1.918231689453125,0.5035948157310486,0.6127879023551941,-0.25082680583000183
1772797338945257700,1.9282578125,0.4952966868877411,0.5048292279243469,-0.14150777459144592
1772797338955283700,1.93828369140625,0.547147810459137,0.4094565212726593,-0.02556944638490677
1772797338965309700,1.948309814453125,0.642030656337738,0.33612051606178284,0.05356078967452049
1772797338975335700,1.958335693359375,0.7549742460250854,0.28707247972488403,0.10061617940664291
1772797338985361700,1.968361572265625,0.8396921157836914,0.23874728381633759,0.159907728433609
1772797338995387600,1.9783876953125,0.878362238407135,0.14475500583648682,0.27252668142318726
1772797339005413600,1.98841357421875,0.7669393420219421,-0.01116135623306036,0.5121837854385376
1772797339015439600,1.998439697265625,0.42275938391685486,-0.22884739935398102,0.8140538334846497
1772797339025465600,2.008465576171875,0.14063236117362976,-0.33585959672927856,0.8845331072807312
1772797339035490600,2.018490478515625,-0.10944125056266785,-0.16202566027641296,0.7157725691795349
1772797339045516500,2.0285166015625,-0.2092759609222412,0.24276070296764374,0.36731868982315063
1772797339055542800,2.038542724609375,-0.07219672203063965,0.6943788528442383,-0.03801599144935608
1772797339065568800,2.04856884765625,0.1345473974943161,1.0536807775497437,-0.32379740476608276
1772797339075594800,2.0585947265625,0.25921323895454407,1.196300983428955,-0.413369357585907
1772797339085620700,2.068620849609375,0.47072097659111023,1.1103583574295044,-0.301438570022583
1772797339095646700,2.078646728515625,0.6940385103225708,0.8192676901817322,-0.014751417562365532
1772797339105672700,2.088672607421875,0.871029794216156,0.48640957474708557,0.37253904342651367
1772797339115698700,2.09869873046875,0.9983176589012146,0.15873686969280243,0.7149928212165833
1772797339125724700,2.108724609375,1.089964747428894,-0.09612417966127396,0.929454505443573
1772797339135750700,2.118750732421875,1.154895305633545,-0.198139950633049,1.016744613647461
1772797339145776400,2.1287763671875,1.2040205001831055,-0.14948506653308868,1.0241785049438477
1772797339155802600,2.138802734375,1.2328728437423706,0.0592285692691803,0.9563127756118774
1772797339165828600,2.14882861328125,1.2415176630020142,0.31601881980895996,0.8332933783531189
1772797339175854600,2.1588544921875,1.240631103515625,0.5500214099884033,0.6899047493934631
1772797339185879800,2.1688798828125,1.231170654296875,0.750069797039032,0.5445757508277893
1772797339195905800,2.17890576171875,1.2151135206222534,0.8901679515838623,0.41650599241256714
1772797339205931800,2.188931884765625,1.199762225151062,0.9558846354484558,0.2830938696861267
1772797339215957800,2.198957763671875,1.1713672876358032,0.9245189428329468,0.14766918122768402
1772797339225983700,2.208983642578125,1.1464275121688843,0.8179645538330078,0.03257853910326958
1772797339236009500,2.219009521484375,1.148679494857788,0.6513522863388062,-0.0756901279091835
1772797339246035500,2.229035400390625,1.1650733947753906,0.43093228340148926,-0.22500477731227875
1772797339256061400,2.2390615234375,1.1426047086715698,0.16183768212795258,-0.40486669540405273
1772797339266087400,2.24908740234375,1.063604474067688,-0.12479540705680847,-0.5455449819564819
1772797339276113400,2.259113525390625,0.9643080830574036,-0.3695299029350281,-0.6325901746749878
1772797339286139600,2.2691396484375,0.8738299012184143,-0.5030763149261475,-0.6873713731765747
1772797339296165600,2.27916552734375,0.84131920337677,-0.4586600959300995,-0.7053905129432678
1772797339306191600,2.289191650390625,0.8619261980056763,-0.30098044872283936,-0.684667706489563
1772797339316217600,2.299217529296875,0.8857296109199524,-0.0951610878109932,-0.5731360912322998
1772797339326243600,2.30924365234375,0.9001929759979248,0.08727476745843887,-0.3989536762237549
1772797339336269600,2.31926953125,0.8904702663421631,0.20553162693977356,-0.23625719547271729
1772797339346295600,2.329295654296875,0.8857370018959045,0.2176961451768875,-0.14836221933364868
1772797339356320300,2.3393203125,0.8905880451202393,0.20817799866199493,-0.10732048749923706
1772797339366346200,2.34934619140625,0.8585262894630432,0.1154714897274971,-0.054824527353048325
1772797339376372200,2.359372314453125,0.8560279011726379,-0.053738027811050415,0.0008901352994143963
1772797339386398000,2.36939794921875,0.8201034665107727,-0.16116248071193695,0.09692639112472534
1772797339396424200,2.379424072265625,0.761155903339386,-0.24718326330184937,0.1892496645450592
1772797339406450200,2.3894501953125,0.7398383617401123,-0.26613351702690125,0.2235141545534134
1772797339416476200,2.39947607421875,0.6955468058586121,-0.13635185360908508,0.18018504977226257
1772797339426502100,2.409502197265625,0.6789880394935608,-0.2015140801668167,0.13539813458919525
1772797339436528000,2.419528076171875,0.6738005876541138,-0.2901039719581604,0.1304963380098343
1772797339446554000,2.42955419921875,0.6715078949928284,-0.27680546045303345,0.16288170218467712
1772797339456580000,2.439580078125,0.6781207323074341,-0.0905764102935791,0.21018102765083313
1772797339466606000,2.449606201171875,0.6699381470680237,0.12499422580003738,0.19757361710071564
1772797339476632000,2.459632080078125,0.7220130562782288,0.13433869183063507,0.2352786660194397
1772797339486658000,2.469657958984375,0.7547020316123962,0.10601252317428589,0.2886335253715515
1772797339496684000,2.47968408203125,0.7312321066856384,0.09015660732984543,0.3417033553123474
1772797339506710300,2.489710205078125,0.686199426651001,-0.0030431123450398445,0.3595545291900635
1772797339516735000,2.49973486328125,0.6517497301101685,-0.06295580416917801,0.368851900100708
1772797339526761200,2.50976123046875,0.609571099281311,-0.11929471045732498,0.3475370407104492
1772797339536787200,2.519787109375,0.5614442229270935,-0.10864204168319702,0.32008010149002075
1772797339546813200,2.529813232421875,0.5471843481063843,-0.04848469793796539,0.3060436546802521
1772797339556839200,2.539839111328125,0.5774977207183838,0.0009625325910747051,0.2969886362552643
1772797339566865200,2.549865234375,0.6358934044837952,0.007907790131866932,0.3140808045864105
1772797339576891100,2.55989111328125,0.6719740033149719,0.13040511310100555,0.3804369270801544
1772797339586917000,2.569917236328125,0.7286122441291809,0.13984201848506927,0.4795541763305664
1772797339596943000,2.579943115234375,0.7251766324043274,0.1382269710302353,0.5380252599716187
1772797339606969000,2.589968994140625,0.732087254524231,0.1569247543811798,0.51897132396698
1772797339616995000,2.5999951171875,0.7361100912094116,0.10886146128177643,0.4302518665790558
1772797339627021000,2.61002099609375,0.6870008707046509,0.021835213527083397,0.3265494406223297
1772797339637047300,2.62004736328125,0.6110759377479553,-0.07439091056585312,0.23936553299427032
1772797339647073300,2.6300732421875,0.5066097378730774,-0.12796305119991302,0.20549865067005157
1772797339657099300,2.640099365234375,0.4336589276790619,-0.19107253849506378,0.1912614107131958
1772797339667125200,2.650125244140625,0.3538365364074707,-0.16248510777950287,0.15020984411239624
1772797339677151200,2.660151123046875,0.2729654014110565,-0.18942804634571075,0.0965530127286911
1772797339687176200,2.67017626953125,0.20990519225597382,-0.25711706280708313,0.07143327593803406
1772797339697202200,2.6802021484375,0.173738494515419,-0.3346167802810669,0.07381413877010345
1772797339707228200,2.690228271484375,0.16774079203605652,-0.404952734708786,0.07748131453990936
1772797339717254100,2.700254150390625,0.1863192766904831,-0.4472429156303406,0.07016534358263016
1772797339727280000,2.710280029296875,0.16484114527702332,-0.4925640821456909,0.0638243556022644
1772797339737306000,2.72030615234375,0.10111189633607864,-0.5190888047218323,0.08055193722248077
1772797339747332000,2.73033203125,0.03558428958058357,-0.5327082276344299,0.09885850548744202
1772797339757358000,2.740358154296875,-0.03428363427519798,-0.5121198892593384,0.09713225066661835
1772797339767384300,2.75038427734375,-0.1105634942650795,-0.46777957677841187,0.06199264153838158
1772797339777410300,2.760410400390625,-0.16903996467590332,-0.4278944730758667,0.005674494430422783
1772797339787436300,2.770436279296875,-0.207862988114357,-0.3812641203403473,-0.042324990034103394
1772797339797462300,2.780462158203125,-0.269683301448822,-0.341897189617157,-0.1056208685040474
1772797339807488300,2.79048828125,-0.3823421895503998,-0.2632545828819275,-0.18092547357082367
1772797339817514200,2.80051416015625,-0.5125610828399658,-0.3871094882488251,-0.3208721876144409
1772797339827540200,2.810540283203125,-0.6424676775932312,-0.4772835969924927,-0.41850900650024414
1772797339837566200,2.820566162109375,-0.7662588357925415,-0.6074799299240112,-0.45523107051849365
1772797339847592200,2.83059228515625,-0.892042875289917,-0.757595419883728,-0.4529191851615906
1772797339857617200,2.8406171875,-0.9944792985916138,-0.895770788192749,-0.39399218559265137
1772797339867643100,2.85064306640625,-1.0389602184295654,-1.0170774459838867,-0.2806115746498108
1772797339877669000,2.860669189453125,-0.9971386194229126,-1.0579477548599243,-0.07818523794412613
1772797339887695000,2.870695068359375,-0.8814506530761719,-0.9604478478431702,0.15481047332286835
1772797339897721300,2.880721435546875,-0.7135347723960876,-0.7731279134750366,0.38775742053985596
1772797339907747300,2.890747314453125,-0.5008875131607056,-0.43148595094680786,0.580224871635437
1772797339917773300,2.900773193359375,-0.2345912754535675,-0.04565304517745972,0.730115532875061
1772797339927799300,2.91079931640625,0.07573994994163513,0.2256232053041458,0.8241237998008728
1772797339937825300,2.9208251953125,0.35203903913497925,0.3460195064544678,0.8609553575515747
1772797339947851300,2.930851318359375,0.552372932434082,0.35737523436546326,0.8456874489784241
1772797339957877200,2.940877197265625,0.707396388053894,0.27550774812698364,0.801544725894928
1772797339967903200,2.9509033203125,0.8268375992774963,0.1170390248298645,0.729653000831604
1772797339977929200,2.96092919921875,0.9432851672172546,-0.11678790301084518,0.6548080444335938
1772797339987955200,2.970955078125,1.0679181814193726,-0.3462807536125183,0.5901371240615845
1772797339997981200,2.980981201171875,1.1703969240188599,-0.5993207097053528,0.5013614892959595
1772797340008007200,2.991007080078125,1.2109980583190918,-0.8875919580459595,0.36112871766090393
1772797340018033200,3.001033203125,1.1976832151412964,-1.0982730388641357,0.19663457572460175
1772797340028058400,3.011058349609375,1.137540578842163,-1.2173278331756592,0.03714878857135773
1772797340038084400,3.02108447265625,1.0478798151016235,-1.3323051929473877,-0.10826487839221954
1772797340048110300,3.0311103515625,0.933072030544281,-1.3978580236434937,-0.20253731310367584
1772797340058136300,3.04113623046875,0.8217312097549438,-0.9762370586395264,-0.21765153110027313
1772797340068162300,3.051162353515625,0.6850971579551697,-0.7806885838508606,-0.2409438043832779
1772797340078188300,3.061188232421875,0.5666919946670532,-0.5520429611206055,-0.22109074890613556
1772797340088214300,3.07121435546875,0.5835285186767578,0.03759877756237984,-0.039258889853954315
1772797340098240300,3.081240234375,0.8020141124725342,0.41240373253822327,0.11508461833000183
1772797340108266200,3.091266357421875,1.0792428255081177,0.6106651425361633,0.20713864266872406
1772797340118292000,3.1012919921875,1.294857144355774,0.7836546897888184,0.2470168024301529
1772797340128318200,3.111318115234375,1.4342124462127686,1.0114883184432983,0.26269349455833435
1772797340138344200,3.12134423828125,1.5248395204544067,1.2401810884475708,0.2643265724182129
1772797340148370200,3.1313701171875,1.5915056467056274,1.3698866367340088,0.2415056824684143
1772797340158396200,3.141396240234375,1.6351823806762695,1.378821849822998,0.2065596729516983
1772797340168422100,3.151422119140625,1.630959153175354,1.2284486293792725,0.1568903923034668
1772797340178448100,3.1614482421875,1.604222059249878,1.0478310585021973,0.11599461734294891
1772797340188474000,3.17147412109375,1.602926254272461,0.9271723031997681,0.08287101984024048
1772797340198499300,3.181499267578125,1.5809322595596313,0.8429710865020752,0.02787994034588337
1772797340208525000,3.191525146484375,1.5688519477844238,0.7085351943969727,-0.13700008392333984
1772797340218551000,3.201551025390625,1.5243109464645386,0.7306813597679138,-0.3712802231311798
1772797340228577000,3.211576904296875,1.4727023839950562,0.9343774914741516,-0.6625480651855469
1772797340238603000,3.22160302734375,1.3645862340927124,1.0882587432861328,-0.9397503137588501
1772797340248629000,3.23162890625,1.2199463844299316,1.1797908544540405,-1.1023060083389282
1772797340258655200,3.2416552734375,1.1684107780456543,1.194446325302124,-1.0590466260910034
1772797340268681200,3.25168115234375,1.1086441278457642,1.1740400791168213,-0.8881966471672058
1772797340278707200,3.261707275390625,0.9904998540878296,1.1058852672576904,-0.6567093133926392
1772797340288733200,3.271733154296875,0.8573228716850281,1.0346167087554932,-0.4544627070426941
1772797340298759200,3.28175927734375,0.7424392104148865,0.9593730568885803,-0.3589777648448944
1772797340308785200,3.29178515625,0.6419792175292969,0.8469724655151367,-0.3801072835922241
1772797340318811100,3.30181103515625,0.5852581858634949,0.7967648506164551,-0.4631829857826233
1772797340328837000,3.311837158203125,0.6232721209526062,0.8028818964958191,-0.5615612268447876
1772797340338863000,3.321863037109375,0.759364902973175,0.7996683716773987,-0.6826522350311279
1772797340348889000,3.33188916015625,0.9329531788825989,0.7795663475990295,-0.8310188055038452
1772797340358915300,3.341915283203125,1.0572905540466309,0.655780553817749,-0.9183174967765808
1772797340368940300,3.351940185546875,1.0807244777679443,0.24683965742588043,-0.8002116084098816
1772797340378966300,3.36196630859375,1.028834581375122,-0.1286710500717163,-0.5103992223739624
1772797340388992300,3.3719921875,0.9541728496551514,-0.49004602432250977,-0.15413060784339905
1772797340399018200,3.382018310546875,0.8724485635757446,-0.681685745716095,0.2661745250225067
1772797340409044200,3.392044189453125,0.7989831566810608,-0.6538218855857849,0.7016567587852478
1772797340419070200,3.4020703125,0.7403389811515808,-0.5394190549850464,1.124237060546875
1772797340429096200,3.41209619140625,0.6606369614601135,-0.5460300445556641,1.4590057134628296
1772797340439122200,3.4221220703125,0.5641011595726013,-0.5722376108169556,1.665050983428955
1772797340449148200,3.432148193359375,0.48679253458976746,-0.5163325071334839,1.76487398147583
1772797340459174100,3.442174072265625,0.4611634612083435,-0.40261635184288025,1.7582509517669678
1772797340469200100,3.4522001953125,0.5123222470283508,-0.33262020349502563,1.64645254611969
1772797340479226400,3.462226318359375,0.6401205658912659,-0.323588103055954,1.424599051475525
1772797340489252400,3.47225244140625,0.8227942585945129,-0.33514729142189026,1.1320185661315918
1772797340499278300,3.4822783203125,0.9842273592948914,-0.31495147943496704,0.8401305079460144
1772797340509304300,3.49230419921875,1.0503947734832764,-0.2011951059103012,0.6119013428688049
1772797340519330300,3.502330322265625,1.0247502326965332,0.006784600205719471,0.48109617829322815
1772797340529356300,3.512356201171875,0.9363613128662109,0.13897804915905,0.40047189593315125
1772797340539382300,3.52238232421875,0.8262370228767395,0.1672562062740326,0.34912776947021484
1772797340549408300,3.532408203125,0.7150252461433411,0.18158215284347534,0.31792697310447693
1772797340559433200,3.54243310546875,0.6244098544120789,0.19953204691410065,0.3108442723751068
1772797340569459200,3.552459228515625,0.5554763674736023,0.1857547163963318,0.3166409134864807
1772797340579485200,3.562485107421875,0.5243479609489441,0.1967448592185974,0.34741535782814026
1772797340589511200,3.57251123046875,0.5462644696235657,0.22465664148330688,0.44084250926971436
1772797340599537200,3.582537109375,0.6027363538742065,0.31254124641418457,0.6086648106575012
1772797340609563400,3.5925634765625,0.7039660215377808,0.4638324975967407,0.7671777606010437
1772797340619589400,3.60258935546875,0.8637968897819519,0.5530439019203186,0.8581129908561707
1772797340629615400,3.612615478515625,1.0301415920257568,0.5709062814712524,0.884092390537262
1772797340639641300,3.622641357421875,1.173263430595398,0.5485486388206482,0.8737329244613647
1772797340649667300,3.632667236328125,1.2551393508911133,0.4593351483345032,0.8348241448402405
1772797340659693300,3.642693359375,1.3019522428512573,0.31370776891708374,0.8061648011207581
1772797340669719300,3.65271923828125,1.3239960670471191,0.16032062470912933,0.7893123030662537
1772797340679745300,3.662745361328125,1.3567062616348267,0.009675501845777035,0.7628204822540283
1772797340689771300,3.672771240234375,1.4001435041427612,-0.11840736865997314,0.7053835988044739
1772797340699797200,3.68279736328125,1.4196550846099854,-0.203354611992836,0.6097918152809143
1772797340709823200,3.6928232421875,1.3949943780899048,-0.2246822714805603,0.47580763697624207
1772797340719849500,3.702849365234375,1.3306974172592163,-0.277584046125412,0.2879325747489929
1772797340729875200,3.712875244140625,1.227074384689331,-0.3017503619194031,0.10136774927377701
1772797340739900400,3.722900390625,1.103670358657837,-0.3788963556289673,-0.09909530729055405
1772797340749926400,3.732926513671875,0.9870048761367798,-0.48561719059944153,-0.2829761803150177
1772797340759952400,3.742952392578125,0.8756576776504517,-0.552831768989563,-0.42850250005722046
1772797340769978400,3.752978271484375,0.7847989201545715,-0.5570459365844727,-0.534263014793396
1772797340780004400,3.76300439453125,0.7373504042625427,-0.5036916732788086,-0.5991019606590271
1772797340790030300,3.7730302734375,0.7386399507522583,-0.40483567118644714,-0.6083870530128479
1772797340800056300,3.783056396484375,0.7788951992988586,-0.2555899918079376,-0.5468238592147827
1772797340810082300,3.793082275390625,0.8513502478599548,-0.09108387678861618,-0.44681012630462646
1772797340820108300,3.8031083984375,0.9316946268081665,0.06794991344213486,-0.3595753610134125
1772797340830134300,3.81313427734375,0.9819617867469788,0.2001015543937683,-0.3341187536716461
1772797340840160300,3.82316015625,1.0011541843414307,0.2901664674282074,-0.36989593505859375
1772797340850186200,3.833186279296875,0.99897700548172,0.3322369456291199,-0.45302996039390564
1772797340860212200,3.843212158203125,1.0071403980255127,0.30632543563842773,-0.5489452481269836
1772797340870238200,3.85323828125,1.0252258777618408,0.23123441636562347,-0.6218751668930054
1772797340880264200,3.86326416015625,1.043757677078247,0.14940546452999115,-0.6507565975189209
1772797340890290200,3.873290283203125,1.0751749277114868,0.04655630514025688,-0.6029995083808899
1772797340900316200,3.883316162109375,1.116382360458374,-0.03485627844929695,-0.43624672293663025
1772797340910342100,3.893342041015625,1.1544535160064697,-0.021763116121292114,-0.1908113956451416
1772797340920368000,3.9033681640625,1.1361780166625977,0.03232134133577347,0.04771703854203224
1772797340930393300,3.913393310546875,1.1073639392852783,0.012792114168405533,0.19373789429664612
1772797340940419000,3.923419189453125,1.0558280944824219,-0.09534569084644318,0.2433139532804489
1772797340950445000,3.933445068359375,0.978541374206543,-0.22075793147087097,0.19656136631965637
1772797340960471000,3.943470947265625,0.8846426010131836,-0.3559130132198334,0.09992031753063202
1772797340970497000,3.9534970703125,0.7767195701599121,-0.45557278394699097,0.020833224058151245
1772797340980523300,3.963523193359375,0.6914787292480469,-0.47158777713775635,-0.013781491667032242
1772797340990549200,3.97354931640625,0.5784866213798523,-0.5252858996391296,-0.05504850670695305
1772797341000575200,3.9835751953125,0.4821021258831024,-0.5588756203651428,-0.09178787469863892
1772797341010601200,3.993601318359375,0.4602476954460144,-0.45509809255599976,-0.11389264464378357
1772797341020627200,4.003627197265625,0.5005804300308228,-0.2887004613876343,-0.14648093283176422
1772797341030653200,4.013653076171875,0.558844268321991,-0.09716299176216125,-0.21981851756572723
1772797341040679200,4.02367919921875,0.5587102770805359,0.047289736568927765,-0.34336206316947937
1772797341050705200,4.033705078125,0.5123094916343689,0.18144939839839935,-0.45917361974716187
1772797341060731100,4.043731201171875,0.4718174934387207,0.30524924397468567,-0.511455237865448
1772797341070757000,4.053757080078125,0.4258683919906616,0.31069862842559814,-0.506079912185669
1772797341080783000,4.063783203125,0.3647896349430084,0.21575695276260376,-0.46759745478630066
1772797341090809300,4.073809326171875,0.3167369067668915,0.09948600828647614,-0.3973131775856018
1772797341100835300,4.08383544921875,0.24653185904026031,0.01799260452389717,-0.3154231011867523
1772797341110860300,4.0938603515625,0.17255297303199768,0.01876145787537098,-0.2479867935180664
1772797341120886300,4.10388623046875,0.11527086794376373,0.10078729689121246,-0.23323580622673035
1772797341130912300,4.113912353515625,0.07827983051538467,0.1812560260295868,-0.2730500400066376
1772797341140938200,4.123938232421875,0.0526261068880558,0.2730701267719269,-0.33748283982276917
1772797341150964200,4.133964111328125,0.044030219316482544,0.3371380567550659,-0.38944482803344727
1772797341160990200,4.143990234375,0.05275541543960571,0.341154009103775,-0.41333550214767456
1772797341171016200,4.15401611328125,0.0756056010723114,0.28955313563346863,-0.40654444694519043
1772797341181042200,4.164042236328125,0.10097308456897736,0.231237530708313,-0.3753279745578766
1772797341191068200,4.174068115234375,0.143047034740448,0.1869521141052246,-0.3323184549808502
1772797341201094100,4.18409423828125,0.1895115077495575,0.17159625887870789,-0.26917409896850586
1772797341211120000,4.1941201171875,0.2583177387714386,0.1764940768480301,-0.17927271127700806
1772797341221146400,4.204146484375,0.35365352034568787,0.21416924893856049,-0.04064612835645676
1772797341231172400,4.21417236328125,0.4575706124305725,0.292084276676178,0.11357992142438889
1772797341241198300,4.2241982421875,0.5279322266578674,0.35693225264549255,0.25111037492752075
1772797341251224300,4.234224365234375,0.5813461542129517,0.36045828461647034,0.3205837309360504
1772797341261250300,4.244250244140625,0.6040708422660828,0.2879426181316376,0.279148668050766
1772797341271276300,4.2542763671875,0.5997104644775391,0.16333439946174622,0.14473412930965424
1772797341281302300,4.26430224609375,0.5864188075065613,-0.025847258046269417,-0.023116931319236755
1772797341291328300,4.274328369140625,0.5907229781150818,-0.2584698498249054,-0.17047709226608276
1772797341301353200,4.284353271484375,0.6096321940422058,-0.5024908781051636,-0.23313193023204803
1772797341311379200,4.294379150390625,0.6343452334403992,-0.7709590792655945,-0.19351661205291748
1772797341321405200,4.3044052734375,0.6529732942581177,-0.9853752851486206,-0.04897887632250786
1772797341331431200,4.31443115234375,0.7022231221199036,-1.0742218494415283,0.18994289636611938
1772797341341457200,4.32445703125,0.7799565196037292,-1.056828260421753,0.45260727405548096
1772797341351483400,4.3344833984375,0.8478133678436279,-0.9048621654510498,0.6968109011650085
1772797341361510000,4.344510009765625,0.864930272102356,-0.5972164869308472,0.859657883644104
1772797341371536000,4.354535888671875,0.8460013270378113,-0.23722660541534424,0.8920559883117676
1772797341381561900,4.364561767578125,0.8010119199752808,0.0919886901974678,0.7956148982048035
1772797341391587800,4.374587890625,0.7519586682319641,0.3624345660209656,0.5966520309448242
1772797341401613800,4.38461376953125,0.7083053588867188,0.52384352684021,0.3399922847747803
1772797341411639800,4.394639892578125,0.6797251105308533,0.5559284687042236,0.07986696809530258
1772797341421665800,4.404665771484375,0.6677185297012329,0.4677700996398926,-0.1525806337594986
1772797341431691500,4.41469140625,0.66725754737854,0.2687757909297943,-0.3013158142566681
1772797341441717500,4.424717529296875,0.6631873250007629,0.019484803080558777,-0.33996331691741943
1772797341451743500,4.434743408203125,0.6639817357063293,-0.21528403460979462,-0.2559075653553009
1772797341461769500,4.44476953125,0.6623076796531677,-0.39958372712135315,-0.10534148663282394
1772797341471795700,4.454795654296875,0.6459896564483643,-0.5408633947372437,0.04271162673830986
1772797341481821700,4.46482177734375,0.6087813377380371,-0.6198810338973999,0.13362766802310944
1772797341491847000,4.474846923828125,0.5846959352493286,-0.6462194323539734,0.19778402149677277
1772797341501873000,4.484872802734375,0.5951018929481506,-0.6013827323913574,0.2603438198566437
1772797341511899000,4.49489892578125,0.6476559042930603,-0.5190133452415466,0.30893078446388245
1772797341521924600,4.504924560546875,0.7268742322921753,-0.41571465134620667,0.3331921696662903
1772797341531950600,4.51495068359375,0.8283596038818359,-0.3140577971935272,0.3247654139995575
1772797341541976600,4.5249765625,0.937981128692627,-0.2629745602607727,0.2929944396018982
1772797341552002600,4.53500244140625,1.0196818113327026,-0.27177631855010986,0.251432865858078
1772797341562028500,4.545028564453125,1.0758287906646729,-0.27730345726013184,0.20741666853427887
1772797341572054500,4.555054443359375,1.1134672164916992,-0.3072429597377777,0.22275595366954803
1772797341582080500,4.56508056640625,1.1305785179138184,-0.32580387592315674,0.33830225467681885
1772797341592106500,4.5751064453125,1.1371458768844604,-0.3302590847015381,0.5187072157859802
1772797341602132700,4.5851328125,1.112594485282898,-0.32355690002441406,0.687666654586792
1772797341612158700,4.59515869140625,1.050121545791626,-0.348035603761673,0.7719306945800781
1772797341622184700,4.605184814453125,1.0154649019241333,-0.43832525610923767,0.7751331329345703
1772797341632210700,4.615210693359375,1.034833550453186,-0.4829220175743103,0.7653851509094238
1772797341642236700,4.625236572265625,1.0699924230575562,-0.4439142644405365,0.7569839358329773
1772797341652262700,4.6352626953125,1.1281167268753052,-0.35344162583351135,0.7352938055992126
1772797341662288600,4.64528857421875,1.2014256715774536,-0.2726662755012512,0.6904997229576111
1772797341672314600,4.655314697265625,1.2883864641189575,-0.1920446753501892,0.6131793856620789
1772797341682340600,4.665340576171875,1.3576085567474365,-0.1282978355884552,0.49705061316490173
1772797341692365600,4.675365478515625,1.4029268026351929,-0.08948306739330292,0.36871686577796936
1772797341702391600,4.6853916015625,1.4293184280395508,-0.09499552100896835,0.27329447865486145
1772797341712417500,4.69541748046875,1.465761661529541,-0.01364313717931509,0.2844507396221161
1772797341722443500,4.705443603515625,1.5302032232284546,0.09473899006843567,0.38481196761131287
1772797341732469800,4.7154697265625,1.5997340679168701,0.1600112020969391,0.5214004516601562
1772797341742495700,4.725495849609375,1.6259455680847168,0.15137691795825958,0.6207430362701416
1772797341752521700,4.735521728515625,1.5944331884384155,0.018587715923786163,0.6368756890296936
1772797341762547700,4.745547607421875,1.5316835641860962,-0.16271771490573883,0.5748063921928406
1772797341772573700,4.75557373046875,1.4840742349624634,-0.2815439999103546,0.46152567863464355
1772797341782599700,4.765599609375,1.4707788228988647,-0.23871177434921265,0.3428677022457123
1772797341792625700,4.775625732421875,1.5095469951629639,-0.019025491550564766,0.23353217542171478
1772797341802651600,4.785651611328125,1.586620807647705,0.21330049633979797,0.12602941691875458
1772797341812677600,4.795677734375,1.642743706703186,0.3728483319282532,0.027498584240674973
1772797341822703600,4.80570361328125,1.653998851776123,0.4713127315044403,-0.06763751804828644
1772797341832729600,4.8157294921875,1.6447474956512451,0.503342866897583,-0.15239128470420837
1772797341842755800,4.825755859375,1.6147421598434448,0.47397199273109436,-0.18545150756835938
1772797341852781800,4.83578173828125,1.5793958902359009,0.5223877429962158,-0.1300652176141739
1772797341862807800,4.845807861328125,1.5239408016204834,0.5606660842895508,-0.013821687549352646
1772797341872833800,4.855833740234375,1.4391083717346191,0.36733657121658325,0.08802797645330429
1772797341882858800,4.865858642578125,1.3827406167984009,0.22191733121871948,0.18503440916538239
1772797341892884700,4.875884765625,1.3699194192886353,0.1868315190076828,0.2876049876213074
1772797341902910700,4.88591064453125,1.360230803489685,0.12153246253728867,0.3716772496700287
1772797341912936700,4.895936767578125,1.3616143465042114,0.05969706177711487,0.43387725949287415
1772797341922962700,4.905962646484375,1.3599467277526855,0.037084680050611496,0.4850911796092987
1772797341932988700,4.91598876953125,1.3676941394805908,0.011982256546616554,0.5121512413024902
1772797341943014700,4.9260146484375,1.3763868808746338,0.012601440772414207,0.5029846429824829
1772797341953040600,4.93604052734375,1.3595333099365234,0.046112529933452606,0.4676346778869629
1772797341963066600,4.946066650390625,1.30709969997406,0.09673836082220078,0.3924350142478943
1772797341973092900,4.9560927734375,1.2580032348632812,0.11974301189184189,0.28577327728271484
1772797341983118800,4.966118896484375,1.2161132097244263,0.08144323527812958,0.1571820229291916
1772797341993144800,4.976144775390625,1.1803696155548096,-0.0005379170179367065,0.057431984692811966
1772797342003170800,4.9861708984375,1.1351613998413086,-0.04870925843715668,0.06750217825174332
1772797342013196800,4.99619677734375,1.0941638946533203,0.000013271346688270569,0.21219013631343842
1772797342023222800,5.006222900390625,1.0666375160217285,0.11739896982908249,0.4453488290309906
1772797342033248800,5.016248779296875,1.0497099161148071,0.2571936249732971,0.6755412220954895
1772797342043274800,5.026274658203125,1.0374696254730225,0.4031480550765991,0.7988057136535645
1772797342053300700,5.03630078125,1.0299347639083862,0.5301898717880249,0.7943933606147766
1772797342063326700,5.04632666015625,1.0456420183181763,0.6148726940155029,0.6983544230461121
1772797342073352400,5.0563525390625,1.0735719203948975,0.6203590631484985,0.5767672657966614
1772797342083377700,5.066377685546875,1.1086817979812622,0.5672889947891235,0.4481472671031952
1772797342093403600,5.076403564453125,1.127152681350708,0.42786234617233276,0.3551424741744995
1772797342103430000,5.086429931640625,1.1577835083007812,0.19246777892112732,0.3154107928276062
1772797342113455900,5.096455810546875,1.1428853273391724,-0.13445815443992615,0.2965995669364929
1772797342123481900,5.10648193359375,1.0991532802581787,-0.38441288471221924,0.2791196405887604
1772797342133507800,5.1165078125,1.1183738708496094,-0.47722136974334717,0.2014046013355255
1772797342143533800,5.126533935546875,1.1978912353515625,-0.37449756264686584,0.04240057244896889
1772797342153559800,5.136559814453125,1.2597625255584717,-0.16516830027103424,-0.08805171400308609
1772797342163585500,5.14658544921875,1.3068275451660156,0.01892964541912079,-0.14288780093193054
1772797342173611500,5.156611572265625,1.3038299083709717,0.15295881032943726,-0.1600918173789978
1772797342183637500,5.166637451171875,1.2593194246292114,0.19628551602363586,-0.18594472110271454
1772797342193663500,5.17666357421875,1.1772421598434448,0.16206255555152893,-0.22770601511001587
1772797342203689500,5.186689453125,1.0791404247283936,0.08429095894098282,-0.26966118812561035
1772797342213715700,5.1967158203125,0.9838994741439819,-0.03656942397356033,-0.3138100206851959
1772797342223741700,5.20674169921875,0.9105690121650696,-0.24635039269924164,-0.3514881730079651
1772797342233767700,5.216767578125,0.8472209572792053,-0.42880943417549133,-0.3547992706298828
1772797342243793700,5.226793701171875,0.7949827313423157,-0.4097236692905426,-0.28893449902534485
1772797342253819600,5.236819580078125,0.7644783854484558,-0.23472921550273895,-0.1540866643190384
1772797342263845600,5.246845703125,0.7773302793502808,0.05875060707330704,0.017082950100302696
1772797342273871600,5.25687158203125,0.8559683561325073,0.3376147449016571,0.14326591789722443
1772797342283897600,5.266897705078125,0.9776887893676758,0.47817763686180115,0.14779914915561676
1772797342293922600,5.276922607421875,1.090031385421753,0.4971556067466736,0.011168607510626316
1772797342303948500,5.286948486328125,1.149069905281067,0.4801909029483795,-0.1892307996749878
1772797342313974500,5.296974609375,1.199320912361145,0.3947734534740448,-0.3811003565788269
1772797342324000500,5.30700048828125,1.2478896379470825,0.26170074939727783,-0.48921433091163635
1772797342334026500,5.317026611328125,1.2906516790390015,0.17605669796466827,-0.4853263795375824
1772797342344052700,5.327052734375,1.3039522171020508,0.1155095174908638,-0.39346247911453247
1772797342354078700,5.33707861328125,1.2949692010879517,0.08704698085784912,-0.23305045068264008
1772797342364103700,5.347103759765625,1.2650816440582275,0.061867307871580124,-0.07195769995450974
1772797342374129700,5.357129638671875,1.2137941122055054,0.04065097123384476,0.04035259783267975
1772797342384155600,5.36715576171875,1.1719435453414917,0.05534004047513008,0.018946107476949692
1772797342394181600,5.377181640625,1.1350728273391724,0.08960694074630737,-0.06895232200622559
1772797342404207600,5.38720751953125,1.0816471576690674,0.1225348636507988,-0.14260603487491608
1772797342414233900,5.39723388671875,1.0091729164123535,0.1399490088224411,-0.1870182454586029
1772797342424259800,5.407259765625,0.9195167422294617,0.11810770630836487,-0.20226697623729706
1772797342434285800,5.417285888671875,0.8321189880371094,0.04249230772256851,-0.17522843182086945
1772797342444311800,5.427311767578125,0.8001052141189575,-0.04833191633224487,-0.10947604477405548
1772797342454337800,5.437337890625,0.8087988495826721,-0.0981074646115303,-0.037785083055496216
1772797342464363800,5.44736376953125,0.828041136264801,-0.11198700964450836,0.02097809873521328
1772797342474389800,5.4573896484375,0.8242083191871643,-0.09282690286636353,0.0703325942158699
1772797342484414700,5.467414794921875,0.7899342179298401,-0.06702196598052979,0.11659542471170425
1772797342494440700,5.477440673828125,0.7538294792175293,-0.08311012387275696,0.140292227268219
1772797342504466700,5.487466796875,0.7244846224784851,-0.13220228254795074,0.14464250206947327
1772797342514492700,5.49749267578125,0.734727680683136,-0.1863403469324112,0.1182393878698349
1772797342524518700,5.5075185546875,0.7598844766616821,-0.2274947166442871,0.05926050618290901
1772797342534544600,5.517544677734375,0.7788800001144409,-0.26090487837791443,-0.023526785895228386
1772797342544571000,5.52757080078125,0.8324694633483887,-0.2676948606967926,-0.09315379709005356
1772797342554596900,5.537596923828125,0.9003931283950806,-0.23396913707256317,-0.13262425363063812
1772797342564622800,5.547622802734375,0.9222407937049866,-0.19678513705730438,-0.15742066502571106
1772797342574648800,5.55764892578125,0.8678803443908691,-0.18576045334339142,-0.15902335941791534
1772797342584674800,5.5676748046875,0.7756819725036621,-0.2171308845281601,-0.13135498762130737
1772797342594700800,5.57770068359375,0.7017081379890442,-0.2841951251029968,-0.09830302000045776
1772797342604726800,5.587726806640625,0.6389306783676147,-0.35134127736091614,-0.05941766873002052
1772797342614752800,5.597752685546875,0.5943781137466431,-0.37989115715026855,0.010447965934872627
1772797342624778800,5.60777880859375,0.576020359992981,-0.37806516885757446,0.08035115152597427
1772797342634804700,5.6178046875,0.543150007724762,-0.3396635055541992,0.13829462230205536
1772797342644830700,5.627830810546875,0.4414820075035095,-0.30712854862213135,0.20623795688152313
1772797342654857000,5.63785693359375,0.336274117231369,-0.2704789340496063,0.24257013201713562
1772797342664883000,5.647883056640625,0.2391786128282547,-0.2046145796775818,0.18227458000183105
1772797342674909000,5.657908935546875,0.17089276015758514,-0.1488165706396103,-0.036516882479190826
1772797342684934000,5.667933837890625,0.15416018664836884,-0.1408793330192566,-0.31003257632255554
1772797342694959900,5.6779599609375,0.2054947465658188,-0.16340647637844086,-0.5097315907478333
1772797342704985900,5.68798583984375,0.2884364426136017,-0.21537744998931885,-0.5593124628067017
1772797342715011800,5.69801171875,0.38272619247436523,-0.32099974155426025,-0.4408417344093323
1772797342725037800,5.708037841796875,0.4549199640750885,-0.45766156911849976,-0.21451565623283386
1772797342735063800,5.718063720703125,0.5143486857414246,-0.5411159992218018,0.03914431855082512
1772797342745089800,5.72808984375,0.5909546613693237,-0.5211793184280396,0.26129376888275146
1772797342755115800,5.73811572265625,0.6699680089950562,-0.4265899956226349,0.4223707914352417
1772797342765141800,5.748141845703125,0.7159156203269958,-0.3371467888355255,0.5080939531326294
1772797342775167700,5.758167724609375,0.7280279397964478,-0.27709516882896423,0.5315103530883789
1772797342785194000,5.768194091796875,0.7231772541999817,-0.1846802830696106,0.5027180910110474
1772797342795220000,5.778219970703125,0.7166998982429504,-0.10281819105148315,0.45826223492622375
1772797342805246000,5.788245849609375,0.7127962708473206,-0.04606444016098976,0.431206077337265
1772797342815272000,5.79827197265625,0.6974058747291565,0.0073404619470238686,0.42460331320762634
1772797342825298000,5.8082978515625,0.6850878596305847,0.03429863601922989,0.43253663182258606
1772797342835324000,5.818323974609375,0.6810063123703003,0.01062766183167696,0.4436965882778168
1772797342845350000,5.828349853515625,0.6785979270935059,-0.05456806719303131,0.4407798945903778
1772797342855376000,5.8383759765625,0.6729109883308411,-0.15114814043045044,0.4167230427265167
1772797342865401900,5.84840185546875,0.6743860244750977,-0.2814575135707855,0.3789293169975281
1772797342875427800,5.858427734375,0.6843939423561096,-0.42692339420318604,0.3628901541233063
1772797342885453800,5.868453857421875,0.690913200378418,-0.5615646243095398,0.3869592845439911
1772797342895478800,5.878478759765625,0.6899411082267761,-0.6482417583465576,0.43959692120552063
1772797342905504800,5.8885048828125,0.6804467439651489,-0.6949495673179626,0.5118346810340881
1772797342915531000,5.898531005859375,0.657429039478302,-0.6647682189941406,0.5819380879402161
1772797342925557000,5.908556884765625,0.6446272134780884,-0.5432654619216919,0.6224719882011414
1772797342935583000,5.9185830078125,0.6446921825408936,-0.37757956981658936,0.6214250922203064
1772797342945609000,5.92860888671875,0.6455404162406921,-0.17848356068134308,0.5652547478675842
1772797342955635000,5.938635009765625,0.6422919034957886,0.028572674840688705,0.4545913338661194
1772797342965661000,5.948660888671875,0.6430358290672302,0.17618894577026367,0.3299764096736908
1772797342975687000,5.95868701171875,0.6446846127510071,0.2481909692287445,0.2216387689113617
1772797342985712600,5.968712646484375,0.6659545302391052,0.22190412878990173,0.16275334358215332
1772797342995738600,5.978738525390625,0.6792924404144287,0.1355263590812683,0.17707449197769165
1772797343005764600,5.9887646484375,0.6854172945022583,0.029449889436364174,0.25123873353004456
1772797343015790600,5.99879052734375,0.6838766932487488,-0.06849957257509232,0.3400069773197174
1772797343025816800,6.00881689453125,0.6931389570236206,-0.14149107038974762,0.40130415558815
1772797343035842800,6.0188427734375,0.7085427045822144,-0.1875603049993515,0.4108979105949402
1772797343045868800,6.028868896484375,0.7261965274810791,-0.21226494014263153,0.38819819688796997
1772797343055894800,6.038894775390625,0.7288839221000671,-0.20782677829265594,0.36729875206947327
1772797343065920800,6.048920654296875,0.7198631763458252,-0.16472116112709045,0.34487709403038025
1772797343075946800,6.05894677734375,0.7030926942825317,-0.12095344811677933,0.32990744709968567
1772797343085972700,6.06897265625,0.6897459030151367,-0.06277180463075638,0.3028433322906494
1772797343095997700,6.078997802734375,0.6926633715629578,0.015044157393276691,0.26284265518188477
1772797343106023700,6.089023681640625,0.7140043377876282,0.0690687820315361,0.2087535858154297
1772797343116049700,6.099049560546875,0.7509730458259583,0.07969532161951065,0.14555996656417847
1772797343126075600,6.10907568359375,0.7880008816719055,0.055255383253097534,0.10348469018936157
1772797343136101600,6.1191015625,0.8134806752204895,0.01671970821917057,0.08748894929885864
1772797343146127600,6.129127685546875,0.8394932746887207,-0.03191932663321495,0.10277655720710754
1772797343156153900,6.13915380859375,0.87184077501297,-0.0768873319029808,0.14314769208431244
1772797343166179800,6.149179931640625,0.8944417834281921,-0.1018768697977066,0.1872887760400772
1772797343176205800,6.159205810546875,0.904911458492279,-0.09860650449991226,0.21367616951465607
1772797343186231800,6.169231689453125,0.9029420018196106,-0.08098721504211426,0.22343534231185913
1772797343196257800,6.1792578125,0.8852106928825378,-0.05959165468811989,0.19555923342704773
1772797343206283800,6.18928369140625,0.8533453941345215,-0.03309349715709686,0.1218051090836525
1772797343216309800,6.199309814453125,0.8195461630821228,0.009719211608171463,0.021318446844816208
1772797343226335700,6.209335693359375,0.7592442035675049,0.0643349438905716,-0.07500940561294556
1772797343236361700,6.21936181640625,0.6708650588989258,0.06906711310148239,-0.134676992893219
1772797343246387700,6.2293876953125,0.6260882019996643,0.026563800871372223,-0.16244205832481384
1772797343256414000,6.2394140625,0.6478363871574402,-0.01617087982594967,-0.1774018406867981
1772797343266440000,6.24943994140625,0.6765845417976379,-0.06709573417901993,-0.17398180067539215
1772797343276466000,6.2594658203125,0.6832706928253174,-0.1199198067188263,-0.14218232035636902
1772797343286492000,6.269491943359375,0.690438449382782,-0.10792820900678635,-0.08785570412874222
1772797343296516900,6.279516845703125,0.716667115688324,-0.03291894495487213,-0.01866970583796501
1772797343306542800,6.28954296875,0.743435263633728,0.07478976249694824,0.05436748266220093
1772797343316568800,6.29956884765625,0.7706245183944702,0.1554230898618698,0.12016113847494125
1772797343326594800,6.3095947265625,0.7553442716598511,0.15662053227424622,0.22394241392612457
1772797343336620800,6.319620849609375,0.7406007647514343,0.1337282657623291,0.28720152378082275
1772797343346646800,6.329646728515625,0.7060192227363586,0.08990977704524994,0.31708458065986633
1772797343356672800,6.3396728515625,0.6348866820335388,0.03768013417720795,0.3778781592845917
1772797343366699500,6.349699462890625,0.5556997656822205,0.03506089746952057,0.44714751839637756
1772797343376725800,6.359725830078125,0.48140981793403625,0.12692052125930786,0.49071842432022095
1772797343386751700,6.369751708984375,0.39632439613342285,0.3321289122104645,0.47399377822875977
1772797343396777700,6.37977783203125,0.3433685004711151,0.4899955093860626,0.32091689109802246
1772797343406803700,6.3898037109375,0.34134915471076965,0.49309152364730835,0.11896191537380219
1772797343416829700,6.39982958984375,0.3956696391105652,0.43221646547317505,-0.020198365673422813
1772797343426855700,6.409855712890625,0.4773876368999481,0.39471057057380676,-0.06364436447620392
1772797343436881700,6.419881591796875,0.5581440329551697,0.3528185188770294,-0.0061246128752827644
1772797343446907600,6.42990771484375,0.6322305202484131,0.2666623890399933,0.17347177863121033
1772797343456933400,6.439933349609375,0.6595620512962341,0.1849193423986435,0.4467075765132904
1772797343466959400,6.44995947265625,0.6419368982315063,0.14769324660301208,0.7144684791564941
1772797343476985300,6.4599853515625,0.6149997711181641,0.12755629420280457,0.9022991061210632
1772797343487011600,6.470011474609375,0.6092032790184021,0.1567007452249527,0.9659925699234009
1772797343497037600,6.48003759765625,0.6085872650146484,0.23779639601707458,0.9126347899436951
1772797343507062800,6.490062744140625,0.6145936250686646,0.3166263699531555,0.7722867131233215
1772797343517088800,6.5000888671875,0.6514695882797241,0.3279320299625397,0.5720846652984619
1772797343527114800,6.51011474609375,0.7707606554031372,0.3889350891113281,0.3856026530265808
1772797343537140500,6.520140380859375,0.9044358730316162,0.36940160393714905,0.22009360790252686
1772797343547166500,6.53016650390625,0.9928961992263794,0.2910453975200653,0.1010039672255516
1772797343557192400,6.5401923828125,1.0595372915267944,0.19364720582962036,0.05835370719432831
1772797343567218400,6.550218505859375,1.1079155206680298,0.056547585874795914,0.08012131601572037
1772797343577244400,6.560244384765625,1.1324901580810547,-0.07287085801362991,0.12419343739748001
1772797343587270400,6.5702705078125,1.1231671571731567,-0.17480285465717316,0.15745924413204193
1772797343597296400,6.58029638671875,1.0910099744796753,-0.2347937524318695,0.1717606782913208
1772797343607322400,6.590322265625,1.0414131879806519,-0.2465217262506485,0.1439996212720871
1772797343617348600,6.6003486328125,0.9805381298065186,-0.26639077067375183,0.06500174850225449
1772797343627374600,6.61037451171875,0.8974352478981018,-0.312412828207016,-0.03824181482195854
1772797343637400600,6.620400634765625,0.8071436882019043,-0.3477329909801483,-0.11827725917100906
1772797343647426600,6.630426513671875,0.7366000413894653,-0.3302778899669647,-0.16509190201759338
1772797343657452500,6.64045263671875,0.6700308322906494,-0.2687000036239624,-0.17125019431114197
1772797343667478500,6.650478515625,0.6116564273834229,-0.12555712461471558,-0.14415067434310913
1772797343677504500,6.66050439453125,0.5702426433563232,0.08873891830444336,-0.09826280176639557
1772797343687530500,6.670530517578125,0.5364426374435425,0.2727007269859314,-0.07378329336643219
1772797343697556500,6.680556396484375,0.5160750150680542,0.37177538871765137,-0.021854853257536888
1772797343707581400,6.69058154296875,0.49790945649147034,0.4117404520511627,0.009688420221209526
1772797343717607400,6.700607421875,0.4890826940536499,0.4137290418148041,-0.006013044156134129
1772797343727633400,6.71063330078125,0.48945316672325134,0.3329724073410034,-0.08785277605056763
1772797343737659400,6.720659423828125,0.49764400720596313,0.17566215991973877,-0.19307799637317657
1772797343747685600,6.730685546875,0.5123140811920166,0.010535743087530136,-0.28651127219200134
1772797343757711600,6.740711669921875,0.5060023665428162,-0.1313774585723877,-0.3390847146511078
1772797343767737600,6.750737548828125,0.4978349208831787,-0.2142893671989441,-0.3781437277793884
1772797343777763600,6.760763671875,0.4679904878139496,-0.20657658576965332,-0.41585516929626465
1772797343787789600,6.77078955078125,0.4332265555858612,-0.13743726909160614,-0.41916200518608093
1772797343797815600,6.780815673828125,0.402721643447876,-0.0601603239774704,-0.4227580726146698
1772797343807841500,6.790841552734375,0.37122052907943726,0.03499825298786163,-0.43348872661590576
1772797343817867500,6.800867431640625,0.30565112829208374,0.13785699009895325,-0.45382410287857056
1772797343827893500,6.8108935546875,0.22932660579681396,0.19054146111011505,-0.4614127576351166
1772797343837919500,6.82091943359375,0.18010500073432922,0.17409005761146545,-0.4250568747520447
1772797343847945500,6.830945556640625,0.16277781128883362,0.1174771785736084,-0.33196502923965454
1772797343857971700,6.8409716796875,0.16934703290462494,0.021851323544979095,-0.21738865971565247
1772797343867997700,6.850997802734375,0.17051216959953308,-0.07402007281780243,-0.1079641729593277
1772797343878023700,6.861023681640625,0.16272296011447906,-0.1724316030740738,-0.016039306297898293
1772797343888049700,6.871049560546875,0.13941720128059387,-0.2158476710319519,0.05602875351905823
1772797343898075600,6.88107568359375,0.10907500982284546,-0.2170381098985672,0.09248103201389313
1772797343908100600,6.8911005859375,0.07897360622882843,-0.17863744497299194,0.09611785411834717
1772797343918126600,6.901126708984375,0.038744691759347916,-0.13254718482494354,0.06479961425065994
1772797343928152600,6.911152587890625,0.05303122103214264,-0.10098419338464737,-0.01542225107550621
1772797343938178600,6.921178466796875,0.046388231217861176,-0.09703419357538223,-0.11636138707399368
1772797343948204500,6.93120458984375,0.18408231437206268,-0.13121843338012695,-0.23471572995185852
1772797343958230500,6.94123046875,0.28025516867637634,-0.20901043713092804,-0.3255055546760559
1772797343968256500,6.951256591796875,0.30200663208961487,-0.27556315064430237,-0.3736174404621124
1772797343978282500,6.961282470703125,0.22859205305576324,-0.34810152649879456,-0.3982412815093994
1772797343988308700,6.971308837890625,0.21199828386306763,-0.3406679332256317,-0.37149569392204285
1772797343998334700,6.981334716796875,0.23933669924736023,-0.24673770368099213,-0.2731435298919678
1772797344008360700,6.991360595703125,0.28906136751174927,-0.1768002063035965,-0.11534885317087173
1772797344018386700,7.00138671875,0.3334112763404846,-0.16199569404125214,0.04051664099097252
1772797344028412700,7.01141259765625,0.37456974387168884,-0.1872316598892212,0.1508559286594391
1772797344038438700,7.021438720703125,0.40383416414260864,-0.22805659472942352,0.20451410114765167
1772797344048464600,7.031464599609375,0.42067986726760864,-0.29864516854286194,0.2141483575105667
1772797344058490600,7.04149072265625,0.42472413182258606,-0.3843504786491394,0.19597680866718292
1772797344068516600,7.0515166015625,0.43199360370635986,-0.39518481492996216,0.19088031351566315
1772797344078542600,7.06154248046875,0.434635192155838,-0.36468496918678284,0.1978394240140915
1772797344088568600,7.071568603515625,0.4284173846244812,-0.34569084644317627,0.19903811812400818
1772797344098594600,7.081594482421875,0.4068162143230438,-0.3400534689426422,0.19954971969127655
1772797344108619500,7.09161962890625,0.3760887086391449,-0.33361831307411194,0.22578690946102142
1772797344118645800,7.101645751953125,0.3275555372238159,-0.3820228576660156,0.2671702802181244
1772797344128671700,7.111671630859375,0.23835989832878113,-0.48256227374076843,0.3297511339187622
1772797344138697700,7.12169775390625,0.13793902099132538,-0.534923791885376,0.39700445532798767
1772797344148723700,7.1317236328125,0.08018786460161209,-0.4402419626712799,0.31564489006996155
1772797344158749700,7.141749755859375,0.0016682848799973726,-0.395968496799469,0.07741821557283401
1772797344168775700,7.151775634765625,-0.07877723127603531,-0.49180153012275696,-0.14869719743728638
1772797344178801700,7.1618017578125,-0.09773894399404526,-0.6514465808868408,-0.2865474820137024
1772797344188827400,7.171827392578125,-0.04402385652065277,-0.7714315056800842,-0.3122267723083496
1772797344198853400,7.181853271484375,0.13960641622543335,-0.7574557662010193,-0.15722225606441498
1772797344208879400,7.19187939453125,0.34575334191322327,-0.5905901193618774,0.14049144089221954
1772797344218905300,7.2019052734375,0.5091044306755066,-0.35856038331985474,0.48556095361709595
1772797344228931600,7.211931640625,0.614730954170227,-0.11628846824169159,0.7452796101570129
1772797344238957600,7.22195751953125,0.6817813515663147,0.09648957848548889,0.8501636981964111
1772797344248983600,7.231983642578125,0.7415245175361633,0.29074856638908386,0.8116160035133362
1772797344259009500,7.242009521484375,0.802368700504303,0.44848892092704773,0.6965941190719604
1772797344269035500,7.252035400390625,0.84958416223526,0.5334815979003906,0.5702452063560486
1772797344279061500,7.2620615234375,0.8851983547210693,0.5254073739051819,0.4789811074733734
1772797344289087500,7.27208740234375,0.9105120897293091,0.4220345616340637,0.44979578256607056
1772797344299113500,7.282113525390625,0.9272993206977844,0.1907409131526947,0.5344997048377991
1772797344309138400,7.292138427734375,0.9438114762306213,-0.07813744992017746,0.6831027865409851
1772797344319164400,7.302164306640625,0.9535292983055115,-0.28248393535614014,0.8002017140388489
1772797344329190400,7.3121904296875,0.9280585050582886,-0.41965392231941223,0.796532392501831
1772797344339216400,7.32221630859375,0.8902099132537842,-0.5398884415626526,0.7364879846572876
1772797344349242400,7.332242431640625,0.8422542214393616,-0.653685450553894,0.6953567862510681
1772797344359268600,7.3422685546875,0.7962587475776672,-0.7783131003379822,0.7354365587234497
1772797344369294300,7.35229443359375,0.8013646006584167,-0.8876899480819702,0.8765665292739868
1772797344379320300,7.3623203125,0.8565897345542908,-0.9042433500289917,1.0052640438079834
1772797344389346300,7.37234619140625,0.9285315275192261,-0.807632327079773,1.0174371004104614
1772797344399372300,7.382372314453125,0.9393953680992126,-0.6152501106262207,0.9040095806121826
1772797344409398500,7.3923984375,0.9063042402267456,-0.3129049241542816,0.6730032563209534
1772797344419424500,7.402424560546875,0.8837850689888,0.06753189861774445,0.4057915508747101
1772797344429450500,7.412450439453125,0.8715777397155762,0.35655543208122253,0.26323866844177246
1772797344439476500,7.4224765625,0.8087114095687866,0.4010153114795685,0.37116754055023193
1772797344449502500,7.43250244140625,0.7651907801628113,0.32840481400489807,0.5502983927726746
1772797344459528400,7.442528564453125,0.7563112378120422,0.20767837762832642,0.6588903665542603
1772797344469554400,7.452554443359375,0.7594805359840393,0.09436153620481491,0.6949187517166138
1772797344479580400,7.462580322265625,0.7887793183326721,0.013794521801173687,0.6653608083724976
1772797344489606400,7.4726064453125,0.8300278782844543,-0.040971770882606506,0.5987495183944702
1772797344499632400,7.48263232421875,0.863889217376709,-0.0848231166601181,0.532783567905426
1772797344509657300,7.4926572265625,0.8893731236457825,-0.1357651799917221,0.47260841727256775
1772797344519683300,7.502683349609375,0.9096671938896179,-0.08742188662290573,0.38030457496643066
1772797344529709300,7.512709228515625,0.9402477145195007,-0.0354982390999794,0.2864835560321808
1772797344539735600,7.522735595703125,0.9477658271789551,0.02450437843799591,0.1976868212223053
1772797344549761500,7.532761474609375,0.9682469964027405,0.10118235647678375,0.12707817554473877
1772797344559787500,7.54278759765625,1.005113959312439,0.14038409292697906,0.08112506568431854
1772797344569813500,7.5528134765625,1.0491443872451782,0.15968935191631317,0.08143451809883118
1772797344579839500,7.562839599609375,1.0880664587020874,0.15528501570224762,0.10616569966077805
1772797344589865500,7.572865478515625,1.0883265733718872,0.12811340391635895,0.10588472336530685
1772797344599891500,7.582891357421875,1.0738765001296997,0.08112379163503647,0.08454055339097977
1772797344609917400,7.59291748046875,1.052795171737671,0.021916786208748817,0.040550194680690765
1772797344619943400,7.602943359375,1.040098786354065,-0.02037740685045719,0.007140574511140585
1772797344629969400,7.612969482421875,1.0186368227005005,-0.0571851022541523,0.005784769542515278
1772797344639995400,7.622995361328125,0.9699952006340027,-0.07103408128023148,0.052379436790943146
1772797344650021600,7.633021728515625,0.8893405795097351,-0.04838474094867706,0.1339307427406311
1772797344660047600,7.643047607421875,0.7958876490592957,0.029760394245386124,0.2037487030029297
1772797344670073600,7.653073486328125,0.7030217051506042,0.1281699389219284,0.23601850867271423
1772797344680099600,7.663099609375,0.6446337699890137,0.2294907122850418,0.23351912200450897
1772797344690125600,7.67312548828125,0.6275669932365417,0.2754243016242981,0.22778135538101196
1772797344700151600,7.683151611328125,0.643689751625061,0.2582431733608246,0.23823213577270508
1772797344710176500,7.693176513671875,0.6938849091529846,0.20395290851593018,0.24239091575145721
1772797344720202500,7.703202392578125,0.7730225920677185,0.1762496531009674,0.24857424199581146
1772797344730228500,7.713228515625,0.8472455143928528,0.1741696149110794,0.2572955787181854
1772797344740254500,7.72325439453125,0.9084079265594482,0.208195760846138,0.24065187573432922
1772797344750280400,7.733280517578125,0.9367324113845825,0.23209084570407867,0.1964319497346878
1772797344760306400,7.743306396484375,0.9276259541511536,0.19570434093475342,0.13762588798999786
1772797344770332400,7.75333251953125,0.8958852291107178,0.1755899041891098,0.11296022683382034
1772797344780358700,7.763358642578125,0.8593448400497437,0.19167380034923553,0.1342170387506485
1772797344790384600,7.773384521484375,0.8435090780258179,0.20786447823047638,0.2208094447851181
1772797344800410600,7.78341064453125,0.8123977780342102,0.1872825026512146,0.3538913428783417
1772797344810436600,7.7934365234375,0.7477924823760986,0.1353704035282135,0.4929485619068146
1772797344820462600,7.803462646484375,0.6609108448028564,0.05143928900361061,0.6200913190841675
1772797344830488300,7.81348828125,0.5600764751434326,-0.05327571928501129,0.693280041217804
1772797344840514300,7.823514404296875,0.47382572293281555,-0.07197350263595581,0.6534133553504944
1772797344850540300,7.833540283203125,0.3968179225921631,0.014223392121493816,0.4841122031211853
1772797344860566300,7.843566162109375,0.3344975411891937,0.17807944118976593,0.2215852439403534
1772797344870592300,7.85359228515625,0.3172893226146698,0.30815476179122925,-0.09445448964834213
1772797344880618200,7.8636181640625,0.3406375050544739,0.28253090381622314,-0.37221047282218933
1772797344890644500,7.87364453125,0.4324139654636383,0.18573680520057678,-0.45665743947029114
1772797344900669400,7.88366943359375,0.6044304370880127,0.05062611773610115,-0.3089689016342163
1772797344910695700,7.89369580078125,0.7606813907623291,-0.06516183167695999,0.006330709904432297
1772797344920721400,7.903721435546875,0.8420505523681641,-0.08908367156982422,0.3655514419078827
1772797344930747400,7.913747314453125,0.8789193630218506,-0.09376367181539536,0.6679097414016724
1772797344940773400,7.9237734375,0.9227265119552612,-0.08916812390089035,0.8892170786857605
1772797344950799400,7.93379931640625,0.9831634759902954,-0.04787346348166466,1.026351809501648
1772797344960825300,7.943825439453125,1.0261285305023193,0.0024387077428400517,1.0785681009292603
1772797344970851300,7.953851318359375,1.065955638885498,-0.016005903482437134,1.059015154838562
1772797344980877300,7.963877197265625,1.0858873128890991,-0.05877014622092247,0.9883633255958557
1772797344990903300,7.9739033203125,1.1181056499481201,-0.10449937731027603,0.9031898975372314
1772797345000929300,7.98392919921875,1.164374589920044,-0.1645461916923523,0.8292440176010132
1772797345010955300,7.993955322265625,1.2548822164535522,-0.11481709033250809,0.7400704622268677
1772797345020981500,8.0039814453125,1.3215855360031128,-0.075625479221344,0.559231162071228
1772797345031007500,8.014007568359375,1.3472859859466553,-0.017328770831227303,0.3429044783115387
1772797345041033500,8.024033447265625,1.3530442714691162,0.11077752709388733,0.14897175133228302
1772797345051059500,8.0340595703125,1.3646717071533203,0.24182195961475372,0.0017828292911872268
1772797345061085400,8.04408544921875,1.4067187309265137,0.34656062722206116,-0.08723892271518707
1772797345071111400,8.054111328125,1.4349356889724731,0.40650904178619385,-0.15732932090759277
1772797345081137400,8.064137451171876,1.4449172019958496,0.4167883098125458,-0.24508607387542725
1772797345091163400,8.074163330078125,1.4369131326675415,0.39972731471061707,-0.3712503910064697
1772797345101188400,8.084188232421875,1.407448172569275,0.334994375705719,-0.49832069873809814
1772797345111214300,8.09421435546875,1.3469902276992798,0.26843923330307007,-0.6153680086135864
1772797345121240300,8.104240234375,1.2455713748931885,0.20636388659477234,-0.673755943775177
1772797345131266300,8.114266357421876,1.1198880672454834,0.14019659161567688,-0.6559479236602783
1772797345141292300,8.124292236328126,1.0079642534255981,0.09783633798360825,-0.5691211223602295
1772797345151318500,8.134318603515625,0.9317938685417175,0.08255088329315186,-0.4144178330898285
1772797345161344500,8.144344482421875,0.9019339680671692,0.10478881001472473,-0.20202434062957764
1772797345171370500,8.15437060546875,0.9280344843864441,0.08858341723680496,0.05893106758594513
1772797345181396500,8.164396484375,0.9650670886039734,0.14657428860664368,0.24201247096061707
1772797345191422500,8.17442236328125,0.99488365650177,0.18315407633781433,0.3378865420818329
1772797345201448400,8.184448486328124,1.117660403251648,0.1652994453907013,0.3962779641151428
1772797345211474400,8.194474365234376,1.2209446430206299,0.16568994522094727,0.3655770421028137
1772797345221500400,8.20450048828125,1.2179549932479858,0.1583995372056961,0.25031301379203796
1772797345231526400,8.2145263671875,1.199054479598999,0.12163574248552322,0.12625126540660858
1772797345241552400,8.224552490234375,1.2321661710739136,0.09019526094198227,0.03189493715763092
1772797345251578400,8.234578369140625,1.2769140005111694,0.0763045996427536,-0.020880402997136116
1772797345261604600,8.2446044921875,1.334803581237793,0.07951264828443527,-0.05164897069334984
1772797345271630600,8.254630615234374,1.410355806350708,0.07626219093799591,-0.08278185874223709
1772797345281656600,8.264656494140626,1.4726893901824951,0.09062674641609192,-0.09806893765926361
1772797345291681500,8.274681640625,1.5184712409973145,0.1091880276799202,-0.08964454382658005
1772797345301707500,8.28470751953125,1.5411581993103027,0.1353386789560318,-0.05549430102109909
1772797345311733500,8.2947333984375,1.5321083068847656,0.1553514301776886,-0.03532325476408005
1772797345321759500,8.304759521484375,1.4923664331436157,0.18164534866809845,-0.03814513981342316
1772797345331785500,8.314785400390624,1.4267385005950928,0.21565385162830353,-0.0510106086730957
1772797345341811500,8.3248115234375,1.3341128826141357,0.24863150715827942,-0.0644659623503685
1772797345351837400,8.33483740234375,1.225856900215149,0.2528780400753021,-0.07548506557941437
1772797345361863000,8.34486279296875,1.1121973991394043,0.25511085987091064,-0.1191803365945816
1772797345371889000,8.354888916015625,1.0194505453109741,0.22966112196445465,-0.188208669424057
1772797345381915000,8.364914794921875,0.9409946799278259,0.16345973312854767,-0.28095483779907227
1772797345391940900,8.37494091796875,0.8615880608558655,0.08957424014806747,-0.3823283314704895
1772797345401967000,8.384967041015624,0.7772251963615417,0.03023315593600273,-0.45271673798561096
1772797345411993000,8.3949931640625,0.6830096244812012,0.013463636860251427,-0.44965067505836487
1772797345422019000,8.40501904296875,0.58297199010849,0.015859950333833694,-0.39090773463249207
1772797345432045000,8.415045166015625,0.5103863477706909,0.027366328984498978,-0.29578307271003723
1772797345442071000,8.425071044921875,0.4709574282169342,0.03786184638738632,-0.17228829860687256
1772797345452097000,8.435096923828125,0.507778525352478,0.008778810501098633,-0.030424365773797035
1772797345462123000,8.445123046875,0.5800479054450989,-0.056437209248542786,0.06921567767858505
1772797345472149000,8.45514892578125,0.7737434506416321,-0.11597318202257156,0.1755538135766983
1772797345482175000,8.465175048828126,0.8893219828605652,-0.21126215159893036,0.2411690503358841
1772797345492200000,8.475199951171875,0.9380347728729248,-0.33661818504333496,0.22614245116710663
1772797345502226000,8.485225830078125,0.958419919013977,-0.3910020589828491,0.1742696613073349
1772797345512252000,8.495251953125,0.9821463227272034,-0.3666464686393738,0.15477237105369568
1772797345522278000,8.50527783203125,0.9596183896064758,-0.33224910497665405,0.17697222530841827
1772797345532304100,8.51530419921875,0.8938167691230774,-0.2640679180622101,0.20633117854595184
1772797345542330000,8.525330078125,0.7850338220596313,-0.21571263670921326,0.24096213281154633
1772797345552356000,8.535356201171876,0.636131763458252,-0.15204212069511414,0.2877490818500519
1772797345562382000,8.545382080078125,0.4831790030002594,-0.12074359506368637,0.3436046242713928
1772797345572408000,8.555407958984375,0.34090372920036316,-0.12252993136644363,0.4107804596424103
1772797345582434000,8.56543408203125,0.20326568186283112,-0.16274899244308472,0.5075719356536865
1772797345592460000,8.5754599609375,0.16746430099010468,-0.2182391732931137,0.6399686336517334
1772797345602486000,8.585486083984375,0.1324024498462677,-0.32772359251976013,0.7214791774749756
1772797345612512000,8.595511962890624,0.023750273510813713,-0.24161480367183685,0.6559129357337952
1772797345622537700,8.605537841796876,0.0421266183257103,-0.08634158223867416,0.46599364280700684
1772797345632563700,8.615563720703125,0.08482544124126434,-0.175432950258255,0.23285360634326935
1772797345642590000,8.62558984375,0.4851590096950531,-0.27696675062179565,0.13980168104171753
1772797345652616000,8.635615966796875,0.8359927535057068,-0.19802412390708923,0.15514467656612396
1772797345662642000,8.645641845703125,1.0063966512680054,-0.22598785161972046,0.2763344943523407
1772797345672668000,8.65566796875,1.064886450767517,-0.31056785583496094,0.4437304139137268
1772797345682694000,8.66569384765625,1.1816339492797852,-0.30396801233291626,0.6128100156784058
1772797345692719900,8.675719970703126,1.2940900325775146,-0.18728092312812805,0.7504586577415466
1772797345702745000,8.6857451171875,1.3927081823349,-0.01858111470937729,0.8252862691879272
1772797345712770800,8.695770751953125,1.4080337285995483,0.11348295956850052,0.8265179395675659
1772797345722796800,8.705796875,1.3838034868240356,0.16234104335308075,0.8102995753288269
1772797345732822800,8.71582275390625,1.356427788734436,0.14438551664352417,0.7868198752403259
1772797345742848800,8.725848876953124,1.3238744735717773,0.06011510640382767,0.7264025807380676
1772797345752874800,8.735874755859374,1.2989212274551392,-0.04818877577781677,0.6330441236495972
1772797345762900700,8.745900634765626,1.2908579111099243,-0.1510922610759735,0.5038014650344849
1772797345772927000,8.755927001953125,1.27921724319458,-0.24923747777938843,0.37150201201438904
1772797345782953000,8.765952880859375,1.2912249565124512,-0.2661088705062866,0.24897851049900055
1772797345792979000,8.77597900390625,1.3291091918945312,-0.21709595620632172,0.17569497227668762
1772797345803005000,8.7860048828125,1.3574409484863281,-0.15131162106990814,0.1209704652428627
1772797345813031000,8.796031005859374,1.3565489053726196,-0.11964508891105652,0.05962643399834633
1772797345823057000,8.806056884765624,1.3266868591308594,-0.10864356905221939,-0.021515024825930595
1772797345833083000,8.816082763671876,1.2651808261871338,-0.104349784553051,-0.10350630432367325
1772797345843108900,8.82610888671875,1.2320630550384521,-0.05075260251760483,-0.1302284598350525
1772797345853134800,8.836134765625,1.1946393251419067,0.03755492717027664,-0.024656223133206367
1772797345863160800,8.846160888671875,1.1383368968963623,0.12315317988395691,0.20189595222473145
1772797345873186800,8.856186767578125,1.0968040227890015,0.20317646861076355,0.44679757952690125
1772797345883213000,8.866213134765625,1.0825355052947998,0.2194768786430359,0.6154411435127258
1772797345893239000,8.876239013671874,1.0790303945541382,0.19018979370594025,0.6837204098701477
1772797345903264000,8.886263916015626,1.087206482887268,0.13705334067344666,0.6749138832092285
1772797345913290000,8.8962900390625,1.1177682876586914,0.0638013482093811,0.635595977306366
1772797345923316000,8.90631591796875,1.1582249402999878,-0.0355105921626091,0.5827412605285645
1772797345933342000,8.916342041015625,1.1796663999557495,-0.11396005749702454,0.5386359095573425
1772797345943368000,8.926367919921875,1.2103239297866821,-0.1863921880722046,0.4973936378955841
1772797345953394000,8.936393798828124,1.1548538208007812,-0.26836732029914856,0.46278801560401917
1772797345963420000,8.946419921875,1.1905229091644287,-0.32017725706100464,0.4193912744522095
1772797345973446000,8.95644580078125,1.2547794580459595,-0.24311378598213196,0.3551909625530243
1772797345983471900,8.966471923828125,1.2251189947128296,-0.17095117270946503,0.31291940808296204
1772797345993497900,8.976497802734375,1.1971558332443237,-0.09949171543121338,0.2738513648509979
1772797346003523800,8.98652392578125,1.1631989479064941,0.0078001138754189014,0.23175665736198425
1772797346013550000,8.996550048828125,1.127023696899414,0.13378025591373444,0.17631496489048004
1772797346023576000,9.006576171875,1.1226723194122314,0.208584725856781,0.1020207554101944
1772797346033602000,9.01660205078125,1.144989013671875,0.25420477986335754,0.003445179434493184
1772797346043628000,9.0266279296875,1.1871135234832764,0.26458925008773804,-0.10765071213245392
1772797346053654000,9.036654052734375,1.2150624990463257,0.26794764399528503,-0.21528609097003937
1772797346063680000,9.046679931640625,1.2325125932693481,0.22918719053268433,-0.3004385530948639
1772797346073706000,9.0567060546875,1.2660155296325684,0.1952354907989502,-0.34273460507392883
1772797346083732000,9.06673193359375,1.283983588218689,0.14380213618278503,-0.30975213646888733
1772797346093758000,9.076758056640625,1.3180644512176514,0.1003723070025444,-0.21917645633220673
1772797346103784000,9.086783935546874,1.3221361637115479,0.038532376289367676,-0.09006720036268234
1772797346113810000,9.096809814453126,1.3073147535324097,-0.032250624150037766,0.030072258785367012
1772797346123835000,9.1068349609375,1.2698112726211548,-0.10736854374408722,0.15780200064182281
1772797346133860900,9.11686083984375,1.2121038436889648,-0.15349531173706055,0.3081185519695282
1772797346143887000,9.12688720703125,1.1568149328231812,-0.1487189382314682,0.4483102560043335
1772797346153913000,9.1369130859375,1.1149641275405884,-0.11319287866353989,0.5286157131195068
1772797346163939000,9.14693896484375,1.0722864866256714,-0.07213146239519119,0.5228263139724731
1772797346173965000,9.156965087890624,1.0493552684783936,-0.0419883094727993,0.4283061921596527
1772797346183991000,9.166990966796876,1.0240429639816284,-0.032912787050008774,0.3039301931858063
1772797346194017000,9.17701708984375,0.9993983507156372,-0.020470255985856056,0.2088678479194641
1772797346204043000,9.18704296875,0.9747920632362366,-0.008523581549525261,0.16671985387802124
1772797346214069000,9.197069091796875,0.9494229555130005,-0.0011166520416736603,0.15056592226028442
1772797346224095000,9.207094970703125,0.9391780495643616,-0.007818496786057949,0.128203883767128
1772797346234121000,9.217120849609374,0.943500816822052,-0.03389808535575867,0.09804440289735794
1772797346244147000,9.22714697265625,0.9578113555908203,-0.06731969118118286,0.0536138191819191
1772797346254173000,9.2371728515625,0.9708053469657898,-0.08175250142812729,0.012780360877513885
1772797346264199000,9.247198974609375,0.9673842191696167,-0.02778327651321888,-0.014364706352353096
1772797346274225000,9.257224853515625,0.9438722729682922,0.05762483552098274,-0.012927666306495667
1772797346284251000,9.2672509765625,0.9011303782463074,0.15976132452487946,0.04094754904508591
1772797346294276900,9.27727685546875,0.8401401042938232,0.22063413262367249,0.13433422148227692
1772797346304302800,9.287302734375,0.7886838316917419,0.20521362125873566,0.2392992526292801
1772797346314328800,9.297328857421874,0.7809607982635498,0.13711783289909363,0.29414066672325134
1772797346324354800,9.307354736328126,0.8070472478866577,0.0987616628408432,0.18328525125980377
1772797346334380000,9.317380126953125,0.8240488767623901,0.16898368299007416,-0.055458877235651016
1772797346344406000,9.327406005859375,0.8123056292533875,0.2540426254272461,-0.3356812000274658
1772797346354431700,9.337431640625,0.8649088144302368,0.2365974634885788,-0.5632240772247314
1772797346364457700,9.347457763671875,0.9504019021987915,0.17645342648029327,-0.6233992576599121
1772797346374483700,9.357483642578124,1.0213412046432495,0.08049599826335907,-0.4806242883205414
1772797346384510000,9.367510009765626,1.0177297592163086,-0.024108445271849632,-0.22227315604686737
1772797346394536000,9.377535888671876,0.9519950151443481,-0.09838437288999557,0.042060211300849915
1772797346404562000,9.38756201171875,0.886925220489502,-0.12363912910223007,0.255391925573349
1772797346414588000,9.397587890625,0.8590351939201355,-0.13278645277023315,0.4827047288417816
1772797346424614000,9.40761376953125,0.8528673052787781,-0.10643315315246582,0.6952284574508667
1772797346434640000,9.417639892578125,0.8284515738487244,-0.00885715987533331,0.8767374753952026
1772797346444665900,9.427665771484374,0.8012673854827881,0.008062701672315598,0.9888789653778076
1772797346454691800,9.43769189453125,0.7891353964805603,-0.07422339916229248,1.0323619842529297
1772797346464717800,9.4477177734375,0.7820002436637878,-0.16866573691368103,1.0737032890319824
1772797346474743800,9.457743896484375,0.7642822861671448,-0.2538144886493683,1.1016576290130615
1772797346484770000,9.46777001953125,0.7707929015159607,-0.29155227541923523,1.0047729015350342
1772797346494796000,9.477796142578125,0.7911659479141235,-0.22884273529052734,0.79825359582901
1772797346504822000,9.487822021484375,0.8509384393692017,-0.09770041704177856,0.5077144503593445
1772797346514848000,9.497847900390624,0.930225670337677,0.042595285922288895,0.2243453413248062
1772797346524874000,9.5078740234375,1.0087950229644775,0.1525353640317917,0.018094167113304138
1772797346534899000,9.51789892578125,1.0553624629974365,0.24853840470314026,-0.0797562301158905
1772797346544925000,9.527925048828125,1.0943715572357178,0.28487297892570496,-0.1362309753894806
1772797346554951000,9.537950927734375,1.1054307222366333,0.2943606972694397,-0.2174757421016693
1772797346564977000,9.547976806640625,1.1114695072174072,0.30336618423461914,-0.3346039652824402
1772797346575003000,9.5580029296875,1.0911993980407715,0.3111844062805176,-0.4809556007385254
1772797346585028900,9.56802880859375,1.0359467267990112,0.29752132296562195,-0.6071860194206238
1772797346595054800,9.578054931640626,0.9931313991546631,0.2516089975833893,-0.6596917510032654
1772797346605080800,9.588080810546876,0.9382332563400269,0.19994233548641205,-0.6196103692054749
1772797346615107000,9.598107177734375,0.8865726590156555,0.18299145996570587,-0.5053208470344543
1772797346625133000,9.608133056640625,0.8487618565559387,0.19984020292758942,-0.347165048122406
1772797346635159000,9.618158935546875,0.8265186548233032,0.2429092675447464,-0.19520480930805206
1772797346645185000,9.62818505859375,0.8191108107566833,0.2641429305076599,-0.09006719291210175
1772797346655211000,9.6382109375,0.8188698291778564,0.2780725955963135,-0.032346367835998535
1772797346665237000,9.648237060546874,0.8198946118354797,0.2897934317588806,0.017594560980796814
1772797346675263000,9.658262939453126,0.8189904689788818,0.276531845331192,0.07787653058767319
1772797346685289000,9.6682890625,0.8196868896484375,0.2722090184688568,0.10198186337947845
1772797346695315000,9.67831494140625,0.8266981840133667,0.24869661033153534,0.06139557063579559
1772797346705341000,9.6883408203125,0.8386083841323853,0.17338827252388,-0.01732960157096386
1772797346715367000,9.698366943359375,0.8461685180664062,0.0905892550945282,-0.08653584122657776
1772797346725393200,9.70839306640625,0.8625120520591736,0.04757466912269592,-0.1621190309524536
1772797346735419100,9.718419189453124,0.88072270154953,0.03732587397098541,-0.2308219075202942
1772797346745445000,9.728445068359376,0.8781577944755554,0.02954944223165512,-0.25905221700668335
1772797346755470000,9.738469970703125,0.9179638028144836,0.023425575345754623,-0.229080468416214
1772797346765496000,9.74849609375,0.9625230431556702,0.03981972858309746,-0.2086194008588791
1772797346775522000,9.75852197265625,1.036372184753418,0.05403800308704376,-0.1885378360748291
1772797346785548000,9.768548095703125,1.0979686975479126,0.07212619483470917,-0.1748609095811844
1772797346795574000,9.778573974609374,1.1229480504989624,0.06473590433597565,-0.1589439958333969
1772797346805600000,9.78860009765625,1.1132298707962036,0.03172656148672104,-0.13736014068126678
1772797346815626000,9.7986259765625,1.0936425924301147,0.021528583019971848,-0.10256540775299072
1772797346825652000,9.80865185546875,1.0525867938995361,0.017188962548971176,-0.09129171073436737
1772797346835678000,9.818677978515625,1.0719351768493652,0.05779857560992241,-0.09170584380626678
1772797346845704000,9.828703857421875,1.081201195716858,0.061561089009046555,-0.09110742807388306
1772797346855730200,9.838730224609375,1.074789047241211,0.03200298175215721,-0.08658750355243683
1772797346865756200,9.848756103515624,1.0452871322631836,-0.01589050702750683,-0.0854005366563797
1772797346875782000,9.858781982421876,0.9975219368934631,-0.0671759694814682,-0.07801665365695953
1772797346885807900,9.868807861328126,0.9423186182975769,-0.058832816779613495,-0.07000666111707687
1772797346895833900,9.878833740234375,0.8829589486122131,-0.036701831966638565,-0.02643921971321106
1772797346905859800,9.88885986328125,0.8264413475990295,-0.006587338168174028,0.031403571367263794
1772797346915885800,9.8988857421875,0.7759180068969727,0.023596663028001785,0.08537305891513824
1772797346925911800,9.908911865234375,0.7422122359275818,0.007159633096307516,0.10827411711215973
1772797346935937800,9.918937744140624,0.6981182098388672,-0.025987818837165833,0.0973714143037796
1772797346945963800,9.9289638671875,0.6431282162666321,-0.09268215298652649,0.07479393482208252
1772797346955989800,9.93898974609375,0.6083023548126221,-0.17067578434944153,0.03959706425666809
1772797346966016000,9.94901611328125,0.5709619522094727,-0.20737574994564056,0.027665304020047188
1772797346976041000,9.959041015625,0.5335102677345276,-0.22162196040153503,0.045576922595500946
1772797346986067000,9.96906689453125,0.4993022382259369,-0.21550334990024567,0.0903441309928894
1772797346996093000,9.979093017578125,0.46523937582969666,-0.20748192071914673,0.1522541046142578
1772797347006119000,9.989118896484374,0.4366852343082428,-0.20764172077178955,0.22116738557815552
1772797347016145000,9.999144775390626,0.41448503732681274,-0.19835276901721954,0.2945878207683563
1772797347026171000,10.0091708984375,0.3848874568939209,-0.19593089818954468,0.3662169873714447
1772797347036196900,10.01919677734375,0.344750314950943,-0.2273029237985611,0.4236973226070404
1772797347046222800,10.029222900390625,0.27859634160995483,-0.25128576159477234,0.4699534773826599
1772797347056248800,10.039248779296875,0.19851240515708923,-0.18933603167533875,0.4645076096057892
1772797347066274800,10.04927490234375,0.10130994766950607,-0.06304707378149033,0.3390498161315918
1772797347076300800,10.05930078125,0.003953979350626469,0.014177319593727589,0.1241937130689621
1772797347086326800,10.069326904296876,-0.07195037603378296,0.021594755351543427,-0.059427522122859955
1772797347096353000,10.07935302734375,-0.012630130164325237,0.017505250871181488,-0.08493181318044662
1772797347106379000,10.08937890625,0.023705506697297096,0.03953412175178528,-0.027658408507704735
1772797347116405000,10.099405029296875,0.0799512267112732,0.01866951957345009,0.12304188311100006
1772797347126431000,10.109430908203125,0.19762194156646729,0.032725151628255844,0.3444182276725769
1772797347136457000,10.11945703125,0.34359967708587646,0.09723973274230957,0.5598676800727844
1772797347146483000,10.12948291015625,0.5238991379737854,0.1384790539741516,0.7144588232040405
1772797347156509000,10.139509033203124,0.6804680228233337,0.07399370521306992,0.7942208051681519
1772797347166535000,10.149534912109376,0.7373515367507935,-0.08527211844921112,0.8293591141700745
1772797347176561000,10.159560791015625,0.7198377847671509,-0.201935276389122,0.8527778387069702
1772797347186585900,10.1695859375,0.6754660606384277,-0.2550067603588104,0.8218116760253906
1772797347196611800,10.17961181640625,0.6539947390556335,-0.29001176357269287,0.691473126411438
1772797347206637800,10.189637939453124,0.5636904239654541,-0.2987240254878998,0.523892879486084
1772797347216663800,10.199663818359374,0.47124943137168884,-0.3068521022796631,0.3631082773208618
1772797347226690000,10.20968994140625,0.41694945096969604,-0.29695525765419006,0.22535893321037292
1772797347236716000,10.219716064453126,0.3757462501525879,-0.2620578408241272,0.1458318829536438
1772797347246742000,10.229741943359375,0.3410812318325043,-0.20688937604427338,0.09001576155424118
1772797347256768000,10.23976806640625,0.2865126132965088,-0.1468639373779297,0.03760768473148346
1772797347266794000,10.2497939453125,0.2070055603981018,-0.06344307959079742,0.005213525146245956
1772797347276820000,10.259820068359375,0.15478363633155823,-0.010006003081798553,-0.014670969918370247
1772797347286846000,10.269845947265624,0.13231641054153442,0.004848044831305742,0.00045471847988665104
1772797347296872000,10.279871826171876,0.09744872897863388,-0.006224861368536949,0.049494966864585876
1772797347306898000,10.28989794921875,0.09199963510036469,-0.013941370882093906,0.1367848664522171
1772797347316924000,10.299923828125,0.09121419489383698,-0.011138081550598145,0.2130490094423294
1772797347326950000,10.309949951171875,0.10438379645347595,0.013330776244401932,0.2672871947288513
1772797347336976100,10.31997607421875,0.11939438432455063,0.07712315022945404,0.3259923458099365
1772797347347002000,10.330002197265625,0.14953283965587616,0.14133808016777039,0.3921620547771454
1772797347357028000,10.340028076171874,0.194834366440773,0.17629007995128632,0.4490679204463959
1772797347367054300,10.350054443359374,0.23435461521148682,0.15457066893577576,0.4662277102470398
1772797347377080300,10.360080322265626,0.28171655535697937,0.11393138766288757,0.4425719380378723
1772797347387106300,10.370106201171875,0.30852898955345154,0.04665195196866989,0.39894774556159973
1772797347397132000,10.380132080078125,0.3248448669910431,0.019360659644007683,0.3418773114681244
1772797347407157200,10.3901572265625,0.3489246368408203,0.018757186830043793,0.3009445071220398
1772797347417183200,10.400183349609375,0.3665769696235657,-0.012314073741436005,0.2703772485256195
1772797347427209200,10.410209228515624,0.38598397374153137,-0.03980002552270889,0.25169306993484497
1772797347437235200,10.420235107421876,0.41006818413734436,-0.03498461842536926,0.24680297076702118
1772797347447261200,10.43026123046875,0.4395616352558136,-0.01697259396314621,0.23637908697128296
1772797347457287200,10.440287109375,0.4771779477596283,-0.0020927865989506245,0.22172264754772186
1772797347467313200,10.450313232421875,0.505569338798523,0.0010521402582526207,0.2064099907875061
1772797347477339100,10.460339111328125,0.5191920399665833,0.013391837477684021,0.1666141301393509
1772797347487365000,10.470365234375,0.5312218070030212,0.025583522394299507,0.11101903766393661
1772797347497391000,10.48039111328125,0.5398557782173157,0.03653688728809357,0.053094759583473206
1772797347507417000,10.4904169921875,0.5593072772026062,0.022159814834594727,-0.002068628091365099
1772797347517443000,10.500443115234376,0.5825804471969604,-0.02792743407189846,-0.03862876817584038
1772797347527469000,10.510468994140625,0.6023821234703064,-0.08495636284351349,-0.0499567911028862
1772797347537495000,10.5204951171875,0.6138132214546204,-0.12772464752197266,-0.042643219232559204
1772797347547521000,10.53052099609375,0.5902969837188721,-0.18103501200675964,0.0009420769056305289
1772797347557547000,10.540547119140625,0.5394373536109924,-0.2227737009525299,0.07770636677742004
1772797347567573000,10.550572998046874,0.4846268594264984,-0.22279314696788788,0.14291812479496002
1772797347577599000,10.560598876953126,0.4247250258922577,-0.17914517223834991,0.1824231892824173
1772797347587625000,10.570625,0.38147953152656555,-0.11996734887361526,0.20252898335456848
1772797347597651000,10.58065087890625,0.3612540066242218,-0.0696968138217926,0.20644143223762512
1772797347607677200,10.59067724609375,0.392882764339447,-0.03927579149603844,0.1906568706035614
1772797347617703200,10.600703125,0.4270661771297455,-0.018526393920183182,0.15885847806930542
1772797347627728100,10.61072802734375,0.44037744402885437,0.0011455779895186424,0.12579692900180817
1772797347637754000,10.620754150390624,0.46665874123573303,-0.02417270466685295,0.10076960176229477
1772797347647780000,10.630780029296876,0.5183535814285278,-0.07963462918996811,0.09109700471162796
1772797347657806000,10.64080615234375,0.565864086151123,-0.11139784008264542,0.10128412395715714
1772797347667832000,10.65083203125,0.5968995094299316,-0.11872446537017822,0.13054560124874115
1772797347677858000,10.660858154296875,0.6194265484809875,-0.0917779728770256,0.17756611108779907
1772797347687884000,10.670884033203125,0.6275931000709534,-0.028163840994238853,0.2386840581893921
1772797347697910000,10.680909912109374,0.6152312755584717,0.07295478135347366,0.30012187361717224
1772797347707936000,10.69093603515625,0.5769357681274414,0.146232470870018,0.36370351910591125
1772797347717962000,10.7009619140625,0.5135704874992371,0.16170749068260193,0.4139549434185028
1772797347727988000,10.710988037109376,0.4449690282344818,0.1170651763677597,0.4441258907318115
1772797347738014200,10.72101416015625,0.3684927821159363,0.041822709143161774,0.45124584436416626
1772797347748040200,10.731040283203125,0.28788501024246216,0.037610121071338654,0.42250555753707886
1772797347758066200,10.741066162109375,0.20206856727600098,0.1750461459159851,0.2986280918121338
1772797347768092200,10.751092041015625,0.10508821904659271,0.34876468777656555,0.08378981798887253
1772797347778118100,10.7611181640625,0.04575822502374649,0.4949856400489807,-0.19702240824699402
1772797347788144000,10.77114404296875,0.02764633297920227,0.5253307819366455,-0.4362059533596039
1772797347798170000,10.781170166015626,0.018784059211611748,0.5033578872680664,-0.4944775104522705
1772797347808196000,10.791196044921875,0.053483184427022934,0.45230668783187866,-0.37612637877464294
1772797347818222000,10.80122216796875,0.10551689565181732,0.4410044252872467,-0.21095286309719086
1772797347828248000,10.811248046875,0.14243869483470917,0.4012594223022461,-0.06754803657531738
1772797347838274000,10.821274169921875,0.1584475040435791,0.3146907091140747,0.05046515539288521
1772797347848299000,10.831299072265624,0.1706325262784958,0.25475066900253296,0.17146854102611542
1772797347858325000,10.841324951171876,0.20051263272762299,0.21826006472110748,0.2794240117073059
1772797347868351200,10.851351318359375,0.217159241437912,0.18279395997524261,0.37174755334854126
1772797347878377200,10.861377197265625,0.2170809805393219,0.1213952898979187,0.4370027482509613
1772797347888403200,10.8714033203125,0.23084579408168793,0.05395526438951492,0.48033586144447327
1772797347898429200,10.88142919921875,0.2547798156738281,0.041919466108083725,0.5045069456100464
1772797347908455200,10.891455078125,0.30463045835494995,0.04918643459677696,0.49339625239372253
1772797347918481200,10.901481201171874,0.4120563268661499,0.08189075440168381,0.4524698555469513
1772797347928507100,10.911507080078126,0.5664114952087402,0.13139653205871582,0.3887244462966919
1772797347938533000,10.921533203125,0.6538187265396118,0.15839552879333496,0.33615681529045105
1772797347948559000,10.93155908203125,0.6599777936935425,0.17119653522968292,0.29028332233428955
1772797347958585000,10.941585205078125,0.6310320496559143,0.241799995303154,0.2230324000120163
1772797347968611000,10.951611083984375,0.6532132625579834,0.3696487545967102,0.12098991870880127
1772797347978637300,10.96163720703125,0.6784720420837402,0.5556685924530029,0.022979479283094406
1772797347988663300,10.971663330078124,0.6779322028160095,0.5866070985794067,-0.09493517875671387
1772797347998689300,10.981689208984376,0.6877160668373108,0.46508803963661194,-0.2633284628391266
1772797348008715300,10.99171533203125,0.690241277217865,0.2982098162174225,-0.378741592168808
1772797348018741200,11.0017412109375,0.6783193349838257,0.15689554810523987,-0.440753310918808
1772797348028767200,11.011767333984375,0.6654559969902039,0.025572150945663452,-0.4809281527996063
1772797348038793000,11.02179296875,0.6351635456085205,-0.12033673375844955,-0.5331487655639648
1772797348048819000,11.03181884765625,0.5985850095748901,-0.17331314086914062,-0.6375015377998352
1772797348058844200,11.04184423828125,0.5503244996070862,-0.10765525698661804,-0.7131816148757935
1772797348068870100,11.0518701171875,0.4969126880168915,-0.054047949612140656,-0.6266592741012573
1772797348078896000,11.061896240234375,0.4635935425758362,-0.03494957461953163,-0.4509963393211365
1772797348088922000,11.071922119140625,0.4470137655735016,0.04688137397170067,-0.2496509999036789
