time,seconds_elapsed,z,y,x
1772867091497062000,0.113061767578125,-0.000993484165519476,0.0006565172225236893,-0.000740720541216433
1772867091507128000,0.123128173828125,-0.0021863142028450966,0.0010416097939014435,-0.00045363177196122706
1772867091517193000,0.13319287109375,-0.000819012988358736,-0.00009900238364934921,0.0011477693915367126
1772867091527259100,0.143259033203125,0.002101675607264042,0.0013902373611927032,-0.0017388309352099895
1772867091537325000,0.153324951171875,-0.0008933618664741516,-0.0011057434603571892,0.0014999667182564735
1772867091547391200,0.16339111328125,-0.000753279309719801,0.001211472786962986,-0.0013743831077590585
1772867091557457000,0.173456787109375,-0.0018260050565004349,-0.002477516420185566,-0.002323104999959469
1772867091567523000,0.183523193359375,0.000984961399808526,-0.00004551839083433151,0.000768026162404567
1772867091577589000,0.193589111328125,-0.0023224386386573315,0.0013720355927944183,0.00037207675632089376
1772867091587655200,0.2036552734375,0.0013023896608501673,-0.00031827203929424286,-0.0002838598738890141
1772867091597721000,0.21372119140625,0.0011462674010545015,-0.00028577912598848343,0.0008813451277092099
1772867091607787000,0.223787109375,-0.00029183970764279366,-0.0014977836981415749,0.00013459473848342896
1772867091617853200,0.233853271484375,-0.00012486614286899567,-0.00025345757603645325,0.00019839568994939327
1772867091627918000,0.24391796875,0.0005646264180541039,-0.001383170485496521,-0.000757412810344249
1772867091637984000,0.25398388671875,0.0012715489137917757,-0.002431281842291355,-0.0007970920414663851
1772867091648050200,0.26405029296875,0.0027847569435834885,0.0012292321771383286,0.0017369058914482594
1772867091658116000,0.2741162109375,0.001999068073928356,-0.0012745000422000885,0.00019280612468719482
1772867091668182000,0.28418212890625,0.0002017004881054163,-0.00002707540988922119,-0.0016679444815963507
1772867091678248200,0.294248291015625,0.0021423636935651302,-0.00008672289550304413,-0.00015631684800609946
1772867091688313900,0.30431396484375,-0.0005900394171476364,0.0017420696094632149,0.0007145368726924062
1772867091698380000,0.314380126953125,0.0003180985804647207,0.00039770640432834625,-0.000026887166313827038
1772867091708446000,0.324446044921875,0.0008006102871149778,-0.0005397740751504898,0.0007142034592106938
1772867091718512000,0.33451220703125,-0.0005553374066948891,0.001556464470922947,-0.0003970966790802777
1772867091728578000,0.344578125,0.0012103382032364607,-0.001612963154911995,0.0003078420995734632
1772867091738644200,0.354644287109375,0.0034301725681871176,-0.0019101761281490326,0.0013153704348951578
1772867091748710100,0.364710205078125,0.0004580847453325987,0.000885876826941967,-0.0003573611902538687
1772867091758775000,0.374775146484375,-0.0011282144114375114,0.0005052238702774048,0.00044696812983602285
1772867091768841000,0.384841064453125,0.00017886492423713207,0.00017153006047010422,0.0006552273407578468
1772867091778907100,0.3949072265625,-0.0012320363894104958,0.002827512100338936,-0.0016214168863371015
1772867091788973000,0.40497314453125,0.0010934360325336456,-0.002008255571126938,-0.002721568802371621
1772867091799039200,0.415039306640625,0.001961033558472991,-0.0011068722233176231,-0.0029419218190014362
1772867091809105200,0.425105224609375,0.0008038899395614862,-0.0028112949803471565,0.0001880914787761867
1772867091819171000,0.435171142578125,0.0004740299191325903,-0.002159224823117256,-0.0004078643105458468
1772867091829237000,0.445237060546875,-0.0005171988159418106,0.001391034573316574,-0.0006046719499863684
1772867091839303000,0.455302978515625,-0.0007056761533021927,0.000044053420424461365,-0.0016566864214837551
1772867091849369000,0.465369140625,-0.0006247162818908691,-0.0014433227479457855,0.000005925016012042761
1772867091859435000,0.47543505859375,0.0010497295297682285,-0.0006255712360143661,0.000010412943083792925
1772867091869501200,0.485501220703125,0.001051593804731965,0.0014165407046675682,0.00003597926115617156
1772867091879566000,0.495566162109375,-0.0019530686549842358,0.0002518352121114731,-0.0014422232052311301
1772867091889632000,0.505632080078125,0.0023322240449488163,-0.0019876165315508842,0.001779668964445591
1772867091899698000,0.515697998046875,0.0018345452845096588,0.0026472583413124084,0.0005096487002447248
1772867091909764000,0.52576416015625,0.000025193672627210617,-0.0006167115643620491,0.0017533448990434408
1772867091919830000,0.535830078125,0.0014198864810168743,0.0016847746446728706,0.00016828003572300076
1772867091929896200,0.545896240234375,0.0003721988759934902,-0.002151508815586567,-0.0011470552999526262
1772867091939962000,0.555962158203125,0.0004464976955205202,-0.00025137048214673996,0.0008173416135832667
1772867091950028300,0.5660283203125,-0.000709048006683588,0.0004951143637299538,0.00228500971570611
1772867091960094000,0.576093994140625,-0.0012056659907102585,0.0002937689423561096,0.0019699311815202236
1772867091970160000,0.58616015625,-0.00020964397117495537,-0.0012535275891423225,-0.0006431625806726515
1772867091980226000,0.59622607421875,0.0001120581291615963,-0.0001408848911523819,0.0012409603223204613
1772867091990292000,0.6062919921875,-0.003830485977232456,0.0005563301965594292,-0.0019894540309906006
1772867092000358100,0.616358154296875,-0.0009537204168736935,0.0005876077339053154,0.0019770225044339895
1772867092010423000,0.626423095703125,-0.0013920767232775688,0.0002749525010585785,0.0007311958470381796
1772867092020489000,0.636489013671875,0.001051663188263774,0.000298953615128994,-0.00008900678949430585
1772867092030555100,0.64655517578125,-0.0005622124299407005,-0.0021535521373152733,0.001740052248351276
1772867092040621000,0.65662109375,-0.0007606777362525463,-0.001256692223250866,-0.0015714295441284776
1772867092050686700,0.666686767578125,-0.0005225911736488342,-0.0003235200420022011,0.0029399653431028128
1772867092060753000,0.6767529296875,-0.0004942985251545906,-0.00045946985483169556,-0.0032347626984119415
1772867092070818800,0.68681884765625,-0.002006974071264267,-0.00035960134118795395,0.0012481362791731954
1772867092080885000,0.696885009765625,-0.0008212723769247532,0.0025848178192973137,0.0005998611450195312
1772867092090951000,0.706950927734375,0.00009964872151613235,-0.0020083365961909294,-0.001483263447880745
1772867092101017000,0.71701708984375,0.0004959928337484598,0.00012663844972848892,-0.0018135495483875275
1772867092111083000,0.7270830078125,-0.00044170627370476723,-0.00016151554882526398,-0.0007581388344988227
1772867092121149000,0.73714892578125,0.0004409311804920435,-0.0002881409600377083,-0.001551206805743277
1772867092131214800,0.74721484375,0.0022883659694343805,0.001093241386115551,0.0005359125789254904
1772867092141280800,0.75728076171875,-0.0015765298157930374,-0.0015915436670184135,-0.0011594045208767056
1772867092151346000,0.767345947265625,-0.0007331068627536297,0.00045483000576496124,0.000871522119268775
1772867092161412000,0.777412109375,0.0011920002289116383,-0.001336018554866314,0.0006781289703212678
1772867092171478000,0.78747802734375,0.001408781623467803,-0.001932833343744278,0.000036307203117758036
1772867092181544000,0.7975439453125,0.0006634567398577929,-0.000014749355614185333,0.0008562866132706404
1772867092191609900,0.80760986328125,0.0011388310231268406,-0.0001060953363776207,-0.000554922386072576
1772867092201675800,0.81767578125,0.001162433298304677,0.0016623558476567268,0.0029981969855725765
1772867092211742000,0.827741943359375,0.0016042517963796854,0.0014540962874889374,-0.00016137733473442495
1772867092221807900,0.837807861328125,0.00020032306201756,0.001017685979604721,-0.0008526399033144116
1772867092231874000,0.8478740234375,-0.0000036749988794326782,0.000555095262825489,-0.0010734159732237458
1772867092241940000,0.85793994140625,0.0012235892936587334,0.0010272487998008728,0.0030845399014651775
1772867092252006100,0.868006103515625,-0.00353547977283597,0.0005196500569581985,0.004190284758806229
1772867092262071800,0.87807177734375,-0.00018197530880570412,-0.0011398233473300934,-0.0016409443924203515
1772867092272138000,0.888137939453125,0.0005882107652723789,-0.0007906835526227951,0.0000019597355276346207
1772867092282204000,0.898203857421875,-0.0014283102937042713,0.0005342923104763031,0.0005309181287884712
1772867092292269000,0.90826904296875,0.00018796231597661972,-0.0008673295378684998,0.004131512250751257
1772867092302335000,0.9183349609375,0.0018294996116310358,0.0014548534527420998,0.0006485870690084994
1772867092312401200,0.928401123046875,0.00048194010742008686,-0.0012011174112558365,0.0005465879221446812
1772867092322466800,0.938466796875,-0.0028439234010875225,-0.0008406201377511024,0.0032179271802306175
1772867092332533000,0.948532958984375,-0.002433796413242817,0.0005535446107387543,-0.0011472600745037198
1772867092342599000,0.958598876953125,0.001374769490212202,-0.0039893342182040215,0.0006063192267902195
1772867092352664800,0.968664794921875,-0.002629026770591736,0.0012690778821706772,0.000009238487109541893
1772867092362731000,0.97873095703125,0.0010702803265303373,0.0003716694191098213,-0.002225736156105995
1772867092372797000,0.988796875,0.0010915857274085283,-0.00015643518418073654,0.0018438403494656086
1772867092382863000,0.998863037109375,-0.000005875714123249054,-0.0012956839054822922,-0.0013667342718690634
1772867092392928800,1.0089287109375,0.002245826879516244,-0.0009164493530988693,0.0006681869854219258
1772867092402995000,1.018994873046875,-0.00020248116925358772,0.001213044859468937,-0.0013488971162587404
1772867092413060900,1.029060791015625,0.0005631775129586458,-0.0010863281786441803,0.00048069446347653866
1772867092423127000,1.039126953125,0.0015751472674310207,0.00020910240709781647,0.002330878283828497
1772867092433193000,1.04919287109375,0.0009266675915569067,0.0003340039402246475,-0.001266253413632512
1772867092443258000,1.059258056640625,-0.0018391339108347893,0.0007036672905087471,-0.00003589899279177189
1772867092453323800,1.06932373046875,-0.00008996948599815369,0.00099288672208786,-0.0008449673186987638
1772867092463390000,1.079389892578125,-0.000955464318394661,-0.0016605174168944359,-0.0011744516668841243
1772867092473455900,1.089455810546875,-0.0013147247955203056,-0.0021289680153131485,0.00364640261977911
1772867092483522000,1.09952197265625,-0.002640505786985159,0.0004954664036631584,0.0010441369377076626
1772867092493588000,1.109587890625,-0.0021976223215460777,-0.0012965742498636246,-0.0005457702791318297
1772867092503654000,1.11965380859375,-0.0001323954202234745,-0.0012775547802448273,0.0017365103121846914
1772867092513720000,1.129719970703125,-0.0004634265787899494,0.0007262071594595909,-0.0016912443097680807
1772867092523785700,1.13978564453125,-0.0009114718995988369,-0.0004300912842154503,-0.0038018219638615847
1772867092533852000,1.149851806640625,-0.0011120080016553402,0.00041466299444437027,0.0011215638369321823
1772867092543917800,1.159917724609375,-0.001964445225894451,-0.001222517341375351,-0.00014804152306169271
1772867092553984000,1.16998388671875,-0.0002107536420226097,0.0007484881207346916,-0.001300125033594668
1772867092564050000,1.1800498046875,-0.001955728977918625,-0.0008141156286001205,-0.0007324916659854352
1772867092574116000,1.1901162109375,0.001509842462837696,-0.001263124868273735,-0.0011040025856345892
1772867092584182000,1.20018212890625,-0.0003098077140748501,-0.0002563977614045143,0.0010158224031329155
1772867092594248000,1.210248046875,0.00041590374894440174,-0.0019363202154636383,-0.0007250859634950757
1772867092604313900,1.22031396484375,0.0012177960015833378,-0.0017027538269758224,-0.0034004729241132736
1772867092614379000,1.23037890625,0.0021957089193165302,-0.001161864958703518,0.0009713723557069898
1772867092624445000,1.24044482421875,-0.0017651491798460484,-0.0011767158284783363,0.0006605387316085398
1772867092634511000,1.250510986328125,0.00016218028031289577,-0.00021744519472122192,-0.003948860336095095
1772867092644577000,1.260576904296875,0.0000429817009717226,-0.00041080545634031296,0.0008409201400354505
1772867092654643000,1.270642822265625,-0.00045183347538113594,-0.0001578051596879959,-0.0014286257792264223
1772867092664708900,1.280708984375,-0.0009350208565592766,0.0002582017332315445,-0.0022202935069799423
1772867092674774800,1.29077490234375,0.0006820505950599909,0.00014288723468780518,0.0009989357786253095
1772867092684841000,1.300841064453125,-0.0016171492170542479,0.0007463600486516953,0.0011877419892698526
1772867092694907000,1.310906982421875,-0.0008179342839866877,0.0011921729892492294,-0.0018748932052403688
1772867092704973000,1.32097314453125,0.0009227939881384373,-0.0007194075733423233,-0.0006025073816999793
1772867092715039000,1.3310390625,-0.00018428219482302666,0.003643115982413292,0.001891542924568057
1772867092725105200,1.341105224609375,0.0004272833466529846,-0.0005464544519782066,0.0012345847208052874
1772867092735170800,1.3511708984375,-0.0006419755518436432,0.0003438396379351616,0.00024415506049990654
1772867092745237000,1.361237060546875,0.000525506678968668,-0.001165853813290596,-0.00010349397780373693
1772867092755303000,1.371302978515625,-0.002180797513574362,-0.0007775649428367615,0.000013152486644685268
1772867092765368800,1.381368896484375,0.001953481463715434,0.0011130515486001968,0.0019648289307951927
1772867092775435000,1.39143505859375,0.00019952352158725262,-0.0021916646510362625,-0.0010796968126669526
1772867092785501000,1.4015009765625,0.00017091515474021435,0.0005220677703619003,-0.002787861041724682
1772867092795565800,1.41156591796875,0.000654545146971941,0.00015907920897006989,0.002884938381612301
1772867092805632000,1.421632080078125,-0.001898173475638032,-0.002201286144554615,-0.0018653220031410456
1772867092815698000,1.431697998046875,-0.00044302246533334255,0.0023495228961110115,-0.0010916737373918295
1772867092825763800,1.441763916015625,-0.0018437060061842203,-0.0026338081806898117,0.00003069016383960843
1772867092835830000,1.451830078125,-0.002468217397108674,0.0010735783725976944,0.0006360266706906259
1772867092845896000,1.46189599609375,-0.00026134937070310116,-0.0003916006535291672,-0.0007334121037274599
1772867092855962000,1.471962158203125,0.00009178556501865387,0.00026247184723615646,0.000015468744095414877
1772867092866027800,1.48202783203125,-0.000924593536183238,-0.0008166925981640816,0.0000902794417925179
1772867092876094000,1.492093994140625,0.0014264450874179602,-0.000601508654654026,0.0014045494608581066
1772867092886160000,1.502159912109375,-0.0007236322853714228,-0.0008622258901596069,-0.0005074215587228537
1772867092896226000,1.51222607421875,-0.000034672440961003304,-0.0005620876327157021,-0.0003881119191646576
1772867092906292000,1.5222919921875,-0.00028817495331168175,-0.0013604369014501572,-0.0009663647506386042
1772867092916358000,1.53235791015625,-0.00004689255729317665,0.0027647996321320534,0.0010496482718735933
1772867092926424000,1.542424072265625,-0.000584552763029933,-0.00037945713847875595,-0.00026531601906754076
1772867092936489700,1.55248974609375,0.0018261405639350414,0.0012855511158704758,-0.000049866270273923874
1772867092946556000,1.562555908203125,-0.00018580141477286816,-0.001689063385128975,-0.0003771115734707564
1772867092956621800,1.572621826171875,-0.0013938110787421465,0.0004638358950614929,-0.0019582302775233984
1772867092966688000,1.58268798828125,-0.00264726928435266,0.0014637913554906845,-0.002566159935668111
1772867092976754000,1.59275390625,-0.0016877322923392057,-0.0012190770357847214,0.0007550681475549936
1772867092986819000,1.602819091796875,0.0008358946070075035,0.0002842303365468979,-0.0006974669522605836
1772867092996884700,1.612884765625,0.00014214124530553818,0.00014760997146368027,0.00020747521193698049
1772867093006951000,1.622950927734375,-0.0009076958522200584,-0.0007593873888254166,0.00011473806807771325
1772867093017016800,1.633016845703125,-0.001062692143023014,0.0007721967995166779,-0.001388350035995245
1772867093027083000,1.6430830078125,5.052424967288971e-7,-0.001523084007203579,0.002015167847275734
1772867093037149000,1.65314892578125,-0.0008458471857011318,0.0005565779283642769,0.0008114190422929823
1772867093047214600,1.663214599609375,-0.00035093072801828384,-0.0006869826465845108,0.002403381746262312
1772867093057280500,1.673280517578125,0.0007697273977100849,0.0006275540217757225,0.002623891457915306
1772867093067346700,1.6833466796875,0.00015741377137601376,-0.00014054309576749802,-0.0014405630063265562
1772867093077412600,1.69341259765625,0.0009409156627953053,-0.0014798464253544807,0.0005794446915388107
1772867093087478500,1.703478515625,0.0019475177396088839,-0.00026356521993875504,-0.0025653489865362644
1772867093097544700,1.713544677734375,0.0005032853223383427,-0.00023613497614860535,-0.0018449638737365603
1772867093107610400,1.7236103515625,0.003053349209949374,-0.0031421640887856483,-0.0008138236589729786
1772867093117676500,1.733676513671875,0.0007236157543957233,0.00018865149468183517,-0.0023070580791682005
1772867093127742500,1.743742431640625,-0.00015321187674999237,-0.0012107575312256813,0.0007064369856379926
1772867093137808600,1.75380859375,-0.00048211216926574707,-0.0006187371909618378,0.0013051156420260668
1772867093147874600,1.76387451171875,0.00009589293040335178,0.00028077978640794754,-0.0008063171408139169
1772867093157940700,1.773940673828125,0.0003440994769334793,-0.002193296328186989,-0.000027875183150172234
1772867093168006700,1.784006591796875,-0.0007880614139139652,0.00013199634850025177,0.0014256343711167574
1772867093178072600,1.794072509765625,-0.003495431039482355,0.0003580991178750992,-0.0001094117178581655
1772867093188138500,1.804138427734375,0.00110147544182837,-0.0009361878037452698,-0.0009818046819418669
1772867093198203600,1.81420361328125,-0.00022131670266389847,0.00032774824649095535,0.0012477936688810587
1772867093208269600,1.82426953125,-0.0024799667298793793,-0.0023865094408392906,0.0027235401794314384
1772867093218335700,1.834335693359375,0.001174156554043293,-0.00024319812655448914,-0.0009404367301613092
1772867093228401700,1.844401611328125,-0.000696343369781971,0.0009486377239227295,-0.001583764678798616
1772867093238467300,1.85446728515625,0.001044565113261342,-0.001574707217514515,-0.0018210522830486298
1772867093248533500,1.864533447265625,0.00003606686368584633,0.0008947607129812241,0.0004642978310585022
1772867093258599400,1.874599365234375,0.00043207895942032337,-0.000012045726180076599,0.0014403463574126363
1772867093268665600,1.88466552734375,-0.0007439302280545235,-0.0009951656684279442,-0.0019965439569205046
1772867093278731500,1.8947314453125,0.0001929698046296835,-0.0018039671704173088,-0.000781077251303941
1772867093288797700,1.904797607421875,-0.0008657816797494888,-0.0018957769498229027,0.0005225757486186922
1772867093298863600,1.914863525390625,-0.00079680560156703,0.0008611269295215607,-0.0002444146084599197
1772867093308929800,1.9249296875,0.0019315960817039013,-0.0011704349890351295,-0.001992845442146063
1772867093318995500,1.934995361328125,0.00028736027888953686,0.0011915229260921478,-0.0018540947930887341
1772867093329061600,1.9450615234375,0.001174574252218008,0.00025290530174970627,0.0005501773557625711
1772867093339127600,1.95512744140625,-0.001752772368490696,0.0006515802815556526,-0.0006399893318302929
1772867093349193500,1.965193359375,0.0013311982620507479,0.0010628076270222664,0.002751524792984128
1772867093359259600,1.975259765625,-0.0009553916752338409,-0.0018150042742490768,0.000766670738812536
1772867093369325600,1.98532568359375,-0.0001520644873380661,-0.0004705069586634636,-0.0003856821858789772
1772867093379391700,1.995391845703125,0.0002242398913949728,0.0007449593394994736,0.0015280654188245535
1772867093389457400,2.00545751953125,0.00320563861168921,0.0007382761687040329,0.0035113259218633175
1772867093399523600,2.015523681640625,0.0011004097759723663,0.0009776940569281578,-0.001493552466854453
1772867093409589500,2.025589599609375,-0.0005253823474049568,0.000653986819088459,0.0017015855992212892
1772867093419654700,2.035654541015625,-0.0025296774692833424,0.00005397666245698929,-0.0003213515446987003
1772867093429720600,2.045720458984375,0.001347492914646864,-0.0016514677554368973,0.002798828762024641
1772867093439786800,2.055786865234375,-0.002110887784510851,0.0004050247371196747,0.00008480134420096874
1772867093449852400,2.065852294921875,-0.0007061422802507877,0.0014311354607343674,0.0017131075728684664
1772867093459918600,2.075918701171875,0.00022037141025066376,0.000262274406850338,-0.0007306091138161719
1772867093469984500,2.085984619140625,-0.0015509682707488537,0.0008404785767197609,-0.000057419121731072664
1772867093480050700,2.09605078125,-0.0002611991949379444,-0.0005651377141475677,-0.0011543752625584602
1772867093490116600,2.10611669921875,-0.0008574319072067738,-0.0015273969620466232,0.002552319783717394
1772867093500182500,2.1161826171875,-0.00025262776762247086,-0.0010850457474589348,0.0004524171818047762
1772867093510248700,2.126248779296875,-0.0008523059077560902,-0.0004398329183459282,0.0020102965645492077
1772867093520314400,2.136314453125,0.0011876753997057676,-0.0008361116051673889,0.0019322658190503716
1772867093530380500,2.146380615234375,-0.0007510608993470669,-0.0007614726200699806,0.0018203267827630043
1772867093540446500,2.156446533203125,-0.004000650253146887,-0.00006132759153842926,-0.0008127404726110399
1772867093550512600,2.1665126953125,0.002974315546452999,-0.0003359215334057808,0.0005379520589485765
1772867093560578600,2.17657861328125,-0.0018587890081107616,0.0008707568049430847,0.001651952276006341
1772867093570644700,2.186644775390625,-0.00035532377660274506,-0.00012566335499286652,-0.00024011853383854032
1772867093580710700,2.196710693359375,0.0010385746136307716,0.0008027143776416779,-0.0016249623149633408
1772867093590776600,2.206776611328125,0.00038518127985298634,0.0007269717752933502,-0.0022221484687179327
1772867093600842500,2.216842529296875,-0.0007916693575680256,0.0020050229504704475,0.0003254314069636166
1772867093610908400,2.226908447265625,0.0019961700309067965,0.000008471310138702393,0.00033234048169106245
1772867093620974600,2.236974609375,0.0008813708554953337,0.0001368355005979538,-0.003290357533842325
1772867093631040500,2.24704052734375,0.00179468491114676,0.0007144855335354805,-0.0013216163497418165
1772867093641106700,2.257106689453125,-0.00044210394844412804,-0.0007638353854417801,0.000590533425565809
1772867093651172600,2.267172607421875,-0.0018851347267627716,0.001199396327137947,0.00029051228193566203
1772867093661238800,2.27723876953125,-0.0011668805964291096,0.0007003201171755791,0.0018900067079812288
1772867093671303400,2.287303466796875,-0.0008191163651645184,-0.0015724990516901016,-0.0012622798094525933
1772867093681369600,2.29736962890625,0.0012435021344572306,-0.00006914418190717697,-0.00037278400850482285
1772867093691435500,2.307435546875,0.0024571213871240616,0.0009140865877270699,0.0002499997499398887
1772867093701501700,2.317501708984375,0.0008224733173847198,0.003520522266626358,-0.003077087225392461
1772867093711567600,2.327567626953125,-0.00011018570512533188,0.000288953073322773,-0.0006300192908383906
1772867093721633800,2.3376337890625,-0.001452418975532055,-0.0004053330048918724,-0.0003839432029053569
1772867093731699500,2.347699462890625,0.0008565038442611694,0.002873673103749752,0.002319740131497383
1772867093741765400,2.357765380859375,-0.000352571252733469,-0.0005700597539544106,-0.00032371358247473836
1772867093751831600,2.36783154296875,-0.0016995817422866821,0.0003552716225385666,-0.0012274303007870913
1772867093761897500,2.3778974609375,0.00016037002205848694,0.0006681932136416435,-0.002622660482302308
1772867093771963600,2.387963623046875,0.0006119715981185436,0.0012066438794136047,-0.0031186756677925587
1772867093782029600,2.398029541015625,-0.001109495759010315,0.0006194170564413071,-0.00028027858934365213
1772867093792095700,2.408095703125,0.0007131756283342838,-0.0002952069044113159,-0.0010170902824029326
1772867093802161400,2.418161376953125,-0.0008088210597634315,0.00030400417745113373,0.0007712224032729864
1772867093812227600,2.4282275390625,-0.00026472751051187515,0.0008650124073028564,-0.0017492626793682575
1772867093822293500,2.43829345703125,-0.001656761858612299,-0.0007123779505491257,-0.0017641762970015407
1772867093832359700,2.448359619140625,-0.00016383733600378036,-0.0014483649283647537,-0.0018938449211418629
1772867093842425600,2.458425537109375,0.0009901102166622877,-0.0017088213935494423,0.0016423005145043135
1772867093852491500,2.468491455078125,-0.0003852914087474346,0.0006948336958885193,0.0006506115896627307
1772867093862557700,2.4785576171875,-0.00046278955414891243,-0.0007715020328760147,-0.0019805915653705597
1772867093872623600,2.48862353515625,-0.0017641866579651833,0.00079360231757164,-0.0004222502466291189
1772867093882689500,2.498689453125,-0.0038113584741950035,-0.00003437511622905731,0.0008336964529007673
1772867093892755500,2.50875537109375,0.00029961694963276386,-0.00019118748605251312,0.0013366867788136005
1772867093902821600,2.518821533203125,-0.000164838507771492,-0.000959775410592556,-0.002266037743538618
1772867093912887600,2.528887451171875,-0.0013859947212040424,-0.0000336645171046257,0.0005796968471258879
1772867093922953700,2.53895361328125,0.0002790135331451893,-0.0019908221438527107,0.002733661327511072
1772867093933019600,2.54901953125,-0.00030653923749923706,-0.0009502358734607697,-0.0019355389522388577
1772867093943084500,2.55908447265625,0.00004899292252957821,-0.002781425602734089,0.0002919289981946349
1772867093953150500,2.569150390625,-0.00295866746455431,0.001339850015938282,-0.0020850934088230133
1772867093963216600,2.579216552734375,-0.000239579938352108,0.0019478490576148033,0.0025259037502110004
1772867093973282600,2.589282470703125,-0.0003530583344399929,0.00006507709622383118,0.002906747628003359
1772867093983348700,2.5993486328125,0.0030395423527806997,0.002851809374988079,0.0014393457677215338
1772867093993414700,2.60941455078125,0.0018527363426983356,-0.0005940254777669907,0.0023767442908138037
1772867094003480600,2.61948046875,-0.00197129650041461,0.000967118889093399,0.002032131189480424
1772867094013546500,2.62954638671875,0.0001344224438071251,0.00003934837877750397,-0.00008455378701910377
1772867094023612400,2.6396123046875,-0.00023841997608542442,-0.000906607136130333,-0.0013887037057429552
1772867094033678600,2.6496787109375,0.0032706744968891144,0.0008936356753110886,0.0019205979770049453
1772867094043744500,2.65974462890625,-0.001438327133655548,-0.0018827104941010475,0.00010432203998789191
1772867094053810700,2.669810791015625,0.00010091811418533325,0.0018041031435132027,-0.0007004489307291806
1772867094063876600,2.679876708984375,-0.0016615618951618671,-0.00005691405385732651,0.00024231011047959328
1772867094073942500,2.689942626953125,0.0010658353567123413,-0.0003186659887433052,-0.003100927220657468
1772867094084008400,2.700008544921875,0.0002698164898902178,0.0005252901464700699,-0.0005067421006970108
1772867094094074400,2.710074462890625,0.0017994975205510855,-0.002165941521525383,-0.0014512587804347277
1772867094104140500,2.720140625,0.0021816613152623177,0.0014144126325845718,0.0004606245784088969
1772867094114206500,2.73020654296875,0.0006523148622363806,0.0003696633502840996,0.0004912521690130234
1772867094124272600,2.740272705078125,-0.0014185593463480473,-0.0013121236115694046,0.0008047062437981367
1772867094134338600,2.750338623046875,-0.0009269723668694496,-0.0009709754958748817,0.0010097688063979149
1772867094144404500,2.760404541015625,-0.00011098012328147888,0.0009616799652576447,-0.00012553681153804064
1772867094154470400,2.770470458984375,0.00006404565647244453,0.0003361143171787262,0.001905952231027186
1772867094164536600,2.78053662109375,0.0018851151689887047,0.0024328213185071945,0.0022500324994325638
1772867094174602500,2.7906025390625,-0.0007135355845093727,-0.0005402807146310806,-0.0031460330355912447
1772867094184668400,2.80066845703125,-0.00006425706669688225,0.0000043353065848350525,-0.0008618396823294461
1772867094194734600,2.810734619140625,-0.00024364283308386803,0.00024220161139965057,-0.0033347057178616524
1772867094204800500,2.820800537109375,0.001363308634608984,0.000014767982065677643,-0.00159033527597785
1772867094214866700,2.83086669921875,0.0009128681849688292,0.0007694363594055176,0.00044430827256292105
1772867094224932400,2.840932373046875,0.0010787833016365767,-0.00008224230259656906,-0.001147463102824986
1772867094234998500,2.85099853515625,0.002307378686964512,0.0013510668650269508,-0.0010437013115733862
1772867094245064400,2.861064453125,-0.0009246333502233028,0.001155058853328228,0.0008242399198934436
1772867094255129600,2.871129638671875,-0.0028762957081198692,0.001073567196726799,-0.000512520142365247
1772867094265195500,2.881195556640625,-0.0011447085998952389,0.001307925209403038,-0.001194023061543703
1772867094275261700,2.89126171875,0.001625511795282364,-0.0022575147449970245,-0.0009346311562694609
1772867094285327400,2.901327392578125,-0.0002605482004582882,-0.0011673970147967339,0.001986294984817505
1772867094295393500,2.9113935546875,0.00206205016002059,0.0036249924451112747,-0.0022186879068613052
1772867094305459500,2.92145947265625,0.00394463911652565,0.0016643740236759186,0.00234889960847795
1772867094315525600,2.931525634765625,-0.0019291406497359276,0.0007192213088274002,0.0003473259275779128
1772867094325591600,2.941591552734375,-0.0011440408416092396,-0.001196923665702343,0.003120741806924343
1772867094335657500,2.951657470703125,-0.0024990090169012547,0.0007061855867505074,0.0024364758282899857
1772867094345723600,2.9617236328125,-0.0006209476850926876,0.0004523862153291702,0.00077785924077034
1772867094355789300,2.971789306640625,-0.0012718606740236282,0.000494886189699173,0.0029400873463600874
1772867094365855500,2.98185546875,-0.0012452290393412113,0.0017044935375452042,-0.0007830117247067392
1772867094375921400,2.99192138671875,-0.00011240411549806595,-0.0031312592327594757,0.003034666646271944
1772867094385987600,3.001987548828125,-0.0010202755220234394,0.00044856127351522446,0.0031963204964995384
1772867094396053500,3.012053466796875,0.0013123797252774239,0.00041618477553129196,0.0030118294525891542
1772867094406119700,3.02211962890625,-0.00004743039608001709,0.0007629282772541046,-0.001147495349869132
1772867094416185600,3.032185546875,-0.0004236781969666481,-0.0009616529569029808,0.0010355734266340733
1772867094426251500,3.04225146484375,0.0005494407378137112,-0.00001117028295993805,0.000010256364475935698
1772867094436317400,3.0523173828125,-0.0008144336752593517,0.0004708748310804367,0.00018571660621091723
1772867094446383400,3.06238330078125,-0.00045730359852313995,-0.0002969149500131607,0.001957783941179514
1772867094456449500,3.072449462890625,-0.0009457757696509361,-0.0015267496928572655,0.0003919812152162194
1772867094466515500,3.082515380859375,0.0015251049771904945,0.0022093988955020905,-0.0007414600695483387
1772867094476581600,3.09258154296875,0.0009675270412117243,-0.00042932480573654175,-0.0026541054248809814
1772867094486647600,3.1026474609375,-0.000921719241887331,0.0007967948913574219,0.0007547410205006599
1772867094496713700,3.112713623046875,0.0004904898814857006,0.002183872275054455,-0.002255711704492569
1772867094506779400,3.122779296875,0.0020966422744095325,0.00033430662006139755,-0.002446393948048353
1772867094516845600,3.132845458984375,-0.0009547132067382336,0.0015707137063145638,0.00041733524994924664
1772867094526911500,3.142911376953125,-0.0028226543217897415,-0.001647183671593666,0.0015387923922389746
1772867094536977400,3.152977294921875,-0.0008128895424306393,-0.0006692791357636452,0.003037614282220602
1772867094547043600,3.163043701171875,-0.00035162968561053276,0.00068627018481493,-0.003398713655769825
1772867094557109500,3.173109619140625,-0.0010409527458250523,0.0010371403768658638,0.001986063551157713
1772867094567175700,3.18317578125,0.000051742419600486755,0.0017687110230326653,-0.00005791260628029704
1772867094577241300,3.193241455078125,0.0006077827420085669,-0.002131899818778038,-0.002019492443650961
1772867094587306500,3.203306396484375,-0.0009467042982578278,-0.0009947298094630241,-0.0039002166595309973
1772867094597372400,3.213372314453125,-0.004042493645101786,0.0013030627742409706,-0.0008433246403001249
1772867094607438600,3.2234384765625,0.00016823038458824158,-0.00004289858043193817,0.00045922736171633005
1772867094617504500,3.23350439453125,0.000984293408691883,0.0009486116468906403,-0.0018261137884110212
1772867094627570700,3.24357080078125,-0.0004053441807627678,0.00012622680515050888,0.0003110729740001261
1772867094637636400,3.25363623046875,-0.000913859810680151,0.000410265289247036,-0.00015463691670447588
1772867094647702500,3.26370263671875,-0.00016524549573659897,0.0009631374850869179,-0.0021283056121319532
1772867094657768400,3.2737685546875,-0.0003542420454323292,-0.0011768750846385956,-0.0016225335421040654
1772867094667834600,3.283834716796875,0.0009461794979870319,0.001600269228219986,0.0003460751031525433
1772867094677900500,3.293900634765625,0.0005927376914769411,-0.0007236972451210022,-0.0006959066377021372
1772867094687966500,3.303966552734375,0.00010111811570823193,0.0005202647298574448,-0.0020706304349005222
1772867094698032600,3.31403271484375,-0.0022839470766484737,0.0013120993971824646,0.0019059842452406883
1772867094708098300,3.324098388671875,0.0010681736748665571,-0.0006780810654163361,0.0016987903509289026
1772867094718164500,3.33416455078125,0.0004146993160247803,-0.0010500149801373482,-0.00031234099878929555
1772867094728230400,3.34423046875,-0.001885206438601017,0.0004892926663160324,-0.00034083682112395763
1772867094738296600,3.354296630859375,-0.0005838405340909958,0.00019407272338867188,0.0005935289082117379
1772867094748362500,3.364362548828125,-0.0008709290996193886,0.002595977857708931,0.00014638417633250356
1772867094758428700,3.3744287109375,-0.0007678382098674774,-0.0017069624736905098,-0.0017095392104238272
1772867094768494600,3.38449462890625,0.002078282181173563,0.00008055102080106735,0.000852421741001308
1772867094778560500,3.394560546875,-0.0012762127444148064,0.000452251173555851,-0.0009634249727241695
1772867094788626400,3.40462646484375,0.0019994755275547504,0.0005728919059038162,0.0008571119979023933
1772867094798692400,3.4146923828125,0.0011086405720561743,0.0005288291722536087,-0.0029556199442595243
1772867094808758500,3.424758544921875,-0.0004873918369412422,-0.0011945022270083427,0.0019746902398765087
1772867094818824400,3.434824462890625,0.000781558919698,-0.0005203597247600555,-0.0018630875274538994
1772867094828890600,3.444890625,-0.0002381657250225544,0.0010591605678200722,0.0011801065411418676
1772867094838956500,3.45495654296875,0.0007247126195579767,0.00087747722864151,-0.001580118085257709
1772867094849022700,3.465022705078125,0.0002839593216776848,-0.000999252311885357,-0.0013428304810076952
1772867094859088400,3.47508837890625,0.00038295076228678226,-0.0006518755108118057,-0.0005481496918946505
1772867094869154600,3.485154541015625,-0.0030501303263008595,0.0002788994461297989,0.0013405642239376903
1772867094879220500,3.495220458984375,0.00045868055894970894,0.0028411103412508965,0.0030566551722586155
1772867094889286400,3.505286376953125,0.0008315229788422585,-0.001626608893275261,0.0017602283041924238
1772867094899352600,3.5153525390625,-0.0005080793052911758,0.0010613175109028816,-0.0007032643188722432
1772867094909418500,3.52541845703125,-0.0008415072225034237,-0.001006893813610077,0.0014546951279044151
1772867094919484700,3.535484619140625,0.0007736056577414274,0.0011919522657990456,0.00017641158774495125
1772867094929550300,3.54555029296875,-0.0002929903566837311,0.0006846198812127113,0.0004989203298464417
1772867094939616500,3.555616455078125,0.002885703230276704,0.0007098903879523277,0.000317790312692523
1772867094949682400,3.565682373046875,0.00038792449049651623,0.0021935375407338142,0.0017058297526091337
1772867094959747600,3.57574755859375,0.000169666251167655,-0.0005022920668125153,-0.00031157658668234944
1772867094969813500,3.5858134765625,-0.0018165195360779762,0.00003753043711185455,0.0004162653931416571
1772867094979879700,3.595879638671875,-0.0005051703192293644,0.00007119122892618179,0.000151834508869797
1772867094989945300,3.6059453125,0.001156908692792058,-0.000014829449355602264,0.0007481162319891155
1772867095000011500,3.616011474609375,0.0004896395839750767,-0.001106983982026577,0.0017769981641322374
1772867095010077400,3.626077392578125,-0.0025908388197422028,0.00008424744009971619,0.0005404926487244666
1772867095020143600,3.6361435546875,0.0005033067427575588,0.0007883831858634949,0.0011456444626674056
1772867095030209500,3.64620947265625,-0.0007569012232124805,0.0014445856213569641,0.0008598872227594256
1772867095040275700,3.656275634765625,0.0012915914412587881,0.0010708998888731003,0.0009549674578011036
1772867095050342000,3.666341796875,0.0015083726029843092,0.0014280294999480247,0.0026266337372362614
1772867095060407800,3.67640771484375,-0.0017484002746641636,-0.002013102173805237,-0.000673045520670712
1772867095070474000,3.686473876953125,-0.000315885990858078,0.0020918939262628555,0.0005994128296151757
1772867095080539600,3.69653955078125,0.0004113209433853626,0.0017223553732037544,-0.0006030530203133821
1772867095090605800,3.706605712890625,-0.000498414970934391,0.0008001029491424561,-0.0006983942002989352
1772867095100671700,3.716671630859375,-0.0012686718255281448,0.0008504800498485565,-0.0025850292295217514
1772867095110738000,3.726738037109375,-0.0016497704200446606,-0.0020558275282382965,0.0026339676696807146
1772867095120803800,3.736803955078125,0.0005964033771306276,0.0008718958124518394,0.002265651011839509
1772867095130869800,3.746869873046875,0.0009721752721816301,0.0015968084335327148,0.00012127362424507737
1772867095140936000,3.75693603515625,-0.0005964841693639755,0.0011417930945754051,-0.0005708466633222997
1772867095151001900,3.767001953125,-0.0007903622463345528,0.001015559770166874,-0.0014440971426665783
1772867095161067800,3.77706787109375,-0.00005694711580872536,0.0005354834720492363,0.0036103390157222748
1772867095171133700,3.7871337890625,0.0013758335262537003,-0.0001468183472752571,-0.001113576116040349
1772867095181200000,3.797199951171875,-0.00043501053005456924,-0.00005110260099172592,-0.0007365400670096278
1772867095191265800,3.807265869140625,-0.0007535247132182121,-0.000018878839910030365,0.00025016110157594085
1772867095201332000,3.81733203125,0.001174502307549119,-0.0004385635256767273,0.00015845673624426126
1772867095211398000,3.82739794921875,0.00034226453863084316,-0.0013408428058028221,0.0016977638006210327
1772867095221463800,3.8374638671875,-0.0024027144536376,-0.0014844117686152458,0.00311777601018548
1772867095231529700,3.84752978515625,-0.00031825853511691093,-0.002002396620810032,0.00043570634443312883
1772867095241595600,3.857595703125,0.001184412045404315,-0.002071239985525608,0.001196262426674366
1772867095251661800,3.867661865234375,0.002886438276618719,-0.0008115647360682487,-0.001502052298747003
1772867095261727700,3.877727783203125,0.0003502015024423599,-0.000584382563829422,-0.0005475035286508501
1772867095271794000,3.8877939453125,-0.0007116007618606091,-0.0012349924072623253,-0.0007099563954398036
1772867095281859800,3.89785986328125,-0.0016876556910574436,0.0010697916150093079,-0.0013173632323741913
1772867095291926000,3.907926025390625,0.0006045270711183548,0.00018056202679872513,-0.000026262830942869186
1772867095301991700,3.91799169921875,-0.00033520953729748726,0.0010707546025514603,-0.0007317888084799051
1772867095312057900,3.928057861328125,0.0015409875195473433,-0.0018243677914142609,0.0004738242132589221
1772867095322123800,3.938123779296875,-0.00105317123234272,0.0012334063649177551,-0.0030869951006025076
1772867095332189700,3.948189697265625,0.00038094096817076206,0.00382066797465086,-0.00045366142876446247
1772867095342255900,3.958255859375,-0.0006884289905428886,-0.00033067725598812103,-0.00010394031414762139
1772867095352321800,3.96832177734375,-0.002479671034961939,0.0011007720604538918,-0.0011673405533656478
1772867095362388000,3.978387939453125,0.0011037662625312805,-0.0010102493688464165,0.0024643924552947283
1772867095372454000,3.988453857421875,-0.0012179776094853878,0.00017911847680807114,-0.0016829483211040497
1772867095382518800,3.998518798828125,0.0005026205908507109,0.0000561373308300972,-0.0014172473456710577
1772867095392584700,4.008584716796875,0.0011074244976043701,0.00004255492240190506,0.0007100857328623533
1772867095402651000,4.01865087890625,-0.0014985539019107819,0.0019402746111154556,-0.002723934128880501
1772867095412716800,4.028716796875,-0.00046684546396136284,-0.0022065332159399986,-0.0010029994882643223
1772867095422783000,4.038782958984375,0.0010674556251615286,-0.0005727745592594147,0.0010939494241029024
1772867095432849000,4.048848876953125,0.00006797141395509243,0.0005353670567274094,-0.00012284883996471763
1772867095442914800,4.058914794921875,-0.001432283315807581,-0.00025143101811408997,0.00005583034362643957
1772867095452980700,4.068980712890625,-0.00008312612771987915,0.00010942760854959488,-0.00016680994303897023
1772867095463047000,4.079046875,0.001423014560714364,-0.0006866287440061569,-0.001058461843058467
1772867095473112800,4.08911279296875,-0.0005048476159572601,0.0008010128512978554,0.000660342222545296
1772867095483178800,4.0991787109375,-0.0009742607362568378,-0.0008228272199630737,-0.0013269238406792283
1772867095493245000,4.109244873046875,0.0024990341626107693,-0.0007245559245347977,-0.0021687489934265614
1772867095503310800,4.119310791015625,-0.0014627915807068348,0.0027717435732483864,-0.0002349740534555167
1772867095513376800,4.129376708984375,-0.00019379518926143646,-0.00026985257863998413,-0.0006858472479507327
1772867095523442700,4.139442626953125,0.0000348107423633337,-0.000202840194106102,-0.0016848926898092031
1772867095533508900,4.1495087890625,0.0015275124460458755,0.002714119851589203,-0.00017035292694345117
1772867095543574800,4.15957470703125,-0.0012459508143365383,-0.0018882649019360542,0.00005403003888204694
1772867095553641000,4.169640869140625,0.0010108121205121279,-0.00008850079029798508,-0.00017473549814894795
1772867095563707000,4.179706787109375,0.0009744316339492798,0.0015004165470600128,0.0010377108119428158
1772867095573772800,4.189772705078125,0.00047721946612000465,-0.0016671475023031235,0.00015513913240283728
1772867095583838700,4.199838623046875,-0.004740735050290823,0.0019552726298570633,0.0003839782439172268
1772867095593904600,4.209904541015625,-0.000019216444343328476,-0.0017142966389656067,-0.0014559996780008078
1772867095603970800,4.219970703125,-0.00022935308516025543,0.00041381269693374634,-0.00029727770015597343
1772867095614036700,4.23003662109375,-0.0015798420645296574,-0.0028032856062054634,-0.0014336485182866454
1772867095624102000,4.240101806640625,0.0008771168068051338,0.0000651925802230835,-0.0025543244555592537
1772867095634167800,4.250167724609375,0.00004301476292312145,-0.0006072549149394035,0.00026116945082321763
1772867095644233700,4.260233642578125,-0.00046840962022542953,0.0006027575582265854,-0.00174910225905478
1772867095654299600,4.270299560546875,0.0008048475719988346,0.00013031251728534698,0.0005761037464253604
1772867095664365800,4.28036572265625,0.0003716156352311373,0.0016244929283857346,0.0005217089201323688
1772867095674431700,4.290431640625,-0.0005940464325249195,0.0003166142851114273,-0.0007416947046294808
1772867095684498000,4.300497802734375,0.0013042476493865252,0.00015448778867721558,0.0007430569967254996
1772867095694563800,4.310563720703125,-0.0003240089863538742,0.0007307957857847214,0.0029881016816943884
1772867095704630000,4.320630126953125,0.0006294718477874994,-0.0009569767862558365,0.0009909970685839653
1772867095714696000,4.330696044921875,-0.0008517783135175705,-0.0015394100919365883,0.002570518059656024
1772867095724761600,4.34076171875,-0.0028460416942834854,0.0006843386217951775,0.0006483242032118142
1772867095734827800,4.350827880859375,-0.0005975347012281418,0.0016920790076255798,0.0008459308301098645
1772867095744893700,4.360893798828125,0.0010989129077643156,-0.00332538690418005,0.00009057100396603346
1772867095754960000,4.3709599609375,-0.0014265626668930054,-0.0018715672194957733,-0.0006995889125391841
1772867095765025800,4.38102587890625,-0.0013333288952708244,-0.0004741717129945755,0.001837782096117735
1772867095775092000,4.391092041015625,0.002274721395224333,0.00013222917914390564,-0.001080776215530932
1772867095785158000,4.401157958984375,0.002101712627336383,0.0005369400605559349,-0.0021061913575977087
1772867095795223800,4.411223876953125,-0.0001547839492559433,-0.0007925098761916161,0.0013892074348405004
1772867095805289700,4.421289794921875,0.001031355233862996,-0.00027361419051885605,-0.0008772080764174461
1772867095815356000,4.43135595703125,-0.00011540204286575317,-0.0007857400923967361,0.00027620699256658554
1772867095825421800,4.441421875,-0.0009158761240541935,-0.0007076850160956383,0.0013142649549990892
1772867095835487700,4.45148779296875,-0.0006482284516096115,0.0012169815599918365,-0.002240788657218218
1772867095845554000,4.461553955078125,-0.0012609362602233887,0.002154342830181122,-0.00009561912156641483
1772867095855619800,4.471619873046875,0.0007116673514246941,0.0007963972166180611,0.0017640661681070924
1772867095865685800,4.481685791015625,0.0017647838685661554,0.001421564258635044,0.0005262921331450343
1772867095875751700,4.491751708984375,0.001347200246527791,0.0005344655364751816,0.0007654440123587847
1772867095885817900,4.50181787109375,-0.0012594535946846008,0.002033679746091366,0.003840918419882655
1772867095895883800,4.5118837890625,0.0010391208343207836,-0.0010598478838801384,-0.001019350253045559
1772867095905950000,4.521949951171875,-0.0015865121968090534,0.00001644715666770935,-0.0014750270638614893
1772867095916015900,4.532015869140625,-0.001756422221660614,0.000134957954287529,0.0005657533183693886
1772867095926081800,4.542081787109375,-0.0010236967355012894,-0.0022115278989076614,-0.0009403842268511653
1772867095936148000,4.55214794921875,0.0003723322879523039,-0.0006921952590346336,0.00043380685383453965
1772867095946213600,4.562213623046875,-0.000310615636408329,-0.002223067916929722,0.0013569232542067766
1772867095956279800,4.57227978515625,-0.001977488398551941,-0.0005990723147988319,0.004079206846654415
1772867095966345700,4.582345703125,-0.0017346669919788837,0.0010398020967841148,0.0003775767399929464
1772867095976412000,4.592411865234375,0.001399607164785266,-0.001949063502252102,0.0015759991947561502
1772867095986477800,4.602477783203125,0.0016504996456205845,-0.0013442188501358032,0.0017472859472036362
1772867095996544000,4.6125439453125,-0.0002483343705534935,0.001348770223557949,0.00103275990113616
1772867096006610000,4.62260986328125,0.0011242562904953957,-0.0015210183337330818,0.0008412046590819955
1772867096016675600,4.632675537109375,0.00023928796872496605,0.0020835697650909424,-0.00011833221651613712
1772867096026741800,4.64274169921875,-0.0010225861333310604,-0.001107100397348404,-0.0006549425306729972
1772867096036807700,4.6528076171875,-0.002158157993108034,0.0012734988704323769,-0.0010416335426270962
1772867096046874000,4.6628740234375,-0.00007141567766666412,0.0010622842237353325,0.0017710115062072873
1772867096056940000,4.67293994140625,0.0007009010296314955,0.00009076297283172607,-0.0007789652445353568
1772867096067006200,4.683006103515625,0.000701091717928648,-0.0005100760608911514,-0.002562796464189887
1772867096077072000,4.69307177734375,0.0005061482079327106,-0.002224353142082691,-0.002110325265675783
1772867096087138000,4.703137939453125,0.0010177644435316324,0.0019519003108143806,-0.001685072435066104
1772867096097204000,4.713203857421875,-0.0030616656877100468,0.0028158295899629593,0.001235349802300334
1772867096107270000,4.723269775390625,0.00021801982074975967,0.00020741019397974014,-0.0005345740355551243
1772867096117336000,4.733336181640625,0.00010084058158099651,0.0020737526938319206,-0.000935379764996469
1772867096127402000,4.743402099609375,-0.002858696738258004,-0.0014144740998744965,-0.0015612378483638167
1772867096137468200,4.75346826171875,0.0008074108045548201,0.0003402829170227051,-0.001208102679811418
1772867096147534000,4.7635341796875,-0.001826596213504672,0.002702774479985237,-0.002033304888755083
1772867096157600000,4.77360009765625,0.0014456300996243954,-0.00041152630001306534,0.00134358333889395
1772867096167666000,4.783666015625,0.0010586520656943321,0.0008789440616965294,-0.00012323964620009065
1772867096177732000,4.793732177734375,0.0006192305590957403,0.0007074363529682159,-0.00042577472049742937
1772867096187798000,4.803798095703125,-0.001038997434079647,0.001404820941388607,-0.0019143682438880205
1772867096197864000,4.813864013671875,0.0014159041456878185,0.0005574030801653862,0.001130157383158803
1772867096207930000,4.82393017578125,0.0001532894093543291,-0.00013862177729606628,-0.00011210073716938496
1772867096217996000,4.83399609375,0.0010521062649786472,0.0018054861575365067,-0.00001729221548885107
1772867096228062000,4.84406201171875,-0.0008777447510510683,-0.0010361652821302414,-0.0013294583186507225
1772867096238127900,4.8541279296875,-0.003954760730266571,0.000586233101785183,0.0005661796894855797
1772867096248194000,4.864194091796875,0.0015755696222186089,-0.0018594292923808098,0.004113530740141869
1772867096258260000,4.874260009765625,-0.0008114215452224016,-0.001511087641119957,-0.0008154475362971425
1772867096268326100,4.884326171875,0.000566291157156229,-0.00015428289771080017,-0.0019030174007639289
1772867096278392000,4.89439208984375,0.0010214254725724459,0.0007277559489011765,-0.0019594766199588776
1772867096288458000,4.9044580078125,-0.000812226440757513,0.0019150907173752785,-0.001405846094712615
1772867096298523000,4.91452294921875,-0.000055089592933654785,-0.00035578664392232895,0.0005955194937996566
1772867096308589000,4.924589111328125,-0.00041093933396041393,-0.0003622686490416527,0.0017048339359462261
1772867096318656000,4.934656005859375,0.0013488773256540298,0.0020228587090969086,0.00018070678925141692
1772867096328721200,4.94472119140625,-0.0002820671070367098,-0.0022643422707915306,0.0009335511713288724
1772867096338787000,4.954787109375,-0.0017707741353660822,0.0005229217931628227,-0.0014068348100408912
1772867096348853000,4.96485302734375,0.0006097864825278521,0.0008885208517313004,-0.0010921054054051638
1772867096358919000,4.9749189453125,-0.0006376383826136589,-0.0017160503193736076,0.0020743929781019688
1772867096368984800,4.98498486328125,-0.0009754556231200695,0.00135816540569067,0.0002976994146592915
1772867096379051000,4.995051025390625,-0.0013344497419893742,0.001936071552336216,0.00013631180627271533
1772867096389117000,5.005116943359375,0.00006198929622769356,0.0006944881752133369,-0.0019817217253148556
1772867096399183000,5.01518310546875,-0.0012536125723272562,-0.00019314326345920563,0.00015466607874259353
1772867096409249000,5.0252490234375,-0.0002132474910467863,-0.0008461736142635345,-0.0017938746605068445
1772867096419315200,5.035315185546875,-0.0012923602480441332,-0.001011289656162262,-0.0001682810834608972
1772867096429381000,5.045381103515625,-0.0007090470753610134,0.000044265761971473694,-0.00039702659705653787
1772867096439447000,5.055447021484375,0.0008057586383074522,0.0007771681994199753,-0.0019176916684955359
1772867096449513000,5.065512939453125,-0.0019572179298847914,0.0005562920123338699,0.0014136615209281445
1772867096459579000,5.075578857421875,-0.000027757836505770683,-0.0001507773995399475,-0.002241527196019888
1772867096469645000,5.08564501953125,0.0010126051492989063,-0.000021270476281642914,0.00042651838157325983
1772867096479711000,5.0957109375,-0.0014183283783495426,0.0006479816511273384,-0.0005471332697197795
1772867096489777200,5.105777099609375,-0.0014174266252666712,-0.0006335759535431862,-0.0018611603882163763
1772867096499843000,5.115843017578125,-0.0018491249065846205,-0.00116647407412529,0.00192958302795887
1772867096509909000,5.125908935546875,-0.004033692181110382,0.00048637017607688904,0.0004524508258327842
1772867096519975000,5.135974853515625,-0.000552142271772027,0.0011585522443056107,0.00003886187914758921
1772867096530041000,5.146041015625,0.0010036558378487825,-0.0006309319287538528,-0.0006349660106934607
1772867096540107000,5.15610693359375,0.0016563967801630497,0.001509450376033783,-0.0017122146673500538
1772867096550173000,5.1661728515625,-0.00036522094160318375,-0.0011455900967121124,0.0008695927099324763
1772867096560239000,5.176239013671875,-0.001870972104370594,0.001776963472366333,0.0004956849734298885
1772867096570305000,5.186304931640625,-0.0008785820100456476,0.0009214738383889198,0.0003748373710550368
1772867096580371000,5.196370849609375,-0.0004588679876178503,0.0015483815222978592,-0.0028888664674013853
1772867096590436900,5.206436767578125,-0.0019932379946112633,0.00002321973443031311,-0.00041155144572257996
1772867096600503000,5.2165029296875,0.00012131198309361935,0.002268797717988491,0.000002037500962615013
1772867096610569000,5.22656884765625,-0.001216626726090908,0.0003397231921553612,0.0019148527644574642
1772867096620635100,5.23663525390625,0.0018129851669073105,0.0018627848476171494,-0.0001946372794918716
1772867096630701000,5.246701171875,0.0006832054350525141,0.00006090570241212845,-0.0002250223478768021
1772867096640767000,5.25676708984375,-0.00035409582778811455,-0.0001502828672528267,-0.00001702946610748768
1772867096650833200,5.266833251953125,0.000775171909481287,0.0015222346410155296,0.000659306941088289
1772867096660898800,5.27689892578125,-0.0010059503838419914,0.00022953655570745468,-0.0022006616927683353
1772867096670965000,5.286965087890625,-0.0020362508948892355,0.001604144461452961,-0.000296274374704808
1772867096681031000,5.297031005859375,0.000624779611825943,0.0015713870525360107,0.0008203890756703913
1772867096691097000,5.30709716796875,0.0018880416173487902,-0.002242627553641796,-0.0008179106516763568
1772867096701163000,5.3171630859375,-0.0002294376026839018,-0.0006388723850250244,0.001874012523330748
1772867096711229200,5.327229248046875,-0.0020140118431299925,-0.002025456167757511,0.0010003048228099942
1772867096721295000,5.337295166015625,0.0016787273343652487,0.0012486344203352928,0.0004437041934579611
1772867096731361000,5.347361083984375,0.0008314352016896009,0.0007305536419153214,-0.0011185300536453724
1772867096741427000,5.357427001953125,-0.0015345171559602022,0.0011686431244015694,0.0010748493950814009
1772867096751492900,5.367492919921875,0.0005291062407195568,0.0007735239341855049,-0.002205830765888095
1772867096761559000,5.37755908203125,-0.0014349748380482197,-0.0017828447744250298,-0.0016598827205598354
1772867096771625000,5.387625,-0.0007653352804481983,0.00032636895775794983,-0.000008860835805535316
1772867096781691100,5.397691162109375,0.0010770396329462528,-0.00009148102253675461,-0.0012743950355798006
1772867096791757000,5.407757080078125,-0.0009127086959779263,-0.0011206483468413353,0.0004286442999728024
1772867096801823200,5.4178232421875,-0.0013827565126121044,0.000409604050219059,0.0008227921207435429
1772867096811889000,5.427888916015625,-0.0010440708138048649,-0.0018996940925717354,0.002170007675886154
1772867096821955000,5.437955078125,0.0005434397608041763,0.0018598902970552444,-0.002838333137333393
1772867096832021000,5.44802099609375,0.0005518011748790741,0.001195116899907589,-0.0012320438399910927
1772867096842087000,5.4580869140625,-0.0019877890590578318,-0.000527149997651577,-0.0008932898053899407
1772867096852153000,5.468153076171875,-0.0009685975965112448,0.0036939606070518494,0.0001972746104001999
1772867096862219000,5.478218994140625,0.0006269833538681269,-0.001621129922568798,0.0017080013640224934
1772867096872285200,5.48828515625,0.002249292563647032,-0.0007231254130601883,-0.0003796211094595492
1772867096882350800,5.498350830078125,0.0017427594866603613,-0.0004869028925895691,0.0002954902593046427
1772867096892417000,5.5084169921875,-0.0008816579356789589,0.00042824726551771164,-0.0008478080853819847
1772867096902483000,5.51848291015625,0.0001364685595035553,0.00042638275772333145,0.000757545349188149
1772867096912549000,5.528549072265625,0.00046835863031446934,0.0016788244247436523,0.0011663472978398204
1772867096922615000,5.538614990234375,0.0024771809112280607,0.0008045090362429619,0.00006859225686639547
1772867096932681000,5.548680908203125,0.0016322655137628317,0.001813780516386032,-0.0013579328078776598
1772867096942747100,5.5587470703125,-0.0013302350416779518,-0.0008765449747443199,-0.0031190812587738037
1772867096952812800,5.568812744140625,0.0006692537572234869,0.0001395316794514656,0.00041665276512503624
1772867096962879000,5.57887890625,0.0005720483604818583,0.001357395201921463,-0.000527437892742455
1772867096972945000,5.58894482421875,-0.0012160048354417086,-0.001049666665494442,-0.0003507559304125607
1772867096983011000,5.599010986328125,-0.0005331702996045351,0.0046207355335354805,-0.0007113479659892619
1772867096993077000,5.609076904296875,-0.002104491461068392,-0.0005889516323804855,-0.003264587139710784
1772867097003143200,5.61914306640625,-0.0003478704020380974,0.00006884895265102386,-0.0002967604959849268
1772867097013207800,5.629207763671875,-0.0011573960073292255,0.001679563894867897,0.003939799964427948
1772867097023274000,5.63927392578125,-0.00071690883487463,-0.0019463291391730309,0.003994394559413195
1772867097033340000,5.64933984375,-0.0001542393583804369,0.00012003257870674133,-0.001960005844011903
1772867097043405600,5.659405517578125,0.0009786691516637802,-0.0005116695538163185,0.0016323321033269167
1772867097053471500,5.669471435546875,-0.0011957492679357529,0.0013460852205753326,-0.0010257356334477663
1772867097063537700,5.67953759765625,-0.0006628506816923618,-0.000975392758846283,-0.00017751881387084723
1772867097073603600,5.689603515625,-0.00022004242055118084,-0.00000945013016462326,0.00014322646893560886
1772867097083669800,5.699669677734375,-0.0014496238436549902,0.0018987040966749191,0.0008369800052605569
1772867097093735400,5.7097353515625,0.0020641100127249956,-0.0015273652970790863,-0.0020995214581489563
1772867097103801600,5.719801513671875,0.002092073205858469,0.002096397802233696,0.00028374133398756385
1772867097113867500,5.729867431640625,-0.0004813200794160366,-0.000015739351511001587,0.0007787931244820356
1772867097123933400,5.739933349609375,0.0027735955081880093,-0.00006553996354341507,0.0019420619355514646
1772867097133999600,5.74999951171875,0.0028555202297866344,0.0028686346486210823,-0.002078342018648982
1772867097144065500,5.7600654296875,0.0006586785893887281,-0.0009892210364341736,-0.0012410441413521767
1772867097154131700,5.770131591796875,-0.0005018722731620073,-0.0002926718443632126,0.0016891954001039267
1772867097164197400,5.780197265625,0.0031716919038444757,0.0006911000236868858,0.002472697291523218
1772867097174263600,5.790263671875,-0.0003195765893906355,-0.00004996452480554581,0.0013303195592015982
1772867097184329500,5.80032958984375,0.00037737260572612286,0.0018525980412960052,-0.00033655294100753963
1772867097194395600,5.810395751953125,-0.0011411297600716352,-0.0011343490332365036,-0.0028181616216897964
1772867097204461600,5.820461669921875,0.000915363198146224,0.0005034953355789185,0.00034886953653767705
1772867097214527500,5.830527587890625,-0.0009127208031713963,-0.0010020574554800987,-0.00019900291226804256
1772867097224593700,5.84059375,0.0005642680916935205,0.002799605019390583,-0.000012581644114106894
1772867097234659600,5.85065966796875,-0.0008737761527299881,-0.0008834796026349068,-0.0007295927498489618
1772867097244725500,5.8607255859375,-0.0009041363373398781,-0.0013585872948169708,0.0011910790344700217
1772867097254791400,5.87079150390625,-0.0016683742869645357,-0.0001051267609000206,0.0009595136507414281
1772867097264857600,5.880857666015625,-0.0020113892387598753,0.0015241950750350952,0.000720628013368696
1772867097274923500,5.890923583984375,0.0011759924236685038,-0.0016637621447443962,-0.0009894826216623187
1772867097284989700,5.90098974609375,-0.0003819568082690239,-0.0011609569191932678,0.002579952124506235
1772867097295055600,5.9110556640625,-0.0023604142479598522,0.0003849947825074196,0.0018641444621607661
1772867097305121500,5.92112158203125,-0.00023787515237927437,0.0011780839413404465,-0.002431800588965416
1772867097315187500,5.9311875,-0.0006191451102495193,-0.0011278800666332245,-0.00019732941291294992
1772867097325253400,5.94125341796875,0.000577146653085947,-0.0007358631119132042,0.0018602288328111172
1772867097335319600,5.951319580078125,0.0013978688511997461,0.0007574809715151787,0.0003769993199966848
1772867097345385500,5.961385498046875,-0.00012226332910358906,-0.0007607871666550636,0.0009948527440428734
1772867097355451600,5.97145166015625,-0.0020372732542455196,-0.0008328408002853394,-0.0017628725618124008
1772867097365517600,5.981517578125,0.0008362776134163141,0.000402599573135376,0.00008536124369129539
1772867097375583700,5.991583740234375,-0.002491249702870846,0.0015936540439724922,0.0011089934268966317
1772867097385649700,6.001649658203125,0.000123974634334445,0.0011630207300186157,-0.0004987569409422576
1772867097395715600,6.011715576171875,0.0003839044366031885,0.0006773443892598152,0.0029521917458623648
1772867097405781500,6.021781494140625,0.0009708651341497898,-0.0010723527520895004,0.0009036882547661662
1772867097415847400,6.031847412109375,0.00022637355141341686,0.0008549988269805908,-0.0032516526989638805
1772867097425913600,6.04191357421875,-0.002177395625039935,0.0006616534665226936,-0.0006926212809048593
1772867097435979500,6.0519794921875,-0.0038241813890635967,0.0021471939980983734,0.0005605712067335844
1772867097446045700,6.062045654296875,-0.0001522148959338665,0.0017834063619375229,-0.0005236017168499529
1772867097456111600,6.072111572265625,0.00033071101643145084,-0.0009493278339505196,-0.0017738428432494402
1772867097466177500,6.082177490234375,-0.0027175433933734894,-0.00007527880370616913,-0.00036290011485107243
1772867097476243500,6.092243408203125,0.00021167704835534096,0.00011764746159315109,0.0006512816180475056
1772867097486309600,6.1023095703125,-0.0009958003647625446,0.00048276688903570175,-0.00025765527971088886
1772867097496375600,6.11237548828125,-0.0019548004493117332,-0.002231091260910034,-0.0028050835244357586
1772867097506441500,6.12244140625,0.0031590014696121216,-0.0008909879252314568,-0.001016238471493125
1772867097516507600,6.132507568359375,0.00029774545691907406,-0.00042477529495954514,0.0007018783944658935
1772867097526573600,6.142573486328125,-0.0003190429415553808,-0.0008165258914232254,0.0009077407303266227
1772867097536639500,6.152639404296875,0.0006030907388776541,-0.0008127298206090927,0.0006713986513204873
1772867097546705400,6.162705322265625,0.0011149502824991941,-0.00006837677210569382,0.0007326513878069818
1772867097556771600,6.172771484375,-0.0005753180012106895,-0.000490901991724968,-0.0006458507850766182
1772867097566837500,6.18283740234375,-0.0021636271849274635,0.0027858521789312363,0.0016508593689650297
1772867097576903700,6.192903564453125,0.0011212152894586325,-0.0010711485520005226,0.001112749450840056
1772867097586969600,6.202969482421875,-0.0015446089673787355,0.002537967637181282,0.00039848964661359787
1772867097597035500,6.213035400390625,0.000005273614078760147,-0.0005658771842718124,-0.0008503338322043419
1772867097607101700,6.223101806640625,0.0017110283952206373,-0.00047453027218580246,-0.0024711336009204388
1772867097617167400,6.23316748046875,-0.0010202864650636911,0.0012605004012584686,0.0018974163103848696
1772867097627233500,6.243233642578125,-0.001064494950696826,-0.0002734800800681114,-0.001430203439667821
1772867097637299500,6.253299560546875,-0.0006026844494044781,0.0012508202344179153,0.0007514384342357516
1772867097647365600,6.26336572265625,0.0017821765504777431,-0.0004623904824256897,0.002983700018376112
1772867097657431600,6.273431640625,-0.0009284086991101503,0.00045860279351472855,-0.00019931959104724228
1772867097667497700,6.283497802734375,-0.00392579659819603,0.00027244817465543747,-0.0031050946563482285
1772867097677562400,6.293562255859375,-0.0007141029927879572,0.001845095306634903,0.0010343394242227077
1772867097687628500,6.303628662109375,-0.0010640423279255629,-0.0007432308048009872,-0.002022969536483288
1772867097697694500,6.313694580078125,0.0012267266865819693,-0.00002796761691570282,0.00020012934692203999
1772867097707760600,6.3237607421875,0.002662436570972204,0.0003736373037099838,-0.0010206636507064104
1772867097717826600,6.33382666015625,0.0006109252572059631,0.0009029703214764595,-0.0007658133981749415
1772867097727892700,6.343892822265625,-0.000048473477363586426,0.001764768734574318,-0.00041374354623258114
1772867097737958700,6.353958740234375,-0.0007929482962936163,0.0014369944110512733,0.0003580753109417856
1772867097748024600,6.364024658203125,-0.0008526032324880362,0.00023511052131652832,0.00040255009662359953
1772867097758090500,6.374090576171875,-0.0016783992759883404,-0.0003501344472169876,0.0012855535605922341
1772867097768156400,6.384156494140625,-0.0010126088745892048,-0.0007706470787525177,-0.0015568382805213332
1772867097778222600,6.39422265625,0.0017980183474719524,-0.0007775323465466499,-0.0034070960246026516
1772867097788288500,6.40428857421875,-0.00026007252745330334,0.0005609728395938873,0.0008180087897926569
1772867097798354700,6.414354736328125,-0.0004277746193110943,0.00037049129605293274,-0.00025931207346729934
1772867097808420600,6.424420654296875,0.000019103754311800003,-0.0008284645155072212,0.0006480269366875291
1772867097818486500,6.434486572265625,0.00009571737609803677,0.0020087333396077156,-0.0005101815913803875
1772867097828552400,6.444552490234375,0.0014033294282853603,-0.0002954332157969475,0.0015774702187627554
1772867097838618600,6.45461865234375,-0.0005092378705739975,0.0007085651159286499,0.00020966125885024667
1772867097848684500,6.4646845703125,0.0006521665491163731,-0.0018246332183480263,-0.0010558728827163577
1772867097858750500,6.47475048828125,-0.000682072015479207,-0.003353569656610489,0.0005905564175918698
1772867097868816600,6.484816650390625,-0.000730808125808835,0.0017570359632372856,-0.00019853818230330944
1772867097878882600,6.494882568359375,0.0015227464027702808,-0.0013522505760192871,-0.0008100182167254388
1772867097888948700,6.50494873046875,-0.0003294821362942457,-0.0016987277194857597,0.0010368840303272009
1772867097899014400,6.515014404296875,-0.002877245657145977,0.00081613939255476,-0.0004950566799379885
1772867097909080600,6.52508056640625,-0.0005576321855187416,0.00023956503719091415,0.0015611700946465135
1772867097919146500,6.535146484375,0.00006338651292026043,0.000012345612049102783,-0.0020440565422177315
1772867097929212700,6.545212646484375,-0.00014886772260069847,-0.002910739742219448,0.00038820854388177395
1772867097939278600,6.555278564453125,-0.0006931864190846682,0.00011724792420864105,-0.0003124940558336675
1772867097949344500,6.565344482421875,-0.00018079415895044804,0.0011843759566545486,-0.0006272796890698373
1772867097959410700,6.57541064453125,0.0005442362744361162,-0.0021515199914574623,0.0009006229229271412
1772867097969476400,6.585476318359375,0.0005343826487660408,0.001706601120531559,-0.0008072622586041689
1772867097979542500,6.59554248046875,-0.00035613635554909706,-0.002872833050787449,-0.0015864743618294597
1772867097989608400,6.6056083984375,-0.0010008877143263817,-0.0002624029293656349,0.001509716734290123
1772867097999674600,6.615674560546875,-0.0006068218499422073,-0.001991836354136467,0.0004229292389936745
1772867098009740500,6.625740478515625,0.001420376356691122,0.0006335070356726646,0.0031156514305621386
1772867098019806700,6.635806640625,-0.0003659268841147423,0.0012171538546681404,0.0005487605230882764
1772867098029872600,6.64587255859375,0.00029000965878367424,-0.001084616407752037,-0.0007058546179905534
1772867098039938600,6.6559384765625,-0.004401102662086487,-0.0008020363748073578,0.00006413634400814772
1772867098050004700,6.666004638671875,0.000044245971366763115,0.0007074438035488129,-0.0003779483959078789
1772867098060070700,6.676070556640625,-0.0008439607918262482,0.0005192719399929047,-0.0011188182979822159
1772867098070136800,6.68613671875,-0.002220015972852707,0.0015110326930880547,-0.002695409581065178
1772867098080202500,6.696202392578125,0.0009210482239723206,0.00014429166913032532,-0.001351985614746809
1772867098090268700,6.7062685546875,-0.00018789200112223625,-0.0012288345023989677,0.0016392769757658243
1772867098100334600,6.71633447265625,-0.0007767186034470797,0.002436620183289051,-0.0009788821917027235
1772867098110400800,6.72640087890625,0.0004792280960828066,-0.0008233552798628807,-0.0009903337340801954
1772867098120466700,6.736466796875,-0.00015663611702620983,0.0009276885539293289,0.004792790859937668
1772867098130532900,6.746532958984375,-0.0001289390493184328,-0.0006947098299860954,-0.0017282250337302685
1772867098140598800,6.756598876953125,0.0007295669056475163,-0.00124315544962883,0.0005255375290289521
1772867098150663700,6.76666357421875,0.0029210823122411966,0.0008634049445390701,0.000034716969821602106
1772867098160729600,6.7767294921875,-0.0005119664128869772,-0.0011895354837179184,-0.0017942175036296248
1772867098170795800,6.786795654296875,0.001015356509014964,0.0006690844893455505,0.001317419926635921
1772867098180861700,6.79686181640625,-0.0009341554250568151,-0.00041266903281211853,0.0017477625515311956
1772867098190927600,6.806927734375,-0.0010084577370435,-0.001637456938624382,0.003971235826611519
1772867098200993800,6.816993896484375,-0.0014157711993902922,0.00019057653844356537,0.0016295693349093199
1772867098211059500,6.8270595703125,-0.0012847438920289278,0.0003170762211084366,0.000695598719175905
1772867098221125600,6.837125732421875,0.0005620957817882299,0.000029387883841991425,0.00012973719276487827
1772867098231191600,6.847191650390625,0.00033013452775776386,-0.0010614432394504547,0.0011555867968127131
1772867098241257700,6.8572578125,-0.00007136981002986431,0.00016171205788850784,-0.0038456316106021404
1772867098251323600,6.86732373046875,0.0017678092699497938,0.0005172435194253922,0.0004340681480243802
1772867098261389800,6.877389892578125,0.00139742367900908,0.00011859089136123657,-0.0003211965085938573
1772867098271455700,6.887455810546875,0.0006717122159898281,0.0017609624192118645,0.0009901439771056175
1772867098281522000,6.89752197265625,-0.0014726228546351194,-0.0007065730169415474,0.0010498848278075457
1772867098291587600,6.907587646484375,0.0003457837738096714,0.00003884546458721161,0.0018677414627745748
1772867098301653500,6.917653564453125,-0.00040550343692302704,0.0006402935832738876,-0.004120450466871262
1772867098311719700,6.9277197265625,-0.0014089825563132763,-0.00041245389729738235,0.0025824597105383873
1772867098321785600,6.93778564453125,0.0005812952294945717,0.0019126171246170998,-0.001288586063310504
1772867098331851800,6.947851806640625,0.0009197830222547054,-0.0022397832944989204,-0.0006411715294234455
1772867098341917700,6.957917724609375,0.0009157245513051748,0.00011680740863084793,-0.002669762820005417
1772867098351983900,6.96798388671875,-0.000838765874505043,-0.0009135697036981583,-0.0006670657312497497
1772867098362049500,6.978049560546875,-0.00005500158295035362,0.0005729338154196739,-0.0003921532188542187
1772867098372115700,6.98811572265625,0.0031676895450800657,0.00032392796128988266,0.0009644610690884292
1772867098382181600,6.998181640625,-0.002780495211482048,0.0006935968995094299,-0.002182639902457595
1772867098392247600,7.00824755859375,0.0015961439348757267,0.0006190277636051178,0.0008507005404680967
1772867098402313700,7.018313720703125,-0.0008275797590613365,0.000311506912112236,0.0009318840457126498
1772867098412379600,7.028379638671875,-0.002232396975159645,0.0012678485363721848,-0.0007648158352822065
1772867098422445800,7.03844580078125,-0.00009898818098008633,0.001431063748896122,0.002567379968240857
1772867098432511700,7.04851171875,-0.000014299759641289711,-0.0007990673184394836,-0.0028936979360878468
1772867098442577700,7.05857763671875,0.0019219075329601765,-0.0005387552082538605,-0.00029435494798235595
1772867098452643600,7.0686435546875,0.00005183578468859196,-0.0011483533307909966,-0.000986244180239737
1772867098462709800,7.078709716796875,-0.0005566824693232775,-0.001501542516052723,0.00168265076354146
1772867098472775700,7.088775634765625,-0.0010261975694447756,0.002727556973695755,-0.0010414967546239495
1772867098482841900,7.098841796875,-0.001626460114493966,-0.0037152236327528954,0.00026624533347785473
1772867098492907800,7.10890771484375,0.00006917444989085197,-0.001161252148449421,-0.0007183253183029592
1772867098502972700,7.11897265625,-0.0005964017473161221,0.0022364743053913116,0.0022271319758147
1772867098513038600,7.12903857421875,-0.004040401428937912,0.0009781299158930779,-0.0005611976375803351
1772867098523104800,7.139104736328125,-0.001391812926158309,0.0003891969099640846,-0.0011617548298090696
1772867098533170700,7.149170654296875,-0.0019673218484967947,-0.0011232122778892517,0.001026830868795514
1772867098543236600,7.159236572265625,-0.002025395864620805,-0.0012117596343159676,-0.0011497035156935453
1772867098553302800,7.169302734375,0.0014004944823682308,-0.00011533591896295547,0.0003845436149276793
1772867098563368700,7.17936865234375,0.003341429866850376,-0.0028454596176743507,0.0022316339891403913
1772867098573434600,7.1894345703125,0.0002918441314250231,0.0007042679935693741,0.0021099275909364223
1772867098583500500,7.19950048828125,0.0013624662533402443,-0.00038952194154262543,-0.0009301332756876945
1772867098593566700,7.209566650390625,0.00048681884072721004,-0.002336026169359684,0.0009476616396568716
1772867098603632600,7.219632568359375,-0.0009820801205933094,0.0016186702996492386,0.000736126268748194
1772867098613698800,7.22969873046875,-0.0007120356895029545,0.002357165329158306,0.0011097677052021027
1772867098623764700,7.2397646484375,-0.002200596733018756,0.0020066378638148308,0.0031092604622244835
1772867098633831000,7.249830810546875,0.0013528591953217983,-0.0016980860382318497,-0.0016063987277448177
1772867098643896600,7.259896484375,-0.0019024708308279514,-0.0013831732794642448,0.00023766717640683055
1772867098653962500,7.26996240234375,0.0011577673722058535,0.0008693281561136246,-0.0006808571051806211
1772867098664028700,7.280028564453125,-0.0009374183136969805,-0.00014041084796190262,-0.0000015869736671447754
1772867098674094600,7.290094482421875,0.00041946209967136383,0.0016787946224212646,0.0010351815726608038
1772867098684160800,7.300160888671875,-0.0021276569459587336,0.002577892504632473,0.0012468534987419844
1772867098694226700,7.310226806640625,-0.002071464667096734,0.0010881200432777405,0.001887876307591796
1772867098704292900,7.32029296875,-0.0009460959117859602,0.0003954516723752022,-0.0016283856239169836
1772867098714358800,7.33035888671875,-0.0008033507037907839,0.0011238260194659233,-0.000023298489395529032
1772867098724424700,7.3404248046875,0.00009710108861327171,-0.0011692531406879425,-0.0026161635760217905
1772867098734490600,7.35049072265625,0.002159186638891697,0.0009114742279052734,-0.0019730101339519024
1772867098744556500,7.360556640625,-0.0011857091449201107,0.0005499562248587608,-0.000537827261723578
1772867098754622700,7.370622802734375,-0.001337509136646986,0.0016570324078202248,-0.0004683187580667436
1772867098764688600,7.380688720703125,0.0007069830317050219,-0.0006894385442137718,-0.0021434675436466932
1772867098774754800,7.3907548828125,0.000754120759665966,-0.002406111918389797,0.001623040996491909
1772867098784819700,7.40081982421875,-0.001019772607833147,-0.0013966020196676254,0.0027977656573057175
1772867098794885600,7.4108857421875,-0.0013878215104341507,-0.004358835518360138,-0.0004462307260837406
1772867098804951600,7.42095166015625,-0.0004151039756834507,0.0018217433243989944,0.0007335643749684095
1772867098815017700,7.431017822265625,0.00131941307336092,-0.0014129327610135078,0.0007420864421874285
1772867098825083600,7.441083740234375,-0.002968531334772706,-0.0007274365052580833,0.00020549807231873274
1772867098835149800,7.45114990234375,-0.0007136331405490637,0.002435334026813507,0.001375691033899784
1772867098845215700,7.4612158203125,-0.0018521326128393412,-0.0017839893698692322,0.0020791799761354923
1772867098855281700,7.47128173828125,-0.0010260201524943113,0.0018506934866309166,0.0007475994643755257
1772867098865347600,7.48134765625,0.0011382412631064653,0.0004026368260383606,-0.001676495186984539
1772867098875413800,7.491413818359375,-0.00129349110648036,-0.00031242240220308304,0.0011957241222262383
1772867098885479700,7.501479736328125,0.001117644365876913,0.0021408936008810997,0.0014480025274679065
1772867098895545600,7.511545654296875,-0.0046361153945326805,-0.003308466635644436,-0.001325679593719542
1772867098905611800,7.52161181640625,0.0011710603721439838,0.00017359387129545212,0.0006010135402902961
1772867098915677700,7.531677734375,0.0003726447466760874,-0.001698608510196209,-0.002616085112094879
1772867098925743600,7.54174365234375,0.0002732344437390566,0.0005148826166987419,0.0026529012247920036
1772867098935809500,7.5518095703125,-0.0010002891067415476,0.0008957143872976303,-0.0028641032986342907
1772867098945875700,7.561875732421875,-0.00008556060492992401,0.00034067220985889435,0.00011977175017818809
1772867098955941600,7.571941650390625,-0.0007779826410114765,0.0004123114049434662,-0.0002797023917082697
1772867098966007800,7.5820078125,-0.0020982115529477596,0.002270059660077095,0.00035990955075249076
1772867098976073700,7.59207373046875,-0.0008390690200030804,-0.0009896494448184967,0.0005487276357598603
1772867098986139600,7.6021396484375,-0.001243980834260583,0.00046141818165779114,0.0009344310383312404
1772867098996205800,7.612205810546875,0.0015158529859036207,-0.00027547869831323624,0.00017143541481345892
1772867099006271500,7.622271484375,0.002105636987835169,0.00004219170659780502,0.0005252479459159076
1772867099016337700,7.632337646484375,-0.001434236764907837,-0.0022747591137886047,-0.0019661393016576767
1772867099026402800,7.64240283203125,0.0007486769463866949,-0.0018579401075839996,0.0012417039833962917
1772867099036468700,7.65246875,0.00004666764289140701,-0.00003287661820650101,0.0018587582744657993
1772867099046535000,7.662534912109375,-0.00021397927775979042,-0.000699307769536972,-0.0010360970627516508
1772867099056601000,7.67260107421875,-0.0007346272468566895,0.0011260230094194412,0.00187553686555475
1772867099066666800,7.682666748046875,-0.000049008289352059364,0.00009035598486661911,0.0013238496612757444
1772867099076733000,7.69273291015625,0.0005312946159392595,0.001294904388487339,-0.00026898691430687904
1772867099086798800,7.702798828125,-0.00016519171185791492,-0.0019098594784736633,-0.001337577821686864
1772867099096865000,7.712864990234375,-0.0026312789414077997,-0.002262728288769722,0.0027128239162266254
1772867099106931000,7.722930908203125,0.003933998756110668,-0.0008666049689054489,-0.0030817724764347076
1772867099116997000,7.7329970703125,0.0002878648228943348,0.001884174533188343,-0.003074582200497389
1772867099127063000,7.74306298828125,0.00024161674082279205,0.0004662647843360901,0.00020919495727866888
1772867099137128700,7.753128662109375,-0.0011011490132659674,-0.001213924027979374,0.002095778239890933
1772867099147195000,7.76319482421875,-0.0006249209400266409,-0.00007394608110189438,0.0017606981564313173
1772867099157260800,7.7732607421875,-0.000029438408091664314,-0.0008161691948771477,0.0004509555292315781
1772867099167327000,7.783326904296875,0.0006586352828890085,0.0006927866488695145,0.0005151975201442838
1772867099177393000,7.793392822265625,0.001308979233726859,-0.0006268098950386047,0.00038390367990359664
1772867099187459000,7.803458984375,0.0012224006932228804,0.0005154972895979881,0.0007575219497084618
1772867099197525000,7.81352490234375,-0.000035942764952778816,-0.0022406084463000298,-0.00005953590152785182
1772867099207591200,7.823591064453125,0.0009497005958110094,0.00010512024164199829,-0.00008670802344568074
1772867099217656800,7.83365673828125,0.0010322586167603731,-0.0009404364973306656,-0.00012692177551798522
1772867099227723000,7.843722900390625,-0.0015083437319844961,-0.0025414563715457916,0.0004560351953841746
1772867099237789000,7.853788818359375,-0.0005429477896541357,-0.00018748827278614044,0.0036883139982819557
1772867099247854800,7.863854736328125,0.001050656195729971,-0.0011640582233667374,-0.0023898156359791756
1772867099257920000,7.873919921875,-0.00019756751134991646,-0.00014033913612365723,0.0005836036871187389
1772867099267986000,7.88398583984375,-0.000898716738447547,-0.0009160703048110008,0.0013723638840019703
1772867099278051800,7.8940517578125,-0.0015309511218219995,-0.0004319082945585251,0.0011039173696190119
1772867099288117800,7.90411767578125,0.0003720878157764673,0.0015339180827140808,-0.0010669648181647062
1772867099298184000,7.914183837890625,-0.0009744064882397652,-0.0011984854936599731,0.0016262901481240988
1772867099308249900,7.924249755859375,-0.0017239255830645561,0.000059985555708408356,0.0018305256962776184
1772867099318316000,7.93431591796875,0.0003101967740803957,-0.00008781999349594116,0.0005681873299181461
1772867099328382000,7.9443818359375,-0.000699611147865653,-0.0003310246393084526,-0.00024280778598040342
1772867099338448100,7.9544482421875,0.00047484319657087326,0.0016567585989832878,0.004054735414683819
1772867099348513800,7.964513671875,-0.0012851865030825138,-0.0016263583675026894,-0.0012055020779371262
1772867099358580000,7.974580078125,-0.001994652673602104,-0.0019177086651325226,-0.0010044333757832646
1772867099368646000,7.98464599609375,-0.0002205090131610632,-0.000026331283152103424,-0.00013465536176227033
1772867099378712000,7.994712158203125,-0.0010998847428709269,-0.00016082078218460083,0.0019452734850347042
1772867099388778000,8.004778076171876,-0.0008104494772851467,0.00017522647976875305,0.00047627987805753946
1772867099398844000,8.014843994140625,-0.0013041994534432888,-0.001389380544424057,0.000033129879739135504
1772867099408910000,8.02491015625,0.00101953255943954,-0.0008245697245001793,-0.002723543904721737
1772867099418975000,8.03497509765625,0.0007811796385794878,0.0011525610461831093,0.0016946401447057724
1772867099429041000,8.045041015625,-0.0005860873498022556,-0.0017183274030685425,0.0009343076962977648
1772867099439106800,8.05510693359375,-0.0010567510034888983,-0.0006279489025473595,-0.0006353811477310956
1772867099449173000,8.065173095703125,0.0006508526857942343,0.0000072838738560676575,0.002380520571023226
1772867099459239000,8.075239013671874,-0.00023651239462196827,-0.0009879395365715027,-0.001819284399971366
1772867099469305000,8.08530517578125,0.00081996014341712,0.00042446423321962357,0.00038045720430091023
1772867099479370800,8.095370849609376,-0.0009060346055775881,-0.0020192526280879974,0.001959978137165308
1772867099489437000,8.10543701171875,0.0004373714327812195,-0.0007580658420920372,0.0011467785807326436
1772867099499502800,8.1155029296875,-0.0019437610171735287,-0.0011460883542895317,0.0007752676028758287
1772867099509569000,8.125569091796875,0.0018651785794645548,-0.0016937842592597008,-0.0008220626041293144
1772867099519635000,8.135635009765625,0.003202085616067052,-0.001949448138475418,-0.0012734683696180582
1772867099529701000,8.145701171875,0.00041382061317563057,-0.0017855502665042877,-0.002508500125259161
1772867099539767000,8.15576708984375,0.0015358102973550558,0.0011133002117276192,0.0017078164964914322
1772867099549832700,8.165832763671874,0.00017812917940318584,-0.0033938856795430183,0.0006550282705575228
1772867099559899000,8.17589892578125,-0.000490057747811079,-0.00009689293801784515,0.0008148179622367024
1772867099569964800,8.18596484375,-0.0013114381581544876,0.0020473655313253403,0.002894603181630373
1772867099580031000,8.196031005859375,-0.0003060949966311455,-0.0026472555473446846,-0.0017299759201705456
1772867099590097000,8.206096923828126,0.002928291680291295,0.002135966904461384,-0.000810995465144515
1772867099600163000,8.2161630859375,-0.00019426457583904266,0.0013825586065649986,-0.0016075469320639968
1772867099610227700,8.226227783203125,0.0004190898034721613,-0.001018068753182888,0.0026735765859484673
1772867099620294000,8.2362939453125,0.00008246628567576408,0.0012019425630569458,-0.0006870663492009044
1772867099630359800,8.24635986328125,0.002085492480546236,-0.004049460403621197,0.0010301342699676752
1772867099640426000,8.256426025390626,0.0027440921403467655,0.0013674097135663033,-0.0013757653068751097
1772867099650492000,8.266491943359375,0.0004165691789239645,0.00020307302474975586,0.0027162283658981323
1772867099660558000,8.27655810546875,0.0009518645238131285,-0.00241987407207489,0.0005438880762085319
1772867099670624000,8.2866240234375,-0.00043654441833496094,-0.0006591165438294411,-0.0005919899558648467
1772867099680690200,8.296690185546876,0.00043990183621644974,0.00016459915786981583,0.00115983746945858
1772867099690755800,8.306755859375,-0.0008285832591354847,0.0016709435731172562,0.0021755509078502655
1772867099700821800,8.31682177734375,-0.000228839460760355,-0.002092902548611164,-0.0002335447061341256
1772867099710888000,8.326887939453124,-0.0019496981985867023,0.00022273603826761246,0.0008249360253103077
1772867099720953900,8.336953857421875,0.0003528706729412079,0.00017959251999855042,-0.001833697548136115
1772867099731020000,8.34702001953125,-0.0012175161391496658,0.000005241483449935913,-0.000501610164064914
1772867099741086000,8.3570859375,0.0001950245350599289,0.0008233645930886269,-0.0009066769853234291
1772867099751152000,8.367152099609376,0.0008223275654017925,0.00012669432908296585,0.000536789302714169
1772867099761217800,8.3772177734375,-0.0005420097149908543,-0.002081332728266716,0.0002528963377699256
1772867099771284000,8.387283935546876,-0.001254325732588768,0.0022561950609087944,0.000832440797239542
1772867099781348900,8.397348876953124,0.0003973664715886116,-0.0009640995413064957,-0.0017777233151718974
1772867099791415000,8.4074150390625,-0.0014608129858970642,-0.0012488998472690582,0.00019391515525057912
1772867099801481000,8.41748095703125,0.0006444158498197794,0.0007870867848396301,0.00080644222907722
1772867099811547100,8.427547119140625,-0.001232400070875883,0.0010838499292731285,-0.0003965807845816016
1772867099821612800,8.43761279296875,-0.00008564256131649017,-0.0010349610820412636,-0.004254968371242285
1772867099831679000,8.447678955078125,-0.001813909038901329,-0.0010854071006178856,0.0016670343466103077
1772867099841745000,8.457744873046876,0.00042927172034978867,0.00033645518124103546,-0.0020081279799342155
1772867099851810800,8.467810791015625,-0.0021667866967618465,-0.0013825241476297379,-0.0007451371056959033
1772867099861877000,8.477876953125,0.000214878236874938,-0.0010909074917435646,0.0011505009606480598
1772867099871943000,8.48794287109375,-0.0003730710595846176,0.0007295329123735428,-0.001605919562280178
1772867099882009000,8.498009033203125,-0.0018726973794400692,0.0017575137317180634,0.0008764129597693682
1772867099892074800,8.50807470703125,-0.001912727952003479,0.00010754261165857315,0.0008191016386263072
1772867099902141000,8.518140869140625,-0.00031536398455500603,-0.0022373702377080917,0.0020838368218392134
1772867099912206800,8.528206787109376,-0.0011944761499762535,-0.0021346518769860268,0.0004928398411720991
1772867099922273000,8.53827294921875,-0.0009763631969690323,-0.0018267910927534103,0.0006707389838993549
1772867099932339000,8.5483388671875,0.0008165715262293816,-0.00022513233125209808,-0.00047810038086026907
1772867099942404900,8.55840478515625,-0.0017911959439516068,0.00009417999535799026,0.000021242303773760796
1772867099952469800,8.5684697265625,0.0030544849578291178,-0.0006873747333884239,-0.0012382068671286106
1772867099962536000,8.578535888671874,0.0006890653166919947,0.0010000038892030716,-0.00045630274689756334
1772867099972601900,8.588601806640625,-0.00015557510778307915,-0.00045810267329216003,0.0005869376473128796
1772867099982668000,8.59866796875,0.00008410937152802944,-0.00012174621224403381,-0.003327376674860716
1772867099992734000,8.60873388671875,0.0005834023468196392,-0.0006272252649068832,0.0007061267388053238
1772867100002799900,8.6187998046875,0.0006116318982094526,-0.0012794332578778267,-0.00045021777623333037
1772867100012866000,8.628865966796875,-0.0013234871439635754,-0.0019016526639461517,0.002723234472796321
1772867100022933000,8.63893310546875,0.0011069136671721935,0.0003670947626233101,0.001087787328287959
1772867100032999000,8.6489990234375,0.0009722746908664703,-0.0005976473912596703,-0.0018013406079262495
1772867100043064600,8.659064697265626,0.0012481783051043749,-0.0003294674679636955,-0.0002031775948125869
1772867100053130800,8.669130859375,-0.0005793147720396519,-0.0014458661898970604,-0.002750647719949484
1772867100063196700,8.67919677734375,0.000012972392141819,-0.0014634430408477783,-0.00026804907247424126
1772867100073261600,8.689261474609374,-0.00025938451290130615,0.0021825507283210754,0.0009973100386559963
1772867100083327500,8.699327392578125,0.0009219937492161989,-0.0010156398639082909,-0.00040670851012691855
1772867100093393700,8.7093935546875,0.0020445091649889946,0.00032270606607198715,0.0011939462274312973
1772867100103459600,8.71945947265625,0.0011757859028875828,-0.001050686463713646,-0.0014990423806011677
1772867100113525500,8.729525390625,0.0006783443968743086,0.0016769412904977798,-0.0005270395777188241
1772867100123591700,8.739591796875,-0.0005967770703136921,-0.0009254990145564079,-0.0003131877165287733
1772867100133657300,8.7496572265625,0.0007568912114948034,0.0009452616795897484,0.0036680102348327637
1772867100143723500,8.7597236328125,0.0017571744974702597,-0.00044597312808036804,0.0031409705989062786
1772867100153789400,8.76978955078125,0.0006679636426270008,0.0021186750382184982,0.0006086638895794749
1772867100163855600,8.779855712890624,-0.0007139504887163639,-0.0006925575435161591,-0.0002824298571795225
1772867100173921500,8.789921630859375,-0.003341361880302429,-0.0005697570741176605,-0.00020796697936020792
1772867100183987700,8.79998779296875,0.002595889614894986,0.00046834349632263184,0.004030187148600817
1772867100194053600,8.8100537109375,-0.0007467707619071007,-0.0020675156265497208,0.00012031238293275237
1772867100204119800,8.820119873046876,-0.0005675400607287884,0.0008494444191455841,0.0006204540259204805
1772867100214185500,8.830185546875,-0.0018686363473534584,0.0011892840266227722,-0.0000397960830014199
1772867100224251400,8.84025146484375,-0.0019341502338647842,0.0010116510093212128,-0.0009452708764001727
1772867100234316500,8.850316650390624,0.00011815340258181095,-0.0020374273881316185,0.0018857207614928484
1772867100244382700,8.8603828125,-0.0005606864579021931,0.000720808282494545,-0.0020203376188874245
1772867100254448600,8.87044873046875,-0.0012269909493625164,0.000871521420776844,0.00034534570295363665
1772867100264514600,8.8805146484375,0.001016988418996334,0.000041680410504341125,-0.0005135237006470561
1772867100274580500,8.89058056640625,-0.00030667195096611977,0.0003016022965312004,0.00031710800249129534
1772867100284646400,8.900646484375,0.003444656729698181,-0.0015168040990829468,0.00043535238364711404
1772867100294712600,8.910712646484376,0.0027261050418019295,-0.0001379242166876793,0.001874393317848444
1772867100304778500,8.920778564453125,-0.000015352852642536163,0.0046126218512654305,-0.00035733581171371043
1772867100314844700,8.9308447265625,-0.0015067881904542446,0.0006371820345520973,0.001991774421185255
1772867100324910600,8.94091064453125,0.0005172141827642918,0.00034529995173215866,0.000013312266673892736
1772867100334976800,8.950976806640625,-0.0014867964200675488,0.000928943045437336,-0.001985534094274044
1772867100345042400,8.96104248046875,-0.0016913274303078651,-0.0013153031468391418,0.00001023896038532257
1772867100355108600,8.971108642578125,-0.0004481542855501175,-0.0001418665051460266,0.00010905403178185225
1772867100365174500,8.981174560546876,0.00005997694097459316,-0.0003738272935152054,0.0010430245893076062
1772867100375240400,8.991240478515625,-0.002490759827196598,-0.00010458007454872131,-0.00043928815284743905
1772867100385305600,9.0013056640625,-0.002189822494983673,0.001186254434287548,0.001610546838492155
1772867100395371800,9.011371826171874,0.0007192289922386408,-0.0012832572683691978,0.0016430404502898455
1772867100405437400,9.0214375,0.001357056200504303,-0.0019192202016711235,0.00200203456915915
1772867100415503600,9.031503662109374,0.00044751306995749474,-0.0021435990929603577,0.0004132337053306401
1772867100425569500,9.041569580078125,0.003704026574268937,0.0007195649668574333,0.0031245979480445385
1772867100435635500,9.051635498046876,0.00011755828745663166,0.0016276156529784203,0.0015208153054118156
1772867100445701600,9.06170166015625,-0.0008124173618853092,0.0007841931656002998,-0.0001327413774561137
1772867100455767600,9.071767578125,-0.0018178555183112621,0.0012452183291316032,-0.0005579671706072986
1772867100465833700,9.081833740234375,0.0016293404623866081,-0.00047225505113601685,0.000019938801415264606
1772867100475899400,9.0918994140625,-0.0003694780170917511,-0.0012030238285660744,0.0032651869114488363
1772867100485965600,9.101965576171875,0.0009357372764497995,0.002179456874728203,-0.0016182514373213053
1772867100496031500,9.112031494140625,0.0030002747662365437,-0.00008009001612663269,0.001906910678371787
1772867100506097700,9.12209765625,-0.0007164329290390015,-0.0005256365984678268,-0.00004092531162314117
1772867100516163600,9.13216357421875,0.0011870113667100668,-0.003091120161116123,0.003118967404589057
1772867100526228700,9.142228759765626,-0.0005522994324564934,0.0017499737441539764,0.0015074885450303555
1772867100536294400,9.15229443359375,-0.0010477895848453045,-0.0005315495654940605,-0.00020474259508773685
1772867100546360600,9.162360595703126,-0.0018467376939952374,-0.00035791099071502686,0.0009020671714097261
1772867100556426500,9.172426513671875,-0.0015983874909579754,-0.0007225936278700829,0.0021259812638163567
1772867100566492700,9.18249267578125,0.0015614531002938747,-0.0010336516425013542,-0.004266404081135988
1772867100576558600,9.19255859375,0.0009299032390117645,-0.0018831705674529076,-0.0005754667799919844
1772867100586624500,9.20262451171875,0.00016850559040904045,0.0012423153966665268,0.0007774190744385123
1772867100596690700,9.212690673828124,0.0001720641739666462,-0.0009677410125732422,0.002292741322889924
1772867100606756400,9.22275634765625,0.0008455775678157806,0.00034732744097709656,0.0010620946995913982
1772867100616822500,9.232822509765626,0.0009429305791854858,-0.0020135631784796715,-0.002840223256498575
1772867100626888400,9.242888427734375,0.0018430789932608604,-0.0007171360775828362,0.0008176285191439092
1772867100636954600,9.25295458984375,0.00033647892996668816,-0.0005766041576862335,0.00016792112728580832
1772867100647020500,9.2630205078125,-0.001484057866036892,-0.002319376915693283,0.0031578519847244024
1772867100657086700,9.273086669921875,0.0002006213180720806,0.0013471059501171112,-0.0005033364868722856
1772867100667151400,9.2831513671875,0.0001327109057456255,-0.0012739775702357292,-0.0013038826873525977
1772867100677217500,9.293217529296875,0.002030258532613516,0.00012681446969509125,-0.0006947547080926597
1772867100687283500,9.303283447265626,0.00004487205296754837,0.0010820897296071053,-0.00015945930499583483
1772867100697349600,9.313349609375,-0.0019344286993145943,0.00011888891458511353,0.0011931518092751503
1772867100707415600,9.32341552734375,-0.0017056632786989212,-0.0012696832418441772,0.0010101926745846868
1772867100717481700,9.333481689453125,0.00007129600271582603,0.0004658093675971031,0.0006275213090702891
1772867100727547600,9.343547607421876,0.000026288442313671112,0.0015712874010205269,0.00042112625669687986
1772867100737613600,9.353613525390625,-0.001627373043447733,0.001889319159090519,-0.0006723222322762012
1772867100747679500,9.363679443359375,-0.000298455823212862,0.00042591243982315063,-0.0019232090562582016
1772867100757745400,9.373745361328124,0.001218167133629322,-0.0003597252070903778,0.0012971051037311554
1772867100767811600,9.3838115234375,-0.00019623804837465286,0.0027793431654572487,-0.0007311584195122123
1772867100777877500,9.39387744140625,0.0016463184729218483,-0.0012580696493387222,0.0025745569728314877
1772867100787943700,9.403943603515625,0.002050320152193308,-0.0002223663032054901,-0.0010422822088003159
1772867100798009600,9.414009521484376,0.0009585190564393997,0.00011052004992961884,-0.0020874314941465855
1772867100808074500,9.424074462890625,-0.0018146303482353687,-0.0007177228108048439,0.0021192976273596287
1772867100818140400,9.434140380859375,-0.00014348747208714485,-0.0003351988270878792,0.0008187416242435575
1772867100828206600,9.44420654296875,-0.003956068307161331,-0.0029413681477308273,0.0007356510031968355
1772867100838272500,9.4542724609375,-0.001073895487934351,-0.000246955081820488,0.0015627900138497353
1772867100848338700,9.464338623046874,-0.0005274149589240551,0.0004907399415969849,0.0023572109639644623
1772867100858404600,9.474404541015625,-0.0008663306944072247,-0.000911463052034378,-0.00021303514949977398
1772867100868470800,9.484470703125,-0.00016964739188551903,0.0007093371823430061,0.000548628915566951
1772867100878536400,9.494536376953125,-0.0013386807404458523,0.0003205975517630577,0.000018174992874264717
1772867100888602400,9.504602294921876,0.0006387161556631327,-0.000659978948533535,-0.0009818419348448515
1772867100898668500,9.51466845703125,0.00023320107720792294,-0.00077088363468647,-0.0002619506267365068
1772867100908734500,9.524734375,0.0006625025998800993,0.0015005264431238174,-0.0006017700070515275
1772867100918800600,9.534800537109374,-0.0007045967504382133,0.00022874586284160614,-0.0007093086605891585
1772867100928866600,9.544866455078125,-0.0007663820870220661,-0.0003329142928123474,0.0009066975326277316
1772867100938931500,9.554931396484376,0.000988073879852891,0.0014516981318593025,0.0014500692486763
1772867100948997400,9.564997314453125,0.0012013930827379227,0.00016539078205823898,0.000937676930334419
1772867100959063600,9.5750634765625,-0.00040738750249147415,-0.0010455567389726639,0.0007914877496659756
1772867100969129500,9.58512939453125,0.000881582498550415,0.0018687406554818153,0.0009507447248324752
1772867100979195600,9.595195556640626,0.00101520586758852,-0.002230510115623474,-0.0005040190881118178
1772867100989261600,9.605261474609375,0.0006628697738051414,0.0012078974395990372,0.0003977272426709533
1772867100999327700,9.61532763671875,-0.0011889226734638214,-0.002281089313328266,0.0004938912461511791
1772867101009393400,9.625393310546874,0.0006941985338926315,0.001739751547574997,-0.002968750661239028
1772867101019459600,9.63545947265625,0.0019710916094481945,0.0005638115108013153,-0.0007552158203907311
1772867101029525500,9.645525390625,0.0019527156837284565,0.00034862756729125977,0.001318587688729167
1772867101039591400,9.65559130859375,-0.0009320969693362713,0.0007069958373904228,0.00042238738387823105
1772867101049657900,9.665657958984376,-0.0015427600592374802,-0.0010994262993335724,0.0014825917314738035
1772867101059723000,9.675722900390625,-0.000016841106116771698,0.00024475809186697006,0.0015764357522130013
1772867101069788700,9.68578857421875,-0.001477851066738367,0.0008977651596069336,-0.004976804833859205
1772867101079854800,9.695854736328124,-0.00022897683084011078,0.0017339382320642471,-0.002719228621572256
1772867101089920800,9.705920654296875,0.0008594573009759188,0.0019448604434728622,0.00007309584179893136
1772867101099986700,9.715986572265624,0.00017053913325071335,0.0017099659889936447,-0.001361652510240674
1772867101110052900,9.726052978515625,0.001469096401706338,0.0006849151104688644,0.0005193381803110242
1772867101120118800,9.736118896484374,0.0003134715370833874,-0.0012344950810074806,-0.0009004497551359236
1772867101130185000,9.74618505859375,-0.0010852203704416752,-0.001356733962893486,-0.00003146030940115452
1772867101140251000,9.7562509765625,0.00011409120634198189,-0.000040811486542224884,-0.0014641493326053023
1772867101150316800,9.76631689453125,0.001798274228349328,-0.0013944962993264198,0.003077339380979538
1772867101160382700,9.7763828125,-0.0014383960515260696,-0.0007875896990299225,0.0008188391802832484
1772867101170449000,9.786448974609375,0.0003352693747729063,0.0006193574517965317,-0.001993991434574127
1772867101180514800,9.796514892578125,-0.00045815156772732735,-0.000551135279238224,0.0002102124271914363
1772867101190580000,9.806580078125,0.0004585082642734051,0.00038736220449209213,0.0021300851367413998
1772867101200646000,9.81664599609375,-0.0017511961050331593,-0.0007854122668504715,-0.0008494240464642644
1772867101210711800,9.8267119140625,-0.00043452903628349304,0.0002793204039335251,0.0014547428581863642
1772867101220777700,9.83677783203125,-0.0008490681648254395,0.002788454294204712,0.0001495892647653818
1772867101230844000,9.846843994140626,0.0012487040366977453,-0.0006752526387572289,0.0012462789891287684
1772867101240909800,9.856909912109375,-0.0015401113778352737,0.00005735643208026886,0.0012703256215900183
1772867101250975700,9.866975830078125,0.0014053448103368282,-0.0001234719529747963,0.0020474360790103674
1772867101261042000,9.8770419921875,-0.0006037694402039051,0.00024110358208417892,-0.0026837815530598164
1772867101271107800,9.88710791015625,0.0019776327535510063,0.001615295186638832,0.000712015142198652
1772867101281173800,9.897173828125,-0.001103285700082779,-0.003051123581826687,-0.0006512219551950693
1772867101291239700,9.90723974609375,-0.0008044787682592869,0.0015353718772530556,0.0005759627092629671
1772867101301305900,9.917305908203126,0.0003599715419113636,-0.000248507596552372,0.001002784352749586
1772867101311370800,9.927370849609375,-0.0029071946628391743,-0.0005153566598892212,0.0005543080042116344
1772867101321437000,9.93743701171875,-0.001315583474934101,-0.0015592733398079872,0.000281621643807739
1772867101331502800,9.9475029296875,-0.0003062454052269459,0.00025673583149909973,0.002067004796117544
1772867101341568800,9.95756884765625,0.0009545306675136089,-0.0008839033544063568,0.00011429004371166229
1772867101351634700,9.967634765625,-0.0007461640052497387,-0.0002748388797044754,-0.0018218280747532845
1772867101361700900,9.977700927734375,-0.0005769766867160797,-0.00013350695371627808,-0.0029586288146674633
1772867101371766800,9.987766845703124,-0.00045021064579486847,-0.0006208652630448341,0.0016694125952199101
1772867101381833000,9.9978330078125,0.001066945493221283,0.0013018688187003136,-0.002530776197090745
1772867101391899000,10.00789892578125,0.0008237988222390413,-0.0011016344651579857,0.004030453972518444
1772867101401964800,10.01796484375,-0.0011821012012660503,0.0012107491493225098,-0.0018049412174150348
1772867101412030700,10.02803076171875,0.0021050386130809784,-0.0007357560098171234,-0.0006208998383954167
1772867101422096000,10.038095947265624,0.0003951445687562227,0.0006764009594917297,0.000666073989123106
1772867101432161800,10.048161865234375,-0.00011644884943962097,-0.0019105933606624603,0.0018897965783253312
1772867101442228000,10.05822802734375,0.001696295104920864,-0.00114483293145895,0.0008505543228238821
1772867101452294000,10.0682939453125,0.0004968075081706047,0.0010677212849259377,0.0012644095113500953
1772867101462359800,10.07835986328125,-0.0003554001450538635,-0.00035777315497398376,-0.0008887868607416749
1772867101472425700,10.08842578125,-0.0006155907176434994,0.00016340706497430801,0.00034798518754541874
1772867101482491600,10.09849169921875,0.0005158938001841307,0.0003246767446398735,0.0041121249087154865
1772867101492557800,10.108557861328125,0.0005028443410992622,-0.0010649608448147774,0.001001552795059979
1772867101502623700,10.118623779296875,0.0010927410330623388,-0.0005077878013253212,0.0025164082180708647
1772867101512690000,10.12868994140625,-0.0014601652510464191,-0.00042496342211961746,-0.0017166861798614264
1772867101522755800,10.138755859375,-0.00100330775603652,0.0010516801849007607,-0.0004373723641037941
1772867101532822000,10.148822021484374,-0.0002387138083577156,0.00022982805967330933,0.0022268539760261774
1772867101542886700,10.15888671875,0.00038879713974893093,0.0017038071528077126,-0.0006369966431520879
1772867101552952800,10.168952880859376,0.0009944001212716103,-0.0013034343719482422,0.0007004428771324456
1772867101563018800,10.179018798828125,0.0017090612091124058,0.0015931064262986183,0.000510925252456218
1772867101573085000,10.1890849609375,0.0009346141014248133,0.0010990900918841362,-0.0006020097644068301
1772867101583150800,10.19915087890625,0.0021718554198741913,-0.0016924887895584106,0.0005837049102410674
1772867101593217000,10.209217041015625,0.0007214979268610477,-0.0014634570106863976,-0.0013042099308222532
1772867101603283000,10.219282958984374,-0.0005306974053382874,-0.0018238211050629616,0.0013937067706137896
1772867101613348600,10.2293486328125,0.0007979536894708872,-0.0027671121060848236,-0.0022987660486251116
1772867101623414800,10.239414794921874,0.0006833865772932768,-0.000029562972486019135,-0.00016347473138011992
1772867101633480700,10.249480712890625,-0.000839675310999155,-0.0011321119964122772,-0.0013618972152471542
1772867101643547000,10.259546875,-0.0023382161743938923,-0.0012810062617063522,0.0004629851318895817
1772867101653611800,10.26961181640625,-0.0005578929558396339,-0.00001573842018842697,-0.0011202641762793064
1772867101663678000,10.279677978515625,0.0010910455603152514,-0.0003497600555419922,0.0006099140155129135
1772867101673743600,10.28974365234375,-0.0016586682759225368,0.0010156426578760147,0.000840277352835983
1772867101683809800,10.299809814453125,-0.0009106327779591084,0.00047425925731658936,-0.000993938883766532
1772867101693875700,10.309875732421874,-0.0002602888271212578,-0.0005683684721589088,-0.0008562534349039197
1772867101703942000,10.31994189453125,-0.0015166276134550571,-0.00040333904325962067,-0.0009298115037381649
1772867101714007800,10.3300078125,-0.0011291378177702427,0.001038762740790844,-0.00015642950893379748
1772867101724074000,10.340073974609375,0.0018442305736243725,0.00016960129141807556,0.0005912370979785919
1772867101734140000,10.350139892578126,0.0031422553583979607,0.0014535114169120789,-0.0021992232650518417
1772867101744205800,10.360205810546875,-0.0012866598553955555,0.00028192996978759766,0.0009712237515486777
1772867101754271700,10.370271728515625,-0.0008272645063698292,0.0018041934818029404,-0.0005382559029385448
1772867101764337000,10.3803369140625,-0.0005954066291451454,-0.003662576898932457,0.0030791829340159893
1772867101774402800,10.39040283203125,-0.0005243001505732536,0.001355350948870182,0.00011774786980822682
1772867101784469000,10.400468994140626,0.0008268344681710005,-0.0006001414731144905,0.0005128171760588884
1772867101794535000,10.410534912109375,0.0014066046569496393,-0.0011689933016896248,0.0019868770614266396
1772867101804600800,10.420600830078126,0.0008584777824580669,-0.001408175565302372,-0.001494992757216096
1772867101814666800,10.430666748046875,-0.0019884412176907063,-0.001216428354382515,0.0005212863907217979
1772867101824732700,10.440732666015625,0.0011037166696041822,-0.00009617116302251816,0.000356168020516634
1772867101834798800,10.450798828125,-0.0009493143297731876,-0.0012706257402896881,0.00029491534223780036
1772867101844864800,10.46086474609375,-0.0006683012470602989,-0.0013426980003714561,0.0007467864779755473
1772867101854931000,10.470930908203124,0.00029656197875738144,-0.0011578742414712906,-0.0031640655361115932
1772867101864996900,10.480996826171875,0.00126892258413136,-0.002085053361952305,-0.000643386272713542
1772867101875061800,10.491061767578126,-0.000027237925678491592,-0.0006141895428299904,-0.0028503478970378637
1772867101885127700,10.501127685546875,0.0019657372031360865,0.0017997995018959045,0.001428479328751564
1772867101895193900,10.51119384765625,0.00037556374445557594,-0.00043086428195238113,-0.0022416228894144297
1772867101905259800,10.521259765625,0.0014556958340108395,0.0018194736912846565,0.0006433083908632398
1772867101915326000,10.531325927734375,0.0005448947194963694,-0.0020538270473480225,-0.003312550950795412
1772867101925392000,10.541391845703124,0.0019991435110569,0.0007792031392455101,-0.0008862694958224893
1772867101935457800,10.551457763671875,0.0018366908188909292,-0.0003438517451286316,0.0028914245776832104
1772867101945523700,10.561523681640624,-0.00040302053093910217,-0.0002675177529454231,-0.0007490494754165411
1772867101955590000,10.57158984375,0.0009954050183296204,0.0006933510303497314,0.0009907935746014118
1772867101965655800,10.58165576171875,-0.00025695934891700745,-0.0005256785079836845,-0.002548692747950554
1772867101975721000,10.591720947265625,-0.0016018557362258434,-0.0003563016653060913,-0.0024501557927578688
1772867101985787000,10.601786865234375,-0.0018569943495094776,-0.0019834134727716446,-0.00040264276321977377
1772867101995852800,10.611852783203124,0.001956119667738676,-0.001120016910135746,-0.004148645326495171
1772867102005918700,10.621918701171875,-0.001847369596362114,0.0011395765468478203,-0.0011642978060990572
1772867102015985000,10.63198486328125,0.0012128688395023346,0.0012572882696986198,-0.00028731892234645784
1772867102026050800,10.64205078125,-0.0008794614113867283,0.0006297025829553604,0.0005243425257503986
1772867102036116700,10.65211669921875,0.0018241794314235449,-0.0010448936372995377,0.00017253897385671735
1772867102046183400,10.662183349609375,0.002077969256788492,-0.0009101629257202148,-0.0005925172008574009
1772867102056249300,10.672249267578126,-0.00042034219950437546,0.0021961480379104614,0.0000013677636161446571
1772867102066315300,10.682315185546875,0.0008483731653541327,-0.0015398142859339714,-0.0010484503582119942
1772867102076381200,10.692381103515626,-0.0027170670218765736,0.00015129242092370987,0.0024698516353964806
1772867102086446300,10.7024462890625,0.00040051527321338654,0.0005876431241631508,-0.001121298409998417
1772867102096512300,10.71251220703125,-0.0028517371974885464,-0.002780189737677574,-0.0008283507195301354
1772867102106578400,10.722578369140624,0.00018214480951428413,0.0018119141459465027,0.00018112541874870658
1772867102116644400,10.732644287109375,0.0019068080000579357,-0.00006880983710289001,-0.0017850863514468074
1772867102126710300,10.742710205078126,0.0020792032591998577,-0.0012548109516501427,-0.0011054545175284147
1772867102136776200,10.752776123046875,-0.00016823876649141312,0.0023849308490753174,0.0006738034426234663
1772867102146842400,10.76284228515625,-0.0005108709447085857,0.0005894768983125687,0.00019695877563208342
1772867102156908300,10.772908203125,0.0006867526099085808,0.0007913447916507721,-0.0013921493664383888
1772867102166974200,10.78297412109375,0.002067368011921644,0.0014163423329591751,-0.0006000539870001376
1772867102177040400,10.793040283203124,0.001028735190629959,0.0003356318920850754,0.0008497709059156477
1772867102187105300,10.803105224609375,0.0001936350017786026,0.003852960653603077,0.0008060848922468722
1772867102197171200,10.813171142578126,-0.0005200919695198536,-0.0029495516791939735,0.0020143610890954733
1772867102207237000,10.823237060546875,0.0009790577460080385,0.0023946771398186684,-0.0026485316921025515
1772867102217303300,10.83330322265625,0.00022991071455180645,-0.0026517463847994804,0.001958204200491309
1772867102227369200,10.843369140625,0.00026386952959001064,-0.001286609098315239,0.0000833891099318862
1772867102237435400,10.853435302734376,-0.00012734904885292053,0.001137666404247284,-0.0008641636231914163
1772867102247501300,10.863501220703125,-0.001284572295844555,-0.002085091546177864,0.0006901498418301344
1772867102257567200,10.873567138671875,0.0007759153377264738,0.0015655700117349625,0.00019906292436644435
1772867102267633200,10.883633056640624,0.0005853234324604273,-0.00009878352284431458,0.0005705622606910765
1772867102277699300,10.89369921875,-0.0008690287359058857,0.002257581800222397,-0.0005610148655250669
1772867102287764200,10.90376416015625,-0.0024992600083351135,-0.001450423151254654,-0.003275501076132059
1772867102297830400,10.913830322265625,0.001092545222491026,0.000611395575106144,-0.00015880359569564462
1772867102307896300,10.923896240234376,0.0015345904976129532,-0.0007145507261157036,-0.00017991149798035622
1772867102317962200,10.933962158203125,-0.0025698733516037464,0.0014330223202705383,-0.0009892461821436882
1772867102328028200,10.944028076171875,-0.0006644655950367451,-0.00011726655066013336,0.0007418591412715614
1772867102338094300,10.95409423828125,0.00025778706185519695,0.0023123351857066154,-0.00007147021824494004
1772867102348160300,10.96416015625,-0.001577689778059721,-0.0009520547464489937,0.00004834920400753617
1772867102358226200,10.97422607421875,0.00005536060780286789,0.002216041088104248,0.0005847098072990775
1772867102368292400,10.984292236328125,0.0009510470554232597,-0.000550461933016777,0.0004841639893129468
1772867102378358300,10.994358154296876,-0.0008481843397021294,0.001616019755601883,0.0014793873997405171
1772867102388423200,11.004423095703125,0.0008828730788081884,0.005838777869939804,-0.0006668883142992854
1772867102398489300,11.0144892578125,-0.0016085142269730568,-0.0021080952137708664,0.0003387213218957186
1772867102408555300,11.02455517578125,-0.00017979834228754044,0.0013455813750624657,0.002066001296043396
1772867102418621200,11.03462109375,-0.00020163599401712418,0.0006044236943125725,-0.0009534906130284071
1772867102428687400,11.044687255859374,-0.0010700095444917679,-0.0012220470234751701,-0.0036813588812947273
1772867102438753300,11.054753173828125,-0.00014535989612340927,-0.0006750337779521942,0.00012855941895395517
1772867102448819200,11.064819091796876,-0.0005580317229032516,0.0006468798965215683,0.002103573177009821
