time,seconds_elapsed,z,y,x
1772867091492029000,0.10802880859375,-0.003972371108829975,0.0142918536439538,0.001454884884878993
1772867091502095000,0.11809521484375,-0.0030067088082432747,0.01483327429741621,0.0009675264009274542
1772867091512161000,0.1281611328125,-0.004766525700688362,0.01185106672346592,0.0008274441352114081
1772867091522226200,0.13822607421875,-0.0029294772539287806,0.012057994492352009,0.0012397015234455466
1772867091532292000,0.1482919921875,-0.0047260457649827,0.012631638906896114,-0.0017590179340913892
1772867091542358300,0.158358154296875,-0.005379052832722664,0.01420396938920021,0.002011485630646348
1772867091552424000,0.168423828125,-0.0021427792962640524,0.011842544190585613,0.0013286510948091745
1772867091562490000,0.178489990234375,-0.0028581044171005487,0.013315272517502308,0.003156644757837057
1772867091572556000,0.18855615234375,-0.003969707991927862,0.013727796263992786,-0.0012913667596876621
1772867091582622000,0.1986220703125,-0.00370179396122694,0.009308280423283577,0.001748897833749652
1772867091592688000,0.208688232421875,-0.004269047174602747,0.012189820408821106,-0.0025936525780707598
1772867091602754000,0.218754150390625,-0.003960386849939823,0.012265721336007118,0.0003091930120717734
1772867091612820200,0.2288203125,-0.002954510971903801,0.010289122350513935,0.0010940266074612737
1772867091622886100,0.23888623046875,-0.00398648576810956,0.011774101294577122,-0.0015331818722188473
1772867091632951000,0.248950927734375,-0.004339354578405619,0.01173069141805172,0.0011544802691787481
1772867091643017000,0.259016845703125,-0.0046152579598128796,0.012142682448029518,0.0028991170693188906
1772867091653083100,0.269083251953125,-0.005469067487865686,0.010598049499094486,0.0020535634830594063
1772867091663149000,0.279149169921875,-0.005771336145699024,0.011412178166210651,0.0010639328975230455
1772867091673215200,0.28921533203125,-0.004230164922773838,0.013348029926419258,-0.00021198761533014476
1772867091683281000,0.299281005859375,-0.0032530513126403093,0.01293444074690342,-0.0002764361270237714
1772867091693347000,0.30934716796875,-0.003263437654823065,0.013012471608817577,-0.0006562029011547565
1772867091703413000,0.3194130859375,-0.005350024439394474,0.012212458066642284,0.0010402307379990816
1772867091713479200,0.329479248046875,-0.006500510033220053,0.013376791961491108,0.0025188177824020386
1772867091723545000,0.339545166015625,-0.004780374001711607,0.014027934521436691,0.0006229133578017354
1772867091733611000,0.349611083984375,-0.002457032445818186,0.011438809335231781,-0.000401604687795043
1772867091743677200,0.35967724609375,-0.0029617014806717634,0.010641193017363548,-0.001752093667164445
1772867091753742000,0.3697421875,-0.0022210762836039066,0.01173069141805172,0.00015472965606022626
1772867091763808000,0.37980810546875,-0.005393966566771269,0.010698717087507248,-0.0015283881220966578
1772867091773874000,0.3898740234375,-0.005138303153216839,0.012771455571055412,-0.0010394317796453834
1772867091783940000,0.399940185546875,-0.004521514754742384,0.009275790303945541,-0.0015395734226331115
1772867091794006000,0.410006103515625,-0.003765443339943886,0.012405004352331161,-0.0014482269762083888
1772867091804072200,0.420072265625,-0.0017688715597614646,0.01309183333069086,0.00038962045800872147
1772867091814138000,0.43013818359375,-0.00563977612182498,0.011873703449964523,0.0027268105186522007
1772867091824204000,0.4402041015625,-0.0038394792936742306,0.01306227222084999,0.0010484865633770823
1772867091834270000,0.45027001953125,-0.003606186481192708,0.012910205870866776,0.002409361768513918
1772867091844336000,0.460336181640625,-0.003753991797566414,0.012083294801414013,-0.00039734362508170307
1772867091854402000,0.470402099609375,-0.0018213358707726002,0.014868694357573986,0.0030298782512545586
1772867091864468200,0.48046826171875,-0.004490622319281101,0.012771721929311752,-0.0014788532862439752
1772867091874533000,0.490533203125,-0.0036072516813874245,0.015026886016130447,-0.0014990933705121279
1772867091884599000,0.50059912109375,-0.00421391986310482,0.0123631926253438,0.0015060176374390721
1772867091894665000,0.5106650390625,-0.004327636677771807,0.012473180890083313,0.001181644620373845
1772867091904731100,0.520731201171875,-0.004823783412575722,0.013453491032123566,0.002642388455569744
1772867091914797000,0.530797119140625,-0.0005515406373888254,0.013338708318769932,-0.00010226538870483637
1772867091924863000,0.540863037109375,-0.003799531841650605,0.010957842692732811,0.0002897519152611494
1772867091934929200,0.55092919921875,-0.00304612354375422,0.009288839064538479,0.00023089606838766485
1772867091944995000,0.5609951171875,-0.006730606779456139,0.011390605941414833,-0.00008202536264434457
1772867091955061000,0.57106103515625,-0.003372893435880542,0.012278503738343716,-0.0018543590558692813
1772867091965127000,0.581126953125,-0.002581668319180608,0.012417521327733994,0.001353418454527855
1772867091975193000,0.591193115234375,-0.004758003633469343,0.011531487107276917,0.0046879625879228115
1772867091985259000,0.601259033203125,-0.005323659162968397,0.0139608234167099,0.0007755124825052917
1772867091995325200,0.6113251953125,-0.003834685543552041,0.01218689139932394,0.0021547635551542044
1772867092005390000,0.62139013671875,-0.004573978949338198,0.013875601813197136,0.00264798104763031
1772867092015456000,0.6314560546875,-0.002773682354018092,0.013624732382595539,0.0005187837523408234
1772867092025522000,0.64152197265625,-0.002590723102912307,0.014402640983462334,-0.0015211976133286953
1772867092035588000,0.651588134765625,-0.004299940075725317,0.011695537716150284,-0.0019499665359035134
1772867092045653800,0.66165380859375,-0.006040848325937986,0.012264123186469078,-0.00043516053119674325
1772867092055720000,0.671719970703125,-0.004114849958568811,0.013916880823671818,0.0014202637830749154
1772867092065785900,0.681785888671875,-0.0016460998449474573,0.009545568376779556,0.0021084246691316366
1772867092075852000,0.69185205078125,-0.004781173076480627,0.013411679305136204,-0.0004082625964656472
1772867092085918000,0.70191796875,-0.00256409146822989,0.015021559782326221,-0.0010133327450603247
1772867092095983900,0.71198388671875,-0.0026317357551306486,0.013734987005591393,0.0019795275293290615
1772867092106050000,0.722050048828125,-0.002537992550060153,0.013193299993872643,0.0011385013349354267
1772867092116116000,0.732115966796875,-0.002004561247304082,0.01176451425999403,0.005541771650314331
1772867092126182000,0.742181884765625,-0.006079996936023235,0.013626329600811005,-0.0007041397620923817
1772867092136247800,0.752247802734375,-0.0022865901701152325,0.015053784474730492,-0.0012753878254443407
1772867092146314000,0.76231396484375,-0.005000617355108261,0.013824203051626682,0.00010705907334340736
1772867092156379000,0.77237890625,-0.0035625104792416096,0.012858807109296322,0.001272990950383246
1772867092166445000,0.782445068359375,-0.004795287735760212,0.010786068625748158,0.00014860439114272594
1772867092176511000,0.792510986328125,-0.004308195784687996,0.014396250247955322,-0.00016405072528868914
1772867092186577000,0.802576904296875,-0.005259742960333824,0.013116600923240185,0.0016237293602898717
1772867092196642800,0.812642822265625,-0.003148122690618038,0.01338744442909956,0.0016713999211788177
1772867092206709000,0.822708984375,-0.005772934295237064,0.012940832413733006,0.003379018744453788
1772867092216775000,0.83277490234375,-0.0033449302427470684,0.012058260850608349,-0.0002767024270724505
1772867092226841000,0.842841064453125,-0.005759618245065212,0.013079849071800709,0.0008578042034059763
1772867092236907000,0.852906982421875,-0.00395799009129405,0.013370666652917862,0.003703924361616373
1772867092246973000,0.862972900390625,-0.002825613832101226,0.011470767669379711,0.0008458199445158243
1772867092257038800,0.873038818359375,-0.0024639565963298082,0.012256399728357792,-0.0013286510948091745
1772867092267104800,0.883104736328125,-0.004130030050873756,0.01375283021479845,-0.00039974047103896737
1772867092277171000,0.8931708984375,-0.004829110112041235,0.013547234237194061,0.0019619506783783436
1772867092287236900,0.90323681640625,-0.001112935016863048,0.012947490438818932,0.0034583809319883585
1772867092297302000,0.913302001953125,-0.0013512879377231002,0.01224574726074934,-0.0007890945998951793
1772867092307368000,0.923367919921875,-0.0023129554465413094,0.012258530594408512,0.00010359696898376569
1772867092317433900,0.933433837890625,-0.0038634478114545345,0.01013678964227438,0.0010045443195849657
1772867092327499800,0.943499755859375,-0.0032442628871649504,0.013546168804168701,-0.0023497070651501417
1772867092337566000,0.95356591796875,-0.002317482838407159,0.008446748368442059,0.0002364887041039765
1772867092347631900,0.9636318359375,-0.003765443339943886,0.011632421053946018,-0.0003051982494071126
1772867092357698000,0.973697998046875,-0.0020413128659129143,0.014162690378725529,0.002484729280695319
1772867092367764000,0.983763916015625,-0.0027944548055529594,0.014147510752081871,0.0006868292111903429
1772867092377830100,0.993830078125,-0.003430950455367565,0.013390373438596725,0.0021552962716668844
1772867092387895800,1.003895751953125,-0.0008354336023330688,0.013372796587646008,0.0014357101172208786
1772867092397961700,1.013961669921875,-0.0028160265646874905,0.012530705891549587,0.0014016216155141592
1772867092408028000,1.02402783203125,-0.004792358260601759,0.011358115822076797,0.002110022585839033
1772867092418093800,1.03409375,-0.004679972771555185,0.011747470125555992,-0.00006711165769957006
1772867092428160000,1.044159912109375,-0.004492220003157854,0.013110741972923279,0.00026365293888375163
1772867092438226000,1.054225830078125,-0.0022032330743968487,0.013307815417647362,-0.0007843009079806507
1772867092448290800,1.064290771484375,-0.00538357999175787,0.011375159956514835,0.000630636524874717
1772867092458356700,1.074356689453125,-0.002909237053245306,0.0097423754632473,-0.0012221246724948287
1772867092468423000,1.0844228515625,-0.005275189410895109,0.010493653826415539,0.0015749934827908874
1772867092478488800,1.09448876953125,-0.004777977243065834,0.012457734905183315,-0.00007643271965207532
1772867092488555000,1.104554931640625,-0.007789745926856995,0.012760802172124386,0.0006391586503013968
1772867092498621000,1.114620849609375,-0.006302903406322002,0.014986672438681126,0.0032439965289086103
1772867092508687000,1.12468701171875,-0.0028908613603562117,0.011494736187160015,-0.0018365158466622233
1772867092518753000,1.1347529296875,-0.00458836043253541,0.01242391299456358,0.0004040015337523073
1772867092528819000,1.14481884765625,-0.0021736719645559788,0.014448181726038456,0.00041678472189232707
1772867092538884900,1.154884765625,-0.004840828012675047,0.01221538707613945,-0.0003251719754189253
1772867092548950800,1.16495068359375,-0.0054573495872318745,0.010171410627663136,0.0007046724203974009
1772867092559017000,1.175016845703125,-0.005554821342229843,0.012773319147527218,0.002514823107048869
1772867092569083000,1.185082763671875,-0.0031931300181895494,0.012347746640443802,0.0005763080553151667
1772867092579149000,1.195149169921875,-0.003412840887904167,0.011178618296980858,0.0019180085510015488
1772867092589215000,1.205215087890625,-0.003931891173124313,0.011330419220030308,0.001654355670325458
1772867092599281000,1.215281005859375,-0.0010554107138887048,0.01113574206829071,0.00034967303508892655
1772867092609346800,1.225346923828125,-0.0018154769204556942,0.01356454472988844,-0.0010687265312299132
1772867092619412000,1.235411865234375,-0.0043896883726119995,0.012922456488013268,0.002142513170838356
1772867092629478000,1.245477783203125,-0.003108974313363433,0.010663030669093132,0.001032241270877421
1772867092639544000,1.2555439453125,-0.002764627570286393,0.012380236759781837,0.0017443705582991242
1772867092649610000,1.26560986328125,-0.006126069463789463,0.012937369756400585,0.00256462418474257
1772867092659676000,1.275676025390625,-0.004689826630055904,0.013554158620536327,-0.00008948221511673182
1772867092669741800,1.285741943359375,-0.005329784471541643,0.011534417048096657,0.00042983421008102596
1772867092679808000,1.29580810546875,-0.003846936160698533,0.009184976108372211,0.00021837920940015465
1772867092689874000,1.3058740234375,-0.003096990054473281,0.012809271924197674,0.0008325041271746159
1772867092699939800,1.31593994140625,-0.007900799624621868,0.009788448922336102,0.0007195860962383449
1772867092710006000,1.326006103515625,-0.002825880190357566,0.012160259298980236,0.0002055960358120501
1772867092720072000,1.336072021484375,-0.003937217406928539,0.013104616664350033,0.0022538332268595695
1772867092730137900,1.346137939453125,-0.0009419600828550756,0.01142895594239235,0.0002892192860599607
1772867092740203800,1.356203857421875,-0.005047223065048456,0.011605523526668549,0.00196434766985476
1772867092750270000,1.36627001953125,-0.006906908005475998,0.012283031828701496,0.0008319715270772576
1772867092760336000,1.3763359375,-0.003976099658757448,0.013279053382575512,-0.0011608719360083342
1772867092770402000,1.386402099609375,-0.004883438348770142,0.011404721066355705,0.0023102923296391964
1772867092780468000,1.396468017578125,-0.0031132353469729424,0.012219381518661976,-0.0005382248782552779
1772867092790532900,1.406532958984375,-0.0057257963344454765,0.010647584684193134,-0.00032384038786403835
1772867092800598800,1.416598876953125,-0.0046908920630812645,0.00999031588435173,0.0010135991033166647
1772867092810665000,1.4266650390625,-0.005122590344399214,0.01125372014939785,0.0003962783666793257
1772867092820731000,1.43673095703125,-0.005696501582860947,0.012206332758069038,0.0011491540353745222
1772867092830797000,1.446797119140625,-0.0024828650057315826,0.011773302219808102,-0.0004271710349712521
1772867092840863000,1.456863037109375,-0.0033894050866365433,0.013605291023850441,0.0016618125373497605
1772867092850929000,1.466928955078125,-0.0036911412607878447,0.010819890536367893,-0.0000399474156438373
1772867092860995000,1.4769951171875,-0.0035712989047169685,0.012205000966787338,0.00279099284671247
1772867092871060700,1.487060791015625,-0.003656520042568445,0.009907225146889687,0.003549993736669421
1772867092881127000,1.497126953125,-0.005060005933046341,0.013171462342143059,0.0011076086666435003
1772867092891192800,1.50719287109375,-0.004731371998786926,0.01329796202480793,0.0017635452095419168
1772867092901259000,1.517259033203125,-0.005645368713885546,0.010192716494202614,0.0000804274677648209
1772867092911325000,1.527324951171875,-0.0046578687615692616,0.015138738788664341,0.0021430456545203924
1772867092921391000,1.53739111328125,-0.005369198974221945,0.009100553579628468,0.0002884203568100929
1772867092931457000,1.54745703125,-0.004847751930356026,0.01296346914023161,-0.0012008192716166377
1772867092941523000,1.55752294921875,-0.0036218990571796894,0.01353578269481659,-0.00035712990211322904
1772867092951588900,1.5675888671875,-0.0020602215081453323,0.010790063068270683,-0.0006282397080212831
1772867092961654800,1.57765478515625,-0.004545483272522688,0.012623383663594723,-0.0003834952076431364
1772867092971721000,1.587720947265625,-0.003585413796827197,0.010448379442095757,-0.0027742148377001286
1772867092981786000,1.5977861328125,-0.0018343853298574686,0.012750948779284954,0.0002820287481881678
1772867092991852000,1.60785205078125,-0.006768157705664635,0.011137339286506176,-0.0013840447645634413
1772867093001918000,1.61791796875,-0.00430260319262743,0.01302472222596407,0.003352120751515031
1772867093011984000,1.62798388671875,-0.002371544949710369,0.013353089801967144,0.004122573416680098
1772867093022049800,1.6380498046875,-0.004480768460780382,0.010163155384361744,0.000806138850748539
1772867093032116000,1.648115966796875,-0.0030186930671334267,0.011173025704920292,0.0015097459545359015
1772867093042181400,1.658181396484375,-0.002770486520603299,0.014039918780326843,0.002430134452879429
1772867093052247600,1.66824755859375,-0.001740375766530633,0.013084109872579575,0.00221947836689651
1772867093062313500,1.6783134765625,-0.0038714371621608734,0.011240137740969658,0.0024615598376840353
1772867093072379600,1.688379638671875,-0.005389172583818436,0.011989285238087177,-0.0013632721966132522
1772867093082445600,1.698445556640625,-0.004447478801012039,0.010703510604798794,0.000046871635277057067
1772867093092511700,1.70851171875,-0.00504109775647521,0.014978683553636074,0.0019491675775498152
1772867093102577400,1.718577392578125,-0.005141764879226685,0.013050820678472519,0.0011765845119953156
1772867093112643600,1.7286435546875,-0.0022088258992880583,0.013460681773722172,-0.0006974819116294384
1772867093122709500,1.73870947265625,-0.004824848845601082,0.013462278991937637,-0.000035952674807049334
1772867093132775400,1.748775390625,-0.005878129042685032,0.009185508824884892,-0.0001179780374513939
1772867093142841600,1.758841552734375,-0.0023992417845875025,0.012885704636573792,-0.00025486451340839267
1772867093152907500,1.768907470703125,-0.0035241609439253807,0.008754609152674675,0.0004990763845853508
1772867093162973700,1.7789736328125,-0.003941478207707405,0.011809254996478558,-0.0002681803307496011
1772867093173039600,1.78903955078125,-0.005833121482282877,0.013650830835103989,-0.0004985437262803316
1772867093183105500,1.79910546875,-0.0031582426745444536,0.010181531310081482,0.0011211908422410488
1772867093193170400,1.80917041015625,-0.004625644534826279,0.014190653339028358,0.0036698358599096537
1772867093203236600,1.819236572265625,-0.004250404890626669,0.011600463651120663,0.0006293049664236605
1772867093213302500,1.829302490234375,-0.004096740856766701,0.01127875316888094,-0.0025068335235118866
1772867093223368700,1.83936865234375,-0.004592088516801596,0.012908607721328735,0.001192829804494977
1772867093233434600,1.8494345703125,-0.002900981344282627,0.0107120331376791,0.0014514228096231818
1772867093243500500,1.85950048828125,-0.004691690672188997,0.012081696651875973,0.0012157330056652427
1772867093253566500,1.86956640625,-0.004676776938140392,0.012346414849162102,0.0015672702575102448
1772867093263632600,1.879632568359375,-0.004875981714576483,0.01389690674841404,0.0020610203500837088
1772867093273698600,1.889698486328125,-0.006788664031773806,0.014535266906023026,-0.0009278453071601689
1772867093283764500,1.899764404296875,-0.0036272252909839153,0.009099222719669342,0.0019137475173920393
1772867093293830700,1.90983056640625,-0.00566880451515317,0.012584234587848186,-0.0002490055630914867
1772867093303896600,1.919896484375,-0.003216033335775137,0.012739763595163822,0.00033182985498569906
1772867093313962500,1.92996240234375,-0.0029920614324510098,0.013162140734493732,0.0004293015517760068
1772867093324028400,1.9400283203125,-0.004424042999744415,0.013143232092261314,0.004715392831712961
1772867093334094600,1.950094482421875,-0.004718322306871414,0.01107741892337799,0.0007776430575177073
1772867093344160500,1.960160400390625,-0.002210689941421151,0.01287798210978508,-0.00026525085559114814
1772867093354226700,1.970226806640625,-0.0017502295086160302,0.0117312241345644,-0.00009560748003423214
1772867093364292600,1.980292724609375,-0.004205930046737194,0.011260377243161201,0.00010972223390126601
1772867093374358500,1.990358642578125,-0.0030860709957778454,0.012580506503582,0.0031521173659712076
1772867093384424400,2.000424560546875,-0.0020991035271435976,0.01098713744431734,0.00028043086058460176
1772867093394490400,2.010490478515625,-0.003768639173358679,0.014283598400652409,0.00041625206358730793
1772867093404556500,2.020556640625,-0.0034261567052453756,0.01378372311592102,0.001657018787227571
1772867093414622500,2.03062255859375,-0.0054882424883544445,0.013048956170678139,0.0010634001810103655
1772867093424687600,2.0406875,-0.0039015309885144234,0.011946141719818115,-0.0005257080192677677
1772867093434753500,2.05075341796875,-0.005046690348535776,0.010754909366369247,-0.0006556702428497374
1772867093444819500,2.0608193359375,-0.0014913701452314854,0.012355735525488853,0.000002663161012605997
1772867093454885400,2.070885498046875,-0.002508165081962943,0.01227584108710289,0.002088450826704502
1772867093464951600,2.08095166015625,-0.005735916085541248,0.011387144215404987,-0.002882871776819229
1772867093475017500,2.091017578125,-0.00469595193862915,0.014679077081382275,-0.0006418218254111707
1772867093485083600,2.101083740234375,-0.002837331732735038,0.010097375139594078,0.0008460862445645034
1772867093495149600,2.111149658203125,-0.0038988678716123104,0.011962386779487133,-0.004787032026797533
1772867093505215700,2.1212158203125,-0.005467736162245274,0.012969594448804855,0.00005273058923194185
1772867093515281700,2.13128173828125,-0.003463174682110548,0.013057478703558445,0.0029526466969400644
1772867093525347600,2.14134765625,-0.0029052423778921366,0.011918711476027966,0.001335575245320797
1772867093535413500,2.15141357421875,-0.004458398092538118,0.014095579273998737,0.0012516856659203768
1772867093545479400,2.1614794921875,-0.0044232443906366825,0.012879312969744205,-0.0014314490836113691
1772867093555545600,2.171545654296875,-0.0046935551799833775,0.011305917985737324,0.000969656917732209
1772867093565611500,2.181611572265625,-0.004033357370644808,0.011346397921442986,0.0004194478678982705
1772867093575677700,2.191677734375,-0.0070222229696810246,0.014675082638859749,0.0021662150975316763
1772867093585743600,2.20174365234375,-0.006530869752168655,0.010159959085285664,0.0000798948312876746
1772867093595809500,2.2118095703125,-0.005452556069940329,0.012071044184267521,-0.00021678130724467337
1772867093605875500,2.22187548828125,-0.004090881906449795,0.012434299103915691,0.001121457084082067
1772867093615941600,2.231941650390625,-0.002981142606586218,0.011209777556359768,-0.001606418751180172
1772867093626007600,2.242007568359375,-0.0039854203350842,0.011752263642847538,-0.00038056570338085294
1772867093636073500,2.252073486328125,-0.004846953321248293,0.011754926294088364,-0.0012069445801898837
1772867093646139600,2.2621396484375,-0.003299656556919217,0.011127485893666744,0.0003043993201572448
1772867093656205600,2.27220556640625,-0.002139050979167223,0.013681457377970219,0.003683418035507202
1772867093666271500,2.282271484375,-0.004139084834605455,0.012643623165786266,0.0006554039428010583
1772867093676336600,2.292336669921875,-0.003472229465842247,0.01299196481704712,0.0013401026371866465
1772867093686402600,2.302402587890625,-0.003906324505805969,0.015364042483270168,0.0024615598376840353
1772867093696468500,2.312468505859375,-0.0037177728954702616,0.013668674044311047,0.000248472933890298
1772867093706534700,2.32253466796875,-0.004234426189213991,0.01372193731367588,-0.0008791094878688455
1772867093716600600,2.3326005859375,-0.0013262542197480798,0.011890747584402561,0.002520415699109435
1772867093726666500,2.34266650390625,-0.0005185174522921443,0.012428173795342445,0.0006988134700804949
1772867093736732400,2.352732421875,-0.0044349622912704945,0.013027118518948555,0.0016397082945331931
1772867093746798600,2.362798583984375,-0.0041468082927167416,0.013864416629076004,0.0010993528412654996
1772867093756864500,2.372864501953125,-0.0059537626802921295,0.012867595069110394,0.00039974047103896737
1772867093766930700,2.3829306640625,-0.0017699368763715029,0.010823086835443974,0.0007488809060305357
1772867093776996600,2.39299658203125,-0.002757703186944127,0.014784539118409157,0.0021137509029358625
1772867093787062500,2.4030625,-0.0022804648615419865,0.01110245194286108,0.001463939668610692
1772867093797128700,2.413128662109375,-0.004631237126886845,0.012288091704249382,0.0023060310631990433
1772867093807194400,2.4231943359375,-0.0038304245099425316,0.011946408078074455,-0.0012626046082004905
1772867093817260500,2.433260498046875,-0.004618453793227673,0.011831092648208141,-0.00245143985375762
1772867093827326500,2.443326416015625,-0.004559065215289593,0.012792760506272316,0.0011973571963608265
1772867093837392600,2.453392578125,-0.004851480480283499,0.012132029980421066,-0.00011291803093627095
1772867093847458600,2.46345849609375,-0.005254150368273258,0.012111524119973183,-0.00010892329009948298
1772867093857524700,2.473524658203125,-0.004168379586189985,0.012209261767566204,0.0005145227187313139
1772867093867590700,2.483590576171875,-0.0035276231355965137,0.014307300560176373,-0.00013262542779557407
1772867093877656600,2.493656494140625,-0.005567338317632675,0.013376525603234768,0.002663161139935255
1772867093887722500,2.503722412109375,-0.0023132218047976494,0.0121277691796422,0.0006844323943369091
1772867093897788400,2.513788330078125,-0.0043864925391972065,0.011424428783357143,0.0022149509750306606
1772867093907854600,2.5238544921875,-0.0041039311327040195,0.011236143298447132,0.0004844290087930858
1772867093917920500,2.53392041015625,-0.007240335922688246,0.011406319215893745,0.002079928759485483
1772867093927986700,2.543986572265625,-0.004326571244746447,0.013855894096195698,0.0025478461757302284
1772867093938052600,2.554052490234375,-0.0037729002069681883,0.009343167766928673,0.0033683660440146923
1772867093948117500,2.564117431640625,-0.005061604082584381,0.01125212199985981,-0.0036450685001909733
1772867093958183400,2.574183349609375,-0.004603806417435408,0.013659087009727955,0.0019451729021966457
1772867093968249600,2.58424951171875,-0.006987069267779589,0.010610832832753658,0.00307648372836411
1772867093978315500,2.5943154296875,-0.003567836945876479,0.011059042997658253,0.0018213358707726002
1772867093988381700,2.604381591796875,-0.0034163030795753,0.010633203200995922,0.0006231797160580754
1772867093998447600,2.614447509765625,-0.005735650192946196,0.013902232982218266,0.0013643373968079686
1772867094008513500,2.624513427734375,-0.003451190423220396,0.01369477342814207,0.00187992537394166
1772867094018579500,2.634579345703125,-0.005853095557540655,0.010334663093090057,0.0024703482631593943
1772867094028645600,2.644645751953125,-0.0033185649663209915,0.011632953770458698,-0.0002695118892006576
1772867094038711600,2.654711669921875,-0.003784351982176304,0.012436163611710072,-0.0005379585199989378
1772867094048777500,2.664777587890625,-0.003561977995559573,0.011302988044917583,0.0014689996605738997
1772867094058843600,2.67484375,-0.002808569697663188,0.011325358413159847,0.00017550231132190675
1772867094068909300,2.684909423828125,-0.00293347192928195,0.013093697838485241,0.0010250506456941366
1772867094078975500,2.6949755859375,-0.0037856835406273603,0.01149819791316986,0.0007715177489444613
1772867094089041400,2.70504150390625,-0.004899151157587767,0.012287825345993042,-0.0007246461464092135
1772867094099107600,2.715107666015625,-0.0036067189648747444,0.010410829447209835,0.00036671728594228625
1772867094109173500,2.725173583984375,-0.0020458402577787638,0.011784487403929234,-0.0020365193486213684
1772867094119239700,2.73523974609375,-0.003079679561778903,0.012612464837729931,0.0014500912511721253
1772867094129305600,2.7453056640625,-0.006106095854192972,0.01176158431917429,0.0021345235873013735
1772867094139371500,2.75537158203125,-0.004344680812209845,0.013480654917657375,0.0009827064350247383
1772867094149437400,2.7654375,-0.0028783443849533796,0.01261193212121725,0.0012956279097124934
1772867094159503400,2.77550341796875,-0.0035420041531324387,0.015564844943583012,-0.00002450108149787411
1772867094169569500,2.785569580078125,-0.005935387220233679,0.012222577817738056,0.0007227819296531379
1772867094179635500,2.795635498046875,-0.005683451890945435,0.01387134101241827,0.00004900216299574822
1772867094189701600,2.80570166015625,-0.0038959383964538574,0.013190636411309242,-0.0004953479510731995
1772867094199767600,2.815767578125,-0.0032945964485406876,0.01248330157250166,-0.0000577905957470648
1772867094209833700,2.825833740234375,-0.004400074947625399,0.013161075301468372,0.002490321872755885
1772867094219899400,2.8358994140625,-0.002167813014239073,0.013671870343387127,-0.00008335694292327389
1772867094229965600,2.845965576171875,-0.003940679598599672,0.011809521354734898,-0.002653307281434536
1772867094240030500,2.856030517578125,-0.002204564632847905,0.013177321292459965,0.0006412891671061516
1772867094250096600,2.8660966796875,-0.004939631093293428,0.012826848775148392,0.0008817726047709584
1772867094260162600,2.87616259765625,-0.004337756894528866,0.01215839572250843,-0.00024820660473778844
1772867094270228700,2.886228759765625,-0.002055960241705179,0.013197560794651508,-0.0017486315919086337
1772867094280294400,2.89629443359375,-0.0027888622134923935,0.011876899749040604,0.0014682007022202015
1772867094290360600,2.906360595703125,-0.004811799619346857,0.011349326930940151,0.0013342436868697405
1772867094300426500,2.916426513671875,-0.005019525997340679,0.012849219143390656,0.0015052186790853739
1772867094310492400,2.926492431640625,-0.004742823541164398,0.01332992035895586,0.0015472965314984322
1772867094320558600,2.93655859375,-0.005319930613040924,0.011236143298447132,-0.0015403723809868097
1772867094330624500,2.94662451171875,-0.006905310321599245,0.010008425451815128,0.0019771307706832886
1772867094340690700,2.956690673828125,-0.004354268312454224,0.012410330586135387,0.002372077666223049
1772867094350756400,2.96675634765625,-0.002942260354757309,0.011785286478698254,0.000040746363083599135
1772867094360822500,2.976822509765625,-0.00523604080080986,0.012540026567876339,0.0006719155353493989
1772867094370888400,2.986888427734375,-0.0043920851312577724,0.012255867011845112,0.002740392694249749
1772867094380954600,2.99695458984375,-0.0039867521263659,0.011435613967478275,0.003026149934157729
1772867094391020500,3.0070205078125,-0.0062128882855176926,0.0132124749943614,0.0010468886466696858
1772867094401086500,3.01708642578125,-0.0026961842086166143,0.011664912104606628,-0.0009262474486604333
1772867094411152600,3.027152587890625,-0.0024205471854656935,0.013253221288323402,0.001770203118212521
1772867094421218600,3.037218505859375,-0.0034501252230256796,0.011784753762185574,-0.00040426786290481687
1772867094431284500,3.047284423828125,-0.004792624618858099,0.01239248737692833,-0.0011398328933864832
1772867094441350400,3.057350341796875,-0.0026959178503602743,0.01188302505761385,-0.002101234160363674
1772867094451416600,3.06741650390625,-0.003215766977518797,0.012042813934385777,0.001440237509086728
1772867094461482500,3.077482421875,-0.004777444526553154,0.014137922786176205,0.0023579627741128206
1772867094471548700,3.087548583984375,-0.004053597338497639,0.012803679332137108,0.0007337008719332516
1772867094481614600,3.097614501953125,-0.0019568908028304577,0.010911237448453903,-0.0015105449128895998
1772867094491680500,3.107680419921875,-0.003992344718426466,0.011877698823809624,0.0010801780736073852
1772867094501746400,3.117746337890625,-0.004391818773001432,0.011349060572683811,0.0005073322099633515
1772867094511812400,3.127812255859375,-0.0008135957177728415,0.013051087036728859,0.00039068571641109884
1772867094521878500,3.13787841796875,-0.00458782771602273,0.013844176195561886,0.0017126789316534996
1772867094531944400,3.1479443359375,-0.0054427022114396095,0.010342918336391449,0.00009853696246864274
1772867094542010600,3.1580107421875,-0.001901230658404529,0.011680091731250286,-0.0008724515791982412
1772867094552076500,3.16807666015625,-0.0038810246624052525,0.015284414403140545,-0.0010673949727788568
1772867094562142700,3.178142822265625,-0.004403803031891584,0.013548033311963081,0.000964064325671643
1772867094572208400,3.18820849609375,-0.0028932581190019846,0.010249441489577293,0.0008660599705763161
1772867094582273500,3.1982734375,-0.0047087352722883224,0.01110671367496252,0.0013946974650025368
1772867094592339500,3.20833935546875,-0.0040826257318258286,0.013911021873354912,0.0027502465527504683
1772867094602405600,3.218405517578125,-0.005014732480049133,0.010402573272585869,-0.0004868258547503501
1772867094612471600,3.228471435546875,-0.0014911039033904672,0.010716293938457966,0.0000021305288555595325
1772867094622537700,3.238537841796875,-0.005034972447901964,0.013609818182885647,0.0016586167039349675
1772867094632603400,3.248603271484375,-0.004870655480772257,0.012257997877895832,0.00041518680518493056
1772867094642669300,3.25866943359375,-0.0049215215258300304,0.01613742485642433,0.00038482676609419286
1772867094652735500,3.268735595703125,-0.003334543900564313,0.013375992886722088,0.003605387406423688
1772867094662801400,3.278801513671875,-0.0028429245576262474,0.01341860368847847,0.003725496120750904
1772867094672867600,3.28886767578125,-0.0019217369845137,0.011868909932672977,-0.0002519350382499397
1772867094682933500,3.29893359375,-0.0031443943735212088,0.014485998079180717,0.0010351707460358739
1772867094692999700,3.308999755859375,-0.004060521721839905,0.012372246943414211,0.0019062906503677368
1772867094703065600,3.319065673828125,-0.004263188224285841,0.011995144188404083,0.0017206683987751603
1772867094713131500,3.329131591796875,-0.002927346620708704,0.011581555008888245,0.0004918858758173883
1772867094723197400,3.339197509765625,-0.004316984210163355,0.01251925341784954,0.0026399914640933275
1772867094733263600,3.349263671875,-0.0052325790748000145,0.00936074461787939,-0.0012522183824330568
1772867094743329500,3.35932958984375,-0.0021915151737630367,0.014973622746765614,-0.002240783767774701
1772867094753395500,3.3693955078125,-0.006882673595100641,0.011330152861773968,0.00018375810759607702
1772867094763461600,3.379461669921875,-0.004036286845803261,0.012870791368186474,0.0022746059112250805
1772867094773527600,3.389527587890625,-0.004795820452272892,0.013635917566716671,-0.0011078750248998404
1772867094783593500,3.399593505859375,-0.005052282940596342,0.011276623234152794,0.0008410262526012957
1772867094793659400,3.409659423828125,-0.005432582460343838,0.01107635349035263,-0.00010892329009948298
1772867094803725600,3.4197255859375,-0.002886067610234022,0.013016199693083763,0.0017499631503596902
1772867094813791500,3.42979150390625,-0.0038312235847115517,0.011570902541279793,0.002159024588763714
1772867094823857700,3.439857666015625,-0.001782187377102673,0.01360262744128704,0.000690291344653815
1772867094833923600,3.449923583984375,-0.004526042379438877,0.014126471243798733,0.0008426241693086922
1772867094843989500,3.459989501953125,-0.0032495891209691763,0.014279336668550968,0.0006119944155216217
1772867094854055400,3.470055419921875,-0.0018247979460284114,0.010615626350045204,-0.0013190637109801173
1772867094864121300,3.480121337890625,-0.005735650192946196,0.01133814174681902,0.001472461735829711
1772867094874187500,3.4901875,-0.0038695731200277805,0.013074256479740143,0.002311091171577573
1772867094884253400,3.50025341796875,-0.0009795106016099453,0.012095012702047825,0.0008639294537715614
1772867094894319600,3.510319580078125,-0.0049153962172567844,0.011288074776530266,0.000040480048483004794
1772867094904385500,3.520385498046875,-0.0034205641131848097,0.013247362338006496,-0.00019520970818120986
1772867094914451700,3.53045166015625,-0.002612028270959854,0.01218715775758028,0.0012572783743962646
1772867094924517600,3.540517578125,-0.004254399798810482,0.0107668936252594,-0.0023004384711384773
1772867094934583600,3.55058349609375,-0.004349474795162678,0.013866014778614044,0.0005456816870719194
1772867094944649500,3.5606494140625,-0.0029350698459893465,0.014115552417933941,0.003622697899118066
1772867094954715400,3.57071533203125,-0.002913498319685459,0.014597318135201931,0.002490055514499545
1772867094964780500,3.580780517578125,-0.003192863892763853,0.012406336143612862,-0.0011145329335704446
1772867094974846700,3.5908466796875,-0.004532699938863516,0.012141617946326733,-0.0005768407136201859
1772867094984912600,3.60091259765625,-0.004264520015567541,0.013106214813888073,-0.0037611823063343763
1772867094994978300,3.610978271484375,-0.005853894166648388,0.014706774614751339,0.0008831042214296758
1772867095005044500,3.62104443359375,-0.0043745082803070545,0.010898720473051071,-0.0006186523241922259
1772867095015110400,3.6311103515625,-0.0030213561840355396,0.010602843016386032,0.0001805623178370297
1772867095025176600,3.641176513671875,-0.0046964846551418304,0.01375389564782381,0.0014021543320268393
1772867095035242500,3.651242431640625,-0.003841343568637967,0.012014318257570267,-0.00007536746124969795
1772867095045309000,3.661308837890625,-0.004640558268874884,0.014520619064569473,0.0021137509029358625
1772867095055374800,3.671374755859375,-0.002913498319685459,0.013049222528934479,0.0015877765836194158
1772867095065440800,3.681440673828125,-0.003745736088603735,0.01142922230064869,0.00007297061529243365
1772867095075507000,3.6915068359375,-0.004523379262536764,0.015357650816440582,0.0017675400013104081
1772867095085572600,3.701572509765625,-0.002275404753163457,0.009342102333903313,0.0013568805297836661
1772867095095638800,3.711638671875,-0.004770520608872175,0.012534167617559433,0.0026644926983863115
1772867095105704700,3.72170458984375,-0.0038951393216848373,0.01242151577025652,-0.0013651363551616669
1772867095115771000,3.73177099609375,-0.003552390495315194,0.011737349443137646,0.0005062668933533132
1772867095125836800,3.7418369140625,-0.003293531248345971,0.013686783611774445,0.003043726785108447
1772867095135903000,3.751903076171875,-0.005910885985940695,0.012489160522818565,0.0021819279063493013
1772867095145969000,3.761968994140625,-0.005341236013919115,0.014139520935714245,-0.002261023735627532
1772867095156034800,3.772034912109375,-0.003635214874520898,0.014459899626672268,0.0018279937794432044
1772867095166100700,3.782100830078125,-0.0024716798216104507,0.013560017570853233,0.0027300063520669937
1772867095176166700,3.792166748046875,-0.0038919434882700443,0.01414511352777481,0.0024136228021234274
1772867095186232800,3.80223291015625,-0.003180879633873701,0.011599131859838963,-0.0003158508916385472
1772867095196298800,3.812298828125,-0.00455640209838748,0.014624216593801975,0.0006918892613612115
1772867095206365000,3.822364990234375,-0.0044048684649169445,0.012196212075650692,0.00261895265430212
1772867095216430800,3.832430908203125,-0.002252768026664853,0.00845873262733221,-0.003686347510665655
1772867095226496800,3.842496826171875,-0.0046722497791051865,0.012489426881074905,5.326322138898831e-7
1772867095236562700,3.852562744140625,-0.0025513083674013615,0.011516041122376919,0.0011163970921188593
1772867095246628900,3.86262890625,-0.00358781055547297,0.011524030938744545,-0.0009057410643436015
1772867095256694800,3.87269482421875,-0.0021555626299232244,0.010114951990544796,-0.0013078784104436636
1772867095266760700,3.8827607421875,-0.004801413044333458,0.011345598846673965,0.0008056062506511807
1772867095276827000,3.892826904296875,-0.0030128341168165207,0.013014335185289383,-0.0008870989549905062
1772867095286892800,3.902892822265625,-0.004683168604969978,0.010987670160830021,0.0008974852971732616
1772867095296959000,3.912958984375,-0.0030956584960222244,0.012267318554222584,0.0025680861435830593
1772867095307024600,3.923024658203125,-0.0031672974582761526,0.011902731843292713,-0.0003193130251020193
1772867095317090800,3.9330908203125,-0.0075913406908512115,0.01119220070540905,0.00202240445651114
1772867095327156700,3.94315673828125,-0.005857622716575861,0.013038037344813347,0.0008327704854309559
1772867095337223000,3.953222900390625,-0.0037798245903104544,0.012765596620738506,0.0010538127971813083
1772867095347288800,3.963288818359375,-0.002499643014743924,0.010084059089422226,-0.0007574030314572155
1772867095357354800,3.973354736328125,-0.00310577847994864,0.013451093807816505,0.0009707222343422472
1772867095367419600,3.983419677734375,-0.003906857222318649,0.01384284533560276,0.001365402713418007
1772867095377485800,3.99348583984375,-0.004838164895772934,0.014402640983462334,-0.00036698358599096537
1772867095387551700,4.0035517578125,-0.004562261048704386,0.010130397975444794,-0.0004846953088417649
1772867095397618000,4.013617919921875,-0.004559597931802273,0.010086722671985626,-0.0014775217277929187
1772867095407683800,4.023683837890625,-0.0032029838766902685,0.013774934224784374,-0.00242081331089139
1772867095417749800,4.033749755859375,-0.0028431906830519438,0.015324627980589867,0.0007499461644329131
1772867095427816000,4.04381591796875,-0.0036823528353124857,0.014283065684139729,0.0008527441532351077
1772867095437881600,4.053881591796875,-0.0030655646696686745,0.009375392459332943,0.00006285060226218775
1772867095447947800,4.06394775390625,-0.003275954397395253,0.011200456880033016,0.003284742822870612
1772867095458013700,4.074013671875,-0.004129763692617416,0.013171462342143059,0.002624811604619026
1772867095468079900,4.084079833984375,-0.00407383730635047,0.011322962120175362,0.0031875374261289835
1772867095478145800,4.094145751953125,-0.0019379822770133615,0.013789049349725246,0.0022090920247137547
1772867095488212000,4.1042119140625,-0.003454119898378849,0.013332316651940346,0.0006838997360318899
1772867095498278000,4.11427783203125,-0.00443975580856204,0.011485680937767029,0.0020365193486213684
1772867095508343800,4.12434375,-0.004853344522416592,0.013886520639061928,0.00041012681322172284
1772867095518409700,4.13440966796875,-0.0030368026345968246,0.01181937474757433,-0.002704440150409937
1772867095528475600,4.1444755859375,-0.0023409186396747828,0.011425493285059929,-0.0013526194961741567
1772867095538541800,4.154541748046875,-0.0034818167332559824,0.011575429700314999,-0.000494016392622143
1772867095548607700,4.164607666015625,-0.00512711750343442,0.010514692403376102,-0.0015875103417783976
1772867095558674000,4.174673828125,-0.0035289546940475702,0.013125921599566936,0.0007699198904447258
1772867095568739800,4.18473974609375,-0.0035425368696451187,0.010975153185427189,-0.0020487697329372168
1772867095578806000,4.194805908203125,-0.004838431254029274,0.011949337087571621,0.0011432950850576162
1772867095588871700,4.20487158203125,-0.007169495802372694,0.01386707928031683,-0.0016911072889342904
1772867095598937900,4.214937744140625,-0.002965429797768593,0.013103551231324673,0.0006641923682764173
1772867095609003800,4.225003662109375,-0.0059721386060118675,0.013866281136870384,-0.0015371765475720167
1772867095619069000,4.23506884765625,-0.004078098572790623,0.010732538998126984,-0.0004697816038969904
1772867095629136000,4.245135986328125,-0.004322310443967581,0.013746704906225204,-0.00014753911818843335
1772867095639201000,4.255200927734375,-0.0033212280832231045,0.012614062055945396,0.0015443670563399792
1772867095649266700,4.2652666015625,-0.004456533584743738,0.012605007737874985,-0.00028069718973711133
1772867095659332900,4.275332763671875,-0.004236023873090744,0.012659869156777859,-0.0027047062758356333
1772867095669398800,4.285398681640625,-0.002130262553691864,0.013538978062570095,0.003163569141179323
1772867095679464700,4.295464599609375,-0.005821137689054012,0.012810070998966694,0.0008263788768090308
1772867095689531000,4.30553076171875,-0.00538384635001421,0.010266485624015331,0.001788046327419579
1772867095699596800,4.3155966796875,-0.003694869577884674,0.01113414391875267,0.003732952754944563
1772867095709663000,4.3256630859375,-0.0023731428664177656,0.01375123206526041,0.004001133143901825
1772867095719728600,4.335728759765625,-0.002772350562736392,0.013082246296107769,-0.0004471447318792343
1772867095729794800,4.345794921875,-0.004049869254231453,0.013000753708183765,-0.00020959076937288046
1772867095739860700,4.35586083984375,-0.0027867318131029606,0.01215866208076477,0.0005179848521947861
1772867095749927000,4.365927001953125,-0.0009448895580135286,0.012438559904694557,-0.0013342436868697405
1772867095759992800,4.375992919921875,-0.005437642335891724,0.013733388856053352,-0.0005757753970101476
1772867095770058800,4.386058837890625,-0.0035020567011088133,0.0131509555503726,0.00098217383492738
1772867095780125000,4.396125,-0.0028423918411135674,0.011689945124089718,-0.0002849582233466208
1772867095790190600,4.406190673828125,-0.002942260354757309,0.014199442230165005,0.00008442220860160887
1772867095800256800,4.4162568359375,-0.00577905960381031,0.010794058442115784,-0.002173938322812319
1772867095810322700,4.42632275390625,-0.006012618541717529,0.01321087684482336,0.003525226376950741
1772867095820388900,4.436388916015625,-0.003049319377169013,0.011983159929513931,0.00481419637799263
1772867095830454800,4.446454833984375,-0.005662945564836264,0.011444934643805027,-0.0014950985787436366
1772867095840521000,4.45652099609375,-0.004120176658034325,0.01305321790277958,0.0002822950773406774
1772867095850587000,4.4665869140625,-0.004631237126886845,0.011624963954091072,0.0024234766606241465
1772867095860652800,4.47665283203125,-0.00293293921276927,0.014007960446178913,0.002612560987472534
1772867095870718700,4.48671875,-0.0036245621740818024,0.013716611079871655,0.0008948221220634878
1772867095880784600,4.49678466796875,-0.00464615086093545,0.011375692673027515,0.0005882922559976578
1772867095890850800,4.506850830078125,-0.003862116253003478,0.013729394413530827,0.0018516959389671683
1772867095900916700,4.516916748046875,-0.004287955816835165,0.010061955079436302,-0.0020154803059995174
1772867095910983000,4.52698291015625,-0.005654423497617245,0.01344869751483202,-0.000011984225238848012
1772867095921048800,4.537048828125,-0.004490888677537441,0.013688914477825165,-0.00015686018741689622
1772867095931115000,4.547114990234375,-0.0037768951151520014,0.011830028146505356,0.0013342436868697405
1772867095941180700,4.5571806640625,-0.006984139792621136,0.013495569117367268,0.0012114719720557332
1772867095951246800,4.567246826171875,-0.006117281038314104,0.01164573710411787,-0.000322775129461661
1772867095961312800,4.577312744140625,-0.002944657113403082,0.013228986412286758,-0.0020791299175471067
1772867095971378700,4.587378662109375,-0.0030125677585601807,0.013743774965405464,0.0021614215802401304
1772867095981444900,4.59744482421875,-0.004043477587401867,0.012820723466575146,0.002675145398825407
1772867095991510800,4.6075107421875,-0.0034328147303313017,0.011544803157448769,0.0010924286907538772
1772867096001577000,4.617576904296875,-0.0010314423125237226,0.012909939512610435,-0.0007416903390549123
1772867096011642600,4.627642578125,-0.00464615086093545,0.012858540751039982,-0.00040666470886208117
1772867096021708800,4.637708740234375,-0.0029984530992805958,0.011069162748754025,-0.0004982774262316525
1772867096031774700,4.647774658203125,-0.003935619257390499,0.011365572921931744,0.00030866035376675427
1772867096041841000,4.6578408203125,-0.004107659682631493,0.013888385146856308,-0.0026461167726665735
1772867096051907000,4.667906982421875,-0.004068511072546244,0.01266918983310461,0.0010197244118899107
1772867096061973000,4.677972900390625,-0.0029262814205139875,0.011569304391741753,0.00045833003241568804
1772867096072039200,4.6880390625,-0.0041089910082519054,0.013729128055274487,0.0023433153983205557
1772867096082104800,4.698104736328125,-0.0014152037911117077,0.012312592938542366,0.0014298511669039726
1772867096092171000,4.7081708984375,-0.003281813347712159,0.013158146291971207,0.003154247999191284
1772867096102237000,4.71823681640625,-0.0029116340447217226,0.010496849194169044,-0.0005230448441579938
1772867096112303000,4.72830322265625,-0.0057281930930912495,0.012253470718860626,0.0008490157779306173
1772867096122369000,4.738369140625,-0.004168379586189985,0.013201023451983929,0.0014170679496601224
1772867096132435200,4.748435302734375,-0.005138303153216839,0.01315148826688528,0.00035739620216190815
1772867096142501000,4.758501220703125,-0.002638926263898611,0.012810603715479374,-0.002602973720058799
1772867096152566800,4.76856689453125,-0.0036815537605434656,0.012086756527423859,0.0013350426452234387
1772867096162633000,4.778633056640625,-0.0031909996178001165,0.013200224377214909,-0.0015720640076324344
1772867096172699000,4.788698974609375,-0.006157760974019766,0.012387693859636784,0.0009784454014152288
1772867096182765000,4.79876513671875,-0.005814746022224426,0.011410313658416271,0.000040480048483004794
1772867096192831000,4.8088310546875,-0.004649613052606583,0.012430571019649506,-0.0017773937433958054
1772867096202897200,4.818897216796875,-0.004795554094016552,0.014186126179993153,-0.0005850964807905257
1772867096212963000,4.828963134765625,-0.00364693277515471,0.0129951611161232,0.0020743361674249172
1772867096223029200,4.839029296875,-0.00526799913495779,0.011436146683990955,0.00041731735109351575
1772867096233095000,4.849094970703125,-0.005397694651037455,0.013392504304647446,0.001832521171309054
1772867096243161000,4.8591611328125,-0.004929777234792709,0.014061223715543747,-0.0007121292874217033
1772867096253227000,4.86922705078125,-0.004451207350939512,0.010061156004667282,-0.0005257080192677677
1772867096263293000,4.87929296875,-0.004559597931802273,0.012536298483610153,0.0020157466642558575
1772867096273359000,4.889359130859375,-0.003704457078129053,0.011480887420475483,-0.0016647420125082135
1772867096283425000,4.899425048828125,-0.004217648413032293,0.010762632824480534,0.0020061591640114784
1772867096293491200,4.9094912109375,-0.004020574036985636,0.013700366020202637,-0.0015907060587778687
1772867096303556900,4.919556884765625,-0.003236006945371628,0.011959191411733627,0.0006780407857149839
1772867096313622000,4.9296220703125,-0.004857605788856745,0.01323857344686985,0.0034072482958436012
1772867096323688000,4.93968798828125,-0.00395612558349967,0.01401808112859726,0.0009869674686342478
1772867096333754000,4.949754150390625,-0.005863748025149107,0.009038768708705902,0.0007313040550798178
1772867096343820000,4.959820068359375,-0.002966495230793953,0.014097709208726883,0.001273257308639586
1772867096353886200,4.96988623046875,-0.003608050523325801,0.0112798186019063,0.0017739315517246723
1772867096363951900,4.979951904296875,-0.0032751555554568768,0.010584200732409954,0.001907355966977775
1772867096374018000,4.99001806640625,-0.004340420011430979,0.011803129687905312,0.0009329052991233766
1772867096384084000,5.000083984375,-0.003983822651207447,0.012006595730781555,0.0004261057765688747
1772867096394150100,5.010150146484375,-0.0035742283798754215,0.014137656427919865,0.0022160164080560207
1772867096404216000,5.020216064453125,-0.0031915323343127966,0.010270214639604092,0.0036045885644853115
1772867096414282000,5.030281982421875,-0.004042944870889187,0.011716843582689762,0.0021912488155066967
1772867096424348200,5.04034814453125,-0.0019345202017575502,0.013695838861167431,0.0011560781858861446
1772867096434413800,5.050413818359375,-0.006935670506209135,0.010606837458908558,-0.0007611314067617059
1772867096444480000,5.06047998046875,-0.003722033929079771,0.012264655902981758,0.0014362427173182368
1772867096454546000,5.0705458984375,-0.0041460092179477215,0.0137789286673069,-0.0013395700370892882
1772867096464612000,5.080612060546875,-0.004735100548714399,0.013540842570364475,0.0017752632265910506
1772867096474678000,5.090677978515625,-0.002843457041308284,0.013971475884318352,0.0005805690889246762
1772867096484744200,5.100744140625,-0.0010138654615730047,0.011616175994277,0.002097505610436201
1772867096494810000,5.11081005859375,-0.0017363809747621417,0.011344267055392265,-0.00012436961696948856
1772867096504876000,5.1208759765625,-0.0036067189648747444,0.009904029779136181,0.0008341020438820124
1772867096514942000,5.13094189453125,-0.004743888974189758,0.01218822319060564,0.0007821703911758959
1772867096525008000,5.1410078125,-0.002270611235871911,0.013687049970030785,0.002558498876169324
1772867096535074000,5.151073974609375,-0.004897020757198334,0.012722453102469444,-0.0009217200567945838
1772867096545140000,5.161139892578125,-0.005556153133511543,0.012797287665307522,0.00045300371129997075
1772867096555206100,5.1712060546875,-0.004249073565006256,0.011769041419029236,0.0012402341235429049
1772867096565272000,5.18127197265625,-0.0038432078436017036,0.012006329372525215,0.0017073525814339519
1772867096575338200,5.191338134765625,-0.0037705034483224154,0.011200190521776676,-0.0026959178503602743
1772867096585404000,5.20140380859375,-0.0044054011814296246,0.013530190102756023,0.0007004113867878914
1772867096595469800,5.2114697265625,-0.005782788153737783,0.012445484288036823,0.0000045273736759554595
1772867096605536000,5.221535888671875,-0.006656837183982134,0.009063802659511566,0.0017185378819704056
1772867096615602000,5.231601806640625,-0.004220577888190746,0.012487296015024185,0.000892691605258733
1772867096625668000,5.241668212890625,-0.0028961875941604376,0.013234579004347324,0.001529187080450356
1772867096635734000,5.251734130859375,-0.005590241402387619,0.01113467663526535,0.0027209515683352947
1772867096645800200,5.26180029296875,-0.0041524008847773075,0.01372353546321392,-0.00025220136740244925
1772867096655865900,5.271865966796875,-0.005816876422613859,0.013077985495328903,0.0032115059439092875
1772867096665932000,5.28193212890625,-0.00410473020747304,0.011261975392699242,-0.0020479708909988403
1772867096675998000,5.291998046875,-0.005169994663447142,0.01347586140036583,0.0029353362042456865
1772867096686064000,5.302064208984375,-0.0017803232185542583,0.012469186447560787,0.0033995250705629587
1772867096696130000,5.312130126953125,-0.00088976213010028,0.013862019404768944,-0.002797118155285716
1772867096706196000,5.322196044921875,-0.005258411634713411,0.01209980621933937,0.0011547466274350882
1772867096716262100,5.33226220703125,-0.0021339908707886934,0.010832940228283405,0.0014274542918428779
1772867096726328000,5.342328125,-0.0027148264925926924,0.013787451200187206,-0.0011685950448736548
1772867096736394000,5.35239404296875,-0.005596633069217205,0.012651346623897552,0.00041199102997779846
1772867096746460000,5.3624599609375,-0.0028884646017104387,0.013590376824140549,0.00010839065362233669
1772867096756526000,5.372526123046875,-0.002886600326746702,0.011795406229794025,0.0013872405979782343
1772867096766592000,5.382592041015625,-0.002668221015483141,0.011949070729315281,-0.00005246427463134751
1772867096776658200,5.392658203125,-0.00424135010689497,0.01116157416254282,0.00015180018090177327
1772867096786724000,5.40272412109375,-0.004546015989035368,0.01525778230279684,-0.0011558119440451264
1772867096796790000,5.4127900390625,-0.003925233148038387,0.012475844472646713,0.002348109148442745
1772867096806856000,5.42285595703125,-0.004517786670476198,0.011416172608733177,0.00007829693640815094
1772867096816921900,5.432921875,-0.006220345385372639,0.010416954755783081,-0.003677292726933956
1772867096826988000,5.442988037109375,-0.0028455876745283604,0.01293523982167244,-0.00041864890954457223
1772867096837054000,5.453053955078125,-0.0017113472567871213,0.01215919479727745,0.0013843111228197813
1772867096847120100,5.4631201171875,-0.004674380179494619,0.014044179581105709,0.0014181332662701607
1772867096857186000,5.47318603515625,-0.004054396413266659,0.011354653164744377,0.0028189560398459435
1772867096867252200,5.483252197265625,-0.004676776938140392,0.010174873284995556,0.0009041432058438659
1772867096877318000,5.49331787109375,-0.0032229574862867594,0.01312112808227539,0.0029904635157436132
1772867096887384000,5.503384033203125,-0.0031364047899842262,0.011053450405597687,-0.0016823188634589314
1772867096897450000,5.513449951171875,-0.0042131207883358,0.014064420014619827,0.0015595471486449242
1772867096907516000,5.523515869140625,-0.0028415927663445473,0.01140046026557684,-0.0011579424608498812
1772867096917582000,5.53358203125,-0.0007890945998951793,0.012472648173570633,0.002802977105602622
1772867096927648000,5.54364794921875,-0.004740426782518625,0.013847372494637966,-0.0012871057260781527
1772867096937714200,5.553714111328125,-0.002433863002806902,0.011991415172815323,0.0001430117554264143
1772867096947780000,5.563780029296875,-0.004787298385053873,0.010894193314015865,-0.0016128103015944362
1772867096957846000,5.573845947265625,-0.0029411951545625925,0.013640711084008217,0.0016847157385200262
1772867096967912000,5.583911865234375,-0.0031382690649479628,0.011475827544927597,0.00230789533816278
1772867096977978000,5.59397802734375,-0.006070143077522516,0.012387161143124104,-0.0004857605672441423
1772867096988044000,5.6040439453125,-0.002831472782418132,0.012256399728357792,0.0013041499769315124
1772867096998109200,5.614109130859375,-0.003935352899134159,0.012385829351842403,0.00039228363311849535
1772867097008175000,5.624175048828125,-0.005626194179058075,0.012643356807529926,0.0008229167433455586
1772867097018241000,5.634240966796875,-0.00401711231097579,0.012242019176483154,0.0036131106317043304
1772867097028307000,5.644306884765625,-0.004329234827309847,0.013377857394516468,0.002537459833547473
1772867097038373000,5.654373046875,-0.004571315832436085,0.013093431480228901,0.00007536746124969795
1772867097048438500,5.6644384765625,-0.0033665020018815994,0.011432684026658535,-0.0014660701854154468
1772867097058504700,5.674504638671875,-0.0023438481148332357,0.011626562103629112,0.00010492854926269501
1772867097068570600,5.684570556640625,-0.005374258849769831,0.011933092027902603,0.001980859087780118
1772867097078636500,5.694636474609375,-0.001880191732198,0.013596502132713795,0.0017116136150434613
1772867097088702700,5.70470263671875,-0.0029856697656214237,0.010631605051457882,0.0026407905388623476
1772867097098768400,5.714768310546875,-0.0035657063126564026,0.010252371430397034,0.0021827267482876778
1772867097108834600,5.72483447265625,-0.005397162400186062,0.012855877168476582,-0.0008655273704789579
1772867097118900500,5.734900390625,-0.0007552724564447999,0.009502691216766834,0.000045273736759554595
1772867097128966700,5.744966552734375,-0.0015523566398769617,0.013706491328775883,0.0000756337758502923
1772867097139032600,5.755032470703125,-0.0033896714448928833,0.012013519182801247,0.0007403587806038558
1772867097149098800,5.7650986328125,-0.00315957423299551,0.011476360261440277,0.0007736482657492161
1772867097159164700,5.77516455078125,-0.0065252771601080894,0.01353604905307293,0.0014306501252576709
1772867097169230300,5.785230224609375,-0.003522563260048628,0.011324293911457062,-0.0006745787104591727
1772867097179296500,5.795296630859375,-0.0030565098859369755,0.011748269200325012,-0.00014913702034391463
1772867097189362400,5.805362548828125,-0.002901247702538967,0.015266304835677147,0.0009765811264514923
1772867097199428600,5.8154287109375,-0.0032229574862867594,0.013223393820226192,0.0023009711876511574
1772867097209494500,5.82549462890625,-0.004217115696519613,0.012286493554711342,0.0015140071045607328
1772867097219560700,5.835560791015625,-0.003951598424464464,0.013141634874045849,0.002975017298012972
1772867097229626600,5.845626708984375,-0.00447064870968461,0.012153069488704205,0.0026471822056919336
1772867097239692500,5.855692626953125,-0.00330311874859035,0.011868909932672977,0.0025992451701313257
1772867097249758500,5.865758544921875,-0.0056829191744327545,0.012104866094887257,0.0015462313313037157
1772867097259824600,5.87582470703125,-0.004324973560869694,0.011216169223189354,0.0019236012594774365
1772867097269890600,5.885890625,-0.0028730181511491537,0.013756824657320976,-0.00041864890954457223
1772867097279956500,5.89595654296875,-0.005083441734313965,0.012746155261993408,0.0010229201288893819
1772867097290022700,5.906022705078125,-0.0017646105261519551,0.012766129337251186,0.000022903184799361043
1772867097300088600,5.916088623046875,-0.004319647327065468,0.011171162128448486,0.0010777813149616122
1772867097310154800,5.92615478515625,-0.0031374699901789427,0.013399961404502392,0.00010359696898376569
1772867097320220400,5.936220458984375,-0.005488774739205837,0.009062204509973526,-0.00009454221435589716
1772867097330286600,5.94628662109375,-0.0043808999471366405,0.01239195466041565,0.0004271710349712521
1772867097340352500,5.9563525390625,-0.002776345470920205,0.01377919502556324,0.0009930927772074938
1772867097350418700,5.966418701171875,-0.0029830066487193108,0.013254286721348763,0.0027510453946888447
1772867097360484600,5.976484619140625,-0.005769738461822271,0.013549364171922207,0.0007669904152862728
1772867097370550500,5.986550537109375,-0.004349208436906338,0.012236958369612694,-0.00245117349550128
1772867097380616700,5.99661669921875,-0.004405933897942305,0.011590342968702316,0.0025960493367165327
1772867097390682400,6.006682373046875,-0.0034876756835728884,0.012448679655790329,0.0026575683150440454
1772867097400748500,6.01674853515625,-0.0030509172938764095,0.011217767372727394,0.0023307986557483673
1772867097410814500,6.026814453125,-0.0036514601670205593,0.013169864192605019,0.00047830372932367027
1772867097420880600,6.036880615234375,-0.0049409628845751286,0.0129924975335598,0.0020996362436562777
1772867097430946600,6.046946533203125,-0.003462908323854208,0.011861452832818031,-0.0025603631511330605
1772867097441012700,6.0570126953125,-0.006943393498659134,0.013048158027231693,0.0010665960144251585
1772867097451078700,6.06707861328125,-0.001942243310622871,0.011003382503986359,0.0011598066193982959
1772867097461144300,6.077144287109375,-0.004406732507050037,0.013221529312431812,0.00042743736412376165
1772867097471210500,6.08721044921875,-0.003778493031859398,0.014043913222849369,0.0004703142330981791
1772867097481276400,6.0972763671875,-0.002808303339406848,0.012865198776125908,0.00032384038786403835
1772867097491342600,6.107342529296875,-0.004561196081340313,0.013368269428610802,-0.0005845638806931674
1772867097501408500,6.117408447265625,-0.005625128746032715,0.010915231890976429,0.0019683423452079296
1772867097511474700,6.127474609375,-0.005950300954282284,0.014056962914764881,0.0033044503070414066
1772867097521540600,6.13754052734375,-0.002141714096069336,0.013170929625630379,0.0009507485083304346
1772867097531606800,6.147606689453125,-0.0037555897142738104,0.01170192938297987,0.0024253407027572393
1772867097541672400,6.15767236328125,-0.003340669209137559,0.013658820651471615,0.000036485307646216825
1772867097551738600,6.167738525390625,-0.004204598721116781,0.010852381587028503,0.0015550197567790747
1772867097561804500,6.177804443359375,-0.0023001721128821373,0.012925120070576668,-0.002276203827932477
1772867097571870500,6.187870361328125,-0.001728391507640481,0.015023157931864262,0.002481533447280526
1772867097581936600,6.1979365234375,-0.0025896579027175903,0.010244381614029408,0.0010149306617677212
1772867097592002600,6.20800244140625,-0.0028506475500762463,0.01426415704190731,0.001767273643054068
1772867097602068700,6.21806884765625,-0.004905809182673693,0.012055064551532269,0.0026786073576658964
1772867097612134400,6.228134521484375,-0.0025861957110464573,0.014030598104000092,0.0032794165890663862
1772867097622200600,6.23820068359375,-0.004540689755231142,0.0105328019708395,0.0005145227187313139
1772867097632266500,6.2482666015625,-0.003978762775659561,0.013096893206238747,0.0006159891490824521
1772867097642332700,6.258332763671875,-0.002180596347898245,0.010641193017363548,-0.000010918960470007733
1772867097652398600,6.268398681640625,-0.0054759918712079525,0.013462278991937637,0.0015880429418757558
1772867097662464500,6.278464599609375,-0.004715659189969301,0.012674249708652496,0.00011664645717246458
1772867097672530700,6.28853076171875,-0.003358778776600957,0.011086473241448402,0.0018016285030171275
1772867097682595600,6.298595703125,-0.004338289611041546,0.012204734608530998,0.0023499734234064817
1772867097692661500,6.30866162109375,-0.004061320796608925,0.015269500203430653,0.0007946872501634061
1772867097702727700,6.318727783203125,-0.0051564122550189495,0.012624715454876423,-0.000045273736759554595
1772867097712793600,6.328793701171875,-0.0009214537567459047,0.014670821838080883,-0.0011883024126291275
1772867097722859500,6.338859619140625,-0.0035518580116331577,0.01148914359509945,-0.0029526466969400644
1772867097732925700,6.34892578125,-0.005588909611105919,0.01173175685107708,0.0031273500062525272
1772867097742991400,6.358991455078125,-0.003600327530875802,0.014062022790312767,0.002046106616035104
1772867097753057500,6.3690576171875,-0.003733485471457243,0.011639345437288284,-0.00034221619716845453
1772867097763123500,6.37912353515625,-0.006208094768226147,0.011957859620451927,0.0008008125587366521
1772867097773189600,6.389189697265625,-0.00649598240852356,0.011818576604127884,-0.001038366463035345
1772867097783255600,6.399255615234375,-0.004511661361902952,0.01206864695996046,-0.0003888215287588537
1772867097793321700,6.40932177734375,-0.004350007511675358,0.013511547818779945,-0.0014855111949145794
1772867097803387600,6.4193876953125,-0.0026221484877169132,0.015088139101862907,0.00034221619716845453
1772867097813453600,6.42945361328125,-0.0024778051301836967,0.011679292656481266,-0.0014689996605738997
1772867097823519500,6.43951953125,-0.005692773032933474,0.01101510040462017,0.0015531554818153381
1772867097833585400,6.44958544921875,-0.005344431847333908,0.013531520962715149,0.002669020090252161
1772867097843651600,6.459651611328125,-0.002115348819643259,0.013605024665594101,-0.00028628981090150774
1772867097853717500,6.469717529296875,-0.004865062423050404,0.010100305080413818,0.00213585514575243
1772867097863783700,6.47978369140625,-0.003019758267328143,0.013056679628789425,0.0016373114194720984
1772867097873849600,6.489849609375,-0.004555869847536087,0.011211109347641468,-0.0011944277212023735
1772867097883915800,6.499915771484375,-0.0036701022181659937,0.010944793000817299,0.004351072479039431
1772867097893981400,6.5099814453125,-0.004844822455197573,0.013377857394516468,-0.0015614113071933389
1772867097904047600,6.520047607421875,-0.00444055488333106,0.011933624744415283,0.003712979145348072
1772867097914113500,6.530113525390625,-0.0017590179340913892,0.012957876548171043,-0.001913481275551021
1772867097924179500,6.540179443359375,-0.0035923379473388195,0.01233629509806633,0.0031414648983627558
1772867097934245600,6.55024560546875,-0.002969424705952406,0.012348279356956482,-0.0025012409314513206
1772867097944311600,6.5603115234375,-0.004521781112998724,0.013678527437150478,0.0011227887589484453
1772867097954377700,6.570377685546875,-0.003084739437326789,0.009383914060890675,-0.004581968765705824
1772867097964443400,6.580443359375,-0.003019491909071803,0.011842278763651848,-0.0016165387351065874
1772867097974509600,6.590509521484375,-0.004506601020693779,0.013864416629076004,-0.001422128058038652
1772867097984575500,6.600575439453125,-0.0036064526066184044,0.011456119827926159,-0.00013315805699676275
1772867097994641700,6.6106416015625,-0.0043896883726119995,0.014753912575542927,0.001204814063385129
1772867098004707600,6.62070751953125,-0.0023853934835642576,0.014040717855095863,-0.0010468886466696858
1772867098014773500,6.6307734375,-0.0031795480754226446,0.014078800566494465,0.00008335694292327389
1772867098024839700,6.640839599609375,-0.002921221312135458,0.011006845161318779,0.001976065570488572
1772867098034905600,6.650905517578125,-0.0046610645949840546,0.011202054098248482,-0.0015185344964265823
1772867098044971800,6.6609716796875,-0.004945223685353994,0.012386095710098743,0.0033995250705629587
1772867098055037700,6.67103759765625,-0.002501773415133357,0.01290621142834425,-0.001752093667164445
1772867098065104000,6.681103759765625,-0.004258128348737955,0.01210113801062107,0.0006479470757767558
1772867098075169800,6.691169677734375,-0.0051955608651041985,0.011930695734918118,0.0003283677506260574
1772867098085235700,6.701235595703125,-0.0018242653459310532,0.00987340323626995,0.0016506272368133068
1772867098095301600,6.711301513671875,-0.003934820648282766,0.014273744076490402,0.001116130850277841
1772867098105367600,6.721367431640625,-0.002787797013297677,0.009020392782986164,0.0003121224872302264
1772867098115433700,6.731433837890625,-0.004294347018003464,0.013800767250359058,0.0007076018955558538
1772867098125499600,6.741499755859375,-0.004756139125674963,0.014313425868749619,0.002177134156227112
1772867098135565800,6.75156591796875,-0.0036932716611772776,0.01266679260879755,-0.0013632721966132522
1772867098145631700,6.7616318359375,-0.0031902005430310965,0.012703544460237026,-0.00016671388584654778
1772867098155696600,6.771696533203125,-0.005303685087710619,0.014750716276466846,0.003239202778786421
1772867098165762600,6.781762451171875,-0.005526858381927013,0.012476909905672073,0.0006929545197635889
1772867098175828700,6.791828857421875,-0.005404086317867041,0.01501064095646143,-0.0009574064170010388
1772867098185894700,6.801894775390625,-0.0037822213489562273,0.01110671367496252,-0.0009986853692680597
1772867098195960800,6.8119609375,-0.002320145955309272,0.0142356613650918,0.002117745578289032
1772867098206026800,6.82202685546875,-0.0030839405953884125,0.012319516390562057,-0.0011342403013259172
1772867098216092700,6.8320927734375,-0.006139651406556368,0.01190859079360962,0.0012681973166763783
1772867098226158600,6.84215869140625,-0.0017441042000427842,0.014082263223826885,0.004594485275447369
1772867098236224800,6.852224853515625,-0.0038480013608932495,0.012347480282187462,-0.00016431703988928348
1772867098246290700,6.862290771484375,-0.004757737275213003,0.014723818749189377,0.000005326322025211994
1772867098256356600,6.872356689453125,-0.0043473439291119576,0.012924587354063988,0.0014583469601348042
1772867098266422800,6.8824228515625,-0.004744155332446098,0.013045228086411953,0.0005994775565341115
1772867098276488700,6.89248876953125,-0.0046450854279100895,0.016038620844483376,-0.0009837717516347766
1772867098286554600,6.9025546875,-0.004466121084988117,0.012750948779284954,0.00018722022650763392
1772867098296620500,6.91262060546875,-0.004809668753296137,0.01369157712906599,-0.000368847802747041
1772867098306686700,6.922686767578125,-0.005467736162245274,0.009830792434513569,-0.0005331648280844092
1772867098316752600,6.932752685546875,-0.0031968585681170225,0.011831891722977161,0.0030866037122905254
1772867098326818800,6.94281884765625,-0.005405950825661421,0.013052418828010559,0.0008783105295151472
1772867098336884700,6.952884765625,-0.0030514500103890896,0.012868127785623074,0.0001917476038215682
1772867098346950700,6.96295068359375,-0.0044043357484042645,0.012798086740076542,0.0020458402577787638
1772867098357016800,6.973016845703125,-0.002365419641137123,0.011118431575596333,-0.0004239752306602895
1772867098367082500,6.98308251953125,-0.004348675720393658,0.012570386752486229,0.00029827404068782926
1772867098377148700,6.993148681640625,-0.0020929782185703516,0.013045760802924633,-0.0014863101532682776
1772867098387214600,7.003214599609375,-0.0043864925391972065,0.011827364563941956,0.0013108078856021166
1772867098397280800,7.01328076171875,-0.0035268242936581373,0.013454821892082691,0.0033015208318829536
1772867098407346700,7.0233466796875,-0.005751628894358873,0.011405786499381065,0.00023142869758885354
1772867098417412900,7.033412841796875,-0.004883704707026482,0.012503541074693203,0.0023393207229673862
1772867098427478800,7.043478759765625,-0.0020722055342048407,0.013975203968584538,0.0014016216155141592
1772867098437544700,7.053544677734375,-0.0044139232486486435,0.011571967042982578,-0.00014141385327093303
1772867098447610600,7.063610595703125,-0.002895655110478401,0.012141617946326733,0.0046477485448122025
1772867098457676500,7.073676513671875,-0.005657086614519358,0.011218033730983734,-0.00018722022650763392
1772867098467742700,7.08374267578125,-0.003144660498946905,0.013680391944944859,0.002073537092655897
1772867098477808600,7.09380859375,-0.003996605984866619,0.01296613272279501,0.0021824603900313377
1772867098487874800,7.103874755859375,-0.0032929987646639347,0.012471583671867847,0.00000958738019107841
1772867098497939700,7.113939697265625,-0.0037468012887984514,0.011334946379065514,0.0006442186422646046
1772867098508005600,7.124005615234375,-0.006972421891987324,0.012916597537696362,0.0013052152935415506
1772867098518071600,7.134071533203125,-0.004973187111318111,0.010104565881192684,0.00026844663079828024
1772867098528137700,7.1441376953125,-0.002377403900027275,0.012618057429790497,-0.0015491608064621687
1772867098538203600,7.15420361328125,-0.0033870083279907703,0.011395665816962719,0.001047154888510704
1772867098548269800,7.164269775390625,-0.003422162029892206,0.013205550611019135,-0.00024501082953065634
1772867098558335700,7.174335693359375,-0.004721251782029867,0.012633237056434155,0.001210406655445695
1772867098568401700,7.184401611328125,0.0003408846096135676,0.01212856825441122,0.0009166600648313761
1772867098578467600,7.194467529296875,-0.0043777041137218475,0.014868161641061306,0.0011896340874955058
1772867098588533800,7.20453369140625,-0.0035108451265841722,0.012911537662148476,0.0005808354471810162
1772867098598599700,7.214599609375,-0.0046789078041911125,0.012177038006484509,-0.002377936616539955
1772867098608665600,7.22466552734375,-0.002555303042754531,0.015691611915826797,-0.00009667274571256712
1772867098618731800,7.234731689453125,-0.004510862287133932,0.010330667719244957,0.000365918327588588
1772867098628797700,7.244797607421875,-0.004275705199688673,0.012883574701845646,0.0010282464791089296
1772867098638864000,7.25486376953125,-0.0017363809747621417,0.01299436204135418,-0.0007299724384211004
1772867098648929500,7.264929443359375,-0.0019124159589409828,0.012751481495797634,0.001525991247035563
1772867098658995700,7.27499560546875,-0.0031995216850191355,0.012832974083721638,0.0027257453184574842
1772867098669061600,7.2850615234375,-0.004174504894763231,0.01188089419156313,-0.0022485069930553436
1772867098679127800,7.2951279296875,-0.003847202518954873,0.010208961553871632,0.0004814995336346328
1772867098689193700,7.30519384765625,-0.004296211525797844,0.012381035834550858,0.0011297129094600677
1772867098699259600,7.315259765625,-0.0031153657473623753,0.010871822014451027,-0.001055943313986063
1772867098709325800,7.325325927734375,-0.004878112114965916,0.012153868563473225,0.0005629922379739583
1772867098719391500,7.3353916015625,-0.00398755120113492,0.01128035131841898,0.0005174521938897669
1772867098729457700,7.345457763671875,-0.00195156445261091,0.012703544460237026,0.0012189288390800357
1772867098739523600,7.355523681640625,-0.0035329493694007397,0.013582121580839157,0.0009456885163672268
1772867098749589800,7.36558984375,-0.004809668753296137,0.012443353421986103,0.0005805690889246762
1772867098759655700,7.37565576171875,-0.00455773388966918,0.012649748474359512,-0.0006431533838622272
1772867098769721900,7.385721923828125,-0.004631503485143185,0.010660367086529732,0.003111104713752866
1772867098779786500,7.395786376953125,-0.004538292996585369,0.012376775033771992,-0.00009986854274757206
1772867098789852700,7.405852783203125,-0.004120975267142057,0.012553608976304531,0.0007171892793849111
1772867098799918600,7.415918701171875,-0.0033563817851245403,0.011442803777754307,-0.0012428972404450178
1772867098809984800,7.42598486328125,-0.004030960611999035,0.012895824387669563,0.0003856257244478911
1772867098820050700,7.43605078125,-0.004565190523862839,0.013736851513385773,0.0028186896815896034
1772867098830116900,7.446116943359375,-0.0031278827227652073,0.013597034849226475,0.0044139232486486435
1772867098840182800,7.456182861328125,-0.0020152139477431774,0.012471583671867847,0.0019520970527082682
1772867098850248400,7.46624853515625,-0.0030985879711806774,0.012370916083455086,0.0006079996819607913
1772867098860314600,7.476314697265625,-0.0023875238839536905,0.014051636680960655,0.0013646037550643086
1772867098870380500,7.486380615234375,-0.0035601137205958366,0.012926450930535793,0.00048602689639665186
1772867098880446700,7.49644677734375,-0.0032898029312491417,0.014199974946677685,0.0008458199445158243
1772867098890512600,7.5065126953125,-0.0043984767980873585,0.013043097220361233,-0.0009238505735993385
1772867098900578800,7.516578857421875,-0.003251453395932913,0.01155652105808258,-0.002653573639690876
1772867098910644700,7.526644775390625,-0.00561181316152215,0.013420733623206615,-0.0012026835465803742
1772867098920711000,7.5367109375,-0.0055092815309762955,0.011266502551734447,0.0012953615514561534
1772867098930776600,7.546776611328125,-0.005890646018087864,0.011517106555402279,0.000003462109361862531
1772867098940842800,7.5568427734375,-0.0013544837711378932,0.014464160427451134,0.0005438174703158438
1772867098950908700,7.56690869140625,-0.004141747951507568,0.013198359869420528,0.0015547533985227346
1772867098960974600,7.576974609375,-0.006536728702485561,0.012612464837729931,0.0010703244479373097
1772867098971040800,7.587040771484375,-0.004138552118092775,0.01104279700666666,0.001184574095532298
1772867098981106700,7.597106689453125,-0.005660548806190491,0.013278255239129066,0.0015957661671563983
1772867098991172900,7.6071728515625,-0.003568103304132819,0.011844142340123653,0.002031725598499179
1772867099001238500,7.617238525390625,-0.006322077941149473,0.013026852160692215,-0.0013496900210157037
1772867099011304700,7.6273046875,-0.004120708908885717,0.01637418009340763,0.0009760485263541341
1772867099021370600,7.63737060546875,-0.004098604898899794,0.011914716102182865,0.004522580187767744
1772867099031435800,7.647435791015625,-0.004851746838539839,0.012665195390582085,0.001079645473510027
1772867099041501700,7.657501708984375,-0.0041579934768378735,0.011494469828903675,-0.0027539748698472977
1772867099051568000,7.667568115234375,-0.0057564228773117065,0.01185000129044056,0.0005105279851704836
1772867099061633800,7.6776337890625,-0.00395692465826869,0.013966416008770466,0.0014418354257941246
1772867099071700000,7.687699951171875,-0.004801679402589798,0.013962953351438046,-0.0008575378451496363
1772867099081766000,7.697765869140625,-0.003662378992885351,0.013169065117835999,0.004351871553808451
1772867099091831800,7.707831787109375,-0.0035630431957542896,0.013059343211352825,0.00038535939529538155
1772867099101898000,7.71789794921875,-0.0028823392931371927,0.011573032476007938,0.0012239888310432434
1772867099111964000,7.7279638671875,-0.0011590076610445976,0.014782408252358437,0.001201884588226676
1772867099122030000,7.738030029296875,-0.005310076754540205,0.013079582713544369,-0.0009773800848051906
1772867099132096000,7.748095947265625,-0.006154831498861313,0.015152054838836193,0.0009398295660503209
1772867099142162000,7.758161865234375,-0.0027603665366768837,0.01224734541028738,-0.001567802974022925
1772867099152227800,7.768227783203125,-0.003531351685523987,0.011721637099981308,-0.00020959076937288046
1772867099162294000,7.7782939453125,-0.003072755178436637,0.012376508675515652,0.0010879012988880277
1772867099172360000,7.78835986328125,-0.00440912926569581,0.010311227291822433,0.00025486451340839267
1772867099182425900,7.79842578125,-0.003724963404238224,0.013497432693839073,0.0010431602131575346
1772867099192492000,7.808491943359375,-0.004898352082818747,0.014215154573321342,-0.0013233247445896268
1772867099202558000,7.818557861328125,-0.005618470720946789,0.012024438939988613,0.003492203075438738
1772867099212624000,7.828623779296875,-0.006779342889785767,0.01315148826688528,-0.0010985539993271232
1772867099222689800,7.838689697265625,-0.0030985879711806774,0.012707538902759552,-0.001255680457688868
1772867099232756000,7.848755859375,-0.003233343828469515,0.012114186771214008,-0.0013528858544304967
1772867099242822000,7.85882177734375,-0.005268265027552843,0.011855061165988445,-0.0007076018955558538
1772867099252888000,7.86888818359375,-0.0030240193009376526,0.011241735890507698,0.0013614079216495156
1772867099262953000,7.878952880859375,-0.0054429685696959496,0.01401754841208458,-0.0003094593121204525
1772867099273019000,7.889018798828125,-0.0028570392169058323,0.012142948806285858,0.0007768440991640091
1772867099283084800,7.899084716796875,-0.004400873556733131,0.011227620765566826,0.003201385959982872
1772867099293151000,7.90915087890625,-0.005309810396283865,0.012401276268064976,-0.0008916263468563557
1772867099303217000,7.919216796875,-0.002374208066612482,0.012893960811197758,-0.002915628720074892
1772867099313283000,7.929282958984375,-0.002329467097297311,0.011988486163318157,0.0005067995516583323
1772867099323349000,7.939348876953125,-0.004040281753987074,0.012600746937096119,-0.0031790153589099646
1772867099333415000,7.949414794921875,-0.004565456882119179,0.013771206140518188,0.002389654517173767
1772867099343480800,7.959480712890625,-0.005592105444520712,0.011609517969191074,0.00043302998528815806
1772867099353546800,7.969546630859375,-0.0030482541769742966,0.010696319863200188,0.0037316211964935064
1772867099363613000,7.979613037109375,-0.004012318328022957,0.014180533587932587,0.0015907060587778687
1772867099373678800,7.989678955078125,-0.0041401502676308155,0.010637464001774788,-0.0011265170760452747
1772867099383745000,7.9997451171875,-0.004008590243756771,0.012684902176260948,-0.0013491574209183455
1772867099393811000,8.00981103515625,-0.003111104713752866,0.010330401360988617,0.0017009610310196877
1772867099403875800,8.019875732421875,-0.004876514431089163,0.009577259421348572,0.001091896090656519
1772867099413941800,8.029941650390626,-0.0023611586075276136,0.012780776247382164,0.0007613977650180459
1772867099424008000,8.040008056640625,-0.004464789759367704,0.010774883441627026,0.002594451420009136
1772867099434073900,8.050073974609376,-0.0018663433147594333,0.01176051888614893,0.002270344877615571
1772867099444140000,8.06014013671875,-0.0037092508282512426,0.015729960054159164,-0.0002926813904196024
1772867099454206000,8.0702060546875,-0.004496214911341667,0.010362093336880207,-0.0009339706157334149
1772867099464272100,8.080272216796875,-0.0036970002111047506,0.012819391675293446,-0.0011267834343016148
1772867099474338000,8.090338134765625,-0.004285824950784445,0.013982128351926804,0.00024101608141791075
1772867099484404000,8.100404052734374,-0.005848035216331482,0.012740829028189182,-0.0015816513914614916
1772867099494470000,8.110469970703125,-0.0037089844699949026,0.013012205250561237,0.0010327738709747791
1772867099504535800,8.120535888671874,-0.003980626817792654,0.01257997378706932,-0.0013755226973444223
1772867099514602000,8.13060205078125,-0.005122856702655554,0.012301141396164894,-0.0010239854454994202
1772867099524668000,8.14066796875,-0.004192880820482969,0.010151171125471592,-0.00039947417099028826
1772867099534734000,8.150734130859375,-0.0016884441720321774,0.01025823038071394,0.002922020386904478
1772867099544800000,8.160800048828126,-0.0031617048662155867,0.014927550218999386,0.0003081277245655656
1772867099554866000,8.170865966796875,-0.00504056503996253,0.012412994168698788,0.0009361011325381696
1772867099564931800,8.180931884765625,-0.0028911277186125517,0.014050571247935295,0.0019105518003925681
1772867099574998000,8.190998046875,-0.0020658141002058983,0.013793842867016792,0.00016298545233439654
1772867099585064000,8.20106396484375,-0.0041673146188259125,0.012612464837729931,-0.0015369103057309985
1772867099595129900,8.2111298828125,-0.002198972040787339,0.013789049349725246,0.0011776498286053538
1772867099605195000,8.221195068359375,-0.005392634775489569,0.010233729146420956,-0.0011997540714219213
1772867099615261000,8.231260986328126,-0.0032706281635910273,0.01293523982167244,-0.0007805725326761603
1772867099625326800,8.241326904296875,-0.0030921963043510914,0.012986105866730213,0.0025992451701313257
1772867099635393000,8.25139306640625,-0.004807271994650364,0.012429239228367805,0.0002998719282913953
1772867099645459000,8.261458984375,-0.0022482406347990036,0.012537895701825619,0.0025720810517668724
1772867099655524900,8.27152490234375,-0.0031009847298264503,0.013117932714521885,-0.0008607336785644293
1772867099665591000,8.281591064453124,-0.006313289515674114,0.010848918929696083,0.0008303736103698611
1772867099675657000,8.291656982421875,-0.006709834095090628,0.013076387345790863,0.0033816818613559008
1772867099685723000,8.301722900390626,-0.003632019041106105,0.010069678537547588,0.002837864449247718
1772867099695788800,8.311788818359375,-0.0033957967534661293,0.013459616340696812,0.0035859462805092335
1772867099705855000,8.32185498046875,-0.005657352972775698,0.011407117359340191,0.0011014834744855762
1772867099715921000,8.3319208984375,-0.002276203827932477,0.01372486725449562,0.0034261567052453756
1772867099725987000,8.341987060546876,-0.00276089902035892,0.010289921425282955,0.0004732437082566321
1772867099736053000,8.352052978515625,-0.004304467234760523,0.011521633714437485,0.0005526058957912028
1772867099746119000,8.362118896484375,-0.004168379586189985,0.012929114513099194,0.000014913702216290403
1772867099756185000,8.37218505859375,-0.005883455276489258,0.010713630355894566,-0.0009515474666841328
1772867099766250800,8.382250732421875,-0.0029675604309886694,0.012439625337719917,-0.0021755362395197153
1772867099776317000,8.39231689453125,-0.0025302693247795105,0.012221778742969036,-0.001187237212434411
1772867099786382000,8.402382080078125,-0.003133208956569433,0.012378904968500137,0.00009800432599149644
1772867099796448000,8.412447998046876,-0.005782521795481443,0.014904647134244442,-0.00224903947673738
1772867099806514000,8.422513916015625,-0.005658418405801058,0.012953882105648518,-0.002561694709584117
1772867099816580000,8.432580078125,-0.002591521944850683,0.012484632432460785,0.0010596717474982142
1772867099826645800,8.442645751953124,-0.002785133896395564,0.012776515446603298,-0.00026844663079828024
1772867099836712000,8.4527119140625,-0.002316950121894479,0.012722186744213104,-0.0003968109958805144
1772867099846777900,8.46277783203125,-0.004975317511707544,0.015308382920920849,0.00007776429993100464
1772867099856844000,8.472843994140625,-0.005686914082616568,0.011286742985248566,0.0009203884401358664
1772867099866910000,8.482909912109376,-0.004606735892593861,0.011300858110189438,-0.00018801917030941695
1772867099876976000,8.49297607421875,-0.005370264407247305,0.011579690501093864,0.0020791299175471067
1772867099887042000,8.5030419921875,-0.004144411068409681,0.01119113527238369,0.0011400992516428232
1772867099897107700,8.513107666015625,-0.002217081608250737,0.013606090098619461,0.00430127140134573
1772867099907174000,8.523173828125,-0.004019775427877903,0.012629242613911629,0.0004934837343171239
1772867099917239800,8.53323974609375,-0.0031380027066916227,0.010676879435777664,0.001549959764815867
1772867099927306000,8.543305908203125,-0.004206462763249874,0.012709403410553932,0.0010058758780360222
1772867099937372000,8.553371826171874,-0.007179882377386093,0.012701946310698986,-0.0010546117555350065
1772867099947438000,8.56343798828125,-0.001806155894882977,0.013510748744010925,0.0005470133037306368
1772867099957502700,8.573502685546876,-0.004458398092538118,0.012765330262482166,0.0009680590592324734
1772867099967569000,8.58356884765625,-0.003020557342097163,0.012854279950261116,-0.0013930995482951403
1772867099977634800,8.593634765625,-0.0037912761326879263,0.01347799226641655,0.002380067016929388
1772867099987701000,8.603700927734375,-0.0018764632986858487,0.012400477193295956,0.0009041432058438659
1772867099997767000,8.613766845703125,-0.004674113821238279,0.012867062352597713,0.0027507790364325047
1772867100007833000,8.6238330078125,-0.0032929987646639347,0.01414564624428749,0.0010974886827170849
1772867100017899000,8.63389892578125,-0.0036493295338004827,0.01417600642889738,0.0001001348573481664
1772867100027966000,8.643966064453124,-0.0028005801141262054,0.012628976255655289,-0.00008735168376006186
1772867100038032100,8.6540322265625,-0.0033987262286245823,0.00920122116804123,-0.000316916179144755
1772867100048097500,8.66409765625,-0.004958007019013166,0.012193815782666206,0.003379817819222808
1772867100058163700,8.674163818359375,-0.0018897791160270572,0.011357849463820457,0.0006447513005696237
1772867100068228600,8.684228515625,-0.002654106356203556,0.010305634699761868,-0.001014398061670363
1772867100078294500,8.69429443359375,-0.006120743229985237,0.011747203767299652,-0.00046871634549461305
1772867100088360400,8.7043603515625,-0.005260009318590164,0.007751396391540766,0.0015875103417783976
1772867100098426600,8.714426513671874,-0.002900448627769947,0.011378888040781021,0.0009190568816848099
1772867100108492500,8.724492431640625,-0.00437956815585494,0.012032161466777325,0.00344559783115983
1772867100118558700,8.734558837890624,-0.0024370586033910513,0.012058527208864689,0.0001853560097515583
1772867100128624600,8.744624755859375,-0.0030181603506207466,0.013429256156086922,-0.0005307680112309754
1772867100138690600,8.754690673828126,-0.0008170577930286527,0.013342170976102352,0.003043460426852107
1772867100148756500,8.764756591796875,-0.004446147475391626,0.012655341066420078,0.0011622034944593906
1772867100158822700,8.77482275390625,-0.0021262678783386946,0.012316054664552212,0.002335858531296253
1772867100168888600,8.784888671875,-0.005906358826905489,0.01010935939848423,0.0022277343086898327
1772867100178954500,8.79495458984375,-0.0028474517166614532,0.014780810102820396,0.0007858988246880472
1772867100189020700,8.805020751953125,-0.0021427792962640524,0.011145062744617462,0.003406449221074581
1772867100199086600,8.815086669921875,-0.003608849598094821,0.011620969511568546,0.0012926984345540404
1772867100209152500,8.825152587890624,-0.006031527183949947,0.011083543300628662,0.003612311789765954
1772867100219218400,8.835218505859375,-0.005101817660033703,0.010558634996414185,0.0019403791520744562
1772867100229284600,8.84528466796875,-0.0028762139845639467,0.013577061705291271,-0.003637611633166671
1772867100239349500,8.855349609375,-0.004787032026797533,0.011422297917306423,0.0007811051327735186
1772867100249415700,8.865415771484376,-0.003981425892561674,0.013294233940541744,-0.00009241169027518481
1772867100259481600,8.875481689453125,-0.0036618465092033148,0.012622051872313023,0.0012159993639215827
1772867100269547500,8.885547607421875,-0.001984853995963931,0.013075321912765503,-0.0004572647449094802
1772867100279613400,8.895613525390624,-0.004312190227210522,0.012349343858659267,0.0007813714328221977
1772867100289679600,8.9056796875,-0.0032948628067970276,0.011513910256326199,0.0022189458832144737
1772867100299745500,8.91574560546875,-0.0036418726667761803,0.012795157730579376,0.00033396040089428425
1772867100309811700,8.925811767578125,-0.003870105603709817,0.013082246296107769,0.0005382248782552779
1772867100319877600,8.935877685546876,-0.004195011220872402,0.012051070109009743,0.0001704423048067838
1772867100329943600,8.945943603515625,-0.004132693167775869,0.012261459603905678,0.0014644722687080503
1772867100340009500,8.956009521484376,-0.004028830211609602,0.01149739883840084,-0.0015092133544385433
1772867100350075400,8.966075439453125,-0.0064866612665355206,0.011997806839644909,-0.0009403621661476791
1772867100360141600,8.9761416015625,-0.0039015309885144234,0.014039652422070503,0.0020519655663520098
1772867100370207500,8.98620751953125,-0.006675745826214552,0.008353270590305328,0.0013379721203818917
1772867100380272600,8.996272705078125,-0.0033622407354414463,0.013936854898929596,-0.0004159857635386288
1772867100390338600,9.006338623046876,-0.006897853687405586,0.01116184052079916,0.0001776328426785767
1772867100400404500,9.016404541015625,-0.005097024142742157,0.010735735297203064,0.00004420847471919842
1772867100410470400,9.026470458984376,-0.003992877434939146,0.012707538902759552,0.001201618229970336
1772867100420536600,9.03653662109375,-0.004278901033103466,0.01130831427872181,-0.0006649913266301155
1772867100430602500,9.0466025390625,-0.0032083101104944944,0.014561631716787815,0.0015696671325713396
1772867100440668700,9.056668701171875,-0.0007597998483106494,0.010211891494691372,0.002359560690820217
1772867100450734600,9.066734619140625,-0.004594485275447369,0.012403139844536781,0.003936951048672199
1772867100460800800,9.07680078125,-0.0016586167039349675,0.013394368812441826,-0.001044225413352251
1772867100470866700,9.08686669921875,-0.004246410448104143,0.011121626943349838,0.0010833739070221782
1772867100480932400,9.096932373046876,-0.004120176658034325,0.013423130847513676,0.0010940266074612737
1772867100490998500,9.10699853515625,-0.0018692727899178863,0.013520868495106697,-0.001178182428702712
1772867100501064400,9.117064453125,-0.00202320353128016,0.012117116712033749,0.004493818152695894
1772867100511130600,9.127130615234375,-0.0038242992013692856,0.013787983916699886,0.0011560781858861446
1772867100521196500,9.137196533203126,-0.0037145770620554686,0.011554124765098095,-0.001133174984715879
1772867100531261700,9.14726171875,-0.005118062719702721,0.01392700057476759,0.003728159237653017
1772867100541327400,9.157327392578125,-0.004457865376025438,0.012206332758069038,-0.000461259507574141
1772867100551393500,9.1673935546875,-0.0036368127912282944,0.011726696975529194,0.003498861100524664
1772867100561459500,9.17745947265625,-0.006756173446774483,0.013034042902290821,0.002537193475291133
1772867100571525600,9.187525634765626,-0.003867975203320384,0.01119459792971611,0.0006514092092402279
1772867100581591600,9.197591552734375,-0.00398595305159688,0.01378265768289566,0.001261805766262114
1772867100591657700,9.20765771484375,-0.004314321093261242,0.013538978062570095,0.00020746025256812572
1772867100601723600,9.2177236328125,-0.003920705523341894,0.012294483371078968,0.0015366439474746585
1772867100611789600,9.22778955078125,-0.004303135443478823,0.015113705769181252,0.0024884575977921486
1772867100621855500,9.23785546875,-0.006021673325449228,0.011068630032241344,0.0008958873804658651
1772867100631921400,9.24792138671875,-0.0043622576631605625,0.013411945663392544,0.0009424926829524338
1772867100641987600,9.257987548828124,-0.0042719766497612,0.010323477908968925,0.0011025486746802926
1772867100652053500,9.268053466796875,-0.0044200485572218895,0.010782074183225632,0.00022290658671408892
1772867100662118700,9.27811865234375,-0.00586587842553854,0.015124890953302383,-0.0030570426024496555
1772867100672184600,9.2881845703125,-0.002797118155285716,0.011663580313324928,0.001287904684431851
1772867100682250500,9.29825048828125,-0.005519667640328407,0.01395576260983944,0.0013126720441505313
1772867100692316400,9.30831640625,-0.005788114387542009,0.013185043819248676,-0.0002085255109705031
1772867100702382600,9.318382568359375,-0.002767823403701186,0.011759188026189804,0.002385925967246294
1772867100712448500,9.328448486328124,-0.004061853047460318,0.012676913291215897,0.001591771375387907
1772867100722514700,9.3385146484375,-0.0026703516487032175,0.013169065117835999,0.00011078749957960099
1772867100732580600,9.34858056640625,-0.001651159836910665,0.013705692254006863,-0.0019686087034642696
1772867100742646500,9.358646484375,-0.003908189013600349,0.013526461087167263,0.0005382248782552779
1772867100752712400,9.36871240234375,-0.0038069887086749077,0.011869975365698338,-0.0001901497016660869
1772867100762778600,9.378778564453125,-0.004210990387946367,0.011926966719329357,0.00014221279707271606
1772867100772844500,9.388844482421876,-0.005916478578001261,0.01188169326633215,-0.0009137305896729231
1772867100782910500,9.398910400390625,-0.004894091282039881,0.012285428121685982,0.0012775183422490954
1772867100792976600,9.4089765625,-0.005349758081138134,0.013423130847513676,0.0026759442407637835
1772867100803041500,9.41904150390625,-0.0034024545457214117,0.013658554293215275,-0.0011779161868616939
1772867100813107500,9.429107421875,-0.0025369273498654366,0.013864949345588684,0.0004021373169962317
1772867100823173600,9.439173583984376,-0.005857356358319521,0.01404790859669447,-0.0001930791768245399
1772867100833239600,9.449239501953125,-0.0054277884773910046,0.011281150393188,-0.001294029993005097
1772867100843305500,9.459305419921876,-0.005898102652281523,0.01296240370720625,0.0009219863568432629
1772867100853371600,9.46937158203125,-0.003421895671635866,0.01233496330678463,0.0002402171230642125
1772867100863437600,9.4794375,-0.0028250813484191895,0.012389558367431164,0.0016402408946305513
1772867100873503500,9.48950341796875,-0.003025617217645049,0.011473430320620537,0.000005326322025211994
1772867100883569400,9.4995693359375,-0.004525243304669857,0.013145362958312035,0.00046924897469580173
1772867100893635600,9.509635498046874,-0.004375040996819735,0.01372460089623928,-0.0023076289799064398
1772867100903701500,9.519701416015625,-0.004612328484654427,0.012206332758069038,-0.0003097256412729621
1772867100913767700,9.529767578125,-0.0049401638098061085,0.013712083920836449,-0.00047883635852485895
1772867100923833600,9.53983349609375,-0.005666407756507397,0.012921124696731567,0.00004367584188003093
1772867100933898500,9.5498984375,-0.0075822859071195126,0.0136612169444561,0.002002164488658309
1772867100943964400,9.55996435546875,-0.0052964948117733,0.016619989648461342,0.0016623451374471188
1772867100954030600,9.570030517578125,-0.0008684568456374109,0.011769840493798256,0.004326305352151394
1772867100964096500,9.580096435546874,-0.004966795444488525,0.010671020485460758,0.002397377509623766
1772867100974162700,9.59016259765625,-0.003175287041813135,0.010612696409225464,0.00037497308221645653
1772867100984228600,9.600228515625,-0.0022572954185307026,0.01356587652117014,0.0015251922886818647
1772867100994294500,9.61029443359375,-0.0030746194534003735,0.015805860981345177,0.0018634138396009803
1772867101004360700,9.620360595703126,-0.00395719101652503,0.01065264455974102,0.0010468886466696858
1772867101014426400,9.63042626953125,-0.002287655370309949,0.012477442622184753,0.0000601874417043291
1772867101024492500,9.640492431640626,-0.0033904702868312597,0.015178952366113663,0.001514273346401751
1772867101034558500,9.650558349609375,-0.00421232171356678,0.013288374990224838,0.0006918892613612115
1772867101044625000,9.660625,-0.00367170013487339,0.013062804937362671,0.0012277172645553946
1772867101054690800,9.67069091796875,-0.004028563853353262,0.01107475534081459,-0.0025270734913647175
1772867101064756000,9.680755859375,-0.005138569511473179,0.012692359276115894,0.0002620550512801856
1772867101074821600,9.690821533203126,-0.002313754288479686,0.011472897604107857,0.0002695118892006576
1772867101084887800,9.7008876953125,-0.002778209513053298,0.013370133936405182,0.0013859090395271778
1772867101094953700,9.71095361328125,-0.004216582980006933,0.015003982931375504,0.0018341189716011286
1772867101105020000,9.72102001953125,-0.004489290527999401,0.012398346327245235,-0.00014381069922819734
1772867101115085800,9.7310859375,-0.003418699838221073,0.011037737131118774,0.0025417208671569824
1772867101125152000,9.741152099609375,-0.004532434046268463,0.011396198533475399,-0.00022184131375979632
1772867101135218000,9.751218017578125,-0.0030240193009376526,0.012677712365984917,0.001187237212434411
1772867101145283600,9.76128369140625,-0.005918342620134354,0.010625213384628296,0.0017915084026753902
1772867101155349800,9.771349853515625,-0.005139368120580912,0.010455836541950703,0.00037257623625919223
1772867101165415700,9.781415771484374,-0.005176386330276728,0.012256133370101452,-0.0002724413643591106
1772867101175481900,9.79148193359375,-0.002168079372495413,0.0142369931563735,0.0011403656098991632
1772867101185546800,9.801546630859375,-0.0023185480386018753,0.012124573811888695,0.001430916483514011
1772867101195613000,9.811613037109375,-0.0044011399149894714,0.014192784205079079,0.0010309095960110426
1772867101205678600,9.8216787109375,-0.006954845041036606,0.010845457203686237,-0.00012144014181103557
1772867101215744800,9.831744873046874,-0.003287672298029065,0.013344833627343178,0.0002466087171342224
1772867101225810700,9.841810791015625,-0.004861600697040558,0.011362642981112003,0.0015078817959874868
1772867101235876900,9.851876953125,-0.006248041987419128,0.011843609623610973,-0.0008021441171877086
1772867101245942800,9.86194287109375,-0.004679972771555185,0.012173308990895748,0.0023118900135159492
1772867101256009000,9.872009033203126,-0.0022149509750306606,0.009373794309794903,0.001767273643054068
1772867101266075000,9.882074951171875,-0.004889830015599728,0.013969078660011292,0.000830107310321182
1772867101276141000,9.89214111328125,-0.003355050226673484,0.010160225443542004,0.002232261700555682
1772867101286206700,9.902206787109375,-0.0033965955954045057,0.013747237622737885,0.0008788431296125054
1772867101296272600,9.912272705078125,-0.0017800568602979183,0.014162956736981869,-0.000990429543890059
1772867101306337800,9.922337890625,-0.002686596941202879,0.012989568524062634,0.002528937766328454
1772867101316404000,9.932404052734375,-0.0033012544736266136,0.014083595015108585,-0.0000679106087773107
1772867101326470000,9.942469970703126,-0.004878644831478596,0.012915798462927341,0.0003685815026983619
1772867101336535800,9.952535888671875,-0.003918042406439781,0.011606322601437569,0.0005853627808392048
1772867101346601700,9.962601806640626,-0.0022921827621757984,0.014238057658076286,0.00032916670897975564
1772867101356667600,9.972667724609375,-0.0029979203827679157,0.01050110999494791,-0.00008175904804375023
1772867101366733800,9.98273388671875,-0.004662395920604467,0.015214106999337673,0.00006684534309897572
1772867101376799700,9.9927998046875,-0.00472524669021368,0.01474752090871334,-0.00041518680518493056
1772867101386866000,10.002865966796875,-0.00440939562395215,0.011919775977730751,-0.001472728094086051
1772867101396931800,10.012931884765624,-0.006284261122345924,0.01486283540725708,0.0009888317435979843
1772867101406998000,10.022998046875,-0.004823783412575722,0.013628194108605385,-0.0002996056282427162
1772867101417063700,10.033063720703124,-0.0022413162514567375,0.0125203188508749,-0.0004897553008049726
1772867101427128800,10.04312890625,-0.0032120386604219675,0.01296453457325697,0.0006253102328628302
1772867101437194800,10.05319482421875,-0.004430168308317661,0.009219330735504627,0.00264744833111763
1772867101447261000,10.063260986328125,-0.003572896821424365,0.011831092648208141,0.0006945523782633245
1772867101457326800,10.073326904296875,-0.004298075567930937,0.011324560269713402,0.004808870144188404
1772867101467393000,10.08339306640625,-0.004519117996096611,0.0118489358574152,0.0013398362789303064
1772867101477458700,10.093458740234375,-0.00355851580388844,0.013601030223071575,-0.0005209143273532391
1772867101487524900,10.10352490234375,-0.0033222935162484646,0.012019910849630833,0.0033132387325167656
1772867101497590800,10.1135908203125,-0.003608316881582141,0.011151454411447048,0.002260757377371192
1772867101507656700,10.12365673828125,-0.004852013196796179,0.011052651330828667,0.0005166532355360687
1772867101517723000,10.133722900390625,-0.003888481529429555,0.013019927777349949,0.0016282566357403994
1772867101527788800,10.143788818359376,-0.004762797150760889,0.010606305673718452,-0.0014205301413312554
1772867101537853700,10.153853759765624,-0.003817108692601323,0.013174124993383884,0.0009741843095980585
1772867101547920000,10.163919921875,-0.004303135443478823,0.014255900867283344,-0.0036067189648747444
1772867101557985800,10.17398583984375,-0.004747350700199604,0.011360512115061283,-0.0004111920716241002
1772867101568051700,10.1840517578125,-0.0059449742548167706,0.01257810927927494,0.0010492854053154588
1772867101578118000,10.194117919921876,-0.0046546729281544685,0.009942911565303802,-0.0035774242132902145
1772867101588183800,10.204183837890625,-0.005531385540962219,0.011170895770192146,-0.0023494407068938017
1772867101598250000,10.21425,-0.002115082461386919,0.01164280716329813,-0.0029907298739999533
1772867101608315600,10.224315673828125,-0.005062402691692114,0.010427340865135193,0.00046312372433021665
1772867101618381800,10.2343818359375,-0.0014913701452314854,0.010318949818611145,-0.0002612560929264873
1772867101628447700,10.24444775390625,-0.0020788635592907667,0.012259063310921192,-0.0021457087714225054
1772867101638514000,10.254513916015625,-0.004163053352385759,0.010601511225104332,0.0016727314796298742
1772867101648578800,10.264578857421874,-0.005615807604044676,0.015195997431874275,0.0006649913266301155
1772867101658645000,10.27464501953125,-0.0017411747248843312,0.012517123483121395,-0.0012000204296782613
1772867101668710700,10.284710693359376,-0.0028868666850030422,0.012229235842823982,0.0005131911602802575
1772867101678776800,10.29477685546875,-0.004727377090603113,0.01417440827935934,-0.0023302659392356873
1772867101688842800,10.3048427734375,-0.004204066004604101,0.011136806569993496,0.001990979304537177
1772867101698909000,10.314908935546875,-0.0049406965263187885,0.012300608679652214,-0.000050866376113845035
1772867101708974800,10.324974853515625,-0.00418249424546957,0.010605772957205772,0.0029891319572925568
1772867101719040800,10.335040771484374,-0.003326820908114314,0.01321034412831068,0.0023470439482480288
1772867101729107000,10.34510693359375,-0.003308977698907256,0.011148258112370968,0.0013800500892102718
1772867101739172600,10.355172607421874,-0.004750280175358057,0.012634302489459515,0.0057228668592870235
1772867101749238800,10.36523876953125,-0.005015531089156866,0.014544321224093437,0.00012783173588104546
1772867101759304000,10.375303955078126,-0.0046762446872889996,0.010833739303052425,0.002043709857389331
1772867101769369900,10.385369873046875,-0.005648298189043999,0.011007376946508884,-0.00042290997225791216
1772867101779435800,10.395435791015625,-0.005407814867794514,0.013013004325330257,0.0032807481475174427
1772867101789502000,10.405501953125,-0.00187992537394166,0.00998978316783905,-0.0005933523061685264
1772867101799567600,10.415567626953125,-0.00407490273937583,0.015122760087251663,-0.0007185208378359675
1772867101809633800,10.4256337890625,-0.004854409955441952,0.011602327227592468,-0.0014618091518059373
1772867101819699700,10.43569970703125,-0.002883404493331909,0.010395116172730923,-0.0013819142477586865
1772867101829766000,10.445765869140626,-0.004881574306637049,0.0118489358574152,0.0015835155500099063
1772867101839831800,10.455831787109375,-0.006812898442149162,0.01395576260983944,-0.001377386855892837
1772867101849898000,10.46589794921875,-0.0030770162120461464,0.013617541640996933,-0.0008767126128077507
1772867101859964000,10.4759638671875,-0.0027379959356039762,0.012598616071045399,0.0006221143994480371
1772867101870029800,10.48602978515625,-0.0016450346447527409,0.014111025258898735,0.0015837819082662463
1772867101880094700,10.4960947265625,-0.0032621060963720083,0.012828713282942772,-0.0011310444679111242
1772867101890161000,10.506160888671875,-0.004051466938108206,0.010165019892156124,0.00063383235828951
1772867101900226800,10.516226806640624,-0.0032115059439092875,0.013069462962448597,-0.0011896340874955058
1772867101910292700,10.526292724609375,-0.002912965603172779,0.014165353961288929,-0.00048709215479902923
1772867101920359000,10.53635888671875,-0.0020474381744861603,0.012761068530380726,-0.0009685916593298316
1772867101930424800,10.5464248046875,-0.005477323196828365,0.011947207152843475,-0.0014828480780124664
1772867101940490800,10.55649072265625,-0.004254399798810482,0.010722685605287552,0.0034826158080250025
1772867101950556700,10.566556640625,-0.003947869874536991,0.013635118491947651,-0.0007094661123119295
1772867101960622800,10.576622802734375,-0.004550276789814234,0.012985306791961193,-0.00014194648247212172
1772867101970688800,10.586688720703124,-0.004369714763015509,0.012046542949974537,0.0005526058957912028
1772867101980754000,10.59675390625,-0.006435795221477747,0.013160277158021927,-0.0009978864109143615
1772867101990819800,10.60681982421875,-0.006405701395124197,0.010096043348312378,0.001347559504210949
1772867102000885800,10.6168857421875,-0.005514874123036861,0.013765080831944942,0.0026322684716433287
1772867102010951700,10.62695166015625,-0.004248274490237236,0.010494452901184559,0.0016873788554221392
1772867102021017900,10.637017822265625,-0.0049257827922701836,0.011437743902206421,-0.00010386328358436003
1772867102031083800,10.647083740234375,-0.005028048064559698,0.012330436147749424,0.0016277240356430411
1772867102041150000,10.65714990234375,-0.004263454582542181,0.00908643938601017,0.00045140579459257424
1772867102051216400,10.66721630859375,-0.0017566210590302944,0.013540576212108135,-0.00009187905379803851
1772867102061282000,10.677281982421874,-0.002951581496745348,0.011750931851565838,0.0007590008899569511
1772867102071348200,10.68734814453125,-0.003180080559104681,0.011438809335231781,-0.00031611722079105675
1772867102081413400,10.697413330078126,-0.0027867318131029606,0.015021293424069881,0.003914047963917255
1772867102091479300,10.707479248046875,-0.003245061729103327,0.011719506233930588,0.0011052117915824056
1772867102101545200,10.717545166015626,-0.003981692250818014,0.013643373735249043,-0.0013917679898440838
1772867102111611400,10.727611328125,-0.003819771809503436,0.01272777933627367,0.0005009406013414264
1772867102121677000,10.737677001953125,-0.00577879324555397,0.011130415834486485,0.0003880225704051554
1772867102131743200,10.7477431640625,-0.004202468320727348,0.012280101887881756,0.0009408948244526982
1772867102141809200,10.75780908203125,-0.005330583080649376,0.012575712986290455,0.00004660531703848392
1772867102151875300,10.767875244140624,-0.00449861166998744,0.012384231202304363,0.004033091012388468
1772867102161941200,10.777941162109375,-0.0028607675340026617,0.012327772565186024,-0.00029534456552937627
1772867102172007400,10.78800732421875,-0.002275404753163457,0.010310161858797073,0.0016847157385200262
1772867102182072000,10.798072021484375,-0.004253600724041462,0.012226305902004242,-0.00022210762836039066
1772867102192138200,10.80813818359375,-0.0041065942496061325,0.014398380182683468,-0.0006878945278003812
1772867102202204200,10.8182041015625,-0.00313001312315464,0.011476626619696617,-0.0005150553770363331
1772867102212270300,10.828270263671875,-0.003215766977518797,0.013007677160203457,0.00020932445477228612
1772867102222336300,10.838336181640624,-0.007978830486536026,0.011171960271894932,0.00004314320904086344
1772867102232402400,10.84840234375,-0.0034109766129404306,0.016036756336688995,0.00041998049709945917
1772867102242468400,10.85846826171875,-0.004263454582542181,0.014110226184129715,-0.0012367720482870936
1772867102252534300,10.8685341796875,-0.004622715059667826,0.013006346300244331,-0.0015478292480111122
1772867102262600200,10.87860009765625,-0.00498197553679347,0.014185327105224133,0.0022386531345546246
1772867102272666000,10.888666015625,-0.0037790255155414343,0.012978648766875267,0.0007374293054454029
1772867102282732300,10.898732177734376,-0.005148422904312611,0.01215706393122673,0.004459729418158531
1772867102292797400,10.90879736328125,-0.003632019041106105,0.01164280716329813,-0.0008932242053560913
1772867102302863400,10.91886328125,-0.00387276872061193,0.015328356064856052,0.0011555455857887864
1772867102312929300,10.92892919921875,-0.003840810852125287,0.01230540219694376,0.002484995638951659
1772867102322995200,10.9389951171875,-0.004746285732835531,0.01146677229553461,0.001253017340786755
1772867102333061000,10.94906103515625,-0.0024730113800615072,0.013615677133202553,0.0010985539993271232
1772867102343127300,10.959127197265625,-0.003525492735207081,0.01267158705741167,0.0007526093395426869
1772867102353193200,10.969193115234376,-0.0038195056840777397,0.013234579004347324,0.0002008023438975215
1772867102363259400,10.97925927734375,-0.004531634971499443,0.010934140533208847,0.0019017633749172091
1772867102373325300,10.9893251953125,-0.004743888974189758,0.012075304985046387,0.0018679412314668298
1772867102383391500,10.9993916015625,-0.005637113004922867,0.01613263040781021,0.00015446334145963192
1772867102393456000,11.0094560546875,-0.005335909314453602,0.012232697568833828,-0.0016170714516192675
1772867102403522300,11.019522216796876,-0.0009741843095980585,0.011590875685214996,-0.0005334311863407493
1772867102413588200,11.029588134765625,-0.004322843160480261,0.013589312322437763,0.001847434788942337
1772867102423654400,11.039654296875,-0.005115133244544268,0.014021010138094425,0.0013978932984173298
1772867102433720300,11.04972021484375,-0.004738562274724245,0.013203686103224754,0.003171824850142002
1772867102443786500,11.059786376953125,-0.004451207350939512,0.01269635371863842,0.0010271812789142132
1772867102453852200,11.06985205078125,-0.005034439731389284,0.009252354502677917,0.00014913702034391463
