time,seconds_elapsed,z,y,x
1772788751204097300,0.08009716796875,-0.12678747404813764,-0.0025264132050797344,-0.002551419782172888
1772788751214163200,0.0901630859375,-0.053258127456903455,0.014008797738701104,0.006476484271418303
1772788751224228400,0.100228271484375,-0.0043313072025775905,0.027331622507236895,0.00522849350431934
1772788751234294500,0.11029443359375,-0.0072702832639217375,0.021048158323578536,0.009708945120312272
1772788751244359200,0.120359130859375,-0.010301029261946678,0.025516499376669523,0.0023760997478850182
1772788751254425300,0.13042529296875,-0.05310439819991588,-0.009564568213559686,0.0007836794572882354
1772788751264490200,0.140490234375,-0.06973872213661671,-0.024280747036635873,0.00075346698211506
1772788751274556400,0.150556396484375,-0.060523150023818015,0.002044547972269356,0.012392868708353488
1772788751284622300,0.160622314453125,-0.05373451279699802,0.010845986326225101,-0.010754654780961572
1772788751294687200,0.170687255859375,-0.12118424721360206,-0.026589827696606515,-0.018860055428463966
1772788751304753400,0.18075341796875,-0.17264555438160895,-0.04386858701668679,0.002115019392594695
1772788751314818300,0.190818359375,-0.1386760647624731,-0.002221183180809021,0.012720584559068084
1772788751324884500,0.200884521484375,-0.12340250778496265,0.0344295083463192,0.008476772976852953
1772788751334949400,0.210949462890625,-0.16032383294701574,0.018124818222783504,0.013061689614318311
1772788751345015300,0.221015380859375,-0.16880466104447842,-0.011488595078699291,0.012092661919072269
1772788751355081200,0.231081298828125,-0.13779811288416385,-0.019149813888967037,0.0076766538414172825
1772788751365146400,0.241146484375,-0.1368722302109003,0.009572751520015299,0.00643920273464173
1772788751375212500,0.251212646484375,-0.13851590576469897,0.01139711740296334,0.014844280448462813
1772788751385277200,0.261277099609375,-0.09470540561079978,-0.00033135084621608256,0.0257900738873519
1772788751395343400,0.27134326171875,-0.08158522727489471,-0.009366597956046462,0.0044407406601123505
1772788751405408300,0.281408203125,-0.1007481929063797,-0.024147768306732178,-0.001533200916647911
1772788751415474400,0.291474365234375,-0.11703238823115825,-0.00522876749895513,0.008862009434774517
1772788751425539300,0.301539306640625,-0.06896539967656135,-0.0012345832962542772,0.003424969480000436
1772788751435605200,0.311605224609375,-0.01714578059017658,-0.0065516136005520816,-0.02828676780760288
1772788751445671400,0.32167138671875,-0.02275952881872654,-0.027509974748827517,-0.012866148775909095
1772788751455736300,0.331736328125,-0.06486556314229965,-0.03866930134054273,-0.00964156070621684
1772788751465802500,0.341802490234375,-0.09275427154302597,-0.03552727698776871,0.004507138693518937
1772788751475867400,0.351867431640625,-0.10898644441962241,-0.02110631825160235,0.01177422535335645
1772788751485933300,0.361933349609375,-0.10083528666794299,-0.018499277558363975,-0.001263955521211028
1772788751495998500,0.37199853515625,-0.12844693169295787,-0.020037812237255273,0.012607169046159833
1772788751506064400,0.382064453125,-0.1415647719413042,-0.002661145500652492,0.02312867265837267
1772788751516129300,0.39212939453125,-0.15304828898608683,-0.005130531288869679,0.02003090757243335
1772788751526195200,0.4021953125,-0.1751619211167097,0.00380392232760787,0.02307440345417708
1772788751536261400,0.412261474609375,-0.17497545863389968,0.00052420653719455,0.015962470823433248
1772788751546326300,0.422326171875,-0.15265899740755556,-0.013645517384260892,-0.0037265462424606083
1772788751556392400,0.432392333984375,-0.09892039295732974,-0.009326667804457246,-0.005064388983789831
1772788751566457300,0.442457275390625,-0.04576864848434925,-0.003025485301017761,-0.029160920293629166
1772788751576523300,0.452523193359375,-0.04497077610492706,-0.011218509433045983,-0.021582246933970598
1772788751586588400,0.46258837890625,-0.048176878669857974,-0.03243409674540162,-0.01637435782626271
1772788751596654300,0.472654296875,-0.08382394611239433,-0.04257200786750764,-0.009139620799757539
1772788751606720500,0.482720458984375,-0.08145546341538429,-0.05263539244867861,-0.001110500258859247
1772788751616785400,0.492785400390625,-0.06443710859715938,-0.0556307018071413,-0.00979655033852905
1772788751626851300,0.502851318359375,-0.05208499202430248,-0.04553904097955674,-0.027733572637941687
1772788751636916500,0.51291650390625,-0.03617430618703365,-0.021755977799370885,-0.03273830385636538
1772788751646982400,0.522982421875,-0.07099193706810474,-0.02519574298970401,-0.03151665310692042
1772788751657047300,0.53304736328125,-0.13214695525467396,-0.05231452646385878,-0.011181794151850045
1772788751667113200,0.54311328125,-0.18328502181768416,-0.050455344995856286,0.012987948524672537
1772788751677178400,0.553178466796875,-0.18876199192404747,-0.026433468091115353,0.014120605816412717
1772788751687244300,0.563244384765625,-0.17458733609914778,0.004499357245862484,0.01868254343708977
1772788751697310500,0.573310546875,-0.16963877378106115,0.016457067673653365,0.013006214833725244
1772788751707375400,0.583375244140625,-0.08279869471788406,0.018978731638379393,-0.013079809792898595
1772788751717441300,0.593441162109375,-0.015083587363362311,0.04937693864200264,-0.07979357635146006
1772788751727506400,0.60350634765625,-0.04160334549844265,0.04919829413946718,-0.1141730532772839
1772788751737572400,0.613572265625,0.03148760967552662,0.10641447503976523,0.025116978665068745
1772788751747637200,0.62363720703125,0.13240356036424636,0.03818823982533067,-0.02828298668162897
1772788751757703400,0.633703369140625,0.014931027150154113,0.020928258270956575,0.01558726256918162
1772788751767769300,0.643769287109375,-0.13385901986956594,0.01745495613720268,0.10503619069019332
1772788751777834500,0.65383447265625,-0.11712883434295654,-0.07845931380670518,0.0651798897884786
1772788751787900400,0.663900390625,-0.051536710491776466,-0.05572241694489494,-0.022292221834231168
1772788751797965300,0.67396533203125,-0.06094459030628204,-0.04119755944283679,-0.011196425465401262
1772788751808031200,0.68403125,-0.12166764681637286,-0.12921994362575934,0.029185799006558953
1772788751818096400,0.694096435546875,-0.13677403053343296,-0.1573570920959115,-0.007622549034003168
1772788751828162300,0.704162353515625,-0.11539572694003582,-0.17780410618856549,-0.023855781356524674
1772788751838228500,0.714228515625,-0.1429635328233242,-0.19338088389635086,-0.03157052045231685
1772788751848293400,0.72429345703125,-0.14945231032073497,-0.18048892482575027,-0.027361853248719124
1772788751858359300,0.734359375,-0.13774082973897456,-0.16475284663671627,-0.00808965508909896
1772788751868424400,0.744424560546875,-0.09482055642306804,-0.16685202913936226,-0.051039921684470024
1772788751878490400,0.754490478515625,-0.04766425297260284,-0.15596247766604646,-0.10219219943592324
1772788751888555300,0.76455517578125,0.0010427870512008666,-0.12443022513119503,-0.10001739441379905
1772788751898621400,0.774621337890625,-0.027951252242922782,-0.06092520975237712,-0.019082100681308656
1772788751908687400,0.784687255859375,-0.06231470961570739,-0.04375394766107201,0.019619879086129367
1772788751918752500,0.79475244140625,-0.07746843960583209,-0.03929525121916085,0.029030389249138533
1772788751928818400,0.804818359375,-0.07087561721205711,-0.020578294055815786,0.04036907272944227
1772788751938883300,0.81488330078125,-0.03513151913583278,0.04149548294348642,0.05038900176137685
1772788751948949200,0.82494921875,0.016899112352728844,0.03422092536324635,-0.039127694366220385
1772788751959014400,0.835014404296875,-0.07664309469759464,0.03377422277536243,-0.04847522229561582
1772788751969080600,0.84508056640625,-0.184503165435791,0.04026385878929868,0.0788412805953063
1772788751979145200,0.855145263671875,-0.23856910214424132,0.011592859170772135,0.10064606597246602
1772788751989211400,0.86521142578125,-0.2595072607547045,0.008859013760089874,0.107458613797836
1772788751999277300,0.87527734375,-0.2694786196708679,0.013237630703113972,0.14320490383114665
1772788752009342500,0.885342529296875,-0.249662743088603,-0.014122834306117146,0.11089644275940955
1772788752019408400,0.895408447265625,-0.1846861207872629,-0.02314527673330158,0.04879588735103607
1772788752029473300,0.905473388671875,-0.15253858589828012,-0.0009486607606522738,0.012358071389608084
1772788752039539500,0.91553955078125,-0.19900573804080485,-0.02724228198966011,-0.00026067849649116396
1772788752049604400,0.925604248046875,-0.22652912026047706,-0.05871757103973068,0.0004719466269947588
1772788752059670500,0.93567041015625,-0.21113281368613243,-0.060977478795731434,0.00839682134212926
1772788752069736200,0.945736083984375,-0.21204642139971255,-0.05896608417439274,0.03253788591343909
1772788752079801300,0.95580126953125,-0.17225041758418083,-0.05512313587749377,0.04347452793149277
1772788752089867300,0.9658671875,-0.1370809045255184,-0.049673802696727214,0.024415826392080633
1772788752099932700,0.9759326171875,-0.09546645311117172,-0.03189785271054134,0.013909885675180703
1772788752109998600,0.98599853515625,-0.0629635289132595,-0.017724393328884615,0.00648821124183014
1772788752120063700,0.996063720703125,-0.06501520074605942,-0.009403623764496296,0.007924618986807764
1772788752130130000,1.0061298828125,-0.08187982630729675,-0.008317792156012728,-0.007201802871283143
1772788752140195800,1.01619580078125,-0.05847790793180466,0.013662011861335486,-0.003320193931274116
1772788752150260700,1.0262607421875,-0.07411211491525173,0.02041439959784038,0.023281607330916446
1772788752160326700,1.03632666015625,-0.12296645445525646,0.018186476148990913,0.039604591162968425
1772788752170391800,1.046391845703125,-0.15298516062200068,-0.011557194202346726,0.04657019239189103
1772788752180457700,1.056457763671875,-0.16493278804719447,0.002373323268909007,0.04652047149864957
1772788752190522600,1.066522705078125,-0.17452713034451006,0.025929820284759625,-0.009620390054024755
1772788752200588800,1.0765888671875,-0.1895142715960741,0.030961676972126588,0.018910059449495746
1772788752210654700,1.08665478515625,-0.21196341929137705,0.004400710043823346,0.03995859223240986
1772788752220719900,1.096719970703125,-0.18426468050479888,-0.006125259680952877,0.024673162154015153
1772788752230785800,1.106785888671875,-0.11840016945302485,0.03582944740527309,-0.014354085778724402
1772788752240850700,1.1168505859375,-0.07647825952470302,0.002491625019488856,-0.031278588301036504
1772788752250916600,1.12691650390625,-0.06344868208169936,-0.04752614140985533,-0.014862930350005625
1772788752260981800,1.136981689453125,-0.046699791854619976,-0.042464053981006146,-0.018434623957471922
1772788752271048000,1.1470478515625,-0.07125146478712559,-0.04034558225600049,-0.010044606815464794
1772788752281113600,1.157113525390625,-0.12199439455270766,-0.022399280671589077,0.0003127192109823227
1772788752291178800,1.1671787109375,-0.1405582252472639,-0.010229041737969964,0.001149142635660246
1772788752301244700,1.17724462890625,-0.12768237706124783,0.0022266539403703062,-0.007642614574497565
1772788752311309800,1.187309814453125,-0.11779109764397144,-0.014107865065848454,-0.023238599306251852
1772788752321375700,1.197375732421875,-0.11672726780474185,-0.010402407277189194,-0.008382226561196148
1772788752331441700,1.207441650390625,-0.09772095403969287,-0.0037330764479469505,-0.010840734762372448
1772788752341506800,1.2175068359375,-0.08695873700678348,-0.0023832327415701,-0.0030756902514491227
1772788752351572700,1.22757275390625,-0.092813892775774,0.01016309122913517,0.015874929537298157
1772788752361638000,1.237637939453125,-0.08460136022567749,0.02199416133626364,0.030551260407175866
1772788752371703600,1.24770361328125,-0.0760831227272749,0.034523269310686736,0.010594678446277976
1772788752381768700,1.257768798828125,-0.06082184070944786,0.014153704368416219,-0.00922944537452422
1772788752391834600,1.267834716796875,-0.03688566932678222,0.00705453988770023,-0.03324594285124913
1772788752401900800,1.27790087890625,-0.04948445413708687,0.03007127660419792,-0.051835181981697676
1772788752411966000,1.287966064453125,-0.05896481466591358,0.02823498282143846,-0.05986286861733533
1772788752422031600,1.298031494140625,-0.10330781426131724,0.04064830979593098,-0.036241535337502136
1772788752432096800,1.3080966796875,-0.14584171860814094,0.03327873087599873,0.001056979973334819
1772788752442162700,1.31816259765625,-0.13837152885794637,0.0379892466545105,0.002211374172847718
1772788752452227800,1.328227783203125,-0.12997078025937078,0.04828614773061126,-0.0067532005872577424
1772788752462293500,1.33829345703125,-0.14428922846913336,0.057426608780585225,-0.0055375685866456475
1772788752472359700,1.348359619140625,-0.14797697707116603,0.040964737067651004,0.013067708363151177
1772788752482424800,1.3584248046875,-0.12713175744116306,0.026011954743415115,0.008129082917189225
1772788752492490800,1.36849072265625,-0.10436170722842215,0.02229789352319203,0.02195835023736581
1772788752502556000,1.378555908203125,-0.07292553547918797,0.01955641279532574,0.0268543603843078
1772788752512621600,1.38862158203125,-0.04673603221178055,0.016852076606918124,0.01914291835729964
1772788752522686700,1.398686767578125,-0.0586982726842165,0.01832977534350939,-0.00863249326152727
1772788752532752600,1.408752685546875,-0.057336336681246755,0.019490992009453475,-0.022822127459850163
1772788752542818800,1.41881884765625,-0.04879530282914638,-0.0013013466558419167,-0.036641503573674704
1772788752552883700,1.4288837890625,-0.06495382594764232,-0.008871370918164029,-0.02839978146171197
1772788752562949600,1.43894970703125,-0.07004208899736404,-0.02970728386370465,0.012347714392375201
1772788752573014800,1.449014892578125,-0.08470832773149013,-0.02905788917741738,0.023947350363805887
1772788752583080700,1.459080810546875,-0.08799743240475653,-0.032408797907363625,0.018417261830717326
1772788752593147000,1.46914697265625,-0.09471125082969666,-0.025252953069657087,0.012412130531249567
1772788752603211500,1.47921142578125,-0.11174188060760497,-0.028109264949383213,0.003698196930810809
1772788752613277700,1.489277587890625,-0.1407452722519636,-0.02769284790190868,-0.010511338411225006
1772788752623342800,1.4993427734375,-0.15329145009219647,-0.03562033469923772,-0.010817472617793828
1772788752633408800,1.50940869140625,-0.17362696663439273,-0.03182599305072799,-0.03786452429629862
1772788752643473700,1.5194736328125,-0.16869418640732764,-0.014106613823678343,-0.0079268840091303
1772788752653539600,1.52953955078125,-0.15839666427671908,-0.022583332001604138,0.015196336155990137
1772788752663605800,1.539605712890625,-0.14811083258390426,-0.021010867653647437,0.017508723017899318
1772788752673670700,1.549670654296875,-0.1625046841174364,-0.010566365667246282,0.012098032213933765
1772788752683736800,1.55973681640625,-0.18751520673334598,-0.010444602451100946,-0.00536074158186093
1772788752693801700,1.5698017578125,-0.19021862047314642,-0.01641485423343256,-0.0059938244541641325
1772788752703867600,1.57986767578125,-0.20457740069329738,-0.024705128194857387,0.013307462802622466
1772788752713933800,1.589933837890625,-0.20636603767573833,-0.02076484787017107,0.04679912404324859
1772788752723998700,1.599998779296875,-0.16745558452308176,0.006719435314973816,0.028073097657458856
1772788752734065000,1.61006494140625,-0.12496610383987426,0.017529994134791196,0.0352445053904783
1772788752744129500,1.620129638671875,-0.10927169110178947,0.019703940640389918,0.050613138506608084
1772788752754195700,1.63019580078125,-0.08519698803126811,0.03862529780203476,0.025031528871320187
1772788752764261600,1.64026171875,-0.059331309890747065,0.04061610629307106,-0.014289459577295929
1772788752774326800,1.650326904296875,-0.026584640064835546,0.027195757700502872,-0.009221736992103978
1772788752784393000,1.66039306640625,0.003310147461295128,0.04676973355198279,0.00996019820133224
1772788752794457600,1.67045751953125,0.007920856127142906,0.05398198475204408,0.03118895552251488
1772788752804523800,1.680523681640625,-0.0018237082958221435,0.03247453835364431,0.07660175804020837
1772788752814588700,1.690588623046875,-0.0021364275068044662,0.03256241756649688,0.07428243911401368
1772788752824654800,1.70065478515625,-0.004091068705916404,0.04523709889091551,0.05131596214687451
1772788752834720800,1.710720703125,-0.04673486316800117,0.047311420946940776,0.04858239986398257
1772788752844785700,1.72078564453125,-0.08114157516062259,0.045268663072958584,0.04001962910410948
1772788752854851800,1.730851806640625,-0.1136053363919258,0.03406885834038258,0.014828215229650958
1772788752864916700,1.740916748046875,-0.14741466701328754,0.019523579104803502,0.0008943641569931059
1772788752874983000,1.75098291015625,-0.13453823430538175,0.011631729876436292,-0.0025552465739194304
1772788752885048600,1.761048583984375,-0.1138970128148794,0.002992953004594892,-0.007617881992040202
1772788752895113700,1.77111376953125,-0.08159224153757094,-0.006843107360415161,-0.025772026774007827
1772788752905179600,1.7811796875,-0.05257540588974952,-0.021837591668218373,-0.029848811226245015
1772788752915244800,1.791244873046875,-0.08835457527935504,-0.02288423291062936,-0.034220413906592875
1772788752925311000,1.80131103515625,-0.11022913795709609,-0.01320703463545069,-0.051005206564115356
1772788752935376600,1.811376708984375,-0.1409551156103611,-0.008894760926906019,-0.055108605028642337
1772788752945441800,1.82144189453125,-0.17648001797795296,-0.006939115080796181,-0.021796894331648945
1772788752955507700,1.8315078125,-0.1894096421778202,-0.01313479138314724,0.013994403887167573
1772788752965572900,1.84157275390625,-0.17839140455722807,-0.015415869791340082,0.05121796339880675
1772788752975638500,1.851638427734375,-0.17632278158962725,0.0015539149111136793,0.08138596010943874
1772788752985703700,1.86170361328125,-0.16329086605906484,0.00581305192662403,0.08004500296241604
1772788752995769900,1.871769775390625,-0.16384323924481867,-0.008763590561598538,0.0749960398766212
1772788753005835800,1.881835693359375,-0.17709259691834447,-0.018386501366272567,0.056789890912780534
1772788753015901000,1.89190087890625,-0.14215864618122576,0.004345938516128808,0.029025895737111566
1772788753025966600,1.901966552734375,-0.09077157329320908,0.027502412496879694,0.006550627219863236
1772788753036031700,1.91203173828125,-0.045231472867727274,0.030730763426236807,-0.010087925367383286
1772788753046097700,1.92209765625,-0.010481062003970145,0.03080605715215206,-0.02272889621844515
1772788753056163800,1.932163818359375,0.004656301373243332,0.03615507176360115,-0.05009001881480217
1772788753066228700,1.942228759765625,0.019485621714591977,0.03588935176581144,-0.0629643965629395
1772788753076294700,1.952294677734375,-0.00355272404551506,0.01511476795291528,-0.06859244731147773
1772788753086359800,1.96235986328125,-0.05967091710865497,0.018285981867555527,-0.041503958510886875
1772788753096425700,1.97242578125,-0.10471183584034442,0.027519162702281025,-0.01734389697816223
1772788753106491400,1.982491455078125,-0.1413642809331417,0.008678049436304718,-0.004357144896732643
1772788753116556300,1.992556396484375,-0.17156535792946814,-0.004387037711497396,0.007241541226627304
1772788753126622500,2.00262255859375,-0.18618132778108118,-0.010586349009349941,-0.006060140289179981
1772788753136687600,2.0126875,-0.18551263473927973,-0.00014695245632901787,-0.024778403493622318
1772788753146753300,2.022753173828125,-0.1719640018582344,-0.007660323761124164,-0.01958981274142861
1772788753156819500,2.0328193359375,-0.11547522191703319,-0.01795642111962661,-0.03517911200406961
1772788753166884400,2.04288427734375,-0.08054711639881133,-0.018998477518465368,-0.06251361145498231
1772788753176950500,2.052950439453125,-0.07062427279949188,-0.01820609416491352,-0.06626710963645019
1772788753187015200,2.06301513671875,-0.0662532181084156,-0.021449733994947744,-0.048508220382919534
1772788753197081300,2.073081298828125,-0.09301379926204681,-0.027785284558869895,-0.029777956213429567
1772788753207147300,2.083147216796875,-0.1079413192808628,-0.031731309637753294,-0.016875046490551902
1772788753217212400,2.09321240234375,-0.12000935821533203,-0.035157091968506575,-0.006386559231951833
1772788753227278600,2.103278564453125,-0.1036363155633211,-0.032181482824357226,0.004149064237158745
1772788753237343200,2.11334326171875,-0.08172726609408855,-0.022847060971707103,-0.004954279672820121
1772788753247409400,2.123409423828125,-0.058785366445779794,-0.011984945494588464,-0.029646904579130932
1772788753257475300,2.133475341796875,-0.05724398222267627,-0.012145634215325116,-0.02528322034375742
1772788753267540500,2.14354052734375,-0.08158931892812252,-0.03030151429665275,0.008061223579058424
1772788753277606400,2.1536064453125,-0.09605915830731392,-0.03718915491853841,0.024799638077896088
1772788753287671300,2.16367138671875,-0.12564590279757976,-0.032879164498625324,0.015371665323432534
1772788753297737500,2.173737548828125,-0.1374263569623232,-0.03949105691905133,0.014031329230917617
1772788753307803400,2.183803466796875,-0.1834609629064798,-0.025375556536018848,0.05332740243398584
1772788753317868500,2.19386865234375,-0.2736135275185108,-0.07751691839005798,0.08025174104827455
1772788753327934500,2.2039345703125,-0.26215982109010216,-0.16574162021204827,0.0220124459116254
1772788753337999400,2.213999267578125,-0.1649836414515972,-0.09396833264105953,-0.08482632808797061
1772788753348065300,2.224065185546875,-0.11676233911812305,0.016933891405165196,-0.11106505905827507
1772788753358131500,2.23413134765625,-0.10327566555738449,0.007983463901421056,-0.10900292063038795
1772788753368196600,2.244196533203125,-0.10297171417474746,-0.05668436644538306,-0.12495448646731674
1772788753378262500,2.254262451171875,-0.12960954573154448,-0.057225597182614725,-0.09032866096445359
1772788753388327400,2.264327392578125,-0.1706172634243965,-0.05243754092217423,-0.03438857354773208
1772788753398393300,2.274393310546875,-0.12978431777656077,-0.04126007588556967,-0.03975068966934923
1772788753408459500,2.28445947265625,-0.09015373365581035,-0.02190558800366707,-0.05701384042834397
1772788753418524400,2.2945244140625,-0.10139642768204211,-0.007952465974958613,-0.03982799268926028
1772788753428590300,2.30459033203125,-0.09797171393036842,-0.02115750958272256,-0.01813065887510311
1772788753438655500,2.314655517578125,-0.15543372281789777,-0.02921493376949802,0.030633271568245253
1772788753448721400,2.324721435546875,-0.20017244373261928,-0.08684321173517964,0.006240264362748712
1772788753458787300,2.334787353515625,-0.13867021954357622,-0.06486799256140366,-0.0992110464669764
1772788753468852500,2.3448525390625,-0.14300386483371258,0.0411991577448789,-0.11867717802980914
1772788753478918400,2.35491845703125,-0.12129998254776,0.0646672366917599,-0.07241652651112526
1772788753488983300,2.3649833984375,-0.08223755370378494,0.02427296558897942,-0.058592675151582806
1772788753499049500,2.375049560546875,-0.07714636804461479,0.03321288083186373,-0.044007767158513886
1772788753509115400,2.385115478515625,-0.09974281525611876,0.04582436072696,-0.01657029139031656
1772788753519180300,2.39518017578125,-0.15152151781022546,0.02244993314659223,-0.0011452930110273881
1772788753529246200,2.40524609375,-0.1817582506418228,0.015412746252492069,0.019070825802045874
1772788753539311400,2.415311279296875,-0.1460141525655985,0.023805019283667204,0.03623045682106167
1772788753549377500,2.42537744140625,-0.10892273153364658,0.013014489471726119,0.035931549223011824
1772788753559443500,2.435443359375,-0.08111176454424858,0.025352723649702966,0.03853616734701209
1772788753569508400,2.44550830078125,-0.0585410362958908,0.028458315849071367,0.04157626569527201
1772788753579574300,2.45557421875,-0.050181204229593275,0.027575313336309044,0.015207936403882922
1772788753589639400,2.465639404296875,-0.05049041630923748,0.03807656874493696,0.020275845077098346
1772788753599705300,2.475705322265625,-0.06486088696718216,0.00895245506404899,0.033257537390920335
1772788753609771500,2.485771484375,-0.06037818859517574,-0.012807221662905066,0.019875917940121144
1772788753619836400,2.49583642578125,-0.031955811709165574,-0.010556757588684558,0.02479688443180639
1772788753629902300,2.50590234375,-0.03571954815685749,-0.010780666005052626,0.02188870993410237
1772788753639967500,2.515967529296875,-0.07092120991945267,-0.029287222687574103,0.023391184635635
1772788753650033400,2.526033447265625,-0.1134574523538351,-0.01746494780825451,0.03708680878891609
1772788753660099600,2.536099609375,-0.09838380186259746,0.0038173480647616088,0.06032812064206227
1772788753670164200,2.546164306640625,-0.10245265873670577,-0.0039943668657913805,0.05802914125099778
1772788753680230400,2.55623046875,-0.1337403619259596,0.008540102270338685,0.06810085983567406
1772788753690295600,2.566295654296875,-0.15334405706226825,0.0062907524409703906,0.06376222327658906
1772788753700361500,2.576361572265625,-0.15901801104545593,0.013499697439093142,0.03777418141501257
1772788753710427400,2.586427490234375,-0.1301227559506893,0.020122074720915407,0.047631136154290286
1772788753720492300,2.5964921875,-0.12727613434791565,0.034646292902156706,0.0511866184124723
1772788753730558500,2.606558349609375,-0.10947744280695915,0.041400735598430036,0.06416803216508124
1772788753740624400,2.616624267578125,-0.07941255941092967,0.03228451394056901,0.07677400020142085
1772788753750689500,2.626689453125,-0.08002455382943154,0.034633506485819816,0.07279962581088766
1772788753760755200,2.636755126953125,-0.10202186610400676,0.04588153427429497,0.04502403609554749
1772788753770820400,2.6468203125,-0.0969265887916088,0.04610043772198259,0.035159955212450585
1772788753780886500,2.656886474609375,-0.06743453684747219,0.03340451268013567,0.04101226600380614
1772788753790952400,2.666952392578125,-0.031055063477158546,0.023190979038551447,0.03181810200521722
1772788753801017300,2.677017333984375,-0.006943535527586937,0.019650895278900862,0.004408731236786116
1772788753811083300,2.687083251953125,-0.012912673065066337,0.02218624070910737,-0.02020354930915637
1772788753821148400,2.6971484375,-0.07260171035230159,0.01660509784221649,-0.018688507386995477
1772788753831214300,2.70721435546875,-0.1399222654312849,0.0026779413718264547,0.022037036930187603
1772788753841280500,2.717280517578125,-0.1960235073596239,-0.00776200317046605,0.020490120298729743
1772788753851345400,2.727345458984375,-0.2470487611979246,-0.0259045123135671,0.02285911901897052
1772788753861411300,2.737411376953125,-0.23224223721027373,-0.023581074334681033,0.027638626646774352
1772788753871476500,2.7474765625,-0.24542612843215464,-0.026287173221912232,-0.005577062630106229
1772788753881542400,2.75754248046875,-0.1939759271800518,-0.021115049547329543,-0.051285041852225544
1772788753891608600,2.767608642578125,-0.1355003573358059,-0.02175223320601508,-0.0741203530206345
1772788753901673200,2.777673095703125,-0.0842173293441534,-0.02165569576267153,-0.06967043354022316
1772788753911739400,2.787739501953125,-0.03713467565178871,-0.025772994888387617,-0.051522339473129244
1772788753921804500,2.797804443359375,-0.04392448192238808,-0.025049594250973313,-0.010579298214055597
1772788753931870500,2.807870361328125,-0.05550093794763088,-0.01364003749154508,0.021608621200954074
1772788753941936400,2.817936279296875,-0.08053367239534855,-0.009902732393052428,0.03106921986667439
1772788753952001300,2.828001220703125,-0.11078560279607773,-0.0015960187534801661,0.039587283835140985
1772788753962067500,2.8380673828125,-0.10990940448343753,0.010987769417092204,0.03973153744430746
1772788753972133400,2.84813330078125,-0.07387479902803898,0.02962389816287905,0.04651547566312365
1772788753982198500,2.858198486328125,-0.047880526071786875,0.049650714082084595,0.024820009579067118
1772788753992264400,2.868264404296875,-0.06455576654076575,0.06256601749565452,0.030607525205635464
1772788754002329300,2.878329345703125,-0.10608487775921821,0.04386760063599795,0.03383282109480351
1772788754012395300,2.888395263671875,-0.15703998897075652,0.037719471536111084,0.05139044302203692
1772788754022461400,2.89846142578125,-0.14991934331059456,0.034728180765639986,0.05729380358061753
1772788754032526600,2.908526611328125,-0.14635551334917543,0.04242890960238874,0.04184941551426891
1772788754042592300,2.91859228515625,-0.1490372997790575,0.03790155010474845,0.016296086691971867
1772788754052657400,2.928657470703125,-0.10935995390713214,0.018048136257380245,-0.016426631436194293
1772788754062723300,2.938723388671875,-0.044995910546183585,-0.007389598794654012,-0.05862713454361073
1772788754072789500,2.94878955078125,0.010219780719280242,0.028159670829214153,-0.0683151464737486
1772788754082854400,2.9588544921875,0.04236439299881458,0.03708137456197291,-0.06833974205888807
1772788754092920300,2.96892041015625,0.022272037562727928,0.02107208718843758,-0.035672128818556664
1772788754102986800,2.97898681640625,-0.0397229385793209,0.01101582646779716,-0.025226813981402665
1772788754113052000,2.989052001953125,-0.13538053034842013,0.009009290684666485,-0.007809134814399294
1772788754123117600,2.99911767578125,-0.17850480180382727,0.01945924516431987,-0.006178487705532461
1772788754133182700,3.0091826171875,-0.18152444188594816,0.028566972988471388,-0.02451122219110839
1772788754143249000,3.019248779296875,-0.18829671249985694,0.035867907118983564,-0.0021099139592144637
1772788754153314800,3.029314697265625,-0.14839783283174038,0.04177510360246524,0.010935555172665043
1772788754163379700,3.039379638671875,-0.11136194137930869,0.03459934848789126,0.006051153265126049
1772788754173445600,3.049445556640625,-0.12324702496230601,0.029448413731809703,0.015174453117744997
1772788754183510800,3.0595107421875,-0.13180793255865572,0.03245269184801727,0.013522420727554708
1772788754193576700,3.06957666015625,-0.1395779820382595,0.017199428739864377,0.008530603789631276
1772788754203643000,3.079642822265625,-0.142077982160449,0.013725724747311324,0.021972616224735973
1772788754213707800,3.089707763671875,-0.08799217170774937,0.02981741144098341,0.02470361209120601
1772788754223773700,3.099773681640625,-0.04513678032159805,0.024196758547611535,0.028645591182634232
1772788754233839900,3.10983984375,-0.010835866791009903,0.01848778804996982,0.028695074613858014
1772788754243904800,3.11990478515625,0.0009925181686878204,0.02241402158299461,0.012735645130882038
1772788754253971000,3.129970947265625,0.012948913422226906,0.02602488729022443,0.008615231599472462
1772788754264035600,3.14003564453125,-0.040939328631758684,0.006260046775452792,0.004321178534207866
1772788754274101800,3.150101806640625,-0.09287292948663234,-0.003180931591056287,0.0032888398117851465
1772788754284167700,3.160167724609375,-0.14045593391656874,0.011113770416937768,-0.0055214851015247405
1772788754294232800,3.17023291015625,-0.18412673333883284,0.012161361507419496,0.004158014728594571
1772788754304298800,3.180298828125,-0.20309154604971408,0.003894176160637289,0.0024449454667046667
1772788754314363600,3.19036376953125,-0.18448387621343135,0.009574815612938254,-0.0028318532919045535
1772788754324429800,3.200429931640625,-0.14925883357524872,0.0055116395609453315,-0.01123286675196141
1772788754334495700,3.210495849609375,-0.11239537608027457,-0.006982260102778672,-0.030542300782585515
1772788754344561000,3.220560791015625,-0.10008885221481323,-0.007513261706940829,-0.043264428844768554
1772788754354626800,3.230626708984375,-0.08480360479950905,0.0011391235651448369,-0.04318307983740233
1772788754364692700,3.240692626953125,-0.07445815187394618,-0.01717913487050682,-0.03697363073802553
1772788754374758000,3.2507578125,-0.08865501953065395,-0.030076336371805516,-0.024413168644113466
1772788754384823800,3.26082373046875,-0.08071312061548233,-0.03026610505655408,-0.0011690346462186426
1772788754394889000,3.270888916015625,-0.07532149070501327,-0.027333175143506375,-0.001341285940585658
1772788754404954600,3.28095458984375,-0.07666472200751304,-0.03450790734477341,-0.011152686788374557
1772788754415020800,3.291020751953125,-0.07621171754300594,-0.027525775106158105,-0.008074146992713213
1772788754425085700,3.301085693359375,-0.07486147197782993,-0.04778197933444753,-0.008166802845383063
1772788754435152000,3.31115185546875,-0.07529284913241863,-0.044329683456104246,-0.017981628626119343
1772788754445216800,3.321216796875,-0.08184767760336399,-0.034328586988803,-0.02165486464560963
1772788754455282700,3.33128271484375,-0.09661854575574398,-0.048984560057241465,-0.011154650416597724
1772788754465348600,3.3413486328125,-0.08326105153262614,-0.06072979677813127,0.0088578447163105
1772788754475413800,3.351413818359375,-0.048207273808121676,-0.0611539404743351,-0.013165752776991575
1772788754485480000,3.36147998046875,-0.05909925470054149,-0.052148704910278315,-0.014489612658740951
1772788754495545900,3.3715458984375,-0.08106909444630146,-0.047509080677200104,-0.008220944185415283
1772788754505610800,3.38161083984375,-0.09466916525363922,-0.03341359103573486,-0.021464328775880857
1772788754515676700,3.3916767578125,-0.10272796854674815,-0.03290220744749531,-0.027907285237032918
1772788754525741800,3.401741943359375,-0.17033201674222945,-0.04629435285888612,-0.02556329766046256
1772788754535807700,3.411807861328125,-0.23898002103269098,-0.06367140318797901,-0.015920325881871394
1772788754545874000,3.4218740234375,-0.2634878548234701,-0.05388716434175148,-0.02507078316947445
1772788754555938800,3.431938720703125,-0.25133798282444475,-0.028726949323154984,-0.053009472758346235
1772788754566004700,3.442004638671875,-0.24727263308167455,-0.014582378109265118,-0.05361622931272723
1772788754576071000,3.45207080078125,-0.23259411938786506,-0.0457790968131274,-0.02253613642558921
1772788754586135800,3.4621357421875,-0.18725509449243544,-0.06857009848235175,-0.009268640307174064
1772788754596201700,3.47220166015625,-0.16676818678081035,-0.040152489103004334,0.011775426363176666
1772788754606266600,3.4822666015625,-0.16797873161435126,-0.03276504573281854,0.048370090553862974
1772788754616332800,3.492332763671875,-0.16529519161880016,-0.03978811277002096,0.06998273262609728
1772788754626398700,3.502398681640625,-0.1467453894495964,-0.050152854917943475,0.06757139260147232
1772788754636463900,3.5124638671875,-0.13342881175875662,-0.048640861186105756,0.05801503052725456
1772788754646529800,3.52252978515625,-0.07073767004609108,-0.021011643971782176,0.04227682887979317
1772788754656594700,3.5325947265625,-0.007764788782596587,-0.02263957396717742,0.03249502630253555
1772788754666660900,3.542660888671875,0.029152444726228712,-0.026431860655918717,0.013111504122393671
1772788754676726800,3.552726806640625,0.03508241929709911,-0.022164138475153593,0.03182227357354713
1772788754686791700,3.562791748046875,0.005545943689346313,-0.008723349882755428,0.03525098079703748
1772788754696857600,3.572857666015625,-0.05181611195504665,-0.007399535666778683,0.053940419765794646
1772788754706923800,3.582923828125,-0.08418108898699284,0.010002612570952623,0.06603419592971912
1772788754716989000,3.592989013671875,-0.15454758763313292,0.00744629741795361,0.06998786545894109
1772788754727054800,3.603054931640625,-0.1598117917716503,0.010659414245560765,0.07038021664423867
1772788754737119700,3.61311962890625,-0.12871522724032403,0.005356540330778807,0.07567904457156546
1772788754747185700,3.623185546875,-0.09971125107407569,0.006277564165834337,0.05859183490136638
1772788754757251800,3.633251953125,-0.09824760826230049,0.010513612566702068,0.04753476310772821
1772788754767316700,3.643316650390625,-0.10801496903896331,0.0218472362793982,0.019952821384521667
1772788754777383000,3.6533828125,-0.15086100807487965,0.017591989987716078,0.002439520372916013
1772788754787448800,3.66344873046875,-0.19446575652360915,0.02089758913805708,-0.014690848018997348
1772788754797513700,3.673513671875,-0.19904490100741384,0.030918431485444306,-0.0022244231673772446
1772788754807579600,3.68357958984375,-0.19542028076946735,0.05140541226230561,0.004763109048851765
1772788754817644800,3.693644775390625,-0.19463994404673576,0.04012554629715159,-0.04966552805872634
1772788754827711000,3.7037109375,-0.23078268605172633,0.0196322636436671,-0.011352476826927159
1772788754837776600,3.713776611328125,-0.23170038541853427,0.022057061371486632,0.03538048892822116
1772788754847841800,3.723841796875,-0.12289105113148689,0.015712788644991815,0.009272535597579554
1772788754857907700,3.73390771484375,0.05103109905719757,0.0019337262752465903,-0.06658018047388177
1772788754867974000,3.743973876953125,0.0759130268573761,0.03780625477042049,-0.003948799274570774
1772788754878038800,3.754038818359375,0.07533435018658638,0.020462997113075105,0.020994058082741685
1772788754888104700,3.764104736328125,0.08655541690289974,-0.01240273251524195,-0.007484888420760398
1772788754898169900,3.774169921875,0.06260697056055069,-0.015430702034290878,-0.00920443537249812
1772788754908235800,3.78423583984375,-0.013700024050474166,-0.005629146727081388,0.008281524399388581
1772788754918301700,3.7943017578125,-0.06574117693305015,-0.011943188712093978,0.011099706500611501
1772788754928366600,3.80436669921875,-0.08469137659668922,-0.014774740609899162,-0.007266759007918881
1772788754938432800,3.814432861328125,-0.14164602048397062,-0.027362583901081233,-0.007430756213882705
1772788754948498700,3.824498779296875,-0.16764263152778147,-0.011838595826458185,-0.014062832905811956
1772788754958563800,3.834563720703125,-0.17782091119289398,-0.0015157748578116298,-0.03500180094209499
1772788754968629800,3.844629638671875,-0.1733668543934822,-0.008365019698068498,-0.038684316246584055
1772788754978694700,3.854694580078125,-0.18748481159508226,-0.004535067880060524,-0.022917573491227812
1772788754988760800,3.8647607421875,-0.22523498879671094,-0.006650726593472063,-0.007727308599709067
1772788754998826800,3.87482666015625,-0.25189737027287484,-0.007672945780679583,0.012615203938854392
1772788755008892000,3.884891845703125,-0.25668928072452546,-0.005918685991875827,0.009085146099585108
1772788755018957800,3.894957763671875,-0.2225537868887186,-0.0104115586980246,0.02555806892949622
1772788755029024000,3.90502392578125,-0.1580254928767681,-0.016697890692204235,-0.0045093991492642085
1772788755039088600,3.915088623046875,-0.09843933144211768,0.007958137663919479,-0.0460647088214755
1772788755049154800,3.92515478515625,-0.07150047111213206,0.024229784034378827,-0.06282412500914651
1772788755059219700,3.9352197265625,-0.05103109905719757,0.010697207238990813,-0.07485802421199624
1772788755069286000,3.945285888671875,-0.062008420145511625,0.01889256945857778,-0.05831875814760569
1772788755079351600,3.9553515625,-0.07762450695037841,0.02135919703412801,-0.04686570017316844
1772788755089416700,3.965416748046875,-0.10070961446166038,0.016918967830669134,-0.031632411273964677
1772788755099482600,3.975482666015625,-0.12242694075107574,0.02276170250950381,-0.022885358571924735
1772788755109548500,3.985548583984375,-0.11525193455517291,0.029534155786503105,-0.048919047939823934
1772788755119613700,3.99561376953125,-0.08892448412179946,0.019601357048749924,-0.05223429170134477
1772788755129679600,4.0056796875,-0.06320026027858257,0.008542184629570692,-0.04888841077296529
1772788755139744500,4.01574462890625,-0.027009587478637694,0.019827694884222,-0.051569795344048174
1772788755149810400,4.025810546875,-0.017167407900094984,0.021324801574181766,-0.03913191845018882
1772788755159876600,4.035876708984375,-0.03021569004356861,0.003320668855309486,-0.027856463798671027
1772788755169941800,4.045941650390625,-0.062113049563765524,0.0025778511313721535,-0.02264172939164564
1772788755180007700,4.056007568359375,-0.08905892415642738,0.004052745989523827,-0.015702706784039035
1772788755190072600,4.066072509765625,-0.10057985060214995,-0.00008948664804920554,-0.018532129515195263
1772788755200138500,4.076138427734375,-0.11210194609165192,0.012125997933093458,-0.028535774132609364
1772788755210204700,4.08620458984375,-0.11360007569491863,0.015153766522742806,0.0036576206085388546
1772788755220269600,4.09626953125,-0.14144202234447,-0.01137936255056411,0.013271580921777057
1772788755230335700,4.106335693359375,-0.153874218416214,-0.020566932411585002,0.045989949385100044
1772788755240401400,4.1164013671875,-0.13383856160342691,-0.020009389860369264,0.056704979975149034
1772788755250466600,4.126466552734375,-0.11934884847998618,-0.018176347480621188,0.04077626985742245
1772788755260532700,4.13653271484375,-0.15544249064624308,-0.01983695590291172,0.04307248646924272
1772788755270597600,4.14659765625,-0.1761246286690235,-0.01931680448632687,0.03744710260182619
1772788755280663600,4.15666357421875,-0.18198796774446963,-0.021984690255019812,0.02660471245519584
1772788755290729500,4.1667294921875,-0.20130174002349374,-0.023841661499626934,0.01895445799693698
1772788755300794600,4.176794677734375,-0.21327508641183376,-0.029679720003344116,0.002601841645024251
1772788755310860500,4.186860595703125,-0.17002222014069557,-0.030284316566679625,-0.007267680314881727
1772788755320926700,4.1969267578125,-0.1315641869306564,-0.028253303929418324,-0.021140398617717437
1772788755330991600,4.20699169921875,-0.09207797971665858,-0.007491177739296108,-0.016624374506488675
1772788755341057500,4.2170576171875,-0.07056582061052322,-0.007649108247365802,-0.007150489384221146
1772788755351122700,4.227122802734375,-0.07361059513390064,-0.015263821034785359,-0.009794964594574412
1772788755361188600,4.237188720703125,-0.0947615197122097,-0.024082868110667913,-0.009762077246769332
1772788755371254800,4.2472548828125,-0.09884440511167049,-0.014156115521211177,-0.02149952795342542
1772788755381319400,4.2573193359375,-0.049503158837556835,0.015082984575163572,-0.04500999843704048
1772788755391385600,4.267385498046875,-0.043104397711157795,0.032087274335417894,-0.03389514574129134
1772788755401451500,4.277451416015625,-0.0597439823448658,0.03973718630038202,-0.017059846739238126
1772788755411516700,4.2875166015625,-0.0763660313218832,0.010441789439506828,0.00271859075933462
1772788755421582600,4.29758251953125,-0.0739694915741682,0.0028583303068764505,0.011989163870335324
1772788755431648500,4.3076484375,-0.09087269558012485,0.011866470214072614,0.04234958815532736
1772788755441713700,4.317713623046875,-0.09879881240427493,0.025072080077417194,0.05432014893153682
1772788755451779600,4.327779541015625,-0.1254354749172926,0.028704335632547734,0.05056418479834683
1772788755461844700,4.3378447265625,-0.1424894855707884,0.013591156848520039,0.030965538013202603
1772788755471910700,4.34791064453125,-0.14216741400957106,-0.011297292023990303,0.022700549190083984
1772788755481976600,4.3579765625,-0.12313245867192744,-0.007734740704204887,-0.0017669731399044394
1772788755492041500,4.36804150390625,-0.07102817742526531,-0.0013618446714244782,-0.03666898295235587
1772788755502107600,4.378107666015625,-0.006818447843194008,-0.02304793557235971,-0.06014067634514067
1772788755512173600,4.388173583984375,0.003803483936190605,-0.03218527308348566,-0.053539647812023757
1772788755522238500,4.398238525390625,-0.02404313888847828,-0.015083587363362311,-0.04123338880804367
1772788755532304600,4.4083046875,-0.060412675386667246,-0.016234931089263407,-0.020927726264705414
1772788755542369500,4.41836962890625,-0.09572305822074413,-0.028950145353469996,0.013587140543817076
1772788755552435700,4.428435791015625,-0.12682780605852603,-0.012849471635743974,0.03815192183635663
1772788755562501600,4.438501708984375,-0.149698394036293,0.010375519270263612,0.03822926367217442
1772788755572566500,4.44856640625,-0.16660218256413936,-0.00024957258058711884,0.0390235718380427
1772788755582632400,4.458632568359375,-0.1829354777276516,-0.005436236237175762,0.054317039092420596
1772788755592698600,4.46869873046875,-0.1762427020907402,0.001734276446700096,0.06661980923137162
1772788755602763800,4.478763671875,-0.15847265212237835,-0.0038614246685057876,0.06562650104481726
1772788755612829700,4.48882958984375,-0.1538689577192068,-0.010485701646469532,0.07226487961336969
1772788755622895600,4.4988955078125,-0.16752105097472667,-0.020314528553094714,0.05683593571132514
1772788755632960500,4.50896044921875,-0.1337304250538349,-0.03093925507776439,0.042502696357807145
1772788755643026700,4.519026611328125,-0.10621054996550082,-0.031594266654085365,0.028422561832389327
1772788755653091600,4.529091552734375,-0.08630524153411388,-0.022664251750707624,0.008711657161673065
1772788755663157800,4.53915771484375,-0.08675649243295193,-0.02020014492580667,-0.012298411340953316
1772788755673223400,4.549223388671875,-0.10128712208867073,-0.031113387801963835,-0.007830721025122328
1772788755683288600,4.55928857421875,-0.09743804544508457,-0.007957333946321159,-0.026338268654909916
1772788755693354500,4.5693544921875,-0.09030570934712887,0.027732001735363155,-0.04828752683694474
1772788755703420700,4.579420654296875,-0.0746446143567562,0.0501121758476831,-0.04329162737894803
1772788755713485800,4.58948583984375,-0.09967033454179763,0.04765539381271228,-0.03613828274229308
1772788755723551500,4.599551513671875,-0.11883972991406917,0.03767053609415889,-0.014115641946927644
1772788755733617700,4.60961767578125,-0.13096154486238956,0.026115232454799114,-0.023021933481423184
1772788755743682600,4.6196826171875,-0.14264379934966565,0.017143862627726048,-0.01950398392176721
1772788755753748700,4.629748779296875,-0.13323767310082912,0.03414782359441742,-0.011502904448553453
1772788755763814700,4.639814697265625,-0.060685647109150885,0.012717698482237756,0.014050170928705483
1772788755773880800,4.649880859375,-0.036301731958985325,0.0037992826851084827,-0.002488764058833476
1772788755783945500,4.659945556640625,-0.01445405728816986,0.006507847524061799,-0.027808560403180308
1772788755794011600,4.67001171875,-0.00966565396785736,0.007436543208919465,-0.022393663781555367
1772788755804077600,4.68007763671875,-0.045295770275592805,-0.0019772366234101354,-0.028895602154638617
1772788755814142700,4.690142822265625,-0.0616349106580019,-0.010503803558740765,0.0021411950134672224
1772788755824208400,4.70020849609375,-0.10041092377603053,-0.012998689114395529,0.0036009705051226774
1772788755834273500,4.7102734375,-0.126885673725605,-0.005150478098355234,0.007708253985256305
1772788755844339700,4.720339599609375,-0.15229133313894272,-0.0073055189740844064,0.002366715431609191
1772788755854405600,4.730405517578125,-0.1592763697206974,-0.01948103687101975,-0.005989269293344114
1772788755864470800,4.740470703125,-0.18347206882238387,-0.01726586330588907,-0.013147029810212553
1772788755874536400,4.750536376953125,-0.19226503160893915,-0.010379099466837943,-0.023971105698728932
1772788755884602600,4.7606025390625,-0.16412264070808885,0.00377685165759176,-0.024157483699859584
1772788755894667500,4.77066748046875,-0.156056238630414,0.001737381719239056,-0.024271613882109522
1772788755904733700,4.780733642578125,-0.1866074442386627,-0.01008285646662116,-0.04768256038085092
1772788755914799600,4.790799560546875,-0.198619369071722,-0.0050472551858983935,-0.053782484691147686
1772788755924864500,4.800864501953125,-0.19420096810758114,0.009004778906330465,-0.0500346307991771
1772788755934930700,4.8109306640625,-0.1827735651642084,0.012502667492069304,-0.020422327175969257
1772788755944995600,4.82099560546875,-0.15878127968013286,-0.0030752975258044896,0.01224622335434542
1772788755955061800,4.831061767578125,-0.13088204988539218,-0.00842038488080725,0.053719972814992065
1772788755965127700,4.841127685546875,-0.11357961742877959,-0.00805577108580619,0.05234137337158899
1772788755975192600,4.851192626953125,-0.07934124774038791,-0.011371745499689131,0.02806899458778789
1772788755985258500,4.861258544921875,-0.03685644323229789,-0.009482388089131563,0.019104814836615695
1772788755995324700,4.87132470703125,-0.01352642104923725,-0.018907675696164368,0.007475235818070359
1772788756005389600,4.8813896484375,0.028051790007948874,-0.020981449762918054,0.008580370919467532
1772788756015455700,4.891455810546875,-0.000709025052189827,-0.0011487316437065601,0.0035531201960926407
1772788756025521400,4.901521484375,-0.039810616862773894,-0.010699636658094822,0.027380646997445728
1772788756035586600,4.911586669921875,-0.09659048870503902,-0.03257275629742071,0.025250804495054763
1772788756045652700,4.92165283203125,-0.14231471352577207,-0.027889365987852213,0.02699983326960355
1772788756055717600,4.931717529296875,-0.18235329392552374,-0.009723667765408754,0.022329928062693214
1772788756065783600,4.941783447265625,-0.21639000356197355,-0.001254402241576463,0.004766059057763778
1772788756075849500,4.951849365234375,-0.22197101856470106,-0.005003543908335268,0.007325579948001541
1772788756085914600,4.96191455078125,-0.18685294343233108,-0.024696798757929354,-0.002333023224561475
1772788756095980500,4.97198046875,-0.16266659668087957,-0.020025519011262802,-0.010159153697889996
1772788756106046700,4.982046630859375,-0.16080664802789688,-0.0029629231925122437,-0.011305635160650127
1772788756116112000,4.99211181640625,-0.17004443197250366,0.002611168879084289,-0.015450486730283592
1772788756126177800,5.002177734375,-0.14591010766923426,-0.0015991057597100735,0.0015078986536769662
1772788756136243700,5.01224365234375,-0.10559680198132991,-0.004951265731826424,-0.004257258439788711
1772788756146308600,5.02230859375,-0.0776683460921049,0.0010005918772891162,-0.024725038471724838
1772788756156374800,5.032374755859375,-0.05690963570177555,0.029701822237297892,-0.030298534604988523
1772788756166440700,5.042440673828125,-0.06834171482026577,0.004644574402831494,-0.0289151608050568
1772788756176505900,5.052505859375,-0.06918634895086288,-0.025264606974832713,-0.01365983360398095
1772788756186571800,5.06257177734375,-0.07111644023060798,-0.01227554420530796,0.00648463903676602
1772788756196636700,5.07263671875,-0.09999182158112525,0.0053049380077049135,-0.003216631950455485
1772788756206702600,5.08270263671875,-0.15518705458045004,0.007666077648475766,0.0036525596992869392
1772788756216768800,5.092768798828125,-0.15349720179736615,-0.007324936060607433,0.01335376104620518
1772788756226834000,5.102833984375,-0.12080839963853358,-0.008644896085374056,-0.0005564956633781549
1772788756236899800,5.11289990234375,-0.10547346786260604,0.01233366760071367,-0.01013941923424718
1772788756246965800,5.1229658203125,-0.08865092787742614,0.03550685525424778,0.007567355097911786
1772788756257030700,5.13303076171875,-0.1095534306526184,0.03009736089352518,0.015273585518618345
1772788756267096800,5.143096923828125,-0.15439268933236597,0.025412819806486367,0.02744069977174513
1772788756277162800,5.153162841796875,-0.21613222940862178,0.031280798524431885,0.02083749298127368
1772788756287227600,5.1632275390625,-0.20335107376873493,0.02772409242354333,0.0002387486508290749
1772788756297293600,5.17329345703125,-0.16076514697372912,0.031034970537200567,-0.038438259930489584
1772788756307358700,5.183358642578125,-0.08882219279110432,0.062404068399593234,-0.0751305210104445
1772788756317425000,5.1934248046875,-0.005629530319571495,0.07097264784574508,-0.04939185764992143
1772788756327490800,5.20349072265625,0.05960778874456882,0.030253610901162027,-0.06720627648297231
1772788756337555700,5.2135556640625,0.05359715015292167,0.014954079232178627,-0.09746179164685308
1772788756347621600,5.22362158203125,-0.022472528570890424,0.027213147226721048,-0.10184061865243128
1772788756357687800,5.233687744140625,-0.08882453087866306,0.006784143714793026,-0.07219143535124603
1772788756367752700,5.243752685546875,-0.11178221261799334,-0.017246574083529413,-0.05241696849160362
1772788756377819000,5.25381884765625,-0.10659984154403208,-0.0033574572017416354,-0.00928685752552119
1772788756387884500,5.263884521484375,-0.09704173960387706,-0.011388130378909409,-0.004440245186479296
1772788756397949700,5.27394970703125,-0.05845569609999656,-0.010407741039432584,0.0005568838224455249
1772788756408015600,5.284015625,-0.14272270980477333,-0.012531637858226894,-0.020206049510207956
1772788756418081800,5.294081787109375,-0.179240130341053,-0.041704248589649794,-0.047590840676520016
1772788756428147000,5.30414697265625,-0.18609949471652507,-0.04037464395370334,-0.040942520669265646
1772788756438212600,5.314212646484375,-0.14492168115377424,-0.036919388933293516,-0.03086403670037398
1772788756448277800,5.32427783203125,-0.10735387478172778,-0.03429872157350183,-0.01033468721966492
1772788756458343700,5.33434375,-0.07759528085589408,-0.03464614677168429,-0.009848849064635578
1772788756468409900,5.344409912109375,-0.06282558174729347,-0.045564467681758106,-0.014499332618445623
1772788756478474500,5.354474609375,-0.06571545796990394,-0.03188373285364359,-0.022882614058989566
1772788756488540700,5.364540771484375,-0.06440262180566787,-0.04279332246799022,-0.018467163103760686
1772788756498606600,5.374606689453125,-0.048264556953310965,-0.054756110929697746,-0.005212298138055484
1772788756508671700,5.384671630859375,-0.04871113167703151,-0.035083697938732804,-0.0011787386229028924
1772788756518738000,5.394738037109375,-0.06904898630678653,-0.01680142413191497,-0.004706993805797538
1772788756528803800,5.404803955078125,-0.09943126508891582,0.0010810001697391272,0.01694862432506052
1772788756538868700,5.41486865234375,-0.12160276488661766,-0.0219451071633026,0.054437674363981926
1772788756548934700,5.4249345703125,-0.15065934802293776,-0.022602621223963795,0.06829558782333042
1772788756559000800,5.435000732421875,-0.19122282907962798,-0.02602623899709433,0.05038116551479324
1772788756569065700,5.445065673828125,-0.18926760335862636,-0.035689701007865365,0.04711846479126252
1772788756579132000,5.4551318359375,-0.17307985414564608,-0.028734803836047648,0.030127144110435617
1772788756589196800,5.46519677734375,-0.15449790327250956,-0.008021320826932788,0.014089217447594274
1772788756599262700,5.4752626953125,-0.09553601121604442,-0.004542173474282026,0.004250962842209265
1772788756609328600,5.48532861328125,-0.058740942782163616,-0.0038387013800442217,0.01959327649028273
1772788756619393800,5.495393798828125,-0.06613631373047828,-0.008963825841434299,0.008503344748303061
1772788756629459700,5.505459716796875,-0.11380933453142643,-0.0076433178273960945,0.010241417162353172
1772788756639525600,5.515525634765625,-0.1555067880541086,-0.006562354190275073,0.013594049775216261
1772788756649590800,5.5255908203125,-0.15411621047854424,-0.004230331046134233,0.02989400435813004
1772788756659656700,5.53565673828125,-0.12935352514386175,-0.0015162863144651054,0.05600422956096008
1772788756669723000,5.545722900390625,-0.11186463020443915,0.00018017887249588966,0.06987760088434443
1772788756679787500,5.55578759765625,-0.11318448063135146,0.0011612257990986107,0.05690061214510351
1772788756689853700,5.565853759765625,-0.10744389115273952,-0.006939261211268604,0.036604879624024034
1772788756699919600,5.575919677734375,-0.0999199253886938,-0.00023713322412222622,0.0021684483465738594
1772788756709984800,5.58598486328125,-0.10082944144904613,0.0015574951076880097,0.008153740151121747
1772788756720050700,5.59605078125,-0.10792612171173095,0.0069603405319154255,0.005695003621082287
1772788756730116900,5.606116943359375,-0.12058394323289394,0.01629961208961904,-0.00872355309544364
1772788756740181800,5.616181640625,-0.11093757848739623,-0.0006082315588369965,-0.016374593004991764
1772788756750247700,5.62624755859375,-0.09901333193778991,-0.00444795585218817,-0.022351840783690565
1772788756760312800,5.636312744140625,-0.10708908636569976,0.013080905771441756,-0.03373574936192017
1772788756770378800,5.646378662109375,-0.11483341688215731,0.023289507509581742,-0.03225808030808112
1772788756780444700,5.656444580078125,-0.10566402199864387,0.011244557189755141,-0.025329475204856133
1772788756790509800,5.666509765625,-0.08408873452842235,0.0024146964589133856,-0.023645474490534977
1772788756800575700,5.67657568359375,-0.08362520866990089,0.013226013330556452,-0.02541255266171647
1772788756810641700,5.6866416015625,-0.07074877596199512,0.015833017491176722,-0.027104702433163763
1772788756820706800,5.696706787109375,-0.02793079397678375,-0.002104534531198442,-0.03689295073422836
1772788756830772700,5.706772705078125,-0.009334230056405067,-0.005948496608249843,-0.04955345511953346
1772788756840838700,5.716838623046875,-0.024698387926816938,-0.008371011047437786,-0.05701506883762777
1772788756850903800,5.72690380859375,-0.05608545983731746,-0.012909421662054955,-0.036748646892711984
1772788756860969700,5.7369697265625,-0.06203647719621658,-0.03512560085169971,-0.03460056091415463
1772788756871036000,5.747035888671875,-0.06231120248436928,-0.05508512368835509,-0.03234116918138461
1772788756881100500,5.7571005859375,-0.07261515435576439,-0.05421363808345049,-0.0016891038644127547
1772788756891166700,5.767166748046875,-0.0951841290384531,-0.06039090194627642,-0.01667194796677213
1772788756901232600,5.777232666015625,-0.09350772025883197,-0.06903353300932795,-0.015045424477173946
1772788756911297800,5.7872978515625,-0.09347966320812702,-0.060034014800004656,-0.005310358534916303
1772788756921363700,5.79736376953125,-0.10018529832661151,-0.05573131263740361,-0.031748247072822415
1772788756931428600,5.8074287109375,-0.1374427235752344,-0.05785685342401266,-0.027120646637678145
1772788756941494800,5.817494873046875,-0.1777279722124338,-0.05206226873584091,-0.021298466123105025
1772788756951560700,5.827560791015625,-0.2539689158499241,-0.05512841484081,0.0016435385564807802
1772788756961625900,5.8376259765625,-0.2775567121863365,-0.04712576218172908,0.0018685566511237994
1772788756971691800,5.84769189453125,-0.27181553818583487,-0.0278690173195675,-0.007223393648583441
1772788756981757700,5.8577578125,-0.2355325109273195,-0.010944368666782974,-0.0012414011961081996
1772788756991822600,5.867822509765625,-0.1887427027016878,-0.0031528380077332258,0.012821108624362386
1772788757001888800,5.877888671875,-0.12608312517106532,0.012612667205184697,0.012652031101193279
1772788757011954700,5.88795458984375,-0.11640870337486267,0.01894541389066726,0.012363514749705791
1772788757022019600,5.89801953125,-0.11991641923487185,0.018912498001754284,0.03477459545694291
1772788757032085800,5.908085693359375,-0.11760872681438922,0.007250701780617237,0.0412535000143107
1772788757042151700,5.918151611328125,-0.11396364831030369,0.013023878354579209,0.023859717746125532
1772788757052216800,5.928216796875,-0.08905249441564082,0.03439023578185588,0.012718305837013758
1772788757062282800,5.93828271484375,-0.05935001459121704,0.026783852431364354,0.0272022650731029
1772788757072349000,5.948348876953125,-0.02694529007077217,0.014481675947457551,0.027213946377742104
1772788757082413600,5.95841357421875,0.013115502160787582,0.01843775662947446,0.029112414109939706
1772788757092479700,5.968479736328125,0.019082301610708237,0.017005933728069068,0.03098705800855532
1772788757102549200,5.97854931640625,-0.03912964886128902,0.0014340513911098242,0.024983826405229045
1772788757112614100,5.9886142578125,-0.10152969867289066,0.0014353665653616188,0.02811767201812472
1772788757122680000,5.99868017578125,-0.12396715593039989,-0.021993330219201742,0.008658769347099587
1772788757132745200,6.0087451171875,-0.12273439926505088,-0.030560740621574222,-0.008762161222915165
1772788757142811400,6.018811279296875,-0.08707739495038985,-0.000748188018798828,-0.03737526577489916
1772788757152877300,6.028877197265625,-0.04050502886772155,-0.0004017492013052106,-0.055868172957981
1772788757162942200,6.038942138671875,-0.03286474324762821,-0.012793832458369432,-0.05848282156893983
1772788757173008100,6.049008056640625,-0.09052782766520977,-0.0105111283486709,-0.04621668907937128
1772788757183074300,6.05907421875,-0.14462649759948254,-0.017399974546954036,-0.017102206309931353
1772788757193139200,6.06913916015625,-0.17089432680010794,-0.009514555059373379,-0.013163935279240832
1772788757203205400,6.079205322265625,-0.17005787597596644,-0.0005721373321488499,0.008123877019109204
1772788757213271000,6.08927099609375,-0.1584130308896303,0.010099624938331544,0.019970327358460053
1772788757223336200,6.099336181640625,-0.15584697979390622,-0.00954893225301057,0.01455377306928858
1772788757233402400,6.10940234375,-0.14486965870559215,-0.015424144429340958,0.007869167039101012
1772788757243468300,6.11946826171875,-0.12371347343027592,-0.019699191400036214,0.022950064688455313
1772788757253533200,6.129533203125,-0.10600012208521366,-0.006172514622472226,0.03804346562635619
1772788757263599000,6.13959912109375,-0.09128536803424357,-0.013073453117348253,0.028100241392711174
1772788757273665300,6.149665283203125,-0.06313245573937892,-0.011758388463407755,0.027464528171904385
1772788757283730200,6.159730224609375,-0.04637596672773361,-0.015440730237960814,0.023586951519618742
1772788757293796400,6.16979638671875,-0.05522329005002975,-0.030307825306430457,0.01513630393128842
1772788757303862300,6.1798623046875,-0.08457914839386939,-0.03814476600978523,0.04043369893087074
1772788757313927200,6.18992724609375,-0.10435469296574593,-0.04059625081513077,0.042147571910358964
1772788757323993000,6.1999931640625,-0.13113923951685427,-0.056293988021463154,0.03586970635042526
1772788757334058200,6.210058349609375,-0.1463666192650795,-0.0757017952594906,0.0222661375449039
1772788757344124400,6.22012451171875,-0.1301613343954086,-0.06177494018319994,0.026450693220552057
1772788757354190300,6.2301904296875,-0.08793956473767757,-0.02644464707225561,0.0008931859800592064
1772788757364255200,6.240255126953125,-0.08376081774830818,-0.012501571513526141,-0.01192315057106316
1772788757374321200,6.250321044921875,-0.12930033365190027,-0.009292436741292476,0.007688636540155857
1772788757384387300,6.26038720703125,-0.2049251912176609,-0.027860066828131674,0.040911417711526156
1772788757394452200,6.2704521484375,-0.23742694637179373,-0.033996706419624385,0.05624238569838926
1772788757404518100,6.28051806640625,-0.2320259641110897,-0.032268348257057364,0.05723628297341056
1772788757414584000,6.290583984375,-0.19084230532944202,-0.02561941176187247,0.047518697888916356
1772788757424649200,6.300649169921875,-0.13170681027173994,-0.008469831779412925,0.022991976734576744
1772788757434715400,6.31071533203125,-0.06735211926102638,-0.009605119419656694,-0.0019575546754058448
1772788757444781300,6.32078125,-0.020527824243903158,0.002345576745457947,-0.004277170429122634
1772788757454846200,6.33084619140625,-0.01068389109969139,0.004813062837533653,-0.004728448727424256
1772788757464912100,6.340912109375,-0.027344518521428107,-0.005098528715409338,-0.01117549227522686
1772788757474978300,6.350978271484375,-0.03367430606484413,-0.011115414384752512,0.0007282138098496944
1772788757485043200,6.361043212890625,-0.027117724028229713,-0.036406653638184065,0.0073086516460869454
1772788757495109400,6.371109375,-0.016046879437565803,-0.04328574562743306,-0.0008424239072017371
1772788757505175300,6.38117529296875,-0.03397533483803272,-0.03238273188434541,-0.002296906164987013
1772788757515240200,6.391240234375,-0.07179214753508567,-0.03570917289331555,-0.01134287559823133
1772788757525306000,6.40130615234375,-0.10228022477924824,-0.0406092564271763,-0.007074349699867889
1772788757535372300,6.411372314453125,-0.13157704641222953,-0.03346913888156414,-0.0015759623461402952
1772788757545437400,6.4214375,-0.16837679102122782,-0.03896664031930268,0.006291775354277342
1772788757555503000,6.431503173828125,-0.19711656329333782,-0.03309102628417313,0.01847371385884471
1772788757565569300,6.4415693359375,-0.22004092728495597,-0.04077759873140603,0.006041545186564326
1772788757575634200,6.45163427734375,-0.22546061424612998,-0.03655260144751519,0.003911775749409571
1772788757585700400,6.461700439453125,-0.19645371547043322,-0.030185806361958382,-0.013728903085086494
1772788757595765200,6.47176513671875,-0.17956220190227032,-0.03544211945496499,-0.00869299127710983
1772788757605831200,6.4818310546875,-0.1556342138260603,-0.038348837214522064,-0.0006066423899494111
1772788757615897000,6.49189697265625,-0.1415951670795679,-0.026266879352554676,0.0057387993803247805
1772788757625962200,6.501962158203125,-0.09959142408668994,-0.016391783885098994,0.008259294301271439
1772788757636028400,6.5120283203125,-0.07900748574137688,-0.016100911179743705,0.021096116517996415
1772788757646094300,6.52209423828125,-0.060389294511079786,-0.01882726740371436,0.0078691807388328
1772788757656159200,6.5321591796875,-0.046106502136588096,-0.020070508930459616,0.006521574655314907
1772788757666225200,6.54222509765625,-0.0458797076433897,-0.009997004814073443,0.014528894356358795
1772788757676291300,6.552291259765625,-0.07000643316209317,-0.01361241883225739,0.021414754013111815
1772788757686356200,6.562356201171875,-0.09529635724127292,-0.024284181102737782,0.027940018462855366
1772788757696422400,6.57242236328125,-0.09992869321703911,-0.016797040217742323,0.048495644029136746
1772788757706488000,6.582488037109375,-0.0879559313505888,-0.01961195150800049,0.037980369228310884
1772788757716553200,6.59255322265625,-0.08541793730556964,-0.01014631362427026,0.018458333626622334
1772788757726619100,6.602619140625,-0.09754559747278689,0.0018478563563898204,0.012375995205366051
1772788757736685300,6.612685302734375,-0.12001052725911139,-0.000007708382420241832,-0.008068050612066871
1772788757746750200,6.622750244140625,-0.15579203473627568,-0.0023593860751017926,-0.027480027135135605
1772788757756816100,6.632816162109375,-0.16284779846668243,-0.010826112581975758,-0.00898770447394345
1772788757766882300,6.64288232421875,-0.14807342318296432,-0.005850333463400602,-0.009258886098139919
1772788757776947200,6.652947265625,-0.1640028137207031,0.01104655039962381,0.004778813508059829
1772788757787013400,6.663013427734375,-0.17409984484314917,0.0010530892495065928,0.016352091195527465
1772788757797079300,6.673079345703125,-0.1596416959017515,-0.021699023447744548,-0.008166154391411691
1772788757807144200,6.683144287109375,-0.10236790306270122,0.013343721426092088,-0.025495292191859333
1772788757817210000,6.693210205078125,-0.04253039721548557,0.05429653059393167,-0.04552418590371962
1772788757827276300,6.7032763671875,-0.00632511136829853,0.04995601717159152,-0.03819835479396861
1772788757837341200,6.713341064453125,-0.011270166555047034,0.017420250150002536,-0.030896416016458532
1772788757847407400,6.723407470703125,-0.010520224970579146,0.012371624990925192,0.006761991248489357
1772788757857473000,6.73347314453125,-0.014535890352725981,0.006803542535007,0.022501996693969704
1772788757867538200,6.7435380859375,-0.021525603109598158,-0.003692242114059627,0.023645134280528873
1772788757877604400,6.753604248046875,-0.025513795962929724,0.012918883610144257,0.026966278059873727
1772788757887670300,6.763670166015625,-0.05927285770177841,0.0038922947308048603,0.011687350787501782
1772788757897735200,6.773735107421875,-0.09961129783093929,-0.014919154049269854,-0.0023271917053963986
1772788757907801000,6.783801025390625,-0.14026011908352373,-0.023505597945675253,-0.0024941457701381296
1772788757917867300,6.7938671875,-0.13499591494500637,-0.019505531991459428,-0.030519166502170264
1772788757927932200,6.80393212890625,-0.13677812218666077,-0.001107267122156918,-0.047037819036794826
1772788757937998300,6.813998291015625,-0.16879355512857436,-0.007114435115084051,-0.021283273120550436
1772788757948063200,6.824063232421875,-0.17103753466308116,-0.047669513669610024,-0.002597688343003392
1772788757958129200,6.834129150390625,-0.17656711173951625,-0.060216312564350664,0.010898657228378579
1772788757968195000,6.844195068359375,-0.18553017039597033,-0.05163827117010951,0.003485759756527841
1772788757978260200,6.85426025390625,-0.17534253838062286,-0.04965758221428841,-0.004763689004164189
1772788757988326400,6.864326416015625,-0.15782207925915717,-0.03740023125279695,0.003277103708218783
1772788757998392300,6.874392333984375,-0.15392448729872701,-0.02680420109964907,-0.004549260802194476
1772788758008457200,6.884457275390625,-0.15619360127449033,-0.025150296412780878,-0.0006861647664103657
1772788758018523100,6.894523193359375,-0.16358780317902563,-0.03298690832257271,0.015606341728987172
1772788758028589300,6.90458935546875,-0.16594868709146976,-0.027073848353885113,0.030488606967125086
1772788758038654200,6.914654296875,-0.1584562855094671,-0.019064619823545216,0.0372480363657698
1772788758048720100,6.92472021484375,-0.1244546471863985,-0.009811090320535003,0.03839506010957993
1772788758058786000,6.9347861328125,-0.09252104730904102,-0.008366188741847871,0.028131969971535727
1772788758068851200,6.944851318359375,-0.0907873553842306,-0.005824212641455233,0.043113658729847515
1772788758078917400,6.95491748046875,-0.10369009157717227,0.004017784273996949,0.043089391938271
1772788758088983300,6.9649833984375,-0.07604045262932776,0.004281440178863704,0.028946309428568927
1772788758099048200,6.975048095703125,-0.07564414678812026,-0.009560951484367251,0.02654900249587372
1772788758109110500,6.985110595703125,-0.08889116637408732,-0.0009353446213528513,0.024512080707633867
1772788758119176400,6.995176513671875,-0.08255611813366413,0.01665755868181586,0.01052061769622378
1772788758129241300,7.005241455078125,-0.09793664261698723,0.02108154913652688,0.010565571082802488
1772788758139307500,7.0153076171875,-0.13412439280748367,0.01984565066602081,0.031270176665717735
1772788758149373400,7.02537353515625,-0.13888181646764278,0.014613558698818087,0.049935330576589325
1772788758159438300,7.035438232421875,-0.1476473067253828,0.020270123155787585,0.04053210867089219
1772788758169504500,7.04550439453125,-0.16549918975830077,0.018329985406063495,0.03297622253177687
1772788758179570400,7.0555703125,-0.1484405029296875,0.016418744957260787,0.012021971303038299
1772788758189635600,7.065635498046875,-0.13777999270558355,0.01531925928276032,-0.015800275132199747
1772788758199701500,7.075701416015625,-0.12366671167910098,-0.004957366679050028,-0.010540121547714807
1772788758209767700,7.085767578125,-0.06576631137430668,0.011348200227320193,-0.007502589615876786
1772788758219832300,7.095832275390625,-0.06372983711063862,0.010000037021376192,-0.004444014896010049
1772788758229898500,7.1058984375,-0.07026245374977588,0.012071984457224606,-0.0002964119635755196
1772788758239964400,7.11596435546875,-0.08519231185615062,-0.004327836603857577,-0.01153556232585106
1772788758250029600,7.126029541015625,-0.09904314255416392,-0.012862075388990342,-0.014130958247068337
1772788758260095500,7.136095458984375,-0.06286065306067466,-0.007918408441729844,-0.006947873775986954
1772788758270161400,7.146161376953125,-0.04219605069458485,-0.0075444605628028506,-0.007947652802523224
1772788758280226600,7.1562265625,-0.03334112858772278,-0.008039769799076021,-0.005355709213716909
1772788758290292500,7.16629248046875,-0.049044893676042554,-0.0070332961702719325,-0.002461348612233996
1772788758300357600,7.176357666015625,-0.07779577186405658,-0.01867335548363626,0.003882111263507977
1772788758310423300,7.18642333984375,-0.11463701752722262,-0.01759516832549125,0.004014980395557359
1772788758320489500,7.196489501953125,-0.11689385654330253,-0.0018048209322616457,-0.0018303846317809073
1772788758330554400,7.206554443359375,-0.10521920084059237,0.0025306875213980673,-0.01598173264632933
1772788758340620500,7.21662060546875,-0.11882219425737857,-0.004173449759744107,-0.03409720765203237
1772788758350686500,7.2266865234375,-0.1421533854842186,-0.013845606533624231,-0.031929161164257674
1772788758360751400,7.23675146484375,-0.15250000745356082,-0.008524411510862409,-0.016041883602039887
1772788758370817500,7.246817626953125,-0.14895546671450138,-0.005537358524091541,-0.012502128635952249
1772788758380883500,7.256883544921875,-0.13764905980229378,-0.004189377981238067,-0.0033854046545922756
1772788758390948600,7.266948486328125,-0.1396656603217125,-0.021736871240101752,-0.008899546699877827
1772788758401014500,7.2770146484375,-0.1449549989014864,-0.0306834536857903,-0.023676625397335737
1772788758411080700,7.287080810546875,-0.14812953728437422,-0.02049286252837628,-0.042585479270434004
1772788758421145300,7.297145263671875,-0.13694295735955236,-0.018404183153435588,-0.04006818095357157
1772788758431211500,7.30721142578125,-0.12562369096577167,-0.015818988965824246,-0.0321198888302315
1772788758441277400,7.31727734375,-0.12943126655519008,-0.019200849956460295,-0.030524134938232597
1772788758451342600,7.327342529296875,-0.1404582720041275,-0.009448686748929321,-0.02035771010769531
1772788758461408300,7.337408203125,-0.1249994215875864,-0.01569452233593911,-0.01543137788772583
1772788758471474400,7.347474365234375,-0.11341887390911579,-0.015917152110673485,-0.010707637301459908
1772788758481539600,7.35753955078125,-0.10943827984035015,0.00204714178815484,0.006083758626785129
1772788758491605500,7.36760546875,-0.0934802477300167,-0.0042771658625453705,-0.009284600494708865
1772788758501671700,7.377671630859375,-0.08547054427564144,0.000496770540997386,-0.0036705691383685916
1772788758511736300,7.387736328125,-0.07254092007577419,0.01654500168543309,0.003726098717888817
1772788758521802500,7.397802490234375,-0.09269114317893981,0.024217947466112673,-0.006784828701382502
1772788758531868400,7.407868408203125,-0.10431436095535755,0.017649967252649366,0.0023957634295802563
1772788758541933600,7.41793359375,-0.10334873079359531,0.02785363708734512,0.009823675807472319
1772788758551999500,7.42799951171875,-0.10562895068526268,0.02925119239296764,0.0029105902170762418
1772788758562065700,7.438065673828125,-0.07944938428997993,0.034958573721721765,-0.013555236151767893
1772788758572130600,7.448130615234375,-0.08379764262735843,0.038060046868398784,-0.021931964553939177
1772788758582196500,7.458196533203125,-0.11300035623610019,0.023012590264342724,-0.010253226331155746
1772788758592262400,7.468262451171875,-0.10451777457296847,0.010354220753908157,-0.004765479102451354
1772788758602327600,7.47832763671875,-0.09335925169885158,0.026169848718866705,-0.0104282632376533
1772788758612393500,7.4883935546875,-0.08206395070254802,0.03659212974030524,-0.008458260072628036
1772788758622458400,7.498458251953125,-0.08615794201791285,0.02956566516961902,0.008589768364652991
1772788758632524500,7.508524658203125,-0.07720774284303188,0.008998349165543913,0.0191529556941241
1772788758642590500,7.518590576171875,-0.08855623533129692,0.001990662360563874,0.02576829131380655
1772788758652655600,7.528655517578125,-0.09687690443098544,0.0006746478585526347,0.03458666253625415
1772788758662721300,7.53872119140625,-0.11328151126503944,-0.004370689364895224,0.03104124501436017
1772788758672787500,7.548787353515625,-0.12447510545253752,-0.014087598595954477,0.03468551066769287
1772788758682852600,7.5588525390625,-0.11653612914681434,-0.005932787582464516,0.03424142016200349
1772788758692918500,7.56891845703125,-0.12657003190517424,-0.013546112130396068,0.02132080125249922
1772788758702984400,7.578984375,-0.14511457337737083,-0.025674429884739218,-0.00500706930598244
1772788758713049300,7.58904931640625,-0.11874854449927806,-0.020558255914784967,-0.022663585030427202
1772788758723115500,7.599115478515625,-0.07800444617867469,-0.03336366921309381,-0.04359353293497115
1772788758733181400,7.609181396484375,-0.07990881849527358,-0.03206624981369823,-0.061764354857103895
1772788758743246600,7.61924658203125,-0.08064882320761681,-0.019891133775562047,-0.04919166346928105
1772788758753312500,7.6293125,-0.09608955344557761,-0.030619083212688563,-0.03134950724593363
1772788758763378400,7.63937841796875,-0.10543839654922485,-0.010352576786093413,-0.013140417406335472
1772788758773443600,7.649443603515625,-0.1396522163182497,-0.009845905905589461,0.01322809568978846
1772788758783509500,7.659509521484375,-0.19271043728888035,-0.008382372691668569,0.03661385751492344
1772788758793575400,7.669575439453125,-0.206375974547863,-0.0012694354139268398,0.03741703625712543
1772788758803640300,7.679640380859375,-0.20909049420356748,0.0028087738104164597,0.043156264895712955
1772788758813706500,7.68970654296875,-0.19605273345410823,0.01320325350947678,0.059703796464949846
1772788758823772400,7.6997724609375,-0.12015958034098148,0.010356522308848797,0.03539467271720059
1772788758833837600,7.709837646484375,-0.05893208144009113,0.022711232697591184,0.010448164381366223
1772788758843903500,7.719903564453125,-0.03858195185065269,0.02139532779343426,-0.0006004135785624385
1772788758853968400,7.729968505859375,-0.042486558073759076,0.015923143460042775,-0.01688637160216458
1772788758864034300,7.740034423828125,-0.06467033283114433,0.018055406248383223,-0.006238209402980283
1772788758874100500,7.7501005859375,-0.08821429002583027,0.009971724242344498,0.009995972767611964
1772788758884165600,7.76016552734375,-0.14152619349658488,-0.0022966961024329063,0.019785079585202037
1772788758894231600,7.7702314453125,-0.16007424210011958,-0.015184052063152194,0.047590073491539805
1772788758904297500,7.78029736328125,-0.13502689460515976,-0.02323960395324975,0.03247975338487886
1772788758914362400,7.7903623046875,-0.07059212409555912,-0.014954408025741576,-0.02500480526117608
1772788758924428500,7.800428466796875,-0.027139351338148116,-0.014578779646381735,-0.035611347675183785
1772788758934494500,7.810494384765625,-0.026830723780393598,-0.019990210235863923,-0.023407754461234435
1772788758944559600,7.8205595703125,-0.04034019369482994,-0.026081768576614556,-0.008928343536099418
1772788758954625300,7.830625244140625,-0.10488543884158134,-0.028870960903726515,0.011310918690543622
1772788758964691500,7.84069140625,-0.14980886867344378,-0.04176591564901173,0.027534515535039824
1772788758974756400,7.85075634765625,-0.18555588935911654,-0.04518018107190728,0.03128146524471231
1772788758984822500,7.860822509765625,-0.19178513913750647,-0.04415065536107868,0.03734690276351757
1772788758994888400,7.870888427734375,-0.1709007565408945,-0.04613265949115157,0.03502876201425679
1772788759004953300,7.880953369140625,-0.12265315072238445,-0.025186463704705238,0.008035732944775373
1772788759015019500,7.89101953125,-0.08014028916358948,-0.009873999488912523,0.003105793128767982
1772788759025085400,7.90108544921875,-0.07465045957565307,-0.015018267042189835,-0.016147800795082
1772788759035150600,7.911150634765625,-0.10181962153017521,-0.0090495678961277,-0.022825004403525962
1772788759045216500,7.921216552734375,-0.12647943101227282,-0.01884852938745171,-0.020554027264239265
1772788759055281400,7.931281494140625,-0.16551438732743262,-0.023298421468399465,-0.0013596253148745745
1772788759065347300,7.941347412109375,-0.17502338942885398,-0.022257862906903028,0.018667574196821076
1772788759075413500,7.95141357421875,-0.15784078395962714,-0.015270707433298229,0.023693932725163177
1772788759085478700,7.961478759765625,-0.13491817353367805,-0.033397608015313746,0.015278278818400576
1772788759095544600,7.971544677734375,-0.11823124262690543,-0.030173385271802543,0.002480729166138917
1772788759105610500,7.981610595703125,-0.09794365687966346,-0.028506876831687986,-0.012017870516655966
1772788759115675400,7.99167529296875,-0.0672165101826191,-0.020091697848960755,-0.01223061821819283
1772788759125740500,8.001740478515625,-0.06722761609852314,-0.019772220103628932,-0.011801031161891296
1772788759135806500,8.011806396484374,-0.061465983831882474,-0.0182672223681584,-0.03760638481676578
1772788759145872600,8.02187255859375,-0.08700842136740684,-0.019814707538485524,-0.04292410010765307
1772788759155937500,8.0319375,-0.10371697958409785,-0.00949296428207308,-0.03251031291992403
1772788759166003500,8.04200341796875,-0.1298223116993904,-0.004241217766329646,-0.015714131218707187
1772788759176069400,8.0520693359375,-0.13045534890592098,-0.004137063272111117,-0.01303066428839229
1772788759186134500,8.062134521484374,-0.12087795774340629,-0.006316453137807548,-0.010211076823016628
1772788759196200700,8.07220068359375,-0.10604103861749171,-0.007964476073160767,-0.01890606826096773
1772788759206265300,8.082265380859376,-0.09119476714134216,0.005832322882674634,-0.032727207073615865
1772788759216331500,8.09233154296875,-0.10359013833403587,0.005157200100086629,-0.017068687632819636
1772788759226397400,8.1023974609375,-0.09760580322742461,-0.008578881644457578,-0.004690705966344103
1772788759236462600,8.112462646484374,-0.09133446787297725,-0.007769830283895134,0.003453227460104972
1772788759246528500,8.122528564453125,-0.1143809969395399,-0.004693345448002219,0.0032954065498895942
1772788759256594400,8.132594482421876,-0.12081716746687889,-0.01567673095092177,0.010266122345346957
1772788759266659600,8.14265966796875,-0.14206804528832434,-0.03772033005263656,0.02529824438295327
1772788759276725500,8.1527255859375,-0.12173194422423839,-0.0349068070018664,0.03201267472924665
1772788759286791700,8.162791748046875,-0.11008242296278475,-0.03078417411390692,0.010905826754681765
1772788759296856600,8.172856689453125,-0.09081775052249431,-0.03875025762226433,-0.003214916059048846
1772788759306922500,8.182922607421874,-0.08712181861400604,-0.039433929037489,-0.010631421126937494
1772788759316988400,8.192988525390625,-0.08658639656305313,-0.028479513900727033,-0.014562595696561037
1772788759327053600,8.203053466796876,-0.10804477965533733,-0.02032389916963875,-0.0070588050708640365
1772788759337119500,8.213119384765625,-0.11782090826034546,-0.011604147749766707,0.002161114423489198
1772788759347184400,8.223184326171875,-0.12893208486139773,-0.00018101912271231412,0.013774797186581417
1772788759357250600,8.23325048828125,-0.11776304059326648,0.0065339318133890625,0.015538180996757
1772788759367316500,8.24331640625,-0.11810147876739502,0.01154839897453785,0.019329965361999348
1772788759377381600,8.253381591796876,-0.14849486346542834,0.013165990239009261,0.03518795289765112
1772788759387447600,8.263447509765625,-0.16897241882681846,-0.004138488044217229,0.047209257480408995
1772788759397513700,8.273513671875,-0.13973755651414393,-0.009062208181992173,0.03243069007876329
1772788759407578400,8.283578369140624,-0.08579553844630718,0.01165580487176776,0.004979889038112014
1772788759417644500,8.29364453125,-0.08272212235033512,0.014712525561265647,-0.014786303183529526
1772788759427710500,8.30371044921875,-0.08998246874213219,0.008352452477440238,-0.0001278732965234667
1772788759437775600,8.313775634765625,-0.07362345461547375,0.0020430866675451398,-0.013598271575896069
1772788759447841500,8.323841552734375,-0.036329789009690285,0.01648472286555916,-0.015818559707561505
1772788759457906400,8.333906494140624,-0.05413023411631584,0.02785721728391945,-0.02444654119075276
1772788759467972600,8.34397265625,-0.07297229723036289,-0.002479359192959964,-0.019114523379877207
1772788759478038500,8.35403857421875,-0.08697685718536377,-0.02365147268977016,-0.005885212980536744
1772788759488103700,8.364103759765625,-0.07895604781508446,0.0029966975979506968,0.043009933493891726
1772788759498169300,8.37416943359375,-0.02291150451004505,0.019088840949349106,0.03307960984101519
1772788759508235500,8.384235595703124,-0.0339455242216587,-0.0031297128604725003,0.017790170307783407
1772788759518300400,8.394300537109375,-0.080478727337718,-0.008210925114899873,0.02947649818197824
1772788759528366600,8.40436669921875,-0.1205897884517908,-0.02462090224381536,0.011825864209048449
1772788759538431700,8.414431640625,-0.16037760896086692,-0.024010259532183408,-0.004824607144854963
1772788759548497400,8.424497314453125,-0.18607494479715822,-0.020112704104371368,0.0009395824050530791
1772788759558563600,8.4345634765625,-0.17314999677240847,-0.03396959921699017,-0.0024304785499349234
1772788759568628500,8.44462841796875,-0.14660335063040256,-0.016971118143014607,-0.026380377063853665
1772788759578694700,8.454694580078124,-0.1392068106383085,-0.023098222721181807,-0.03378554788697511
1772788759588760600,8.464760498046875,-0.11477262660562991,-0.04872731562685221,-0.037215768930828196
1772788759598825500,8.474825439453125,-0.09140870215296745,-0.04547247854936868,-0.03966976535366848
1772788759608891400,8.484891357421875,-0.08856441863775252,-0.03157707805726677,-0.037215029145311565
1772788759618957600,8.49495751953125,-0.09263327551186085,-0.042659905346669254,-0.027786471868958322
1772788759629022700,8.505022705078124,-0.10720189909040927,-0.05442001084312796,-0.00018428879203274845
1772788759639088600,8.515088623046875,-0.1237310090869665,-0.05169438527151942,0.010546628920314834
1772788759649153500,8.525153564453126,-0.14190321011543272,-0.028706564122252164,0.012527153479354455
1772788759659219500,8.535219482421875,-0.19550795905292034,-0.023390629796497524,0.020096931146504356
1772788759669285600,8.54528564453125,-0.22200082918107508,-0.025122495090402663,0.016558600952522828
1772788759679350500,8.5553505859375,-0.21840718860328195,-0.020385091304965314,0.029384655180061236
1772788759689416400,8.56541650390625,-0.17588497469425202,-0.011536087482236324,0.028442561157513407
1772788759699482400,8.575482421875,-0.12201485281884669,-0.012240472891926766,0.012653200144972652
1772788759709547500,8.585547607421875,-0.10137889202535152,-0.007745572625473141,-0.003816864007571712
1772788759719613400,8.595613525390625,-0.11186404568254947,-0.015257994082197546,0.0026297183159273117
1772788759729678600,8.6056787109375,-0.12518822215795516,-0.015304828898608683,-0.017755573918437583
1772788759739744500,8.61574462890625,-0.10005670351088046,-0.02035506149288267,-0.03369143072958104
1772788759749810400,8.625810546875,-0.08106967896819114,-0.03131312989145517,-0.016100993378134445
1772788759759875600,8.63587548828125,-0.06105448042154312,-0.03369523925501853,-0.016711362095130605
1772788759769941500,8.64594140625,-0.06335925023257732,-0.024240926482900976,-0.039294009110145266
1772788759780007700,8.656007568359374,-0.10532850643396377,-0.00951302068941295,-0.030972591091785576
1772788759790072300,8.666072265625,-0.13188450492620468,-0.010055420470423996,0.005363088802574202
1772788759800138500,8.676138427734376,-0.12131634916067123,-0.012199044902995228,0.04368648104858584
1772788759810203600,8.68620361328125,-0.08498597562909126,0.0029332039076834914,0.061066408321354536
1772788759820269600,8.69626953125,-0.09889759660363197,0.008510492583364247,0.030053722681198266
1772788759830335700,8.706335693359375,-0.10486907222867012,0.0056258039925247425,-0.008242105704452843
1772788759840400400,8.716400390625,-0.09679097971320151,0.018175123637914656,-0.009999562097340821
1772788759850466600,8.726466552734376,-0.08665010944902897,0.016735775017179547,-0.009829036969179287
1772788759860532500,8.736532470703125,-0.06276596051454544,0.014064436916075646,-0.011291008413676171
1772788759870597600,8.74659765625,-0.043536943909525866,0.00913834215812385,0.01194549026703462
1772788759880663600,8.75666357421875,-0.0640963323354721,0.005690284063480794,0.024014351185411214
1772788759890729500,8.7667294921875,-0.09582184242010117,-0.0015618424892425537,0.02706066007874906
1772788759900794600,8.776794677734374,-0.13690671700239182,-0.021482713815942404,0.027271928209252654
1772788759910860500,8.786860595703125,-0.14549743521511554,-0.008161167689040303,0.024399605909641832
1772788759920925700,8.79692578125,-0.12355974417328834,-0.007633965477161109,0.023061982364021242
1772788759930991400,8.806991455078125,-0.11782909156680106,-0.022592465156130493,0.023972174277808515
1772788759941057500,8.8170576171875,-0.12065583942532539,-0.019688195081986486,0.024593356649763882
1772788759951122400,8.827122314453124,-0.12964227895736694,-0.028107904109358785,0.011830284655839204
1772788759961188600,8.837188720703125,-0.13115794421732424,-0.03841317115500569,-0.010603446274623275
1772788759971254500,8.847254638671876,-0.14507541041076183,-0.033643655198253686,-0.022079620263166726
1772788759981319400,8.8573193359375,-0.1363847389549017,-0.026836788194999097,-0.015406681837886571
1772788759991385300,8.86738525390625,-0.1190215162217617,-0.041863567337207495,-0.026783523637801405
1772788760001450500,8.877450439453124,-0.10628595328927039,-0.024247319691069424,-0.02808633159836754
1772788760011516700,8.8875166015625,-0.11151040993928908,-0.013156930149719118,-0.030677553667966276
1772788760021582600,8.89758251953125,-0.09637421560585498,-0.023065781756304204,-0.0375359681953676
1772788760031647500,8.9076474609375,-0.12252221781909466,-0.02209708285462111,-0.02614160900507122
1772788760041713400,8.91771337890625,-0.11709493207335471,-0.023729469829425216,-0.0045031749044544996
1772788760051778600,8.927778564453124,-0.0792108993589878,-0.017653730112314223,0.00014693419001996516
1772788760061844500,8.937844482421875,-0.04510053996443748,-0.004434731044434011,-0.0011840221527963876
1772788760071910700,8.94791064453125,-0.014741057536005972,0.0022652780508622527,0.010422189689893275
1772788760081975600,8.9579755859375,-0.0048632221221923825,0.012569449117965996,-0.0024301680226810275
1772788760092041500,8.96804150390625,-0.021137480574846268,0.0094795933438465,-0.027059089176170528
1772788760102107600,8.978107666015624,-0.06236790110766887,0.030895050609856842,-0.016541531086713076
1772788760112172000,8.988172119140625,-0.11914368129670619,0.034388591814041136,0.003452478541433811
1772788760122238200,8.99823828125,-0.13431611598730087,0.007482830036059021,0.02274084238456562
1772788760132303400,9.008303466796875,-0.14185995549559594,0.00307334303073585,0.030500699263717977
1772788760142369300,9.018369384765625,-0.15255202990174294,0.016415310891158878,0.028187161624338476
1772788760152435200,9.028435302734374,-0.1620510951310396,0.00017787731755524873,0.00532503094766289
1772788760162500000,9.0385,-0.20342180091738699,-0.007038922193460166,0.001948394121415913
1772788760172566300,9.048566162109376,-0.20919337005615232,-0.01245079117435962,0.00804482956668362
1772788760182632200,9.058632080078125,-0.18607494479715822,-0.013900880384817718,-0.0021934549236670136
1772788760192697300,9.068697265625,-0.1804606120467186,-0.026720029947534203,-0.017515874277893452
1772788760202763300,9.07876318359375,-0.15898469329774378,-0.04514653453063219,-0.008333309385553002
1772788760212828200,9.088828125,-0.11399930414557456,-0.054069041980989274,-0.013888093968480824
1772788760222894000,9.09889404296875,-0.06601824030876159,-0.04551752326749265,-0.04421961067775264
1772788760232960300,9.108960205078125,-0.0500666379392147,-0.04854151073116809,-0.05151829805225134
1772788760243025400,9.119025390625,-0.06331190395951271,-0.06342639718465506,-0.033366098632197826
1772788760253091300,9.12909130859375,-0.09018588235974312,-0.062122182718291875,-0.009900485637038946
1772788760263156200,9.13915625,-0.08280220184922218,-0.05868281938675791,-0.01083835100904107
1772788760273222100,9.14922216796875,-0.09714403093457222,-0.03518379731234163,-0.003934910029824823
1772788760283288300,9.159288330078125,-0.13215104690790175,-0.025003617951087652,0.0016383235252462327
1772788760293353200,9.169353271484376,-0.14441373163163662,-0.03237652133926749,0.013649883032124489
1772788760303419400,9.17941943359375,-0.13194821781218052,-0.036186800342425704,0.029318814269080756
1772788760313484300,9.189484375,-0.09747253223657608,-0.02382010725494474,0.048487734717316926
1772788760323550200,9.19955029296875,-0.0664274056315422,-0.005504917559213936,0.027984953583125024
1772788760333616400,9.209616455078125,-0.0699263536632061,0.006360657605715096,0.03163613303443417
1772788760343681300,9.219681396484376,-0.09958616338968276,0.006616970454342663,0.038346316463872786
1772788760353747200,9.229747314453125,-0.16813538348078727,-0.005616415109671652,0.03620778833152726
1772788760363813000,9.239813232421875,-0.1873310823380947,-0.018999993622116743,0.03271371740438044
1772788760373878300,9.249878173828124,-0.13547756098210811,-0.008518456694111227,0.00992116309888661
1772788760383944200,9.259944091796875,-0.1013058267891407,0.010675488597527146,0.013021668131183831
1772788760394009300,9.27000927734375,-0.06802081230282783,-0.00457629493959248,0.004432484288420528
1772788760404075300,9.2800751953125,-0.05640168617963791,-0.03123750737197697,0.0031101313771679994
1772788760414141200,9.29014111328125,-0.047474867880344385,-0.03911631445568055,0.007554123440291732
1772788760424206300,9.300206298828124,-0.04843640638887882,-0.05264839806072413,-0.008469302056450396
1772788760434272300,9.310272216796875,-0.09565116202831268,-0.059892487437464295,-0.00002341740820556879
1772788760444337200,9.320337158203126,-0.14300971005260943,-0.04245104836896062,0.012125504742749035
1772788760454403000,9.330403076171875,-0.15475801551342008,-0.06678871322460472,0.032858697099331764
1772788760464469200,9.34046923828125,-0.17115853069424627,-0.06732672909144312,0.031202965781558303
1772788760474534400,9.350534423828124,-0.17038403919041156,-0.038891273528151214,0.03269972541164606
1772788760484600300,9.360600341796875,-0.15766250478327273,-0.02986304068099707,0.02933030377747491
1772788760494665200,9.370665283203126,-0.1366021810978651,-0.022215265874192116,0.01767141189947724
1772788760504731100,9.380731201171875,-0.11931494621038437,-0.008437683075480163,0.008518584558274596
1772788760514797300,9.39079736328125,-0.10726444293260573,-0.006594831687770784,0.01370154015412554
1772788760524862200,9.4008623046875,-0.12528466826975346,-0.020387392859905956,0.03131502958759665
1772788760534928400,9.410928466796875,-0.12384674442112445,-0.008667436710745095,0.03904619009522721
1772788760544994000,9.420994140625,-0.11193827996253966,-0.0011593991681933403,0.03978579294877126
1772788760555059200,9.43105908203125,-0.11886720244288444,-0.010632051314599811,0.04401621532645076
1772788760565125000,9.441125,-0.08822188881039619,-0.013825367463193834,0.049285479232575743
1772788760575190300,9.451190185546874,-0.06339315250217914,-0.00838690273631364,0.020702523223683236
1772788760585256400,9.46125634765625,-0.048746787512302395,0.01026621367689222,-0.005403557810280472
1772788760595322000,9.471322021484376,-0.05236556253135204,0.01264934595376253,-0.013417444249428808
1772788760605387300,9.48138720703125,-0.07827215720415115,-0.011806319258362055,-0.00219045924898237
1772788760615453200,9.491453125,-0.11222820281982421,-0.014799509724974631,0.02350289453193545
1772788760625518300,9.501518310546874,-0.11563713448047637,-0.006262457928247749,0.017586583160236476
1772788760635584000,9.511583984375,-0.1193394961297512,-0.019699447128362954,0.02345542039470747
1772788760645650200,9.521650146484374,-0.12647475483715534,-0.013810133361443877,0.01279206062639132
1772788760655715300,9.53171533203125,-0.13691782291829585,-0.017092881359159946,0.006976140889246017
1772788760665781200,9.54178125,-0.13106617428064346,-0.006202763630263507,0.0023023403919301927
1772788760675846400,9.551846435546874,-0.11329261718094348,-0.0061887351049110285,0.006541603663191199
1772788760685912000,9.561912109375,-0.08447218088805675,0.012362309173308312,-0.011165610202029348
1772788760695978200,9.571978271484374,-0.11624854437708854,0.009405833987891674,-0.007521901671122759
1772788760706043100,9.582043212890625,-0.12405775682330131,-0.0041995340490713715,0.006297109116520733
1772788760716109300,9.592109375,-0.10700666877925395,0.005635740864649415,0.012631444970890878
1772788760726175200,9.60217529296875,-0.08648293618857861,-0.0017947744622826575,0.014284582472778857
1772788760736240000,9.612240234375,-0.09018295975029468,-0.0030589857118204235,0.008980210720654577
1772788760746306300,9.622306396484374,-0.09744798231720923,-0.002467157298512757,0.014813793978653848
1772788760756371200,9.63237109375,-0.11129764397144316,-0.005533741794899106,0.0026051592634059486
1772788760766437400,9.642437255859376,-0.11871230414211749,0.0036268121950328346,-0.011727956792525947
1772788760776503300,9.65250341796875,-0.1301835462272167,0.0006318316301330923,-0.00986629110649228
1772788760786568200,9.662568115234375,-0.12895663478076458,0.00882639013212174,0.0018471622366458176
1772788760796634000,9.672634033203124,-0.12490063738822936,0.013822335255891084,-0.006431695281621068
1772788760806699300,9.68269921875,-0.13493687823414802,0.012478007974848151,-0.03890705561917275
1772788760816765200,9.69276513671875,-0.13780980332195758,0.007816847763396799,-0.03887594809485599
1772788760826831400,9.702831298828125,-0.13873977764844894,-0.003128178490512073,-0.014819383469223976
1772788760836896300,9.712896240234375,-0.11872224101424217,0.008655344414152204,-0.0032993703389540313
1772788760846962200,9.722962158203124,-0.08596680335998534,0.01270611764229834,-0.004957805070467293
1772788760857027300,9.73302734375,-0.0909007526308298,0.01021780795790255,-0.0040532026472501455
1772788760867093200,9.74309326171875,-0.0994148984760046,-0.009325900619477034,-0.0030280608505941927
1772788760877159200,9.7531591796875,-0.08907529076933861,-0.0008746639426797628,-0.0165275390939787
1772788760887224300,9.763224365234375,-0.0727490098685026,0.023240626866556702,-0.019055139609146864
1772788760897290200,9.773290283203124,-0.08438391808271407,0.002198752153292298,-0.01627652347497642
1772788760907355400,9.78335546875,-0.09436170673966407,-0.0026125936511904,-0.00971804174222052
1772788760917421300,9.79342138671875,-0.10148702857494353,-0.0020763678826391696,0.0043187947808764875
1772788760927487200,9.8034873046875,-0.10458031841516494,-0.014926935496926306,-0.0014772877446375787
1772788760937552100,9.81355224609375,-0.12908873672783375,-0.005443140901997685,0.00370806073769927
1772788760947618300,9.823618408203124,-0.14536241065859795,-0.009469437276013196,0.008483823772147297
1772788760957684200,9.833684326171875,-0.1516255627065897,0.005721775180287659,0.001731920092832297
1772788760967749000,9.8437490234375,-0.14834639490544796,0.022447065336070954,-0.019033146973047404
1772788760977815000,9.85381494140625,-0.11264788953661918,0.016719700665213166,-0.04306817562030628
1772788760987880200,9.863880126953125,-0.17539222274124622,-0.019664375814981757,-0.011922255521919578
1772788760997946400,9.8739462890625,-0.21131752260327338,0.031200061438418924,0.02803456487851217
1772788761008012300,9.88401220703125,-0.1257359191685915,0.07234667614530771,-0.001072561134956777
1772788761018077200,9.8940771484375,-0.11454115593731402,0.0195107561558485,0.005113653219304979
1772788761028143000,9.90414306640625,-0.11951251460909842,0.010459361628815531,-0.027264639951940624
1772788761038208300,9.914208251953125,-0.09381517877280711,0.04959525756780058,-0.05267941425349563
1772788761048274200,9.924274169921874,-0.06484218226671218,0.08012520119231194,-0.042886718106176704
1772788761058340400,9.93434033203125,-0.03227379161715507,0.05920446864068508,-0.003751899879425764
1772788761068405200,9.9444052734375,-0.06175473764538764,0.02730619580503553,0.04545391997937113
1772788761078471200,9.95447119140625,-0.12032909168899059,0.004858984338492155,0.060217134548258035
1772788761088536300,9.964536376953125,-0.10537351461946963,-0.010979549578018485,0.051112566795572634
1772788761098602200,9.974602294921874,-0.04986906954050064,0.002776405910775065,0.027300076591502874
1772788761108669200,9.984669189453125,-0.041218730095028876,0.000344173795171082,0.0007317483406513929
1772788761118734000,9.994734130859374,-0.0705839407891035,-0.015810696061514317,-0.0005148176543414593
1772788761128800300,10.00480029296875,-0.12002514030635356,-0.032413784609735014,0.018620949442964045
1772788761138866200,10.0148662109375,-0.1677121896326542,-0.04640913834497332,0.016434198254719375
1772788761148931300,10.024931396484375,-0.15364917748868465,-0.034871699155867096,0.03155590740507468
1772788761158997200,10.034997314453125,-0.14320318679809568,-0.022960092892125247,0.01293254680931568
1772788761169062100,10.045062255859374,-0.10464403130114078,-0.022926044492051004,-0.006969035295024514
1772788761179128000,10.055128173828125,-0.09525018001198768,-0.01457929110303521,-0.006978533775731921
1772788761189194200,10.0651943359375,-0.1052922660768032,-0.01651153780724853,-0.006747264036815613
1772788761199259400,10.07525927734375,-0.1052928505986929,-0.005012859725952148,0.017613909558579326
1772788761209325300,10.0853251953125,-0.10797229894101619,0.004077588169835508,0.018965104971826074
1772788761219390200,10.09539013671875,-0.13323065883815288,0.011742314111441374,0.02016916526565328
1772788761229456100,10.1054560546875,-0.13603285677731036,0.01879818743970245,0.024323362335655838
1772788761239522300,10.115522216796874,-0.12028232993781567,0.03555321514662355,0.023335867401957512
1772788761249587200,10.125587158203125,-0.09586685060560703,0.0475930508999154,0.028738694559875873
1772788761259653400,10.1356533203125,-0.0997416462123394,0.05672752060052007,0.033343484941590576
1772788761269718300,10.14571826171875,-0.13310089497864244,0.046613976734690366,0.026246658548433333
1772788761279784200,10.1557841796875,-0.14522329444885254,0.018812252497673033,0.020011837545782327
1772788761289850000,10.16585009765625,-0.1480617327451706,0.024459355006553232,0.02580919871293008
1772788761299915300,10.175915283203125,-0.14146248061060904,0.009721037416905165,0.03349257455607876
1772788761309981400,10.1859814453125,-0.1290162560135126,0.0026444866267964244,0.02198136578677222
1772788761320047000,10.196047119140625,-0.12059154201745986,-0.013284757780469954,0.026863584870379417
1772788761330112300,10.2061123046875,-0.10528583633601665,-0.040250542649999256,0.03466709822816774
1772788761340178200,10.21617822265625,-0.07278408118188381,-0.06417674062792211,0.011785002475697547
1772788761350243300,10.226243408203125,-0.02489829441308975,-0.04727978369966149,-0.019777864393126218
1772788761360309200,10.236309326171876,-0.022364976543188093,-0.02753795873429626,-0.012239541310165077
1772788761370375200,10.246375244140625,-0.05124444954693317,-0.02511580962128937,-0.0062440637550316746
1772788761380440300,10.2564404296875,-0.1202110182672739,-0.03491133704651147,0.0026777313092723487
1772788761390506200,10.26650634765625,-0.15294716669917105,-0.04066423801742494,0.013100523787364362
1772788761400571400,10.2765712890625,-0.17355507044196128,-0.03403239878751337,0.019232998660393057
1772788761410637000,10.286636962890626,-0.15916531056165695,-0.0255021420577541,0.023025906403642146
1772788761420703200,10.296703125,-0.1307423491537571,-0.0076868281755596395,0.004549370400048792
1772788761430768000,10.30676806640625,-0.10967267311811446,0.020484606156684456,-0.019527250632923095
1772788761440834300,10.316834228515624,-0.09431494498848915,0.014969788257963955,-0.017091310456581413
1772788761450899200,10.326899169921875,-0.09482347903251648,0.015461407699808477,-0.01648369995225221
1772788761460965000,10.336965087890626,-0.10311258395016193,0.01794913286231458,-0.011073164411913602
1772788761471031300,10.34703125,-0.09760755679309367,0.02054086638856679,-0.005658171892166137
1772788761481096200,10.35709619140625,-0.10372340932488441,0.008664514101296662,-0.006951846698205918
1772788761491162400,10.367162353515624,-0.1120282963335514,0.004127528258785605,0.0024977168335579333
1772788761501228300,10.377228271484375,-0.09727145670652389,-0.008323883970081805,-0.006066624828893691
1772788761511293200,10.387293212890626,-0.07995674929022789,-0.013503843891248106,-0.004245912207756191
1772788761521359000,10.397359130859375,-0.0972094973862171,-0.022913806064985692,0.006148585757613182
1772788761531424300,10.40742431640625,-0.1129869122326374,-0.014646693783439696,-0.0005744023544713854
1772788761541490400,10.417490478515624,-0.13582301341891287,-0.043030455692112446,0.011130337959248572
1772788761551556400,10.427556396484375,-0.1350385850429535,-0.04036481667943299,0.0156326908797957
1772788761561621200,10.437621337890626,-0.13892916274070738,-0.028716427929140625,0.006646488809771835
1772788761571687200,10.447687255859375,-0.14210194755792616,-0.03645443830266595,0.0083818977676332
1772788761581753300,10.45775341796875,-0.13121172023117542,-0.04207808687072247,-0.004585208898410201
1772788761591818200,10.467818359375,-0.14472235918939114,-0.03870886616595089,-0.008502217945363372
1772788761601884200,10.47788427734375,-0.1156008941233158,-0.02918908694218844,-0.005946286384854465
1772788761611949300,10.48794921875,-0.0893108530908823,-0.03018423545937985,-0.0008999445144087075
1772788761622015200,10.49801513671875,-0.07558394103348255,-0.020593290695548057,0.0013897921242751181
1772788761632081200,10.5080810546875,-0.06199380709826946,-0.008841733831726014,-0.005392433628067374
1772788761642146300,10.518146240234374,-0.05167758026719093,0.0019241364629939198,-0.016667879146430642
1772788761652212200,10.528212158203125,-0.061548985940217966,-0.006836056565120816,-0.01515703619206324
1772788761662277000,10.538277099609376,-0.08219722169339656,-0.012153123402036725,-0.009594890286587178
1772788761672343300,10.54834326171875,-0.11092822613716125,0.005516644529625773,-0.004760200139135122
1772788761682409200,10.5584091796875,-0.11210545322299002,-0.0018619579469785093,0.01635868533309549
1772788761692474000,10.56847412109375,-0.1282236443310976,0.0028183453563600776,0.026641630949079988
1772788761702540000,10.5785400390625,-0.12533259906470776,0.0005367006925866008,0.02107166706332937
1772788761712606200,10.588606201171874,-0.13307576053738593,-0.0054928617952391505,0.010795498248003422
1772788761722671400,10.59867138671875,-0.11150748732984066,-0.02630564046036452,0.014573098824266344
1772788761732737300,10.6087373046875,-0.11630348943471908,-0.02734608942400664,0.013732903406769036
1772788761742802200,10.61880224609375,-0.12381693380475044,-0.03092635906357318,0.014590269154775886
1772788761752868000,10.6288681640625,-0.1202671323686838,-0.03274995776154101,0.01334468954047188
1772788761762934300,10.638934326171874,-0.13662322388589382,-0.04015749407168478,0.01572732862699777
1772788761772999200,10.648999267578125,-0.1279880820095539,-0.04239029462505132,0.008940298835374415
1772788761783065300,10.6590654296875,-0.1103945576518774,-0.02532824679557234,0.004325662913080305
1772788761793131300,10.66913134765625,-0.07021043130159378,-0.026732597168162463,-0.007255323156807571
1772788761803196200,10.679196044921875,-0.07401917593479156,-0.01450238994192332,-0.008027403507847338
1772788761813262300,10.689262451171874,-0.10103285506665706,-0.012507014873623847,-0.007828976592607796
1772788761823327200,10.6993271484375,-0.13017010222375391,-0.018342625691927968,-0.0015945391824468969
1772788761833393400,10.709393310546876,-0.08872165502607822,0.007096680262684822,0.01885382661707699
1772788761843459000,10.719458984375,-0.09351122739017009,0.02383899461850524,0.032981300565693525
1772788761853524200,10.729524169921875,-0.11293605882823467,0.025979148452356455,0.032530762052908536
1772788761863590100,10.739590087890624,-0.16357377465367315,0.01342738112155348,0.025142880291305483
1772788761873656300,10.74965625,-0.13486732012927533,-0.001346592303365469,0.032839115616027266
1772788761883721500,10.759721435546876,-0.055258361363410946,0.01815152356661856,0.023666231867484747
1772788761893787100,10.769787109375,-0.024091654205322263,0.026345862872898577,0.01324700131965801
1772788761903852300,10.779852294921875,-0.0547112488746643,0.01857197746839374,0.009056436028331517
1772788761913918200,10.789918212890624,-0.09563362637162208,-0.009368570717424154,0.014118980114907026
1772788761923984400,10.799984375,-0.16379063227474688,-0.03477941776253283,0.026541823836416005
1772788761934049000,10.810049072265626,-0.14830314028561115,-0.025023747423663735,0.029465419665537774
1772788761944115200,10.820115234375,-0.1757978809326887,-0.0191900728341192,0.0407618897056207
1772788761954181000,10.83018115234375,-0.07059329313933849,-0.03486921493783593,0.019588333170395343
1772788761964246300,10.840246337890624,0.15148820006251335,-0.019984474614821373,-0.06353646996300667
1772788761974312200,10.850312255859375,-0.0460363595098257,-0.011611308142915368,-0.038422523505240676
1772788761984377000,10.860377197265626,-0.19207506199479102,-0.01587261884920299,-0.03824451832352206
1772788761994443300,10.870443359375,-0.1427279705017805,-0.026746516095660627,-0.040329453105106945
1772788762004509200,10.88050927734375,-0.08295476206243038,-0.021145371620357036,-0.029139037255384026
1772788762014574300,10.89057421875,-0.11992401801943778,-0.013912132431194185,-0.01489347161874175
1772788762024640300,10.90064013671875,-0.25656886921525,-0.01565389806460589,0.013330496618337928
1772788762034706200,10.9107060546875,-0.2980769376456737,-0.009799399882741271,0.04772794759226963
1772788762044771000,10.92077099609375,-0.24343524687588214,-0.012214900059252977,0.026245927896071223
1772788762054837200,10.930837158203126,-0.1706079110741615,0.0038926600569859143,0.00845461594397202
1772788762064902400,10.94090234375,-0.1514338395267725,0.012456965186819434,-0.011393518940079957
1772788762074968300,10.95096826171875,-0.10780746376812457,0.030571225482970473,-0.0114181053920649
1772788762085034200,10.9610341796875,-0.029473347243666646,0.03819591167513281,0.016411438433639704
1772788762095099100,10.97109912109375,0.11531681648492813,0.0776554866105318,-0.003611285832338035
1772788762105165300,10.981165283203126,0.26735914329886434,0.07254698449037969,-0.09960249346997588
