time,seconds_elapsed,z,y,x
1772866903894301000,0.073301025390625,-0.003707529976963997,-0.015549307689070702,0.005803312174975872
1772866903904366800,0.083366943359375,-0.0017667743377387524,-0.02453022077679634,-0.014316760003566742
1772866903914433000,0.09343310546875,-0.0029875673353672028,-0.025509998202323914,-0.03216100484132767
1772866903924499000,0.1034990234375,-0.0020147920586168766,-0.03043881058692932,-0.04706293344497681
1772866903934565000,0.113565185546875,-0.008364301174879074,-0.024030178785324097,-0.04751167818903923
1772866903944631000,0.123631103515625,-0.011011624708771706,-0.012125613167881966,-0.049239546060562134
1772866903954697200,0.133697265625,-0.007616627495735884,-0.00645041698589921,-0.03122565522789955
1772866903964763100,0.14376318359375,-0.0024776621721684933,0.0002180030569434166,-0.004327869974076748
1772866903974829000,0.1538291015625,0.0001612640917301178,0.009213629178702831,0.02951105311512947
1772866903984895000,0.16389501953125,0.0001339111477136612,0.009001475758850574,0.05542568489909172
1772866903994961000,0.1739609375,0.0067161801271140575,0.00872850138694048,0.07920638471841812
1772866904005027000,0.184027099609375,0.0032574220094829798,-0.0023870673030614853,0.09042403846979141
1772866904015093000,0.194093017578125,0.0018107928335666656,-0.005461686756461859,0.09909289330244064
1772866904025159200,0.2041591796875,0.003786391345784068,-0.005983998067677021,0.11340079456567764
1772866904035226000,0.21422607421875,-0.0008136867545545101,0.010319608263671398,0.11401305347681046
1772866904045292000,0.2242919921875,-0.0025835195556282997,0.008381260558962822,0.11476324498653412
1772866904055358000,0.23435791015625,-0.001995760016143322,0.0006479723379015923,0.10917593538761139
1772866904065424000,0.244423828125,-0.0010444186627864838,0.0014239577576518059,0.09415095299482346
1772866904075490000,0.254489990234375,0.0007505519315600395,-0.0007944554090499878,0.08190733194351196
1772866904085556000,0.264555908203125,0.003359265625476837,0.002665548585355282,0.06903204321861267
1772866904095622100,0.2746220703125,0.00336246145889163,0.007099178619682789,0.05911096930503845
1772866904105688000,0.28468798828125,0.0012011954095214605,0.015582879073917866,0.04840202257037163
1772866904115754200,0.294754150390625,-0.0005106846801936626,0.008877570740878582,0.034069955348968506
1772866904125820200,0.304820068359375,0.002406100742518902,0.0015328405424952507,0.0290388036519289
1772866904135886000,0.314885986328125,0.0027938568964600563,0.012322904542088509,0.023389706388115883
1772866904145952000,0.324951904296875,0.005717618390917778,0.0016652317717671394,0.016040457412600517
1772866904156018000,0.335017822265625,0.006098450161516666,0.010072831995785236,0.014391160570085049
1772866904166084000,0.345083984375,0.007824445143342018,0.01244304422289133,0.013217238709330559
1772866904176150000,0.35514990234375,0.0029780243057757616,0.006409387104213238,0.00802487414330244
1772866904186216200,0.36521630859375,0.004789280705153942,0.004160220734775066,0.010604707524180412
1772866904196282000,0.3752822265625,0.005545884370803833,0.010288420133292675,0.012977849692106247
1772866904206349000,0.38534912109375,0.0038999076932668686,0.012296408414840698,0.016745150089263916
1772866904216415200,0.395415283203125,0.0067926328629255295,0.005021983757615089,0.019985152408480644
1772866904226481000,0.40548095703125,0.007928204722702503,0.004877373576164246,0.022262420505285263
1772866904236547000,0.415547119140625,0.010089360177516937,-0.005555559881031513,0.024744752794504166
1772866904246613000,0.425613037109375,0.015398227609694004,-0.005980103742331266,0.03413132578134537
1772866904256679200,0.43567919921875,0.01555189210921526,-0.00379018671810627,0.037002746015787125
1772866904266745000,0.4457451171875,0.02002137526869774,0.002151433378458023,0.04961949214339256
1772866904276811000,0.45581103515625,0.015600793063640594,0.008327304385602474,0.055055536329746246
1772866904286877200,0.465877197265625,0.016995495185256004,0.002527196891605854,0.053159914910793304
1772866904296942800,0.47594287109375,0.011957593262195587,0.003030267544090748,0.04627644270658493
1772866904307009000,0.486009033203125,0.004763259552419186,-0.0002528056502342224,0.03285429999232292
1772866904317075000,0.496074951171875,0.004601339343935251,0.00168570876121521,0.02689361199736595
1772866904327141000,0.50614111328125,0.0021918429993093014,0.010278808884322643,0.016367321833968163
1772866904337207000,0.51620703125,0.0025726750027388334,0.010830882005393505,0.011768842115998268
1772866904347273200,0.526273193359375,0.004680013284087181,0.010378070175647736,0.006620938889682293
1772866904357339100,0.536339111328125,0.00840843841433525,0.003671431913971901,-0.0002542778092902154
1772866904367406000,0.546406005859375,0.006852632388472557,0.004312349483370781,-0.00699698505923152
1772866904377472300,0.55647216796875,0.007307766005396843,0.0014350702986121178,-0.012171506881713867
1772866904387538000,0.566537841796875,0.009015783667564392,-0.0028178561478853226,-0.014901391230523586
1772866904397604000,0.57660400390625,0.009158794768154621,-0.001851661130785942,-0.012108268216252327
1772866904407670000,0.586669921875,0.005998659413307905,-0.003241543658077717,-0.010291870683431625
1772866904417736000,0.59673583984375,0.003400213085114956,0.004811323247849941,-0.0023660361766815186
1772866904427802000,0.606802001953125,-0.0031955097801983356,0.010137266479432583,0.0060757542960345745
1772866904437868000,0.616867919921875,-0.005122573580592871,0.013862495310604572,0.018170766532421112
1772866904447934200,0.626934326171875,-0.0045510558411479,0.021311871707439423,0.02682366594672203
1772866904458000000,0.636999755859375,-0.0016681845299899578,0.025768406689167023,0.02789718471467495
1772866904468066000,0.647066162109375,0.0026692040264606476,0.020560169592499733,0.026174141094088554
1772866904478132000,0.657132080078125,0.006335844285786152,0.016289791092276573,0.024966396391391754
1772866904488198100,0.6671982421875,0.010203707963228226,0.009501324966549873,0.021707376465201378
1772866904498264000,0.67726416015625,0.013762224465608597,0.0043816640973091125,0.019959544762969017
1772866904508330000,0.687330078125,0.018427295610308647,0.005701955407857895,0.019552763551473618
1772866904518396200,0.697396240234375,0.015487964265048504,0.009415466338396072,0.02203882485628128
1772866904528463000,0.707463134765625,0.01585114188492298,0.012785864993929863,0.024131856858730316
1772866904538529300,0.717529296875,0.018625356256961823,0.010445212945342064,0.02463998831808567
1772866904548595000,0.727594970703125,0.016564879566431046,0.005884463898837566,0.015725186094641685
1772866904558660900,0.737660888671875,0.017714299261569977,-0.001920461654663086,0.015251941978931427
1772866904568727000,0.74772705078125,0.012723436579108238,0.004277070984244347,0.01838758960366249
1772866904578793000,0.75779296875,0.011130332946777344,0.003407016396522522,0.020943159237504005
1772866904588859100,0.767859130859375,0.01046048104763031,0.008876970037817955,0.026995107531547546
1772866904598925000,0.777925048828125,0.008498530834913254,0.012920979410409927,0.02804039791226387
1772866904608991200,0.7879912109375,0.008657420985400677,0.01041743066161871,0.02905324101448059
1772866904619057000,0.798056884765625,0.010228952392935753,0.005731332115828991,0.017480209469795227
1772866904629123000,0.808123046875,0.011544819921255112,-0.002702099271118641,0.010544804856181145
1772866904639189000,0.81818896484375,0.01213098131120205,-0.008679032325744629,0.01099354773759842
1772866904649255000,0.8282548828125,0.012854030355811119,-0.001577978953719139,0.0162905752658844
1772866904659321000,0.838321044921875,0.010206848382949829,-0.0012813033536076546,0.02009143866598606
1772866904669387000,0.848386962890625,0.011647596955299377,0.002240946516394615,0.02781190536916256
1772866904679454200,0.8584541015625,0.005624591838568449,-0.0037165451794862747,0.03250492736697197
1772866904689520000,0.86852001953125,0.003593842266127467,0.002172747626900673,0.029949817806482315
1772866904699586000,0.8785859375,0.005169368349015713,0.0011058859527111053,0.021511325612664223
1772866904709652000,0.88865185546875,0.006635405123233795,0.001634819433093071,0.021182529628276825
1772866904719718000,0.8987177734375,0.004199412185698748,0.008051705546677113,0.018969709053635597
1772866904729784000,0.9087841796875,0.004309000913053751,0.009728047996759415,0.01146584004163742
1772866904739850000,0.91885009765625,0.004018450155854225,0.002863217145204544,0.003735482459887862
1772866904749916200,0.928916259765625,0.0019324403256177902,-0.0060587781481444836,-0.006956794299185276
1772866904759982000,0.938982177734375,0.006311742588877678,-0.007653745356947184,-0.0068087223917245865
1772866904770048300,0.94904833984375,0.006235376000404358,0.005207134410738945,-0.004260283429175615
1772866904780114000,0.959114013671875,0.00799119845032692,0.008076956495642662,0.0011062523117288947
1772866904790179800,0.969179931640625,0.009248998947441578,0.0036785900592803955,-0.0033600209280848503
1772866904800246000,0.97924609375,0.0084846718236804,-0.0018573235720396042,-0.006698559504002333
1772866904810313000,0.98931298828125,0.006054149009287357,-0.003054637461900711,-0.012628349475562572
1772866904820379100,0.999379150390625,0.0032240080181509256,-0.010795913636684418,-0.01691284216940403
1772866904830445000,1.009445068359375,0.00300679262727499,-0.013570785522460938,-0.0127444788813591
1772866904840511000,1.019510986328125,0.001250970410183072,-0.01030575018376112,-0.0024766612332314253
1772866904850576400,1.029576416015625,0.0046974243596196175,-0.004823313094675541,0.007628344465047121
1772866904860642600,1.039642578125,0.004389030393213034,-0.008636693470180035,0.011692062020301819
1772866904870708500,1.04970849609375,0.0028758873231709003,-0.008765684440732002,0.010149379260838032
1772866904880774400,1.0597744140625,0.0019248726312071085,-0.012491446919739246,0.009806363843381405
1772866904890840600,1.069840576171875,0.005187779664993286,-0.008882292546331882,0.012462040409445763
1772866904900906500,1.079906494140625,0.007125495932996273,-0.005944559816271067,0.01671724021434784
1772866904910972400,1.089972412109375,0.008822428062558174,-0.011090290732681751,0.014401191845536232
1772866904921038300,1.100038330078125,0.008360369130969048,-0.007047612220048904,0.017608171328902245
1772866904931104500,1.1101044921875,0.005161380395293236,-0.004672338720411062,0.02816973440349102
1772866904941171500,1.12017138671875,0.006426914595067501,0.0021336358040571213,0.0321306549012661
1772866904951237400,1.1302373046875,0.007450866512954235,-0.00301263015717268,0.03395795077085495
1772866904961303600,1.140303466796875,0.010540666058659554,0.003771240822970867,0.03732924908399582
1772866904971369500,1.150369384765625,0.008804871700704098,-0.002392098307609558,0.029268328100442886
1772866904981435600,1.160435546875,0.008311654441058636,-0.008200719021260738,0.018197035416960716
1772866904991501600,1.17050146484375,0.008673179894685745,-0.0077630081214010715,0.008959712460637093
1772866905001567500,1.1805673828125,0.00924495980143547,-0.007108136545866728,-0.0009224789682775736
1772866905011633400,1.19063330078125,0.00974833220243454,-0.00930713675916195,-0.003284007776528597
1772866905021699300,1.20069921875,0.009379217401146889,-0.015917368233203888,-0.01372919138520956
1772866905031765500,1.210765625,0.012406689114868641,-0.012774990871548653,-0.014514444395899773
1772866905041831400,1.22083154296875,0.011609604582190514,-0.01878414675593376,-0.019962208345532417
1772866905051898400,1.2308984375,0.01697874628007412,-0.03250641003251076,-0.025845035910606384
1772866905061964500,1.240964599609375,0.01727409102022648,-0.03151438385248184,-0.028445346280932426
1772866905072030500,1.251030517578125,0.014721672981977463,-0.016123833134770393,-0.02040131762623787
1772866905082096600,1.2610966796875,0.011570887640118599,-0.002800571732223034,-0.010592362843453884
1772866905092162300,1.271162353515625,0.002441509161144495,0.0047674402594566345,0.006106365937739611
1772866905102228500,1.281228515625,-0.0028376751579344273,0.010746236890554428,0.017894582822918892
1772866905112294400,1.29129443359375,-0.003363441675901413,0.01511056162416935,0.023924605920910835
1772866905122360600,1.301360595703125,-0.002211624290794134,0.014225859194993973,0.023553628474473953
1772866905132426500,1.311426513671875,0.00009988760575652122,0.004063432104885578,0.009992171078920364
1772866905142492400,1.321492431640625,-7.799826562404633e-7,-0.002791810780763626,0.00042423215927556157
1772866905152558600,1.33155859375,0.005800141952931881,-0.011244862340390682,-0.004923918750137091
1772866905162625500,1.34162548828125,0.006679251790046692,-0.016117382794618607,-0.01134613249450922
1772866905172691500,1.35169140625,0.006013684906065464,-0.015280473046004772,-0.0029335222207009792
1772866905182757400,1.36175732421875,0.005045093130320311,-0.006721073761582375,0.003483630483970046
1772866905192823300,1.3718232421875,0.005612870212644339,0.011897203512489796,0.011054843664169312
1772866905202889500,1.381889404296875,0.0012860323768109083,0.013390704058110714,0.015582749620079994
1772866905212955400,1.391955322265625,-0.001227733213454485,0.012037405744194984,0.013617182150483131
1772866905223021600,1.402021484375,-0.00002638157457113266,0.003177335485816002,0.007556892465800047
1772866905233087500,1.41208740234375,-0.002399017568677664,-0.0061371661722660065,-0.000028862617909908295
1772866905243153700,1.422153564453125,0.0013509795535355806,-0.010737776756286621,-0.004808171186596155
1772866905253219300,1.43221923828125,-0.00028225127607584,-0.0071358708664774895,-0.00974716991186142
1772866905263285500,1.442285400390625,0.001553199253976345,-0.0008670566603541374,-0.0034213634207844734
1772866905273352400,1.4523525390625,-0.002816790249198675,-0.0008972994983196259,-0.004370934329926968
1772866905283418400,1.46241845703125,-0.0044969781301915646,0.004489211365580559,0.005794351454824209
1772866905293484500,1.472484619140625,-0.007365443743765354,0.00867046695202589,0.011670091189444065
1772866905303550500,1.482550537109375,-0.006360633298754692,0.0033867554739117622,0.020553598180413246
1772866905313616600,1.49261669921875,-0.0038830945268273354,0.0032924795523285866,0.02978677675127983
1772866905323682600,1.5026826171875,-0.0027371360920369625,0.004205145873129368,0.02984589897096157
1772866905333748500,1.51274853515625,-0.002802132163196802,-0.00004741176962852478,0.02881947159767151
1772866905343814400,1.522814453125,0.0015097917057573795,-0.0044509489089250565,0.03404033184051514
1772866905353880300,1.53288037109375,0.005675523541867733,-0.002589910291135311,0.03296206519007683
1772866905363946500,1.542946533203125,0.001670395489782095,0.0032072579488158226,0.03512321785092354
1772866905374012400,1.553012451171875,0.0053558326326310635,0.00391558650881052,0.039778318256139755
1772866905384079400,1.563079345703125,0.0050855218432843685,0.003666847012937069,0.038521040230989456
1772866905394145500,1.5731455078125,0.007556302472949028,0.0055286698043346405,0.036816734820604324
1772866905404211500,1.58321142578125,0.004942942876368761,0.005745451897382736,0.035071566700935364
1772866905414277600,1.593277587890625,0.0038032871671020985,-0.004789123311638832,0.03125747665762901
1772866905424343600,1.603343505859375,0.0006048306822776794,-0.0025648511946201324,0.026624111458659172
1772866905434409500,1.613409423828125,0.0010559961665421724,0.004111524671316147,0.024230733513832092
1772866905444475400,1.623475341796875,-0.0025403364561498165,-0.0024169497191905975,0.014921123161911964
1772866905454541600,1.63354150390625,-0.0019472576677799225,-0.005857364274561405,0.018141528591513634
1772866905464607500,1.643607421875,-0.0016862680204212666,-0.0007267845794558525,0.01872955448925495
1772866905474674400,1.65367431640625,-0.0013591260649263859,0.007570493035018444,0.023906957358121872
1772866905484740600,1.66374072265625,-0.0014440808445215225,0.011114095337688923,0.03260670229792595
1772866905494806500,1.673806640625,-0.0014659962616860867,0.00844551157206297,0.03950834274291992
1772866905504872400,1.68387255859375,0.0008882381953299046,0.0026094606146216393,0.037406306713819504
1772866905514938400,1.6939384765625,0.0007186164148151875,0.007167622447013855,0.03861052170395851
1772866905525004300,1.70400439453125,0.001271222485229373,0.012397006154060364,0.04005741700530052
1772866905535070500,1.714070556640625,-0.005728216841816902,0.009464382193982601,0.04360954836010933
1772866905545136400,1.724136474609375,-0.002128954976797104,0.008932814933359623,0.04299568757414818
1772866905555202600,1.73420263671875,-0.006684396415948868,0.01670905016362667,0.0345069095492363
1772866905565268500,1.7442685546875,-0.003687541000545025,0.014795836061239243,0.01995220221579075
1772866905575335400,1.75433544921875,0.0012126951478421688,0.011751264333724976,0.00422768434509635
1772866905585401600,1.764401611328125,0.0006678123027086258,0.0003787679597735405,-0.013077270239591599
1772866905595467500,1.774467529296875,0.0020442046225070953,-0.002543296664953232,-0.01987466588616371
1772866905605533400,1.784533447265625,0.00553347822278738,0.004534851759672165,-0.01696969009935856
1772866905615599400,1.794599365234375,0.009332148358225822,0.008963343687355518,-0.012430498376488686
1772866905625665500,1.80466552734375,0.009928695857524872,0.014339466579258442,-0.0074770194478333
1772866905635731500,1.8147314453125,0.011646000668406487,0.010898720473051071,0.0021003023721277714
1772866905645797400,1.82479736328125,0.012116847559809685,0.014240987598896027,0.004144811071455479
1772866905655863600,1.834863525390625,0.008714742958545685,0.003788582980632782,0.003977134358137846
1772866905665930500,1.844930419921875,0.00772138312458992,0.006068248301744461,0.003423463087528944
1772866905675996400,1.854996337890625,0.007225762587040663,0.005244658328592777,0.007867589592933655
1772866905686062600,1.8650625,0.004377245437353849,0.003914675675332546,0.005288318730890751
1772866905696128300,1.875128173828125,0.005181372631341219,0.00020776968449354172,0.004398820456117392
1772866905706194400,1.8851943359375,0.0047518047504127026,-0.0021635089069604874,0.0011135449167340994
1772866905716260400,1.89526025390625,0.009126804769039154,-0.0023159589618444443,0.0009664872195571661
1772866905726326500,1.905326416015625,0.009047708474099636,-0.0015710731968283653,-0.0003387280157767236
1772866905736392400,1.915392333984375,0.009207255207002163,0.003396224230527878,0.010587004013359547
1772866905746458600,1.925458740234375,0.009747078642249107,0.005449255928397179,0.01553409080952406
1772866905756525600,1.935525634765625,0.007147312164306641,0.008735869079828262,0.020047664642333984
1772866905766591500,1.945591552734375,0.006834656931459904,0.009801400825381279,0.023733479902148247
1772866905776657700,1.95565771484375,0.00652469415217638,0.0027374746277928352,0.015230542980134487
1772866905786723300,1.965723388671875,0.006206979043781757,-0.0011605946347117424,0.0076682306826114655
1772866905796789500,1.97578955078125,0.002662359271198511,-0.006461361888796091,0.00573125621303916
1772866905806855400,1.98585546875,0.0013318439014256,0.0013451622799038887,0.007519302889704704
1772866905816921600,1.995921630859375,0.0003681648522615433,0.011342350393533707,0.014636064879596233
1772866905826987500,2.005987548828125,-0.00610358314588666,0.01202358677983284,0.008773382753133774
1772866905837053400,2.016053466796875,-0.005684690084308386,0.017356285825371742,0.006916797254234552
1772866905847120600,2.02612060546875,-0.00166331697255373,0.02517612650990486,0.010647885501384735
1772866905857191000,2.03619091796875,-0.004200244788080454,0.01391574740409851,0.007656889967620373
1772866905867256800,2.0462568359375,-0.0051062521524727345,0.005000550299882889,-0.0008937217644415796
1772866905877323000,2.056322998046875,-0.002671088557690382,0.007137889973819256,-0.0008852026076056063
1772866905887389000,2.066388916015625,0.003487471491098404,0.011406936682760715,-0.0019163786200806499
1772866905897455000,2.076455078125,0.006510303355753422,0.014681215398013592,-0.003189526032656431
1772866905907521000,2.08652099609375,0.0010676009114831686,0.0034029940143227577,0.0010651401244103909
1772866905917587000,2.0965869140625,0.0035132330376654863,0.004485157318413258,-0.0007217400125227869
1772866905927654100,2.106654052734375,0.0019696648232638836,0.007681482471525669,0.007517281454056501
1772866905937719800,2.1167197265625,0.0002661596518009901,0.006960778497159481,0.008501850068569183
1772866905947785700,2.12678564453125,-0.00033678021281957626,0.004824924282729626,0.011176995001733303
1772866905957852000,2.136851806640625,-0.0006711045280098915,0.00742006953805685,0.01053646020591259
1772866905967917800,2.146917724609375,-0.0012442166917026043,0.008877350948750973,0.007475156337022781
1772866905977984000,2.15698388671875,-0.0001787487417459488,0.01209582295268774,0.004884961061179638
1772866905988050000,2.1670498046875,-0.0038903960958123207,0.014900132082402706,-0.0003076701832469553
1772866905998116000,2.1771162109375,-0.00191772123798728,0.004592591896653175,-0.008051821030676365
1772866906008183000,2.18718310546875,0.00021653622388839722,0.0008431281894445419,-0.014887356199324131
1772866906018249000,2.1972490234375,0.00010446365922689438,0.000614614225924015,-0.011467382311820984
1772866906028315000,2.20731494140625,0.0004717137198895216,0.005826953798532486,-0.00497805792838335
1772866906038380800,2.217380859375,0.004137554671615362,0.006503662094473839,-0.0010166055290028453
1772866906048447000,2.227447021484375,0.0027186227962374687,-0.00020723696798086166,0.0047826943919062614
1772866906058513000,2.237512939453125,0.006677672266960144,0.0025575198233127594,0.005424891132861376
1772866906068579000,2.2475791015625,0.005810546688735485,0.0028169117867946625,0.00929100252687931
1772866906078645000,2.25764501953125,0.0029615331441164017,-0.005420265253633261,0.013605217449367046
1772866906088712000,2.2677119140625,0.0051085734739899635,-0.006086055655032396,0.013551421463489532
1772866906098778000,2.277778076171875,0.004606147762387991,0.005815952084958553,0.02073434181511402
1772866906108844000,2.287843994140625,0.0014151481445878744,0.009133453480899334,0.021711722016334534
1772866906118910000,2.297909912109375,0.005688953213393688,0.005980821326375008,0.020343493670225143
1772866906128976000,2.307975830078125,0.0041070356965065,0.005208505317568779,0.01784438267350197
1772866906139041800,2.318041748046875,0.0026571289636194706,0.0009815730154514313,0.01037571020424366
1772866906149108000,2.32810791015625,0.00676239188760519,-0.0051540834829211235,0.005479488987475634
1772866906159174000,2.338173828125,0.005800606682896614,-0.007210785988718271,0.00739936251193285
1772866906169240800,2.34824072265625,0.004364364314824343,-0.004094088450074196,0.008552511222660542
1772866906179307000,2.35830712890625,0.004908109083771706,0.006336485967040062,0.015984008088707924
1772866906189373000,2.368373046875,0.004145379643887281,0.005381209775805473,0.01763836480677128
1772866906199438800,2.37843896484375,0.004859820939600468,0.004135824739933014,0.017447950318455696
1772866906209504800,2.3885048828125,0.005897921044379473,-0.001526322215795517,0.012271829880774021
1772866906219571000,2.398571044921875,0.0005798586644232273,-0.004245012998580933,0.010019487701356411
1772866906229636900,2.408636962890625,-0.0010132445022463799,-0.0005514742806553841,0.00977314542979002
1772866906239703000,2.418703125,-0.003747701644897461,-0.0026217233389616013,0.006358386483043432
1772866906249770000,2.42877001953125,0.0034007555805146694,-0.0012073181569576263,0.00879491213709116
1772866906259836000,2.4388359375,0.004252787213772535,0.004273829981684685,0.007852415554225445
1772866906269902000,2.448902099609375,0.0044730305671691895,0.0021102791652083397,0.007112856488674879
1772866906279968000,2.458968017578125,0.004278845153748989,0.00009095575660467148,0.0017513283528387547
1772866906290034000,2.469033935546875,0.0029243614990264177,-0.005183168686926365,-0.0014497912488877773
1772866906300099800,2.479099853515625,-0.00027688732370734215,-0.004971783142536879,-0.0007743557798676193
1772866906310165800,2.489165771484375,0.0005715957377105951,0.002056032419204712,-0.0007075104513205588
1772866906320232000,2.49923193359375,-0.0017769294790923595,-0.0023097479715943336,-0.0010750270448625088
1772866906330299000,2.509298828125,-0.0019071581773459911,-0.003105499781668186,0.0038747242651879787
1772866906340365000,2.519364990234375,-0.0029413681477308273,0.0021331245079636574,0.0073708659037947655
1772866906350431000,2.529430908203125,-0.005629030521959066,-0.0029958579689264297,0.005387343466281891
1772866906360497000,2.539496826171875,-0.009404854848980904,0.002999052405357361,0.008729235269129276
1772866906370563000,2.54956298828125,-0.012488795444369316,0.00515594519674778,0.009485040791332722
1772866906380628700,2.559628662109375,-0.015338991768658161,0.0008925283327698708,-0.001188213936984539
1772866906390695000,2.56969482421875,-0.008848336525261402,-0.006308392621576786,-0.006453283131122589
1772866906400761900,2.579761962890625,-0.0065183136612176895,-0.00884159468114376,-0.00843115709722042
1772866906410827800,2.589827880859375,-0.00634147971868515,-0.0016899416223168373,-0.006274262443184853
1772866906420894000,2.59989404296875,-0.009345322847366333,0.0013784412294626236,-0.0014383371453732252
1772866906430959900,2.6099599609375,-0.009378612041473389,0.005137226544320583,0.0013582482933998108
1772866906441026000,2.620026123046875,-0.015312106348574162,0.012320027686655521,-0.007115821819752455
1772866906451092000,2.630092041015625,-0.018086321651935577,0.005921781994402409,-0.0229784082621336
1772866906461158100,2.640158203125,-0.01721016876399517,-0.005436854436993599,-0.04084113612771034
1772866906471223800,2.650223876953125,-0.01583012007176876,-0.009917090646922588,-0.049644481390714645
1772866906481290800,2.660290771484375,-0.011129184626042843,-0.0078734764829278,-0.053482044488191605
1772866906491357000,2.67035693359375,-0.0043458472937345505,-0.010532376356422901,-0.043626751750707626
1772866906501422800,2.6804228515625,-0.001543140970170498,-0.012628148309886456,-0.029324401170015335
1772866906511489000,2.690489013671875,-0.0007087723352015018,-0.0022197160869836807,-0.012153937481343746
1772866906521555000,2.700554931640625,0.00113170244731009,0.0007902076467871666,0.005487214308232069
1772866906531620900,2.710620849609375,0.0036646348889917135,-0.006426959298551083,0.010991435497999191
1772866906541687000,2.72068701171875,0.004536280408501625,-0.0009086159989237785,0.021417394280433655
1772866906551754000,2.73075390625,0.003009223844856024,-0.004248752258718014,0.01927674561738968
1772866906561820000,2.74081982421875,0.00015880586579442024,-0.0070647611282765865,0.01967073231935501
1772866906571885800,2.7508857421875,-0.0022446969524025917,-0.013549825176596642,0.016206491738557816
1772866906581951700,2.76095166015625,0.003042100463062525,-0.009605099447071552,0.013504235073924065
1772866906592018000,2.771017822265625,0.0039377217181026936,-0.006533942185342312,0.016414271667599678
1772866906602083800,2.781083740234375,0.007463360670953989,-0.005697245709598064,0.019479677081108093
1772866906612150000,2.79114990234375,0.004720837343484163,-0.003991224803030491,0.021710872650146484
1772866906622217000,2.801217041015625,0.009817598387598991,-0.004898967687040567,0.021435661241412163
1772866906632283000,2.811282958984375,0.009345686063170433,-0.007567189168184996,0.024053815752267838
1772866906642349000,2.82134912109375,0.008630924858152866,-0.002573498524725437,0.024077624082565308
1772866906652415000,2.8314150390625,0.007859673351049423,-0.002332482486963272,0.024126360192894936
1772866906662481000,2.84148095703125,0.005844152998179197,-0.00338120199739933,0.023221734911203384
1772866906672546800,2.851546875,0.0018432859797030687,-0.004017164930701256,0.01910289004445076
1772866906682613000,2.861613037109375,-0.0016008238308131695,-0.006082542706280947,0.014602363109588623
1772866906692680000,2.871679931640625,-0.008200136944651604,-0.006301987450569868,0.005018445663154125
1772866906702745900,2.881745849609375,-0.014248819090425968,-0.006316585466265678,-0.0025075944140553474
1772866906712812000,2.89181201171875,-0.018172722309827805,0.00025343336164951324,-0.006317512597888708
1772866906722878000,2.9018779296875,-0.0207930076867342,0.00448959693312645,-0.017184700816869736
1772866906732944100,2.911944091796875,-0.0183921679854393,0.006079504266381264,-0.021075047552585602
1772866906743010000,2.922010009765625,-0.013370629400014877,0.003461286425590515,-0.022437147796154022
1772866906753075700,2.93207568359375,-0.008346043527126312,0.002588569186627865,-0.02573201060295105
1772866906763143000,2.942142822265625,-0.005117261782288551,0.004688612185418606,-0.02999732829630375
1772866906773208800,2.952208740234375,-0.0069788116961717606,0.0035383934155106544,-0.020898105576634407
1772866906783275000,2.96227490234375,-0.00687008211389184,0.000047633424401283264,-0.020074764266610146
1772866906793341000,2.9723408203125,-0.009483974426984787,0.0023901499807834625,-0.011909778229892254
1772866906803406800,2.98240673828125,-0.012297296896576881,0.0021850522607564926,-0.005390678998082876
1772866906813473000,2.99247314453125,-0.007629308383911848,0.0006247060373425484,-0.0002619634324219078
1772866906823539000,3.0025390625,-0.006475361995398998,-0.001629517413675785,0.003441800596192479
1772866906833606000,3.01260595703125,-0.0020097740925848484,-0.002836993895471096,0.006294312421232462
1772866906843672000,3.022672119140625,-0.0014325547963380814,-0.007743379101157188,0.012825128622353077
1772866906853737700,3.03273779296875,-0.0019188481383025646,-0.004918297752737999,0.023900948464870453
1772866906863803600,3.0428037109375,-0.0009281863458454609,-0.0018705818802118301,0.0264580100774765
1772866906873869600,3.05286962890625,-0.0054987031035125256,-0.003486321307718754,0.027912629768252373
1772866906883935700,3.062935791015625,-0.006912382785230875,-0.001536056399345398,0.030452165752649307
1772866906894001700,3.073001708984375,-0.007698813918977976,0.001152670942246914,0.029422055929899216
1772866906904068600,3.083068603515625,-0.007086176425218582,0.00615430623292923,0.02564271166920662
1772866906914134800,3.093134765625,-0.006134894676506519,-0.0010953499004244804,0.02197633683681488
1772866906924200700,3.10320068359375,-0.007514414377510548,-0.001955142244696617,0.02164221741259098
1772866906934267000,3.113266845703125,-0.008496854454278946,0.000034771859645843506,0.015097497962415218
1772866906944332500,3.12333251953125,-0.008658730424940586,-0.0008932463824748993,0.01390131376683712
1772866906954398700,3.133398681640625,-0.011118159629404545,-0.0037734555080533028,0.007914792746305466
1772866906964464600,3.143464599609375,-0.01403927244246006,0.0066931284964084625,0.004436224699020386
1772866906974531600,3.153531494140625,-0.012663483619689941,0.005271797999739647,0.0010460210032761097
1772866906984597800,3.16359765625,-0.015656040981411934,0.0035780128091573715,-0.006350216921418905
1772866906994663700,3.17366357421875,-0.014893576502799988,0.006626799702644348,-0.013000929728150368
1772866907004729900,3.183729736328125,-0.015376405790448189,0.0063614072278141975,-0.01838727854192257
1772866907014795800,3.193795654296875,-0.014293564483523369,0.013432099483907223,-0.020044296979904175
1772866907024861700,3.20386181640625,-0.016793211922049522,0.0058489153161644936,-0.022283433005213737
1772866907034927600,3.213927734375,-0.009898288175463676,0.004212935455143452,-0.024742329493165016
1772866907044994800,3.223994873046875,-0.012365581467747688,-0.0004473049193620682,-0.022142015397548676
1772866907055060700,3.234060791015625,-0.014685727655887604,-0.009302581660449505,-0.018049802631139755
1772866907065126700,3.244126708984375,-0.008885182440280914,-0.005402713548392057,-0.012681456282734871
1772866907075192600,3.254192626953125,-0.012121189385652542,0.0003329366445541382,-0.0029667774215340614
1772866907085258800,3.2642587890625,-0.009783350862562656,0.007406227290630341,0.012698735110461712
1772866907095324700,3.27432470703125,-0.005516434088349342,0.0019294368103146553,0.022300496697425842
1772866907105391600,3.2843916015625,-0.004542935639619827,-0.0030021248385310173,0.026115581393241882
1772866907115457800,3.294457763671875,-0.0028297239914536476,-0.0010966332629323006,0.034732237458229065
1772866907125523700,3.304523681640625,-0.0037275911308825016,-0.006385340820997953,0.038754407316446304
1772866907135589600,3.314589599609375,-0.0036391736939549446,-0.004135236144065857,0.03870806843042374
1772866907145655600,3.324655517578125,-0.004995445255190134,-0.002652561292052269,0.04125666245818138
1772866907155721700,3.3347216796875,-0.0008510341867804527,-0.00021789968013763428,0.03837379068136215
1772866907165787600,3.34478759765625,0.000004068948328495026,0.0010857339948415756,0.033477142453193665
1772866907175854600,3.3548544921875,0.002735140500590205,-0.005966316442936659,0.024410944432020187
1772866907185920800,3.364920654296875,0.0005462139379233122,-0.010949328541755676,0.019826261326670647
1772866907195986700,3.374986572265625,0.0013896371237933636,-0.00832345150411129,0.013449055142700672
1772866907206052900,3.385052978515625,0.001679006265476346,-0.006003097165375948,0.010616621933877468
1772866907216118800,3.395118896484375,0.0019658287055790424,-0.010123806074261665,0.004842089489102364
1772866907226184700,3.405184814453125,0.0035673389211297035,-0.004618837498128414,0.003992910962551832
1772866907236252000,3.415251953125,0.00013345899060368538,0.0007476983591914177,0.00199340982362628
1772866907246317600,3.425317626953125,-0.0017193774692714214,-0.002795225940644741,-0.003391658654436469
1772866907256383700,3.4353837890625,0.0005285970401018858,-0.007067468483000994,-0.006050825119018555
1772866907266449700,3.44544970703125,0.0031794304959475994,-0.005617856979370117,-0.004440785851329565
1772866907276515800,3.455515869140625,0.002217496745288372,0.0018254118040204048,0.0025225812569260597
1772866907286581800,3.465581787109375,0.002878456376492977,0.0055268676951527596,0.004256719723343849
1772866907296647700,3.475647705078125,0.0010355489794164896,0.006964708678424358,0.005591495893895626
1772866907306715000,3.48571484375,0.0013360667508095503,0.007567279040813446,0.0012077256105840206
1772866907316780800,3.49578076171875,0.00035628979094326496,0.005702534690499306,-0.004661348648369312
1772866907326846700,3.5058466796875,-0.00041815685108304024,0.001057303510606289,-0.012797676958143711
1772866907336912600,3.51591259765625,0.0004931769799441099,-0.0010870741680264473,-0.014840587973594666
1772866907346978600,3.525978515625,0.003927894402295351,0.0019791293889284134,-0.020137561485171318
1772866907357044700,3.536044677734375,0.006154296919703484,0.00400366447865963,-0.019821444526314735
1772866907367111700,3.546111572265625,0.008837392553687096,0.006563149392604828,-0.01356072910130024
1772866907377177600,3.556177490234375,0.009071217849850655,0.00904068909585476,-0.01154631469398737
1772866907387243800,3.566243896484375,0.005638783797621727,0.005598217248916626,-0.009855472482740879
1772866907397309700,3.576309814453125,0.006677417084574699,0.013103272765874863,-0.01007038913667202
1772866907407376000,3.5863759765625,0.0023102890700101852,0.009908067993819714,-0.019442161545157433
1772866907417441500,3.596441650390625,-0.0009536808356642723,0.009727771393954754,-0.029197853058576584
1772866907427507700,3.6065078125,-0.0035358062013983727,0.00659545511007309,-0.03302380442619324
1772866907437574700,3.61657470703125,0.000450413441285491,0.00852677971124649,-0.042449530214071274
1772866907447640600,3.626640625,0.00023549655452370644,0.006026603281497955,-0.04813484847545624
1772866907457706800,3.636706787109375,0.0070619769394397736,-0.0006781714037060738,-0.04136189445853233
1772866907467772700,3.646772705078125,0.008610263466835022,-0.0013389931991696358,-0.034252796322107315
1772866907477838800,3.6568388671875,0.009931457228958607,-0.001810639165341854,-0.01901286095380783
1772866907487904800,3.66690478515625,0.01181537751108408,0.0033327238634228706,-0.0033100636210292578
1772866907497971700,3.6769716796875,0.010481933131814003,0.0001627625897526741,0.00855058990418911
1772866907508038000,3.687037841796875,0.009515319019556046,-0.0012019108980894089,0.01987568475306034
1772866907518103600,3.697103515625,0.005956270266324282,-0.0028011389076709747,0.026202822104096413
1772866907528169700,3.707169677734375,0.004963140934705734,-0.005392880644649267,0.033029355108737946
1772866907538235600,3.717235595703125,0.0011710657272487879,-0.007402768358588219,0.03130974993109703
1772866907548301800,3.7273017578125,0.0074378312565386295,-0.007572656963020563,0.029160570353269577
1772866907558368800,3.73736865234375,0.005485467612743378,-0.005273816175758839,0.030717188492417336
1772866907568434700,3.7474345703125,0.004364309832453728,0.0049099912866950035,0.02892734482884407
1772866907578500900,3.7575009765625,0.0027256666216999292,0.003512364812195301,0.016268273815512657
1772866907588566800,3.76756689453125,0.002906304784119129,-0.0020600613206624985,0.0017146840691566467
1772866907598632700,3.7776328125,0.002954241819679737,-0.008690266869962215,-0.01722465269267559
1772866907608698600,3.78769873046875,0.003948628902435303,-0.013633162714540958,-0.030326716601848602
1772866907618765800,3.797765869140625,0.00045189843513071537,-0.010923663154244423,-0.03405274450778961
1772866907628831700,3.807831787109375,-0.006908089853823185,-0.0025200368836522102,-0.03812423720955849
1772866907638897700,3.817897705078125,-0.011008825153112411,-0.0032377587631344795,-0.040210556238889694
1772866907648963600,3.827963623046875,-0.015165334567427635,0.00337360892444849,-0.03490767255425453
1772866907659029800,3.83802978515625,-0.01760052889585495,0.005575777031481266,-0.0353204645216465
1772866907669095700,3.848095703125,-0.018287625163793564,-0.003016679547727108,-0.034914806485176086
1772866907679162600,3.85816259765625,-0.017647668719291687,0.006291333585977554,-0.02596099115908146
1772866907689228800,3.868228759765625,-0.020243333652615547,0.007047941908240318,-0.016360145062208176
1772866907699294700,3.878294677734375,-0.01869710348546505,0.008448231965303421,-0.00585770420730114
1772866907709360600,3.888360595703125,-0.013563444837927818,0.006332347169518471,0.0033811829052865505
1772866907719426600,3.898426513671875,-0.010531967505812645,0.0008470341563224792,0.0009720876696519554
1772866907729492700,3.90849267578125,-0.006297427229583263,-0.0012457137927412987,0.00101996841840446
1772866907739559700,3.9185595703125,-0.006330716423690319,-0.0015035085380077362,0.0004710908397100866
1772866907749625600,3.92862548828125,-0.005363759119063616,-0.00012633856385946274,-0.0023414245806634426
1772866907759691800,3.93869189453125,-0.005982677917927504,0.005172818899154663,0.005292526446282864
1772866907769757700,3.9487578125,-0.005503728520125151,0.006648406386375427,0.007157540414482355
1772866907779823900,3.958823974609375,-0.008082734420895576,0.006830034777522087,0.004736460745334625
1772866907789889800,3.968889892578125,-0.007506617344915867,0.0019894130527973175,0.0013775250408798456
1772866907799956700,3.978956787109375,-0.003888712264597416,-0.0007413923740386963,0.0016606191638857126
1772866907810021600,3.989021728515625,-0.002913879696279764,0.000982970930635929,0.0012576263397932053
1772866907820087600,3.999087646484375,-0.00460392190143466,0.010507766157388687,-0.0023240591399371624
1772866907830153700,4.00915380859375,-0.010229618288576603,0.009840165264904499,-0.0034918070305138826
1772866907840219600,4.0192197265625,-0.011679443530738354,0.0036560380831360817,-0.005862286780029535
1772866907850286800,4.029286865234375,-0.014344431459903717,0.0021879393607378006,-0.010511578060686588
1772866907860349400,4.039349365234375,-0.014170527458190918,0.003139486536383629,-0.01601872779428959
1772866907870415000,4.0494150390625,-0.011958769522607327,0.004928487353026867,-0.014419130980968475
1772866907880481300,4.059481201171875,-0.010747830383479595,-0.0004457719624042511,-0.015633000060915947
1772866907890547200,4.069547119140625,-0.01028752326965332,0.0014551188796758652,-0.012013494968414307
1772866907900613400,4.07961328125,-0.00926300510764122,0.00569540448486805,-0.0012777604861184955
1772866907910680300,4.089680419921875,-0.006670685019344091,0.009991882368922234,0.0041526914574205875
1772866907920746200,4.099746337890625,-0.004456799011677504,0.0013786861672997475,0.009522156789898872
1772866907930812400,4.1098125,0.004277224652469158,0.0005026394501328468,0.014515429735183716
1772866907940878300,4.11987841796875,0.00534115731716156,0.003633451648056507,0.015560188330709934
1772866907950944300,4.1299443359375,0.009347738698124886,-0.002264103852212429,0.012091835960745811
1772866907961010200,4.14001025390625,0.012996802106499672,-0.0004422347992658615,0.015527312643826008
1772866907971077000,4.1500771484375,0.010730639100074768,-0.0005426183342933655,0.016078006476163864
1772866907981143300,4.160143310546875,0.011087768711149693,-0.0008483491837978363,0.016483338549733162
1772866907991209200,4.170209228515625,0.010011618956923485,0.005459140986204147,0.012926801107823849
1772866908001275400,4.180275390625,0.010093644261360168,0.002250298857688904,0.006487010978162289
1772866908011341300,4.19034130859375,0.01154792495071888,0.0043024783954024315,-0.001507538603618741
1772866908021407500,4.200407470703125,0.008878904394805431,0.0018350603058934212,-0.01404596772044897
1772866908031474400,4.210474365234375,0.007288690190762281,0.004413388669490814,-0.017766132950782776
1772866908041540400,4.220540283203125,0.003672383725643158,-0.0016253292560577393,-0.021602416411042213
1772866908051606500,4.2306064453125,-0.0018526348285377026,-0.006325278896838427,-0.01762169972062111
1772866908061672200,4.240672119140625,-0.0023224162869155407,-0.00011185836046934128,-0.009368829429149628
1772866908071738400,4.25073828125,-0.007988255470991135,0.002930101938545704,0.0005994376842863858
1772866908081804300,4.26080419921875,-0.007535784505307674,0.006265178322792053,0.00904911570250988
1772866908091871200,4.270871337890625,-0.00956264790147543,0.012824052944779396,0.013407919555902481
1772866908101937400,4.2809375,-0.009852133691310883,0.013308215886354446,0.011689381673932076
1772866908112003300,4.29100341796875,-0.009541144594550133,0.005755184218287468,0.0019171696621924639
1772866908122069200,4.3010693359375,-0.0062257759273052216,-0.011223000474274158,-0.012923294678330421
1772866908132135400,4.311135498046875,-0.003135682549327612,-0.01525965891778469,-0.018506865948438644
1772866908142201000,4.321201171875,0.0006207060068845749,-0.008670732378959656,-0.010461722500622272
1772866908152268300,4.331268310546875,0.006006457842886448,-0.0029919277876615524,0.0008817414636723697
1772866908162334200,4.341334228515625,0.006676242686808109,0.005392236635088921,0.014676915481686592
1772866908172400000,4.351400146484375,0.010282961651682854,0.008973920717835426,0.029996484518051147
1772866908182466300,4.36146630859375,0.013727760873734951,0.010525478050112724,0.03561175614595413
1772866908192532200,4.3715322265625,0.013682825490832329,0.004324357025325298,0.03382718190550804
1772866908202599200,4.38159912109375,0.010883310809731483,0.0009983358904719353,0.027729075402021408
1772866908212665300,4.391665283203125,0.007869603112339973,-0.004255753941833973,0.019533619284629822
1772866908222731300,4.401731201171875,0.0027046683244407177,-0.009977023117244244,0.004675311502069235
1772866908232797400,4.41179736328125,0.00621840450912714,-0.00794635247439146,-0.0005289301043376327
1772866908242863400,4.42186328125,0.0052524758502841,0.001805078238248825,-0.0031968848779797554
1772866908252929300,4.43192919921875,0.007549913600087166,0.002779482863843441,-0.0031990227289497852
1772866908262996200,4.441996337890625,0.0053434851579368114,0.005023995414376259,-0.002230963669717312
1772866908273062100,4.452062255859375,0.00254051573574543,0.0017946986481547356,-0.002800409682095051
1772866908283128300,4.46212841796875,0.0017809821292757988,0.00010199379175901413,-0.0049972510896623135
1772866908293194200,4.4721943359375,0.0027077544946223497,0.003313979133963585,0.0014519215328618884
1772866908303260400,4.482260498046875,0.0019010829273611307,0.00023722928017377853,0.0050724889151751995
1772866908313326300,4.492326416015625,-0.0005529439076781273,-0.004561163485050201,0.009496213868260384
1772866908323393300,4.502393310546875,-0.0011058161035180092,-0.002243414521217346,0.01802418753504753
1772866908333459500,4.51245947265625,0.0023640990257263184,0.0003517149016261101,0.024804746732115746
1772866908343525400,4.522525390625,0.003204858861863613,0.008692468516528606,0.03495192527770996
1772866908353591300,4.53259130859375,0.005958250258117914,0.00810675323009491,0.03764274716377258
1772866908363657200,4.5426572265625,0.008555897511541843,0.011925460770726204,0.033024825155735016
1772866908373724200,4.55272412109375,0.009526585228741169,0.006552583537995815,0.026516107842326164
1772866908383790300,4.562790283203125,0.010482393205165863,0.0014683427289128304,0.014213633723556995
1772866908393856300,4.572856201171875,0.010111075825989246,-0.0033316724002361298,0.00706213666126132
1772866908403922400,4.58292236328125,0.013028834946453571,-0.003370821475982666,-0.0010615697829052806
1772866908413988400,4.59298828125,0.011410586535930634,0.00012891367077827454,-0.004978017415851355
1772866908424054300,4.60305419921875,0.006978554185479879,0.0034666527062654495,-0.005829696077853441
1772866908434121500,4.61312158203125,0.007091396488249302,0.008426166139543056,-0.010519471019506454
1772866908444187400,4.6231875,0.008051998913288116,0.0036641666665673256,-0.009999888017773628
1772866908454253300,4.63325341796875,0.008113180287182331,0.0018338477239012718,-0.010341150686144829
1772866908464319200,4.6433193359375,0.005931784864515066,-0.002307102084159851,-0.006879573222249746
1772866908474385200,4.65338525390625,0.007301026955246925,0.0011874213814735413,-0.0018592451233416796
1772866908484451300,4.663451416015625,0.008584404364228249,0.004206379875540733,0.007074861321598291
1772866908494518300,4.673518310546875,0.006009700242429972,0.005317178554832935,0.009257745929062366
1772866908504584200,4.683584228515625,0.006519429385662079,0.004510239697992802,0.011215169914066792
1772866908514650400,4.693650390625,0.003372591221705079,0.006440723314881325,0.010635036043822765
1772866908524716300,4.70371630859375,0.00307857827283442,0.005196759477257729,0.013315241783857346
1772866908534782500,4.713782470703125,0.0014820010401308537,0.004882685840129852,0.01598551496863365
1772866908544849400,4.723849365234375,0.004498563706874847,0.0034834612160921097,0.017580747604370117
1772866908554915000,4.7339150390625,0.004519892390817404,0.0029207682237029076,0.017148636281490326
1772866908564981200,4.743981201171875,0.004686073865741491,0.0019567040726542473,0.016132639721035957
1772866908575047200,4.754047119140625,0.007719515822827816,0.0035127680748701096,0.014860143885016441
1772866908585113300,4.76411328125,0.005114145111292601,0.0024546952918171883,0.013971180655062199
1772866908595179300,4.77417919921875,0.0017021885141730309,-0.0015485351905226707,0.01238712202757597
1772866908605246200,4.78424609375,0.00506762508302927,0.0009705480188131332,0.013105376623570919
1772866908615312400,4.7943125,0.000896986573934555,0.004538864828646183,0.014995665289461613
1772866908625378300,4.80437841796875,-0.0012111719697713852,0.008333335630595684,0.01596691831946373
1772866908635444500,4.814444580078125,-0.0011132699437439442,0.006540381349623203,0.010830292478203773
1772866908645510100,4.82451025390625,-0.00254631694406271,0.009980387054383755,0.0055993120186030865
1772866908655577000,4.8345771484375,-0.0027220016345381737,0.0031394073739647865,-0.00375808565877378
1772866908665643300,4.844643310546875,-0.006065067369490862,-0.0028018392622470856,-0.014070111326873302
1772866908675709200,4.854709228515625,-0.0038537695072591305,-0.0012914696708321571,-0.014160978607833385
1772866908685775400,4.864775390625,-0.00397174758836627,-0.0010387357324361801,-0.011318054050207138
1772866908695841300,4.87484130859375,-0.0015735821798443794,0.008010204881429672,-0.00878116674721241
1772866908705907500,4.884907470703125,-0.0004593157209455967,0.009313022717833519,-0.0034966561943292618
1772866908715974400,4.894974365234375,0.001866429578512907,0.007358580827713013,0.0006996251759119332
1772866908726040300,4.905040283203125,0.001995326718315482,0.002384861931204796,0.0032498682849109173
1772866908736106500,4.9151064453125,0.0005582140292972326,0.0035958727821707726,0.008124672807753086
1772866908746172200,4.925172119140625,-0.001528372522443533,0.0025124987587332726,0.01235883217304945
1772866908756238300,4.93523828125,0.0004947553388774395,-0.0008703386411070824,0.014799139462411404
1772866908766305300,4.94530517578125,0.0021187509410083294,0.0002617714926600456,0.015328841283917427
1772866908776371200,4.95537109375,0.0028483467176556587,-0.0015586884692311287,0.017701981589198112
1772866908786437400,4.965437255859375,0.0035213276278227568,-0.0029600439593195915,0.017523283138871193
1772866908796503300,4.97550341796875,0.0038843867368996143,-0.0010714028030633926,0.021362341940402985
1772866908806569200,4.9855693359375,0.005605321377515793,0.004129485227167606,0.0239165797829628
1772866908816636400,4.995636474609375,0.004104514606297016,0.007941183634102345,0.02221258357167244
1772866908826702300,5.005702392578125,0.0016900929622352123,0.004555507563054562,0.014839090406894684
1772866908836768500,5.0157685546875,0.0037330356426537037,-0.0005229376256465912,0.009953740984201431
1772866908846834200,5.025834228515625,0.005407365038990974,-0.0033133970573544502,0.008844801224768162
1772866908856900000,5.035900146484375,0.0032433639280498028,0.0016791103407740593,0.00562865287065506
1772866908866966300,5.04596630859375,-0.002402004785835743,0.006277323700487614,0.00984576903283596
1772866908877033200,5.056033203125,-0.005463041830807924,0.005963870324194431,0.009919538162648678
1772866908887099400,5.066099365234375,-0.007493435870856047,0.008758590556681156,0.011313170194625854
1772866908897165000,5.0761650390625,-0.008803769014775753,0.013161202892661095,0.005126736126840115
1772866908907231000,5.08623095703125,-0.00466495007276535,0.011675424873828888,-0.003701908979564905
1772866908917297200,5.096297119140625,-0.0034417733550071716,-0.0009373733773827553,-0.01654813438653946
1772866908927364000,5.106364013671875,-0.006464993581175804,-0.005945713724941015,-0.02816031500697136
1772866908937430000,5.116429931640625,-0.005857837852090597,-0.003434775397181511,-0.02923595905303955
1772866908947496200,5.12649609375,-0.00011180201545357704,0.0016172407194972038,-0.01695212908089161
1772866908957562000,5.13656201171875,0.004696927964687347,-0.003341417759656906,-0.0055138105526566505
1772866908967628300,5.146628173828125,0.005834097508341074,0.004518370144069195,0.01221352070569992
1772866908977694200,5.156694091796875,0.012521213851869106,0.013623726554214954,0.022583821788430214
1772866908987761200,5.16676123046875,0.009316366165876389,0.006842519156634808,0.02616204507648945
1772866908997827300,5.176827392578125,0.011826204136013985,-0.0013828286901116371,0.025423232465982437
1772866909007893000,5.18689306640625,0.011608092114329338,-0.003964763134717941,0.026390492916107178
1772866909017959200,5.196959228515625,0.010491728782653809,-0.004092763178050518,0.024281591176986694
1772866909028025000,5.207025146484375,0.0071558537892997265,-0.0032828962430357933,0.01740450970828533
1772866909038092000,5.217092041015625,0.009836801327764988,-0.005703301168978214,0.015576071105897427
1772866909048158200,5.227158203125,0.008716143667697906,-0.005018069874495268,0.01472652330994606
1772866909058224000,5.23722412109375,0.007280767895281315,0.00044585857540369034,0.015615866519510746
1772866909068290300,5.247290283203125,0.007966797798871994,-0.001054299995303154,0.019494760781526566
1772866909078356200,5.257356201171875,0.007004653103649616,0.0037335027009248734,0.023095160722732544
1772866909088423200,5.267423095703125,0.007663785479962826,0.0013742074370384216,0.018932640552520752
1772866909098489300,5.2774892578125,0.007083004340529442,-0.006139685865491629,0.014080824330449104
1772866909108555000,5.287554931640625,0.007853723131120205,-0.006221444811671972,0.011995835229754448
1772866909118621200,5.29762109375,0.006921930704265833,-0.002156234346330166,0.008502292446792126
1772866909128687000,5.30768701171875,0.00370003841817379,-0.004213525913655758,0.013907178305089474
1772866909138754000,5.317754150390625,0.005112265236675739,-0.0018519964069128036,0.019194094464182854
1772866909148820200,5.3278203125,0.003729285905137658,0.0031752530485391617,0.022388823330402374
1772866909158886100,5.33788623046875,-0.001000111922621727,0.01165307778865099,0.026864267885684967
1772866909168952300,5.347952392578125,-0.005344793200492859,0.018627896904945374,0.02020689845085144
1772866909179018200,5.358018310546875,-0.006834840402007103,0.007013794034719467,0.010149533860385418
1772866909189084400,5.36808447265625,-0.004506172612309456,0.0033732522279024124,-0.0012400075793266296
1772866909199151400,5.3781513671875,0.0002493583597242832,-0.00016032066196203232,-0.010966618545353413
1772866909209217000,5.388217041015625,-0.001070238184183836,0.001759285107254982,-0.022182520478963852
1772866909219283200,5.398283203125,0.0008782106451690197,0.0009115869179368019,-0.022386470809578896
1772866909229349000,5.40834912109375,-0.002197474241256714,0.010594041086733341,-0.022121485322713852
1772866909239415300,5.418415283203125,-0.0009753038175404072,0.012073587626218796,-0.02236783690750599
1772866909249482200,5.428482177734375,-0.0017747851088643074,0.005317680537700653,-0.02484324388206005
1772866909259548200,5.438548095703125,0.0012441123835742474,0.005125378258526325,-0.023435242474079132
1772866909269614300,5.4486142578125,0.004424192942678928,0.011100978590548038,-0.017010632902383804
1772866909279680300,5.45868017578125,0.00878586433827877,0.01245779450982809,-0.007099771406501532
1772866909289746200,5.46874609375,0.00908094272017479,0.0044043948873877525,-0.0018773125484585762
1772866909299813400,5.4788134765625,0.01744578778743744,0.004766039550304413,0.0019040493061766028
1772866909309879000,5.488879150390625,0.018257785588502884,0.0017050011083483696,0.008189375512301922
1772866909319945200,5.4989453125,0.022222405299544334,0.000009440816938877106,0.012448878958821297
1772866909330011100,5.50901123046875,0.024593152105808258,-0.005660695023834705,0.014103234745562077
1772866909340077000,5.5190771484375,0.03104747273027897,-0.014721919782459736,0.02521516941487789
1772866909350144300,5.529144287109375,0.03244110569357872,-0.0014117071405053139,0.03607527166604996
1772866909360210200,5.539210205078125,0.029795385897159576,0.012437211349606514,0.04014098271727562
1772866909370276000,5.549276123046875,0.027726909145712852,-0.000004278495907783508,0.03822377324104309
1772866909380342300,5.55934228515625,0.022845860570669174,0.00023971032351255417,0.03577321022748947
1772866909390408200,5.569408203125,0.022899124771356583,-0.0024191895499825478,0.03304826468229294
1772866909400475100,5.57947509765625,0.02303510718047619,-0.000337895005941391,0.04067893698811531
1772866909410541000,5.589541015625,0.01787763088941574,0.002568146213889122,0.03674278408288956
1772866909420607000,5.59960693359375,0.017712466418743134,0.003710429184138775,0.03819173201918602
1772866909430673200,5.609673095703125,0.014467937871813774,0.004976230673491955,0.03146831691265106
1772866909440739000,5.619739013671875,0.010724727064371109,0.001954011619091034,0.023991350084543228
1772866909450806000,5.629805908203125,0.0060000126250088215,-0.0013483082875609398,0.01563355326652527
1772866909460872200,5.6398720703125,0.005909629166126251,0.0008027106523513794,0.014460792765021324
1772866909470938000,5.649938232421875,0.0014813248999416828,0.006915198639035225,0.012442382983863354
1772866909481004300,5.66000439453125,0.0016979421488940716,0.013898289762437344,0.01377919316291809
1772866909491070200,5.6700703125,0.0009565181098878384,0.010592508129775524,0.008889096789062023
1772866909501137200,5.68013720703125,-0.0037076775915920734,0.01132490485906601,0.002112162299454212
1772866909511203300,5.690203369140625,-0.002703399397432804,0.005748778581619263,-0.00005778117338195443
1772866909521269000,5.70026904296875,-0.0018592276610434055,0.006158147007226944,0.004168578889220953
1772866909531335200,5.710335205078125,-0.004624121356755495,0.009578712284564972,0.0038580545224249363
1772866909541401000,5.720401123046875,0.0008402764797210693,0.006259075365960598,0.004593291319906712
1772866909551468000,5.730468017578125,0.004459778778254986,0.004280080087482929,0.004767728503793478
1772866909561534200,5.7405341796875,0.007406723685562611,0.0012292973697185516,0.007395285181701183
1772866909571600100,5.75060009765625,0.011653134599328041,-0.001667688600718975,0.007032296154648066
1772866909581666300,5.760666259765625,0.009384071454405785,-0.00477448757737875,0.007215178105980158
1772866909591732200,5.770732177734375,0.008194703608751297,-0.00031475815922021866,0.01647285744547844
1772866909601799200,5.780799072265625,0.007263921666890383,0.005707279779016972,0.026388773694634438
1772866909611865300,5.790865234375,0.0033642547205090523,0.01644621044397354,0.03859616816043854
1772866909621931000,5.800930908203125,-0.00033423444256186485,0.0069735292345285416,0.03319821506738663
1772866909631997200,5.8109970703125,0.004476499743759632,0.003568677231669426,0.031739335507154465
1772866909642063000,5.82106298828125,0.0025689341127872467,-0.0025594504550099373,0.03277938812971115
1772866909652129300,5.83112939453125,0.0009358839597553015,-0.002973305992782116,0.0320398285984993
1772866909662196200,5.8411962890625,0.0003113504499197006,-0.0024206768721342087,0.032719701528549194
1772866909672262100,5.85126220703125,0.00012652715668082237,-0.000713057816028595,0.03324487805366516
1772866909682328300,5.861328369140625,-0.0029606022872030735,0.004227007739245892,0.03227345272898674
1772866909692394200,5.871394287109375,-0.005390204023569822,0.0061948178336024284,0.02698761224746704
1772866909702461200,5.881461181640625,-0.006609125528484583,0.000014055520296096802,0.018102608621120453
1772866909712527400,5.89152734375,-0.00831754319369793,0.005367808043956757,0.010395952500402927
1772866909722593000,5.901593017578125,-0.014477251097559929,-0.0005894098430871964,0.010572738945484161
1772866909732659200,5.9116591796875,-0.010417794808745384,-0.0028528301045298576,0.004591545555740595
1772866909742725000,5.92172509765625,-0.008892927318811417,-0.0007236460223793983,0.005980103742331266
1772866909752791000,5.931791015625,-0.006832706276327372,-0.003963914699852467,0.01336105540394783
1772866909762858200,5.941858154296875,-0.011292701587080956,0.002804775722324848,0.01703435368835926
1772866909772924200,5.951924072265625,-0.01059894822537899,0.0009911628440022469,0.023518618196249008
1772866909782990300,5.961990234375,-0.011678818613290787,0.0069664958864450455,0.020036691799759865
1772866909793056300,5.97205615234375,-0.013883650302886963,0.004916928708553314,0.014597450383007526
1772866909803123200,5.982123291015625,-0.010250581428408623,-0.0007647396996617317,0.0008542748400941491
1772866909813189400,5.992189453125,-0.010021816939115524,-0.0033256355673074722,-0.009065999649465084
1772866909823255000,6.002255126953125,-0.008727336302399635,-0.007909460924565792,-0.011679141782224178
1772866909833321200,6.0123212890625,-0.005390395410358906,-0.009746243245899677,-0.00973530113697052
1772866909843387100,6.02238720703125,0.0011660647578537464,-0.0034777112305164337,-0.00024083160678856075
1772866909853454000,6.0324541015625,0.0013767208438366652,0.0003031780943274498,0.00969515647739172
1772866909863523000,6.042523193359375,0.0017896932549774647,-0.0017407946288585663,0.014612635597586632
1772866909873589000,6.052589111328125,0.0031351223587989807,-0.00416933186352253,0.018713371828198433
1772866909883655200,6.0626552734375,0.003760483581572771,-0.004832819104194641,0.019595399498939514
1772866909893721000,6.07272119140625,0.0035181359853595495,-0.0055548022501170635,0.01998475380241871
1772866909903788000,6.0827880859375,0.0008913015481084585,-0.00931527093052864,0.01681240275502205
1772866909913854200,6.092854248046875,-0.0009372248314321041,-0.008006327785551548,0.013610749505460262
1772866909923920100,6.102920166015625,-0.002710482571274042,-0.006278729997575283,0.018081460148096085
1772866909933986000,6.112986083984375,-0.005728643387556076,-0.010344045236706734,0.01798452064394951
1772866909944052000,6.123052001953125,-0.005439990200102329,-0.011760938912630081,0.02121620997786522
1772866909954119000,6.133118896484375,-0.007008325308561325,-0.004336577840149403,0.020295821130275726
1772866909964185000,6.14318505859375,-0.009609617292881012,0.002025976777076721,0.016900338232517242
1772866909974251000,6.1532509765625,-0.010302838869392872,-0.004337646067142487,0.006337176077067852
1772866909984317200,6.163317138671875,-0.009467803873121738,-0.00671042175963521,-0.003092848462983966
1772866909994383000,6.173383056640625,-0.003999269567430019,-0.02679704874753952,-0.006117400713264942
1772866910004450000,6.183449951171875,-0.0022491486743092537,-0.0014998642727732658,-0.005159199703484774
1772866910014516200,6.19351611328125,-0.00222571287304163,0.0017156358808279037,-0.00490912888199091
1772866910024582100,6.20358203125,0.0032112975604832172,-0.00635747704654932,-0.01222500391304493
1772866910034648000,6.21364794921875,0.007202310487627983,-0.004051978699862957,-0.015742240473628044
1772866910044714000,6.2237138671875,0.007573705166578293,-0.0054662046022713184,-0.015112508088350296
1772866910054781000,6.233781005859375,0.00702962139621377,-0.003913581371307373,-0.010706573724746704
1772866910064847000,6.24384716796875,0.011928373016417027,0.0028448225930333138,-0.0028920983895659447
1772866910074913000,6.2539130859375,0.014970501884818077,0.006668057292699814,0.006539219990372658
1772866910084979000,6.26397900390625,0.01700892671942711,0.0032456256449222565,0.012055582366883755
1772866910095045000,6.274045166015625,0.021426046267151833,-0.002650347538292408,0.01172614935785532
1772866910105112000,6.284112060546875,0.016425486654043198,-0.009521224536001682,0.007895015180110931
1772866910115178000,6.294177978515625,0.016331477090716362,-0.01392955519258976,0.0026592412032186985
1772866910125244200,6.304244140625,0.007304010912775993,-0.008253205567598343,0.006784582044929266
1772866910135309800,6.314309814453125,-0.0005674944259226322,-0.0062470464035868645,0.007138249929994345
1772866910145376000,6.3243759765625,-0.007590866181999445,0.004100935533642769,0.010140118189156055
1772866910155443000,6.33444287109375,-0.009280376136302948,0.009994510561227798,0.010537461377680302
1772866910165508900,6.3445087890625,-0.009857690893113613,0.0026327455416321754,-0.00027122930623590946
1772866910175575000,6.354574951171875,-0.012149606831371784,-0.0029114224016666412,-0.013948159292340279
1772866910185641000,6.364640869140625,-0.009284304454922676,-0.003710733726620674,-0.017355574294924736
1772866910195708200,6.374708251953125,-0.008267775177955627,-0.005833539180457592,-0.022658994421362877
1772866910205774000,6.384774169921875,-0.010312626138329506,-0.0030927034094929695,-0.019375264644622803
1772866910215840000,6.394840087890625,-0.012217053212225437,-0.00243410374969244,-0.014036690816283226
1772866910225906200,6.40490625,-0.010854477062821388,0.0008856086060404778,-0.010294970124959946
1772866910235972000,6.41497216796875,-0.013946406543254852,0.0020030708983540535,-0.009785774163901806
1772866910246039000,6.4250390625,-0.013531952165067196,-0.004021679051220417,-0.0093148872256279
1772866910256105000,6.43510498046875,-0.010450940579175949,-0.0023699868470430374,-0.006937483791261911
1772866910266171000,6.4451708984375,-0.008301131427288055,-0.002618486061692238,-0.00277115311473608
1772866910276237000,6.455237060546875,-0.006534923333674669,0.0006068684160709381,0.0039967382326722145
1772866910286303000,6.465302978515625,-0.006412310525774956,0.0010749651119112968,0.007275361102074385
1772866910296370000,6.475369873046875,-0.006663712672889233,-0.002763981930911541,0.010188858956098557
1772866910306436000,6.48543603515625,-0.00905865989625454,-0.0037969304248690605,0.015868373215198517
1772866910316502000,6.495501953125,-0.005570718087255955,-0.0018365774303674698,0.018003161996603012
1772866910326568200,6.505568115234375,-0.0058934930711984634,-0.0006144531071186066,0.016559995710849762
1772866910336634000,6.515634033203125,-0.005377105437219143,-0.0027457810938358307,0.014092843979597092
1772866910346701000,6.525701171875,-0.006058950442820787,-0.006121160462498665,0.014508083462715149
1772866910356767000,6.53576708984375,-0.006554031278938055,0.0015125246718525887,0.01219113264232874
1772866910366833000,6.5458330078125,-0.0062000565230846405,-0.00007152557373046875,0.007872174493968487
1772866910376899000,6.555899169921875,-0.006734819151461124,-0.0031559988856315613,0.006155235227197409
1772866910386965000,6.565965087890625,-0.007400908973067999,0.00062613096088171,-0.00080339569831267
1772866910397032000,6.576031982421875,-0.008169496431946754,-0.003950777463614941,-0.007747854106128216
1772866910407098000,6.58609814453125,-0.006496573332697153,-0.0021550962701439857,-0.012147876434028149
1772866910417164000,6.5961640625,-0.005080570932477713,-0.00100807286798954,-0.012060791254043579
1772866910427230200,6.606230224609375,-0.005848717875778675,-0.0010332763195037842,-0.01077250111848116
1772866910437296000,6.616296142578125,0.0003644367679953575,0.00039977114647626877,-0.011831107549369335
1772866910447363000,6.626363037109375,0.0009343794081360102,0.0013190824538469315,-0.00786589551717043
1772866910457429000,6.636428955078125,0.0007532844319939613,0.006118364632129669,-0.00540406908839941
1772866910467495000,6.646494873046875,-0.0040382323786616325,0.00895516388118267,-0.009511572308838367
1772866910477561000,6.65656103515625,-0.00432292465120554,0.00341792032122612,-0.019137568771839142
1772866910487628000,6.6666279296875,-0.006203368306159973,0.002856798470020294,-0.027924008667469025
1772866910497694000,6.67669384765625,-0.009865215048193932,-0.0027265185490250587,-0.031172800809144974
1772866910507760000,6.686760009765625,-0.007624056655913591,-0.0014701234176754951,-0.042029969394207
1772866910517826000,6.696825927734375,-0.007951624691486359,0.0012055542320013046,-0.04154101386666298
1772866910527892200,6.706892333984375,-0.005653300788253546,-0.003994720987975597,-0.03949577361345291
1772866910537959200,6.716959228515625,-0.0015704082325100899,-0.0012844214215874672,-0.030849022790789604
1772866910548025000,6.727025146484375,-0.00230181822553277,-0.0008756015449762344,-0.013286354951560497
1772866910558091300,6.73709130859375,-0.0005912696942687035,0.0016144542023539543,-0.0025607403367757797
1772866910568157000,6.747156982421875,0.0014681422617286444,-0.0031055789440870285,0.008111055940389633
1772866910578223000,6.75722314453125,0.00036106607876718044,-0.0003449460491538048,0.01844119094312191
1772866910588290000,6.7672900390625,0.0005121256690472364,0.00317203626036644,0.018101120367646217
1772866910598356000,6.77735595703125,-0.003171292133629322,0.0030053220689296722,0.013071474619209766
1772866910608422100,6.787422119140625,-0.004173248540610075,0.005850551649928093,0.0035286215133965015
1772866910618488000,6.797488037109375,-0.005457957740873098,0.005858808755874634,-0.007302721031010151
1772866910628554000,6.807553955078125,-0.003597348928451538,0.0017777737230062485,-0.015862448140978813
1772866910638621200,6.81762109375,-0.001748848706483841,0.0002978546544909477,-0.024834105744957924
1772866910648687000,6.82768701171875,-0.0015959413722157478,0.0021985508501529694,-0.025598276406526566
1772866910658753300,6.837753173828125,-0.0009799525141716003,0.0035218754783272743,-0.01755792647600174
1772866910668819000,6.84781884765625,0.0007491470314562321,0.0076634567230939865,-0.013603279367089272
1772866910678884900,6.857884765625,0.004293547943234444,0.008621929213404655,-0.009151806123554707
1772866910688952000,6.8679521484375,0.002034439705312252,0.009633089415729046,-0.004143122583627701
1772866910699018000,6.87801806640625,0.0011191111989319324,0.003503025509417057,0.00010222225682809949
1772866910709084200,6.888084228515625,-0.0046779317781329155,-0.0019901301711797714,-0.00101945991627872
1772866910719150000,6.898150146484375,-0.008181320503354073,0.0022871727123856544,0.006035253405570984
1772866910729216000,6.908216064453125,-0.009184960275888443,0.003962007351219654,0.009185588918626308
1772866910739283200,6.918283203125,-0.01043265126645565,0.007620924152433872,0.0107928067445755
1772866910749349000,6.92834912109375,-0.007250531110912561,0.01149032823741436,0.009664544835686684
1772866910759415000,6.9384150390625,-0.009009283035993576,0.009597619995474815,0.0021725394763052464
1772866910769481000,6.94848095703125,-0.010021250694990158,0.004011201672255993,-0.004298884887248278
1772866910779547000,6.958546875,-0.004074145574122667,0.0029954714700579643,-0.014483079314231873
1772866910789614000,6.968614013671875,-0.004685740917921066,-0.0015919264405965805,-0.016327280551195145
1772866910799680000,6.978679931640625,-0.0014606527984142303,0.0017788363620638847,-0.01677495799958706
1772866910809746000,6.988745849609375,-0.0006325487047433853,0.0035092923790216446,-0.010274319909512997
1772866910819812000,6.99881201171875,-0.0015342952683568,0.00041736289858818054,-0.006464934442192316
1772866910829878000,7.0088779296875,-0.0041373781859874725,0.003706183284521103,-0.0005244915373623371
1772866910839945000,7.018945068359375,-0.006152592599391937,0.005568264052271843,-0.0005170346703380346
1772866910850011100,7.02901123046875,-0.00780229177325964,0.007545466534793377,0.005636742804199457
1772866910860073700,7.03907373046875,-0.0038115447387099266,0.004749148152768612,0.005622628144919872
1772866910870140000,7.049139892578125,-0.0054361531510949135,0.00041947606950998306,-0.00002569059142842889
1772866910880205800,7.059205810546875,-0.005378096364438534,0.003925261087715626,-0.0050116609781980515
1772866910890272800,7.069272705078125,-0.011600621044635773,-0.0000683153048157692,-0.004517102614045143
1772866910900339000,7.0793388671875,-0.009388599544763565,0.0006563300266861916,-0.013573448173701763
1772866910910404900,7.08940478515625,-0.01191226951777935,-0.0013210810720920563,-0.020252935588359833
1772866910920471000,7.099470947265625,-0.012020394206047058,-0.00012239161878824234,-0.016439288854599
1772866910930536700,7.10953662109375,-0.011673864908516407,0.00038798246532678604,-0.019643159583210945
1772866910940603600,7.119603759765625,-0.011192364618182182,0.0016037160530686378,-0.018453791737556458
1772866910950669800,7.129669921875,-0.0073438649997115135,-0.0014904402196407318,-0.015480960719287395
1772866910960735700,7.13973583984375,-0.007338805124163628,-0.0025764768943190575,-0.00846725981682539
1772866910970802000,7.149802001953125,-0.007180340122431517,-0.003308677114546299,-0.0005509136244654655
1772866910980867800,7.159867919921875,-0.008339613676071167,-0.004308694042265415,0.008036714978516102
1772866910990934800,7.169934814453125,-0.008661890402436256,0.0011341813951730728,0.015937991440296173
1772866911001001000,7.1800009765625,-0.009016091004014015,0.0023347344249486923,0.01743149198591709
1772866911011067000,7.19006689453125,-0.01131376437842846,0.002715049311518669,0.019628770649433136
1772866911021133000,7.200133056640625,-0.006153889466077089,-0.0044571105390787125,0.020761413499712944
1772866911031198700,7.21019873046875,-0.0038458900526165962,0.0007296809926629066,0.017286956310272217
1772866911041265700,7.220265625,-0.002691942732781172,-0.0009971121326088905,0.014932454563677311
1772866911051331800,7.230331787109375,-0.002102265600115061,-0.0012266132980585098,0.012647822499275208
1772866911061397800,7.240397705078125,-0.0007576355710625648,0.0025542769581079483,0.009178522042930126
1772866911071464000,7.2504638671875,-0.0027672159485518932,0.004807040095329285,0.011617069132626057
1772866911081529900,7.26052978515625,-0.0023935744538903236,0.004674414172768593,0.0009116944274865091
1772866911091596800,7.2705966796875,-0.007525533437728882,-0.0032656975090503693,-0.009726027026772499
1772866911101663000,7.2806630859375,-0.007099959999322891,-0.0005791010335087776,-0.018905412405729294
1772866911111729000,7.29072900390625,-0.006904142908751965,-0.004060029052197933,-0.027210531756281853
1772866911121794800,7.300794921875,-0.0068673910573124886,-0.000406704843044281,-0.030671842396259308
1772866911131860700,7.31086083984375,-0.009908905252814293,0.005149438977241516,-0.03278634324669838
1772866911141928000,7.320927978515625,-0.009960837662220001,0.004795771092176437,-0.034804221242666245
1772866911151993900,7.330993896484375,-0.00751247676089406,0.00956930872052908,-0.033760424703359604
1772866911162059800,7.341059814453125,-0.004848517011851072,0.009546938352286816,-0.03455484285950661
1772866911172125700,7.351125732421875,-0.0023966385051608086,0.0038375984877347946,-0.03267330303788185
1772866911182191900,7.36119189453125,0.003001322504132986,-0.0010085562244057655,-0.029559535905718803
1772866911192258800,7.3712587890625,0.015118949115276337,-0.004218230023980141,-0.021035412326455116
1772866911202325000,7.381324951171875,0.01940637268126011,0.0021432628855109215,-0.001773566473275423
1772866911212391000,7.391390869140625,0.020083902403712273,0.010162871330976486,0.018488949164748192
1772866911222456800,7.401456787109375,0.015369042754173279,0.012081412598490715,0.03305031731724739
1772866911232522800,7.411522705078125,0.014757128432393074,0.006221913732588291,0.03611113503575325
1772866911242590000,7.42158984375,0.014119302853941917,0.0029273172840476036,0.03610554337501526
1772866911252655900,7.43165576171875,0.008689163252711296,0.004624178633093834,0.03764590620994568
1772866911262721800,7.4417216796875,0.008903281763195992,0.0008454183116555214,0.023655522614717484
1772866911272787700,7.45178759765625,0.007630755193531513,0.001470276154577732,0.015595884993672371
1772866911282854000,7.46185400390625,0.005483981221914291,-0.003368421457707882,0.005556565709412098
1772866911292920800,7.4719208984375,0.007904439233243465,0.001100468449294567,0.0017662065802142024
1772866911302986800,7.48198681640625,0.009538820944726467,-0.00009316019713878632,-0.0000865546171553433
1772866911313053000,7.492052978515625,0.012305197305977345,-0.00004930328577756882,-0.0006456570117734373
1772866911323118800,7.502118896484375,0.013110004365444183,0.005890078842639923,0.005652718711644411
1772866911333185000,7.51218505859375,0.013348543085157871,0.00372946634888649,0.008182406425476074
1772866911343252000,7.522251953125,0.011059289798140526,0.003460220992565155,0.003236916847527027
1772866911353317600,7.532317626953125,0.01145290955901146,0.00020014401525259018,0.0010415080469101667
1772866911363383800,7.5423837890625,0.00562005490064621,-0.0017996234819293022,-0.005600415635854006
1772866911373449700,7.55244970703125,0.00051170215010643,0.0013804435729980469,-0.01469490583986044
1772866911383516000,7.562515869140625,-0.00213734433054924,0.003598857671022415,-0.011699914932250977
1772866911393581800,7.572581787109375,-0.002540621906518936,0.0033478988334536552,-0.010654570534825325
1772866911403648800,7.582648681640625,-0.004863697569817305,0.00154067762196064,-0.0077895428985357285
1772866911413715000,7.59271484375,0.0007441621273756027,0.002108193002641201,-0.00372939626686275
1772866911423780900,7.60278076171875,0.00572347454726696,-0.002327302470803261,-0.002572519239038229
1772866911433847000,7.612846923828125,0.009611191228032112,-0.0035368166863918304,0.0046457694843411446
1772866911443912700,7.62291259765625,0.01128099299967289,-0.0009570121765136719,0.017433203756809235
1772866911453979600,7.632979736328125,0.010019330307841301,0.0019738096743822098,0.02489197999238968
1772866911464045800,7.6430458984375,0.007573749870061874,-0.0012376969680190086,0.03236427530646324
1772866911474111700,7.65311181640625,0.01207159273326397,-0.0014566760510206223,0.030878720805048943
1772866911484178000,7.663177978515625,0.00821932964026928,-0.006136382929980755,0.03229658678174019
1772866911494243800,7.673243896484375,0.009302709251642227,-0.008459294214844704,0.0226919986307621
1772866911504310800,7.683310791015625,0.008920278400182724,-0.0033375034108757973,0.018092453479766846
1772866911514377000,7.693376953125,0.0061460938304662704,0.001305650919675827,0.008783861063420773
1772866911524443000,7.70344287109375,0.002485845470800996,0.0005003111436963081,-0.0004016477905679494
1772866911534509000,7.713509033203125,0.004229381680488586,-0.004132886417210102,-0.0069168610498309135
1772866911544574700,7.72357470703125,0.0027854156214743853,-0.0014958251267671585,-0.015853364020586014
1772866911554641700,7.7336416015625,-0.000014977995306253433,-0.0017325663939118385,-0.020491573959589005
1772866911564707800,7.743707763671875,0.0029371357522904873,-0.00499254185706377,-0.023685770109295845
1772866911574773800,7.753773681640625,0.0015960833989083767,-0.0048768771812319756,-0.018116729333996773
1772866911584840000,7.76383984375,0.0009518647566437721,-0.006274770479649305,-0.012178146280348301
1772866911594905900,7.77390576171875,0.0012329081073403358,0.0014619668945670128,0.0022674212232232094
1772866911604971800,7.7839716796875,-0.0009029470384120941,0.004176527261734009,0.013093970715999603
1772866911615039000,7.7940390625,0.001110640587285161,0.005765704438090324,0.022607624530792236
1772866911625105000,7.80410498046875,-0.0012696925550699234,0.001452447846531868,0.028615981340408325
1772866911635170800,7.8141708984375,0.0009987764060497284,0.0015029851347208023,0.03068559058010578
1772866911645236700,7.82423681640625,0.002461118157953024,-0.00651179812848568,0.02628338523209095
1772866911655302700,7.834302734375,0.004808543715626001,-0.008276855573058128,0.02472953498363495
1772866911665369900,7.844369873046875,0.005319071933627129,-0.003862665966153145,0.02070469968020916
1772866911675435800,7.854435791015625,0.006535670720040798,-0.0025496939197182655,0.019635450094938278
1772866911685501700,7.864501708984375,0.0066544474102556705,0.002037067897617817,0.015885453671216965
1772866911695568000,7.87456787109375,0.007361832074820995,-0.0016060862690210342,0.0056542158126831055
1772866911705633800,7.8846337890625,0.007078205235302448,-0.003957390785217285,0.0021207337267696857
1772866911715700000,7.894699951171875,0.006929445080459118,-0.002871699631214142,0.0022712056525051594
1772866911725767000,7.904766845703125,0.006421314086765051,-0.005875478498637676,0.0063016340136528015
1772866911735832800,7.914832763671875,0.004544926341623068,-0.0031879907473921776,0.010650523006916046
1772866911745898800,7.924898681640625,0.0011579180136322975,-0.000028949230909347534,0.013281726278364658
1772866911755964700,7.934964599609375,-0.0020226198248565197,0.0026289764791727066,0.012206288985908031
1772866911766030800,7.94503076171875,-0.004716140683740377,-0.001767103560268879,0.0034833713434636593
1772866911776097800,7.955097900390625,-0.005712371319532394,-0.008908146061003208,-0.004500591196119785
1772866911786163700,7.965163818359375,-0.005092654377222061,-0.009708958677947521,-0.00856377650052309
1772866911796230000,7.97522998046875,-0.009474632330238819,-0.007910594344139099,-0.009523248299956322
1772866911806295800,7.9852958984375,-0.008848256431519985,-0.003986958414316177,-0.004732221364974976
1772866911816362000,7.995362060546875,-0.01203858107328415,0.004268165677785873,0.006035695783793926
1772866911826429000,8.005428955078125,-0.010159987956285477,0.004160573706030846,0.005511052906513214
1772866911836494800,8.015494873046874,-0.005933626554906368,-0.004236997105181217,0.004950776696205139
1772866911846561000,8.02556103515625,-0.0035730008967220783,-0.006906016729772091,0.0016250209882855415
1772866911856626700,8.035626708984376,-0.0025401520542800426,-0.005752244032919407,-0.0004725371836684644
1772866911866693400,8.045693359375,0.0009075761772692204,-0.011521716602146626,-0.0004767982172779739
1772866911876759300,8.05575927734375,0.004039072431623936,-0.0036268578842282295,0.008652412332594395
1772866911886826200,8.065826171875,0.004625766538083553,0.006833772175014019,0.020063525065779686
1772866911896892400,8.075892333984376,0.0023585353046655655,0.008282656781375408,0.024201124906539917
1772866911906958300,8.085958251953125,0.004195317625999451,0.0057380059733986855,0.02278059534728527
1772866911917024300,8.096024169921876,0.006941007450222969,0.0015855571255087852,0.012111322954297066
1772866911927090400,8.10609033203125,0.007549806497991085,-0.0075685265474021435,0.007493135053664446
1772866911937157400,8.116157470703126,0.009942719712853432,-0.009078947827219963,0.006275833584368229
1772866911947223300,8.126223388671875,0.006166890263557434,-0.007038167677819729,0.003595095593482256
1772866911957289200,8.136289306640625,0.008625559508800507,-0.002106931060552597,0.005145519971847534
1772866911967355100,8.146355224609374,0.004602055996656418,-0.0019607236608862877,0.003826722502708435
1772866911977421300,8.15642138671875,0.0033458478283137083,-0.0005542617291212082,-0.0021377531811594963
1772866911987487200,8.1664873046875,0.0020038809161633253,-0.004862457513809204,-0.001979028806090355
1772866911997554200,8.17655419921875,0.00353284552693367,-0.007133717183023691,-0.0042203511111438274
1772866912007620400,8.186620361328124,0.005055374465882778,-0.00047608092427253723,-0.001702598761767149
1772866912017686300,8.196686279296875,0.0010039471089839935,0.004524529911577702,0.004289937671273947
1772866912027752400,8.20675244140625,-0.001195557415485382,0.002674698829650879,0.002155147958546877
1772866912037818000,8.216818115234375,-0.0016518402844667435,0.0015954412519931793,-0.0010578413493931293
1772866912047884300,8.22688427734375,-0.001777541358023882,-0.0022600162774324417,-0.006703210528939962
1772866912057951200,8.236951171875,0.0021653121802955866,-0.0017096567898988724,-0.008595924824476242
1772866912068017200,8.24701708984375,0.002766920253634453,-0.0014039259403944016,-0.0037002358585596085
1772866912078083300,8.257083251953125,0.002245095558464527,0.002962670288980007,-0.0015153817366808653
1772866912088149200,8.267149169921876,-0.0036993459798395634,0.00803093146532774,0.001865234924480319
1772866912098215400,8.27721533203125,-0.00011203624308109283,0.009154990315437317,0.001955203479155898
1772866912108281300,8.28728125,-0.0038910615257918835,0.010902555659413338,-0.006563183385878801
1772866912118348300,8.297348388671875,-0.004490851890295744,0.005548345856368542,-0.016943855211138725
1772866912128414500,8.30741455078125,-0.007038964424282312,0.0016862303018569946,-0.028740592300891876
1772866912138480000,8.317480224609374,-0.0030918503180146217,-0.007079265546053648,-0.035222627222537994
1772866912148546300,8.32754638671875,0.0005292496643960476,0.0008939728140830994,-0.031797003000974655
1772866912158612200,8.3376123046875,-0.0008722539059817791,0.008119369857013226,-0.02523982711136341
1772866912168679200,8.34767919921875,0.0001184418797492981,0.011084266938269138,-0.016845542937517166
1772866912178745300,8.357745361328124,-0.0006635771133005619,0.00886896625161171,-0.011977923102676868
1772866912188811300,8.367811279296875,0.0020778810139745474,0.0018155844882130623,-0.009450849145650864
1772866912198877400,8.37787744140625,0.005163912661373615,0.0005868105217814445,-0.008100518025457859
1772866912208943400,8.387943359375,0.00523581774905324,-0.0034372257068753242,-0.008125285618007183
1772866912219009300,8.39800927734375,0.004038533195853233,-0.007089283782988787,-0.005372264888137579
1772866912229076500,8.408076416015625,0.0012744385749101639,-0.005854376126080751,-0.0035629135090857744
1772866912239142400,8.418142333984376,-0.00006817607209086418,-0.005806255619972944,0.00029057508800178766
1772866912249208300,8.428208251953125,0.0014455646742135286,-0.0033835778012871742,0.007063526194542646
1772866912259274200,8.438274169921876,0.0016648969613015652,0.0016450760886073112,0.011106468737125397
1772866912269340200,8.448340087890625,0.0037773163057863712,0.00024824775755405426,0.015592031180858612
1772866912279406300,8.45840625,0.006934564560651779,-0.002364947460591793,0.02045380137860775
1772866912289473300,8.468473388671875,0.007033900357782841,-0.006192708853632212,0.019868969917297363
1772866912299539200,8.478539306640625,0.006477192975580692,-0.008900342509150505,0.02164081297814846
1772866912309605400,8.48860546875,0.0058462899178266525,-0.011021018028259277,0.0218791663646698
1772866912319671300,8.49867138671875,0.006738443858921528,-0.007400496397167444,0.02786388248205185
1772866912329737200,8.5087373046875,0.007767755538225174,-0.0034164078533649445,0.031878065317869186
1772866912339803100,8.51880322265625,0.007081395946443081,-0.00018678419291973114,0.035304151475429535
1772866912349870000,8.5288701171875,0.00891684740781784,-0.004187118262052536,0.033437542617321014
1772866912359936300,8.538936279296875,0.007956497371196747,-0.0029152920469641685,0.02738989144563675
1772866912370002200,8.549002197265626,0.006924523040652275,0.0016826558858156204,0.025782141834497452
1772866912380068400,8.559068359375,0.006577092222869396,-0.002011372707784176,0.020148122683167458
1772866912390134300,8.56913427734375,0.0024702316150069237,-0.000147160142660141,0.015791190788149834
1772866912400200400,8.579200439453125,0.0053369347006082535,0.006496340036392212,0.016881806775927544
1772866912410267400,8.589267333984376,0.004562754184007645,0.0025053266435861588,0.009885150007903576
1772866912420333300,8.599333251953125,0.007448713760823011,-0.0005643824115395546,0.008135390467941761
1772866912430399500,8.6093994140625,0.006662548519670963,-0.001462932676076889,0.006012052297592163
1772866912440465200,8.619465087890624,0.006029092241078615,-0.0020506568253040314,0.009329184889793396
1772866912450531300,8.62953125,0.006902875378727913,-0.001597386784851551,0.016292817890644073
1772866912460598300,8.639598388671875,0.004925480578094721,-0.0005761738866567612,0.016187727451324463
1772866912470664200,8.649664306640625,0.00592975877225399,0.003040398471057415,0.02225041389465332
1772866912480730400,8.65973046875,0.0037065944634377956,0.00030308403074741364,0.024118613451719284
1772866912490796300,8.66979638671875,0.0039638555608689785,0.002658383920788765,0.02572370320558548
1772866912500862500,8.679862548828124,0.006751680746674538,0.0006461143493652344,0.026251183822751045
1772866912510928400,8.689928466796875,0.007284579798579216,0.0017840834334492683,0.02387058362364769
1772866912520994300,8.699994384765626,0.007048360072076321,0.002215287648141384,0.01830718107521534
1772866912531061500,8.7100615234375,0.007534919306635857,-0.004708131775259972,0.013315618969500065
1772866912541127200,8.720127197265626,0.011495191603899002,-0.0034259026870131493,0.011088310740888119
1772866912551193300,8.730193359375,0.009880516678094864,-0.0009976327419281006,0.004563566762953997
1772866912561259300,8.74025927734375,0.007928228005766869,-0.0027404651045799255,0.005378071218729019
1772866912571325200,8.7503251953125,0.004085020162165165,-0.003963921219110489,0.008713147602975368
1772866912581392400,8.760392333984376,0.003421398112550378,0.0011196248233318329,0.011032283306121826
1772866912591458300,8.770458251953125,0.0005398578941822052,0.0025798361748456955,0.01511597353965044
1772866912601524500,8.7805244140625,0.00009963754564523697,-0.002605604939162731,0.016068320721387863
1772866912611590400,8.79059033203125,0.0024506759364157915,-0.002056727185845375,0.01478281244635582
1772866912621656300,8.80065625,0.0010534697212278843,0.001039952039718628,0.01230111438781023
1772866912631722200,8.81072216796875,-0.0014440426602959633,-0.001010415144264698,0.00968482531607151
1772866912641788200,8.8207880859375,0.0000773826614022255,0.00018615275621414185,0.011345147155225277
1772866912651855000,8.830855224609374,-0.0024102763272821903,0.005913279950618744,0.0064758239313960075
1772866912661921300,8.84092138671875,-0.0016903490759432316,0.0018574940040707588,0.003000774886459112
1772866912671987200,8.8509873046875,0.002453263383358717,0.0007608048617839813,-0.0009742595721036196
1772866912682053400,8.861053466796875,0.0008309031836688519,0.00036596227437257767,-0.006522634532302618
1772866912692119300,8.871119384765626,0.002197104971855879,-0.0014814725145697594,-0.011596489697694778
1772866912702185500,8.881185546875,0.0022769258357584476,-0.003922049887478352,-0.008497108705341816
1772866912712252400,8.89125244140625,0.0014140617568045855,-0.0038967495784163475,-0.006210783962160349
1772866912722318300,8.901318359375,-0.0012826500460505486,-0.00003512110561132431,-0.0027109181974083185
1772866912732384300,8.91138427734375,0.0013624015264213085,-0.0011909333989024162,0.0070540946908295155
1772866912742450200,8.9214501953125,0.0004239340778440237,-0.003011062741279602,0.00943715963512659
1772866912752516400,8.931516357421875,0.0054373349994421005,-0.0034598056226968765,0.011422280222177505
1772866912762582300,8.941582275390624,0.0038993977941572666,-0.007267572917044163,0.015034159645438194
1772866912772649200,8.951649169921875,0.00535002164542675,-0.006229739170521498,0.01680968888103962
1772866912782715400,8.96171533203125,0.00820649042725563,0.0002809027209877968,0.021398689597845078
1772866912792781300,8.97178125,0.007563603110611439,0.000608738511800766,0.01973607949912548
1772866912802847500,8.981847412109374,0.006655312608927488,-0.0015358580276370049,0.017292525619268417
1772866912812913400,8.991913330078125,0.00586914736777544,-0.0005153343081474304,0.008183981291949749
1772866912822979300,9.001979248046876,0.007687744218856096,-0.0027767177671194077,0.0053336541168391705
1772866912833045200,9.012045166015625,0.009478187188506126,-0.00646146759390831,0.0015943092294037342
1772866912843112200,9.0221123046875,0.0074554025195539,-0.006863831076771021,-0.003579091979190707
1772866912853178400,9.032178466796875,0.007364056073129177,-0.006320279557257891,0.00010006484808400273
1772866912863247000,9.0422470703125,0.005011077504605055,-0.0032857004553079605,-0.0006943029002286494
1772866912873313000,9.05231298828125,0.0016911807470023632,0.004112294875085354,0.005717257037758827
1772866912883379000,9.06237890625,0.003360640024766326,0.007913094945251942,0.006031506694853306
1772866912893445000,9.072445068359375,0.0003656491171568632,0.0008424017578363419,0.004515102598816156
1772866912903512000,9.082511962890624,0.0007965103723108768,0.0008627716451883316,0.00013260752893984318
1772866912913578000,9.092577880859375,0.0021728321444243193,0.0025048768147826195,-0.0003070803650189191
1772866912923644200,9.10264404296875,-0.000495007261633873,-0.00026774220168590546,-0.0006446168990805745
1772866912933710000,9.1127099609375,-0.002855100203305483,0.0035397792235016823,-0.0018765951972454786
1772866912943776300,9.1227763671875,-0.0049077901057899,0.0046551404520869255,-0.0018618858885020018
1772866912953842200,9.13284228515625,-0.005971989128738642,0.000636429525911808,-0.008726982399821281
1772866912963909000,9.1429091796875,-0.003962140064686537,-0.00098524522036314,-0.010486378334462643
1772866912973975000,9.15297509765625,-0.003147745504975319,-0.004828186240047216,-0.015350908041000366
1772866912984041000,9.163041015625,-0.003764114808291197,-0.007897943258285522,-0.015089387074112892
1772866912994107000,9.17310693359375,0.002943056635558605,0.0035113058984279633,-0.0032313962001353502
1772866913004173000,9.183173095703125,0.0020450763404369354,0.006655240431427956,0.0052117351442575455
1772866913014239000,9.193239013671874,0.003730857279151678,0.00042317621409893036,0.01198255643248558
1772866913024305200,9.20330517578125,0.00267989793792367,-0.0005468400195240974,0.01681677997112274
1772866913034372000,9.2133720703125,0.0008721442427486181,0.0013583851978182793,0.01595657877624035
1772866913044438000,9.22343798828125,-0.002397684846073389,-0.0016806647181510925,0.013469822704792023
1772866913054504200,9.233504150390624,-0.0019982107914984226,0.0006400132551789284,0.010815449990332127
1772866913064569900,9.24356982421875,-0.007440037559717894,0.0013298364356160164,0.007394090760499239
1772866913074636000,9.253635986328124,-0.00852101482450962,0.0022323820739984512,-0.002231905236840248
1772866913084702000,9.263701904296875,-0.011230740696191788,0.0008352538570761681,-0.011690972372889519
1772866913094769000,9.273768798828126,-0.008145201951265335,-0.011678674258291721,-0.02384963445365429
1772866913104835000,9.2838349609375,-0.006105528678745031,-0.013456686399877071,-0.0279142614454031
1772866913114901000,9.29390087890625,-0.0037643429823219776,-0.006456301081925631,-0.020233703777194023
1772866913124967200,9.30396728515625,-0.006467337254434824,-0.0017822245135903358,-0.01153907086700201
1772866913135033000,9.314033203125,-0.008724100887775421,-0.0010815467685461044,-0.0022542260121554136
1772866913145099300,9.324099365234375,-0.007185362745076418,0.00296724122017622,0.006527444813400507
1772866913155165000,9.3341650390625,-0.006580026354640722,0.007075699977576733,0.0144466208294034
1772866913165231900,9.34423193359375,-0.004997762385755777,0.006232086569070816,0.00969580840319395
1772866913175298000,9.354298095703125,-0.004793231841176748,-0.0015781661495566368,0.006235030945390463
1772866913185364000,9.364364013671874,-0.0018423390574753284,-0.00030800700187683105,0.0028640534728765488
1772866913195430100,9.37443017578125,0.002839231863617897,-0.00036180298775434494,-0.009047999046742916
1772866913205496000,9.38449609375,0.006045871414244175,-0.008620111271739006,-0.018550049513578415
1772866913215562000,9.39456201171875,0.009833951480686665,-0.009199615567922592,-0.02423137240111828
1772866913225629200,9.404629150390624,0.010279837995767593,-0.004232441075146198,-0.021454600617289543
1772866913235695000,9.414695068359375,0.010173844173550606,-0.002312835305929184,-0.016639607027173042
1772866913245761300,9.42476123046875,0.012911382131278515,0.008409969508647919,-0.004024055786430836
1772866913255827000,9.434826904296875,0.010106807574629784,0.0051798224449157715,-0.0012865923345088959
1772866913265892900,9.444892822265626,0.01201583817601204,0.003728199750185013,0.002764877863228321
1772866913275959000,9.454958984375,0.012407323345541954,0.0033420417457818985,0.005785967689007521
1772866913286025000,9.46502490234375,0.010242898017168045,-0.0007163193076848984,0.004709199070930481
1772866913296092200,9.475092041015625,0.009552340023219585,0.005752498283982277,0.005931589752435684
1772866913306158000,9.485157958984376,0.008631228469312191,0.004815159365534782,0.007959267124533653
1772866913316224000,9.49522412109375,0.005894564092159271,0.005031941458582878,0.009718019515275955
1772866913326290200,9.505290283203125,0.004321626853197813,0.009068259038031101,0.016245108097791672
1772866913336356000,9.515356201171874,0.007698781322687864,0.008381961844861507,0.011158736422657967
1772866913346422000,9.525422119140625,0.00949101336300373,0.006130429916083813,0.004924862179905176
1772866913356488000,9.535488037109374,0.006861940026283264,0.003474459983408451,-0.0017029467271640897
1772866913366555000,9.545554931640625,0.00764437485486269,0.009845949709415436,-0.00783343706279993
1772866913376621000,9.55562109375,0.00331300962716341,0.00963183119893074,-0.017376609146595
1772866913386687000,9.56568701171875,0.0022173067554831505,0.010257869958877563,-0.01904881000518799
1772866913396753200,9.575753173828126,-0.002426180988550186,0.004675086587667465,-0.027700887992978096
1772866913406819000,9.585819091796875,-0.006547379307448864,0.006332314573228359,-0.028904100880026817
1772866913416885200,9.59588525390625,-0.005014730617403984,0.009322245605289936,-0.023283764719963074
1772866913426952200,9.6059521484375,-0.006523871328681707,0.004487922415137291,-0.01781081035733223
1772866913437018000,9.61601806640625,-0.002602100372314453,0.0029187873005867004,-0.005207933951169252
1772866913447084000,9.626083984375,-0.0024150684475898743,0.0015826309099793434,0.002572065917775035
1772866913457150000,9.63614990234375,-0.0009407424367964268,0.0055320980027318,0.016221830621361732
1772866913467216100,9.646216064453125,-0.0028601535595953465,0.0032153064385056496,0.025600792840123177
1772866913477282000,9.656281982421875,-0.0004537212662398815,0.00677089300006628,0.02555685117840767
1772866913487348000,9.666347900390624,0.0015979360323399305,-0.00022094231098890305,0.022423693910241127
1772866913497415200,9.676415283203125,0.004020613618195057,-0.004006093367934227,0.023152068257331848
1772866913507481000,9.686481201171874,0.003002296667546034,-0.003918380476534367,0.01984996348619461
1772866913517547000,9.696547119140625,0.0012691114097833633,-0.00005466584116220474,0.01973091997206211
1772866913527613200,9.70661328125,0.0018583133351057768,-0.0031757913529872894,0.015906138345599174
1772866913537678800,9.716678955078125,0.0014436591882258654,-0.0068855746649205685,0.010327882133424282
1772866913547745000,9.7267451171875,-0.0008541522547602654,-0.009181349538266659,0.008417864330112934
1772866913557811000,9.73681103515625,-0.0051184059120714664,-0.008369352668523788,0.01016436517238617
1772866913567878000,9.7468779296875,-0.011209930293262005,-0.0038987966254353523,0.014002831652760506
1772866913577944000,9.756944091796875,-0.016478728502988815,-0.00002842489629983902,0.0188433937728405
1772866913588010000,9.767010009765626,-0.01585562340915203,0.0019988026469945908,0.019929111003875732
1772866913598076200,9.777076171875,-0.019377918913960457,0.0007005110383033752,0.016384975984692574
1772866913608142000,9.78714208984375,-0.017754297703504562,-0.0043840836733579636,0.004111212678253651
1772866913618208000,9.7972080078125,-0.017993450164794922,-0.004325494170188904,-0.009687956422567368
1772866913628274000,9.80727392578125,-0.02363220416009426,-0.008275733329355717,-0.0219016931951046
1772866913638340900,9.8173408203125,-0.026945441961288452,-0.013028410263359547,-0.02979263849556446
1772866913648407000,9.827406982421875,-0.03227625787258148,-0.008560157380998135,-0.03198165073990822
1772866913658473000,9.837472900390624,-0.03321661800146103,-0.0023049246519804,-0.022954599931836128
1772866913668539100,9.8475390625,-0.03586219996213913,-0.004263038747012615,-0.006152236834168434
1772866913678605000,9.85760498046875,-0.030365701764822006,-0.0023149363696575165,0.01643216796219349
1772866913688671200,9.867671142578125,-0.02121743932366371,-0.0012339754030108452,0.03724200278520584
1772866913698737200,9.877737060546876,-0.012767495587468147,-0.008565924130380154,0.055134449154138565
1772866913708804000,9.88780419921875,-0.005531763657927513,-0.008665087632834911,0.06731793284416199
1772866913718870300,9.897870361328126,-0.0018976139836013317,-0.009200915694236755,0.07787709683179855
1772866913728936000,9.90793603515625,-0.001213639508932829,-0.011042523197829723,0.07843322306871414
1772866913739002000,9.918002197265626,-0.001958792097866535,-0.009085366502404213,0.07607179880142212
1772866913749068000,9.928068115234375,-0.003167941700667143,-0.007958018220961094,0.06895870715379715
1772866913759134000,9.938134033203125,-0.006360006518661976,-0.007123383693397045,0.05805971845984459
1772866913769200000,9.9482001953125,-0.007772051263600588,-0.008957487531006336,0.040606267750263214
1772866913779267000,9.95826708984375,-0.008105212822556496,-0.006989411544054747,0.02571546658873558
1772866913789333000,9.9683330078125,-0.007218688260763884,-0.002451087348163128,0.007484319619834423
1772866913799399200,9.978399169921875,-0.0035690926015377045,0.0008371174335479736,-0.005987014155834913
1772866913809464800,9.98846484375,-0.004637131467461586,0.0017069540917873383,-0.01974564976990223
1772866913819531000,9.998531005859375,-0.005871240049600601,0.002246776595711708,-0.03064703196287155
1772866913829597000,10.008596923828126,-0.005397419910877943,-0.00023558363318443298,-0.03196588531136513
1772866913839663000,10.0186630859375,-0.00694365194067359,0.003685387782752514,-0.035993918776512146
1772866913849730000,10.02872998046875,-0.005682571791112423,-0.0020233970135450363,-0.039156101644039154
1772866913859796000,10.0387958984375,-0.003492121584713459,0.003661918453872204,-0.043133798986673355
1772866913869858300,10.0488583984375,-0.004394210875034332,0.004265029914677143,-0.03899146243929863
1772866913879924200,10.05892431640625,-0.006771614775061607,0.005121502093970776,-0.03502894565463066
1772866913889990400,10.068990478515625,-0.00940821785479784,0.006078144535422325,-0.0269716065376997
1772866913900056300,10.079056396484376,-0.006995393894612789,0.005389183759689331,-0.019530734047293663
1772866913910122500,10.08912255859375,-0.007120415568351746,0.003778437152504921,-0.009470535442233086
1772866913920189400,10.099189453125,0.0012981032487004995,-0.0026075560599565506,0.0012169964611530304
1772866913930255400,10.10925537109375,0.0038089710287749767,-0.006287402473390102,0.008316504769027233
1772866913940321300,10.1193212890625,0.01073079276829958,-0.008310339413583279,0.018443971872329712
1772866913950387200,10.12938720703125,0.011296825483441353,-0.00906858779489994,0.029660355299711227
1772866913960453400,10.139453369140625,0.011752226389944553,0.0003827037289738655,0.04266190901398659
1772866913970519300,10.149519287109374,0.011504818685352802,0.001205887645483017,0.04462039843201637
1772866913980585200,10.159585205078125,0.010219844058156013,-0.0013701887801289558,0.04400201141834259
1772866913990651400,10.1696513671875,0.00747370719909668,-0.0006682425737380981,0.04062192514538765
1772866914000718300,10.17971826171875,0.010964845307171345,0.0019147573038935661,0.036915868520736694
1772866914010784500,10.189784423828126,0.001935930224135518,-0.0024091508239507675,0.028332237154245377
1772866914020850200,10.19985009765625,-0.00419839471578598,-0.0007806280627846718,0.01201638113707304
1772866914030916000,10.209916015625,-0.005270883906632662,-0.005973647348582745,-0.003724765731021762
1772866914040982300,10.219982177734375,-0.005639731418341398,-0.005845549516379833,-0.022691000252962112
1772866914051048200,10.230048095703125,-0.009713303297758102,-0.004008500836789608,-0.034084003418684006
1772866914061114400,10.2401142578125,-0.007816866040229797,-0.00955293606966734,-0.048582784831523895
1772866914071181300,10.250181396484376,-0.00798855535686016,-0.0045759305357933044,-0.05309178680181503
1772866914081247200,10.260247314453125,-0.00676589785143733,0.001099265180528164,-0.047862667590379715
1772866914091313400,10.2703134765625,-0.01133741158992052,-0.0014538075774908066,-0.04140780121088028
1772866914101379300,10.28037939453125,-0.009390108287334442,-0.00541499350219965,-0.027910636737942696
1772866914111445200,10.2904453125,-0.004011628217995167,-0.0004800017923116684,-0.008883467875421047
1772866914121511200,10.30051123046875,-0.002851288765668869,0.0023061977699398994,0.0049295490607619286
1772866914131577300,10.310577392578125,-0.002193567343056202,0.004482576623558998,0.017193034291267395
1772866914141643300,10.320643310546876,-0.0025736005045473576,0.002775757573544979,0.02829921431839466
1772866914151710200,10.330710205078125,-0.0041735912673175335,0.002072666771709919,0.021277418360114098
1772866914161776400,10.3407763671875,-0.006900667678564787,0.0015882384032011032,0.01966221071779728
1772866914171842300,10.35084228515625,-0.009524110704660416,0.001344011165201664,0.008007843978703022
1772866914181908500,10.360908447265626,-0.012308711186051369,-0.004215870052576065,-0.006056309677660465
1772866914191974400,10.370974365234375,-0.007636150345206261,-0.007174810394644737,-0.01211356371641159
1772866914202040300,10.381040283203125,-0.005936787463724613,-0.004127088934183121,-0.016783416271209717
1772866914212106200,10.391106201171874,-0.004162784665822983,0.0003916015848517418,-0.01616300456225872
1772866914222173200,10.401173095703125,0.00003062840551137924,0.0018129311501979828,-0.011489956639707088
1772866914232239400,10.4112392578125,0.0039597488939762115,-0.001299593597650528,-0.012464195489883423
1772866914242305300,10.42130517578125,0.0033701250795274973,-0.00014724396169185638,-0.005952233914285898
1772866914252371200,10.43137109375,0.00144872791133821,-0.003709523007273674,-0.009504570625722408
1772866914262437400,10.441437255859375,-0.0044062319211661816,-0.010645459406077862,-0.003919655457139015
1772866914272503300,10.45150341796875,-0.008902136236429214,-0.0038006268441677094,0.003128345590084791
1772866914282569500,10.461569580078125,-0.00924009084701538,0.002687898464500904,0.012542619369924068
1772866914292636400,10.471636474609374,-0.006075387820601463,0.0022477805614471436,0.016135385259985924
1772866914302702000,10.4817021484375,-0.005242884159088135,0.0012152725830674171,0.01761823333799839
1772866914312768300,10.491768310546876,-0.0034650303423404694,0.004998859949409962,0.016541464254260063
1772866914322834200,10.501834228515625,-0.003315360751003027,0.0028776517137885094,0.011983463540673256
1772866914332900400,10.511900390625,-0.004433848429471254,0.0028266320005059242,0.001542326994240284
1772866914342966300,10.52196630859375,-0.005970226135104895,-0.0009470675140619278,-0.008726822212338448
1772866914353032400,10.532032470703125,-0.007015290204435587,-0.006369110196828842,-0.014348541386425495
1772866914363098400,10.542098388671874,-0.006891985889524221,-0.0027538686990737915,-0.014966394752264023
1772866914373165300,10.552165283203125,-0.010857965797185898,0.002652081660926342,-0.012759965844452381
1772866914383231500,10.5622314453125,-0.012089146301150322,0.006156801246106625,-0.007074117194861174
1772866914393297200,10.572297119140625,-0.010001227259635925,0.007853235118091106,-0.00311852409504354
1772866914403363300,10.58236328125,-0.006529796402901411,0.004376479424536228,0.0033273911103606224
1772866914413429200,10.59242919921875,-0.0006717974320054054,0.006068067625164986,0.010993780568242073
1772866914423495200,10.6024951171875,-0.0015764734707772732,0.008612718433141708,0.0144023597240448
1772866914433561300,10.612561279296875,0.0031832975801080465,0.00721021369099617,0.012217763811349869
1772866914443627300,10.622627197265626,0.0021830142941325903,0.002317187376320362,0.009778042323887348
1772866914453694500,10.632694580078125,-0.0003915899433195591,0.003810746595263481,0.012422245927155018
1772866914463760400,10.642760498046876,-0.0042513092048466206,0.0034831762313842773,0.008020573295652866
1772866914473826300,10.652826416015625,-0.003233222756534815,0.0009650466963648796,0.0035506708081811666
1772866914483892200,10.662892333984376,-0.005148035939782858,-0.0013417834416031837,-0.002172196051105857
1772866914493958100,10.672958251953125,0.002315671183168888,-0.003917692229151726,-0.005489857867360115
1772866914504024300,10.6830244140625,0.0020264519844204187,-0.0048466031439602375,-0.0042485580779612064
1772866914514090200,10.69309033203125,-0.001261118333786726,-0.004373669624328613,-0.0010086605325341225
1772866914524157200,10.7031572265625,0.0014603659510612488,-0.0027808332815766335,0.004651621915400028
1772866914534223400,10.713223388671874,-0.0011518490500748158,0.0074701616540551186,0.007295181974768639
1772866914544289300,10.723289306640625,-0.0052246213890612125,0.004501801915466785,0.02018275111913681
1772866914554355500,10.73335546875,-0.002987142652273178,0.0038456525653600693,0.01333235390484333
1772866914564421400,10.74342138671875,-0.00008695991709828377,0.007422011345624924,0.01862671785056591
1772866914574487300,10.7534873046875,-0.0033464799635112286,0.00788823515176773,0.0233304463326931
1772866914584553200,10.76355322265625,-0.0041883052326738834,0.00891115516424179,0.01556946150958538
1772866914594619400,10.773619384765626,-0.003591445740312338,0.01144886203110218,0.011680926196277142
1772866914604686300,10.783686279296875,-0.004575750324875116,0.006447711959481239,0.0015851485077291727
1772866914614752300,10.793752197265626,-0.0036146603524684906,0.000639643520116806,-0.008006170392036438
1772866914624818400,10.803818359375,-0.006617374252527952,-0.0015851613134145737,-0.014351950958371162
1772866914634884400,10.81388427734375,-0.012582855299115181,-0.0016373591497540474,-0.01722337119281292
1772866914644950300,10.8239501953125,-0.01816404052078724,-0.003800644539296627,-0.015921616926789284
1772866914655016200,10.83401611328125,-0.02072317712008953,0.0015093553811311722,-0.008987868204712868
1772866914665082000,10.84408203125,-0.018932200968265533,0.0037197796627879143,-0.000324073014780879
1772866914675148300,10.854148193359375,-0.01971038244664669,0.0037081921473145485,0.008098282851278782
1772866914685215200,10.86421533203125,-0.018113018944859505,-0.0014575403183698654,0.010679151862859726
1772866914695281200,10.87428125,-0.019369492307305336,-0.002699504606425762,0.013402124866843224
1772866914705347300,10.884347412109374,-0.017747094854712486,-0.00003661029040813446,0.016591794788837433
1772866914715413200,10.894413330078125,-0.01340196281671524,-0.0022200988605618477,0.016991430893540382
1772866914725479400,10.9044794921875,-0.012056266888976097,-0.0026280945166945457,0.021280450746417046
1772866914735545300,10.91454541015625,-0.009121110662817955,-0.00014513079077005386,0.023712975904345512
1772866914745611300,10.924611328125,-0.007658236660063267,0.008314932696521282,0.027385208755731583
1772866914755677200,10.93467724609375,-0.0036092568188905716,0.00944068655371666,0.036287207156419754
1772866914765744000,10.944744140625,-0.00014235405251383781,0.004927961155772209,0.03686963766813278
1772866914775810300,10.954810302734375,0.002303578658029437,0.018021751195192337,0.0425616055727005
1772866914785876200,10.964876220703125,0.0007224599830806255,0.011372904293239117,0.04700988531112671
1772866914795942400,10.9749423828125,-0.0016399123705923557,0.0069128526374697685,0.0394185408949852
1772866914806008300,10.98500830078125,0.0035822801291942596,-0.005633298773318529,0.03493697568774223
1772866914816074500,10.995074462890624,0.0034243857953697443,-0.010904647409915924,0.029845813289284706
1772866914826140400,11.005140380859375,0.005759711377322674,0.0049249157309532166,0.026635639369487762
1772866914836206000,11.0152060546875,0.004785527475178242,-0.0015066182240843773,0.02644229494035244
1772866914846273300,11.025273193359375,0.0003311240579932928,0.0025970470160245895,0.015809090808033943
1772866914856339200,11.035339111328126,0.0008545478340238333,-0.0032807402312755585,0.005333654582500458
1772866914866406000,11.045406005859375,0.0037765682209283113,-0.003803785890340805,-0.00027283202507533133
1772866914876472000,11.05547216796875,0.0017608578782528639,-0.005954040214419365,-0.010247008875012398
1772866914886538000,11.0655380859375,0.00013712840154767036,-0.008366331458091736,-0.013590341433882713
1772866914896604200,11.075604248046876,-0.0023645320907235146,-0.005951566155999899,-0.010436519049108028
1772866914906670000,11.085670166015625,-0.008704453706741333,-0.0032569803297519684,-0.007279873825609684
1772866914916736000,11.095736083984375,-0.012422261759638786,-0.0020276466384530067,-0.006296263076364994
1772866914926803200,11.10580322265625,-0.015834037214517593,0.0020906655117869377,-0.008510414510965347
1772866914936869000,11.115869140625,-0.011989729478955269,-0.00036798324435949326,-0.016954606398940086
1772866914946935000,11.12593505859375,-0.00892576202750206,-0.0002380209043622017,-0.020430564880371094
1772866914957001000,11.1360009765625,-0.007871325127780437,0.008279532194137573,-0.022889573127031326
1772866914967067000,11.14606689453125,-0.00698342639952898,0.00699482299387455,-0.0277213454246521
1772866914977133000,11.156133056640625,-0.003628427628427744,0.009288751520216465,-0.026391729712486267
1772866914987199000,11.166198974609374,-0.002774884458631277,0.006924130953848362,-0.02543538808822632
1772866914997265200,11.17626513671875,-0.003199807833880186,0.003420952707529068,-0.01462402194738388
1772866915007332000,11.18633203125,-0.0034003439359366894,-0.002392727881669998,-0.003907462116330862
1772866915017398000,11.19639794921875,0.013557001948356628,0.006884302943944931,0.004807568620890379
1772866915027464200,11.206464111328126,0.004304647911339998,0.03406691923737526,0.030388295650482178
1772866915037529900,11.21652978515625,-0.003601033240556717,0.023159846663475037,0.018896494060754776
1772866915047596000,11.226595947265626,-0.0004537096247076988,0.010734600946307182,0.03244985267519951
1772866915057662000,11.236661865234375,0.0027311337180435658,0.04696626216173172,0.022429972887039185
1772866915067728100,11.24672802734375,-0.0030045160092413425,0.03221501410007477,0.0115403076633811
1772866915077794000,11.2567939453125,0.001155602978542447,-0.010204216465353966,-0.004061180166900158
1772866915087860200,11.266860107421875,0.0005414781626313925,-0.016391804441809654,-0.020077431574463844
1772866915097927200,11.27692724609375,0.008371325209736824,-0.02022656612098217,-0.031162945553660393
1772866915107993000,11.2869931640625,0.010235271416604519,-0.027296993881464005,-0.035505764186382294
1772866915118059300,11.297059326171874,0.013451126404106617,-0.03063356503844261,-0.0404917411506176
1772866915128125000,11.307125,0.018036557361483574,-0.023134103044867516,-0.03319201618432999
1772866915138191000,11.317191162109374,0.026222195476293564,-0.00704003544524312,-0.025512253865599632
1772866915148257000,11.327257080078125,0.03413737937808037,-0.029017772525548935,-0.02676047757267952
1772866915158323000,11.337322998046876,0.0344633087515831,-0.026821579784154892,-0.03363894298672676
