time,seconds_elapsed,z,y,x
1772808537132440800,0.07144091796875,-0.9682769775390625,-0.1470489501953125,-0.06298828125
1772808537142464500,0.081464599609375,-0.971282958984375,-0.1466064453125,-0.0645904541015625
1772808537152488700,0.09148876953125,-0.9740753173828125,-0.1513824462890625,-0.0672149658203125
1772808537162511600,0.10151171875,-0.97576904296875,-0.1529083251953125,-0.0713348388671875
1772808537172535600,0.11153564453125,-0.977752685546875,-0.1530303955078125,-0.07623291015625
1772808537182559700,0.121559814453125,-0.975555419921875,-0.1539306640625,-0.080078125
1772808537192583700,0.131583740234375,-0.972747802734375,-0.1541290283203125,-0.0795440673828125
1772808537202606600,0.141606689453125,-0.9669036865234375,-0.1571807861328125,-0.078338623046875
1772808537212630800,0.151630859375,-0.9603729248046875,-0.1612091064453125,-0.0785675048828125
1772808537222654700,0.16165478515625,-0.95794677734375,-0.16632080078125,-0.0745391845703125
1772808537232677600,0.171677734375,-0.9664459228515625,-0.1683807373046875,-0.06524658203125
1772808537242701800,0.181701904296875,-0.9742584228515625,-0.1691436767578125,-0.060546875
1772808537252725500,0.1917255859375,-0.9846343994140625,-0.1684417724609375,-0.057525634765625
1772808537262749700,0.201749755859375,-1.00299072265625,-0.165557861328125,-0.05377197265625
1772808537272772900,0.21177294921875,-1.02325439453125,-0.161285400390625,-0.055694580078125
1772808537282796500,0.221796630859375,-1.0286865234375,-0.1564178466796875,-0.06103515625
1772808537292820700,0.23182080078125,-1.023651123046875,-0.1554412841796875,-0.0689239501953125
1772808537302844000,0.241843994140625,-1.0158233642578125,-0.1567230224609375,-0.0736083984375
1772808537312867600,0.25186767578125,-1.002044677734375,-0.1586761474609375,-0.0778961181640625
1772808537322891800,0.261891845703125,-0.9828948974609375,-0.1559600830078125,-0.0793914794921875
1772808537332914700,0.271914794921875,-0.9699554443359375,-0.1490478515625,-0.080291748046875
1772808537342939400,0.281939453125,-0.9555816650390625,-0.145233154296875,-0.0786895751953125
1772808537352963300,0.29196337890625,-0.9467620849609375,-0.15081787109375,-0.08331298828125
1772808537362987500,0.301987548828125,-0.9347381591796875,-0.1667938232421875,-0.087371826171875
1772808537373010400,0.312010498046875,-0.92828369140625,-0.178009033203125,-0.080810546875
1772808537383034400,0.322034423828125,-0.919952392578125,-0.18292236328125,-0.0839996337890625
1772808537393058300,0.332058349609375,-0.9094085693359375,-0.1670379638671875,-0.081878662109375
1772808537403081500,0.34208154296875,-0.9150238037109375,-0.159210205078125,-0.0699920654296875
1772808537413105400,0.35210546875,-0.928497314453125,-0.1570892333984375,-0.0518951416015625
1772808537423129300,0.36212939453125,-0.9404144287109375,-0.1672821044921875,-0.036773681640625
1772808537433153300,0.3721533203125,-0.9388885498046875,-0.191802978515625,-0.0472869873046875
1772808537443176400,0.382176513671875,-0.9542999267578125,-0.1986541748046875,-0.0611572265625
1772808537453200400,0.392200439453125,-0.9549560546875,-0.1815338134765625,-0.0548553466796875
1772808537463224300,0.402224365234375,-0.9470977783203125,-0.1577301025390625,-0.03778076171875
1772808537473247500,0.41224755859375,-0.973968505859375,-0.162353515625,-0.0214080810546875
1772808537483271400,0.422271484375,-1.0091094970703125,-0.1749420166015625,-0.0007781982421875
1772808537493295400,0.43229541015625,-1.03045654296875,-0.1701202392578125,0.0165863037109375
1772808537503319600,0.442319580078125,-1.0477142333984375,-0.15557861328125,0.0308380126953125
1772808537513342500,0.452342529296875,-1.05206298828125,-0.15380859375,0.028472900390625
1772808537523366400,0.462366455078125,-1.0536346435546875,-0.1591949462890625,0.0262603759765625
1772808537533390600,0.472390625,-1.052490234375,-0.1605224609375,0.0313873291015625
1772808537543413500,0.48241357421875,-1.0480194091796875,-0.1667327880859375,0.02154541015625
1772808537553437400,0.4924375,-1.0383453369140625,-0.1705780029296875,0.01055908203125
1772808537563461400,0.50246142578125,-1.043212890625,-0.16552734375,0.0070648193359375
1772808537573484500,0.512484619140625,-1.04278564453125,-0.1591339111328125,0.0058135986328125
1772808537583508500,0.522508544921875,-1.03155517578125,-0.157623291015625,0.000732421875
1772808537593532400,0.532532470703125,-1.0101776123046875,-0.162567138671875,0.0003662109375
1772808537603556400,0.542556396484375,-1.003326416015625,-0.16717529296875,0.0065460205078125
1772808537613579500,0.55257958984375,-0.9959564208984375,-0.1694488525390625,0.01141357421875
1772808537623603500,0.562603515625,-0.9880523681640625,-0.1697998046875,0.0225372314453125
1772808537633627400,0.57262744140625,-0.9820709228515625,-0.165985107421875,0.0278778076171875
1772808537643650600,0.582650634765625,-0.9722900390625,-0.1625213623046875,0.022979736328125
1772808537653674200,0.59267431640625,-0.971405029296875,-0.16510009765625,0.016510009765625
1772808537663698400,0.602698486328125,-0.97198486328125,-0.16943359375,0.0122833251953125
1772808537673722600,0.61272265625,-0.962188720703125,-0.1713714599609375,0.0087127685546875
1772808537683745300,0.622745361328125,-0.95880126953125,-0.168853759765625,0.0100860595703125
1772808537693769500,0.63276953125,-0.9653472900390625,-0.16790771484375,0.0171051025390625
1772808537703793400,0.64279345703125,-0.983367919921875,-0.1613922119140625,0.0294342041015625
1772808537713816300,0.65281640625,-0.9909820556640625,-0.1568603515625,0.03350830078125
1772808537723840500,0.662840576171875,-0.992706298828125,-0.1568145751953125,0.02899169921875
1772808537733864200,0.6728642578125,-0.9971160888671875,-0.15966796875,0.022705078125
1772808537743888400,0.682888427734375,-1.000640869140625,-0.163665771484375,0.0181732177734375
1772808537753911600,0.69291162109375,-1.0063934326171875,-0.15240478515625,-0.000457763671875
1772808537763935200,0.702935302734375,-0.9987030029296875,-0.159912109375,-0.005096435546875
1772808537773959400,0.71295947265625,-0.9990692138671875,-0.17584228515625,0.020050048828125
1772808537783982600,0.722982666015625,-1.0088043212890625,-0.154327392578125,0.02825927734375
1772808537794006300,0.73300634765625,-1.003662109375,-0.1359100341796875,0.0220489501953125
1772808537804030500,0.743030517578125,-0.9940338134765625,-0.1205902099609375,-0.006591796875
1772808537814054400,0.753054443359375,-0.9894256591796875,-0.1488800048828125,-0.0072021484375
1772808537824077300,0.763077392578125,-1.010894775390625,-0.1762237548828125,0.0065460205078125
1772808537834101500,0.7731015625,-1.0225982666015625,-0.1717987060546875,0.0120697021484375
1772808537844125400,0.78312548828125,-1.012176513671875,-0.1621551513671875,0.0098114013671875
1772808537854148400,0.7931484375,-1.000457763671875,-0.157379150390625,0.0048065185546875
1772808537864172500,0.803172607421875,-0.9945526123046875,-0.1579132080078125,-0.0019989013671875
1772808537874196500,0.813196533203125,-0.987945556640625,-0.1598052978515625,-0.0075531005859375
1772808537884219400,0.823219482421875,-0.983673095703125,-0.1625213623046875,-0.0106353759765625
1772808537894243600,0.83324365234375,-0.9751739501953125,-0.1649932861328125,-0.014007568359375
1772808537904267300,0.843267333984375,-0.972320556640625,-0.1662139892578125,-0.012542724609375
1772808537914291500,0.85329150390625,-0.9706878662109375,-0.1680450439453125,-0.009063720703125
1772808537924314600,0.863314697265625,-0.964019775390625,-0.168731689453125,-0.007415771484375
1772808537934338300,0.87333837890625,-0.9630279541015625,-0.1713714599609375,-0.005157470703125
1772808537944362500,0.883362548828125,-0.965423583984375,-0.174102783203125,-0.00408935546875
1772808537954385400,0.893385498046875,-0.9617156982421875,-0.175384521484375,-0.003265380859375
1772808537964409300,0.903409423828125,-0.9586029052734375,-0.176116943359375,-0.001556396484375
1772808537974433500,0.91343359375,-0.9584808349609375,-0.1755218505859375,0.0014801025390625
1772808537984457500,0.92345751953125,-0.965545654296875,-0.1738433837890625,0.00323486328125
1772808537994480400,0.93348046875,-0.9610443115234375,-0.1702423095703125,-0.0009307861328125
1772808538004504300,0.94350439453125,-0.96014404296875,-0.167999267578125,-0.005645751953125
1772808538014528500,0.953528564453125,-0.963348388671875,-0.16705322265625,-0.008209228515625
1772808538024551400,0.963551513671875,-0.9678192138671875,-0.1672821044921875,-0.009368896484375
1772808538034575400,0.973575439453125,-0.979461669921875,-0.1681671142578125,-0.00885009765625
1772808538044599300,0.983599365234375,-0.99041748046875,-0.1699066162109375,-0.0094757080078125
1772808538054622500,0.99362255859375,-0.9903411865234375,-0.1683349609375,-0.009765625
1772808538064646400,1.003646484375,-0.9915771484375,-0.163726806640625,-0.0074005126953125
1772808538074670300,1.01367041015625,-0.9994964599609375,-0.16400146484375,-0.003204345703125
1772808538084694300,1.0236943359375,-1.0015869140625,-0.16387939453125,0.0005950927734375
1772808538094717400,1.033717529296875,-1.0012664794921875,-0.157958984375,0.0050811767578125
1772808538104741400,1.043741455078125,-1.01123046875,-0.15576171875,0.0128631591796875
1772808538114765300,1.053765380859375,-1.021270751953125,-0.159698486328125,0.019775390625
1772808538124788500,1.06378857421875,-1.0207672119140625,-0.1664886474609375,0.021331787109375
1772808538134812400,1.0738125,-1.0183258056640625,-0.17144775390625,0.0187835693359375
1772808538144836400,1.08383642578125,-1.01318359375,-0.17218017578125,0.0109405517578125
1772808538154860500,1.093860595703125,-1.0020904541015625,-0.1700592041015625,0.002471923828125
1772808538164883500,1.103883544921875,-0.9919891357421875,-0.167510986328125,-0.0063018798828125
1772808538174907400,1.113907470703125,-0.981353759765625,-0.1633148193359375,-0.01171875
1772808538184931600,1.123931640625,-0.97625732421875,-0.1571502685546875,-0.013671875
1772808538194954500,1.13395458984375,-0.9755401611328125,-0.155487060546875,-0.0129852294921875
1772808538204978400,1.143978515625,-0.9739227294921875,-0.15997314453125,-0.0107879638671875
1772808538215002400,1.15400244140625,-0.9745025634765625,-0.1634979248046875,-0.0071563720703125
1772808538225026300,1.1640263671875,-0.9753570556640625,-0.1646881103515625,-0.0050201416015625
1772808538235049500,1.174049560546875,-0.974853515625,-0.165008544921875,-0.001373291015625
1772808538245073400,1.184073486328125,-0.9723968505859375,-0.1639862060546875,-0.0015716552734375
1772808538255097300,1.194097412109375,-0.9748687744140625,-0.1603240966796875,-0.0007171630859375
1772808538265120500,1.20412060546875,-0.97760009765625,-0.1576385498046875,0.0028533935546875
1772808538275144400,1.21414453125,-0.9803009033203125,-0.15545654296875,0.009735107421875
1772808538285168400,1.22416845703125,-0.987335205078125,-0.1565399169921875,0.016265869140625
1772808538295192600,1.234192626953125,-0.989990234375,-0.1586456298828125,0.019775390625
1772808538305215200,1.24421533203125,-0.9936065673828125,-0.163787841796875,0.0192718505859375
1772808538315239400,1.254239501953125,-0.991058349609375,-0.166717529296875,0.016876220703125
1772808538325263600,1.264263671875,-0.988006591796875,-0.1683349609375,0.0171356201171875
1772808538335286300,1.274286376953125,-0.9948272705078125,-0.166412353515625,0.019317626953125
1772808538345310000,1.28431005859375,-0.9994659423828125,-0.1665802001953125,0.0217742919921875
1772808538355334100,1.294334228515625,-1.000030517578125,-0.16912841796875,0.022918701171875
1772808538365356800,1.304356689453125,-1.001953125,-0.170318603515625,0.02197265625
1772808538375381000,1.314381103515625,-0.9998779296875,-0.1677398681640625,0.0195465087890625
1772808538385405200,1.3244052734375,-0.9979400634765625,-0.1650848388671875,0.016815185546875
1772808538395429000,1.33442919921875,-1.00201416015625,-0.1618194580078125,0.0148162841796875
1772808538405452000,1.3444521484375,-1.0094146728515625,-0.1584320068359375,0.0154266357421875
1772808538415476000,1.35447607421875,-1.00213623046875,-0.157440185546875,0.0153656005859375
1772808538425500200,1.364500244140625,-1.001556396484375,-0.1534271240234375,0.015106201171875
1772808538435523000,1.374523193359375,-1.0001678466796875,-0.1461944580078125,0.0111846923828125
1772808538445547000,1.384547119140625,-0.992919921875,-0.1422119140625,0.0072479248046875
1772808538455571000,1.394571044921875,-0.98333740234375,-0.142242431640625,0.004791259765625
1772808538465595000,1.404594970703125,-0.981719970703125,-0.1458740234375,0.0043487548828125
1772808538475618000,1.4146181640625,-0.9842529296875,-0.1510009765625,0.003753662109375
1772808538485642000,1.42464208984375,-0.9922943115234375,-0.1563568115234375,0.0063018798828125
1772808538495666000,1.434666015625,-0.990509033203125,-0.1603240966796875,0.008819580078125
1772808538505689000,1.444689208984375,-0.988555908203125,-0.16131591796875,0.006744384765625
1772808538515713000,1.454713134765625,-0.993255615234375,-0.16180419921875,0.0036468505859375
1772808538525737000,1.464737060546875,-0.99090576171875,-0.1631927490234375,0.0019683837890625
1772808538535761200,1.47476123046875,-0.9865570068359375,-0.1621856689453125,0.0018310546875
1772808538545784000,1.4847841796875,-0.98260498046875,-0.162628173828125,0.0032501220703125
1772808538555808000,1.49480810546875,-0.977813720703125,-0.165283203125,0.0051422119140625
1772808538565832200,1.504832275390625,-0.9775238037109375,-0.171356201171875,0.0071868896484375
1772808538575855000,1.514855224609375,-0.9754486083984375,-0.1778411865234375,0.011688232421875
1772808538585879000,1.524879150390625,-0.978485107421875,-0.1824798583984375,0.016387939453125
1772808538595903000,1.534903076171875,-0.9783782958984375,-0.1838226318359375,0.020172119140625
1772808538605926100,1.544926025390625,-0.9785614013671875,-0.18096923828125,0.0240325927734375
1772808538615950000,1.5549501953125,-0.974884033203125,-0.1785430908203125,0.024505615234375
1772808538625974000,1.56497412109375,-0.9741668701171875,-0.1793365478515625,0.0260467529296875
1772808538635998000,1.574998046875,-0.9744415283203125,-0.1798248291015625,0.0275115966796875
1772808538646021000,1.585021240234375,-0.977020263671875,-0.18377685546875,0.029296875
1772808538656045000,1.595045166015625,-0.97528076171875,-0.1851654052734375,0.02716064453125
1772808538666069000,1.605069091796875,-0.9733123779296875,-0.18328857421875,0.0242462158203125
1772808538676092200,1.615092041015625,-0.9776153564453125,-0.184600830078125,0.02337646484375
1772808538686116000,1.6251162109375,-0.9813385009765625,-0.183837890625,0.02459716796875
1772808538696140000,1.63514013671875,-0.9873046875,-0.1821746826171875,0.026092529296875
1772808538706164200,1.645164306640625,-0.9986114501953125,-0.1800689697265625,0.028656005859375
1772808538716187000,1.655186767578125,-1.00360107421875,-0.17913818359375,0.027679443359375
1772808538726211000,1.665211181640625,-1.0087432861328125,-0.1746368408203125,0.02435302734375
1772808538736235300,1.6752353515625,-1.01226806640625,-0.1737060546875,0.02191162109375
1772808538746258000,1.6852578125,-1.0137786865234375,-0.1763763427734375,0.0202178955078125
1772808538756282000,1.6952822265625,-1.015960693359375,-0.177093505859375,0.0172576904296875
1772808538766306000,1.70530615234375,-1.0143280029296875,-0.1719512939453125,0.0156097412109375
1772808538776330000,1.715330078125,-1.0138397216796875,-0.1676177978515625,0.012542724609375
1772808538786353200,1.725353271484375,-1.012115478515625,-0.1712799072265625,0.0100250244140625
1772808538796376800,1.735376953125,-1.010711669921875,-0.179534912109375,0.009002685546875
1772808538806401000,1.745401123046875,-1.0107421875,-0.183319091796875,0.0083770751953125
1772808538816424200,1.755424072265625,-1.0045928955078125,-0.1822509765625,0.0064849853515625
1772808538826448000,1.76544775390625,-0.9980926513671875,-0.1797332763671875,0.006988525390625
1772808538836472000,1.77547216796875,-0.9913787841796875,-0.1800689697265625,0.0089111328125
1772808538846496000,1.78549609375,-0.989715576171875,-0.1866912841796875,0.011260986328125
1772808538856519000,1.795518798828125,-0.9788360595703125,-0.1897735595703125,0.0114288330078125
1772808538866543000,1.805543212890625,-0.9745330810546875,-0.192718505859375,0.0156402587890625
1772808538876567000,1.815567138671875,-0.9846343994140625,-0.2028961181640625,0.015777587890625
1772808538886590000,1.82558984375,-0.9848480224609375,-0.2062835693359375,0.0166168212890625
1772808538896614100,1.8356142578125,-0.9865570068359375,-0.2039642333984375,0.0169677734375
1772808538906638000,1.84563818359375,-0.9800567626953125,-0.1981201171875,0.013519287109375
1772808538916662000,1.855662109375,-0.97100830078125,-0.1959686279296875,-0.005035400390625
1772808538926685200,1.865685302734375,-0.9603271484375,-0.189544677734375,-0.0087432861328125
1772808538936708900,1.875708984375,-0.958343505859375,-0.190155029296875,-0.018524169921875
1772808538946733000,1.885733154296875,-0.951324462890625,-0.1985626220703125,-0.015594482421875
1772808538956756200,1.895756103515625,-0.961456298828125,-0.2119598388671875,-0.0081634521484375
1772808538966780000,1.90577978515625,-0.9676971435546875,-0.214141845703125,-0.0116119384765625
1772808538976804000,1.91580419921875,-0.9705352783203125,-0.2007293701171875,-0.02520751953125
1772808538986828000,1.925828125,-0.9535980224609375,-0.1890716552734375,-0.0340423583984375
1772808538996851000,1.935850830078125,-0.9348602294921875,-0.1956634521484375,-0.0279693603515625
1772808539006875100,1.945875244140625,-0.944732666015625,-0.20294189453125,-0.0304412841796875
1772808539016899000,1.955899169921875,-0.958038330078125,-0.19940185546875,-0.0281982421875
1772808539026922000,1.965921875,-0.958282470703125,-0.1962127685546875,-0.0246124267578125
1772808539036946200,1.9759462890625,-0.9615325927734375,-0.1974029541015625,-0.0219879150390625
1772808539046970000,1.98597021484375,-0.9657135009765625,-0.1989288330078125,-0.0161285400390625
1772808539056994000,1.995994140625,-0.9765625,-0.1996917724609375,-0.0095977783203125
1772808539067017000,2.006016845703125,-0.9790496826171875,-0.198333740234375,-0.007904052734375
1772808539077041200,2.016041259765625,-0.977569580078125,-0.2018585205078125,-0.0068359375
1772808539087065000,2.026065185546875,-0.9776763916015625,-0.2056732177734375,-0.007659912109375
1772808539097088000,2.036087890625,-0.9803619384765625,-0.2064208984375,-0.006256103515625
1772808539107112000,2.04611181640625,-0.9853973388671875,-0.20550537109375,-0.0063323974609375
1772808539117136100,2.05613623046875,-0.9774169921875,-0.2090911865234375,0.002838134765625
1772808539127160000,2.06616015625,-0.9700927734375,-0.222412109375,0.0166473388671875
1772808539137183000,2.076182861328125,-0.9863739013671875,-0.2276153564453125,0.0199737548828125
1772808539147207000,2.08620703125,-0.9871978759765625,-0.22357177734375,0.02008056640625
1772808539157231000,2.096231201171875,-0.9787750244140625,-0.22259521484375,0.0200347900390625
1772808539167254000,2.10625390625,-0.9785919189453125,-0.2254791259765625,0.0203094482421875
1772808539177278000,2.11627783203125,-0.9833984375,-0.2268218994140625,0.018218994140625
1772808539187302100,2.12630224609375,-0.9842071533203125,-0.2236175537109375,0.017730712890625
1772808539197325800,2.136325927734375,-0.985687255859375,-0.2152099609375,0.0167236328125
1772808539207349000,2.146348876953125,-0.9828948974609375,-0.2116241455078125,0.01422119140625
1772808539217373200,2.156373291015625,-0.9823150634765625,-0.212921142578125,0.01226806640625
1772808539227396900,2.16639697265625,-0.9835205078125,-0.2166290283203125,0.011749267578125
1772808539237420000,2.176419921875,-0.9818115234375,-0.2173614501953125,0.0124359130859375
1772808539247444200,2.1864443359375,-0.9788970947265625,-0.215728759765625,0.0138702392578125
1772808539257468000,2.196468017578125,-0.975372314453125,-0.216339111328125,0.01416015625
1772808539267492000,2.2064921875,-0.9684600830078125,-0.212799072265625,0.0124664306640625
1772808539277515000,2.216514892578125,-0.9656219482421875,-0.2086944580078125,0.0104217529296875
1772808539287539000,2.2265390625,-0.9611663818359375,-0.207305908203125,0.010223388671875
1772808539297563100,2.236563232421875,-0.959869384765625,-0.204986572265625,0.00885009765625
1772808539307586000,2.2465859375,-0.9663848876953125,-0.2012939453125,0.011444091796875
1772808539317610000,2.25660986328125,-0.9772796630859375,-0.201263427734375,0.01171875
1772808539327634200,2.26663427734375,-0.975555419921875,-0.203277587890625,0.0068817138671875
1772808539337657900,2.276657958984375,-0.9784698486328125,-0.2008056640625,0.001495361328125
1772808539347681000,2.286680908203125,-0.9850616455078125,-0.1972808837890625,-0.0020599365234375
1772808539357705200,2.296705322265625,-0.984527587890625,-0.19708251953125,-0.0048065185546875
1772808539367729000,2.30672900390625,-0.9807586669921875,-0.1985015869140625,-0.00628662109375
1772808539377752000,2.316751953125,-0.9821319580078125,-0.1984405517578125,-0.0077056884765625
1772808539387776300,2.3267763671875,-0.986358642578125,-0.1964874267578125,-0.004150390625
1772808539397800000,2.336800048828125,-0.989013671875,-0.195770263671875,0.0030517578125
1772808539407824100,2.34682421875,-0.99029541015625,-0.1953582763671875,0.006103515625
1772808539417847000,2.356846923828125,-0.989349365234375,-0.193115234375,0.0087432861328125
1772808539427871000,2.36687109375,-0.989044189453125,-0.191619873046875,0.010345458984375
1772808539437895200,2.376895263671875,-0.9925689697265625,-0.1903839111328125,0.0122528076171875
1772808539447917800,2.386917724609375,-0.9929351806640625,-0.188201904296875,0.0164947509765625
1772808539457942000,2.39694189453125,-0.9905548095703125,-0.1905517578125,0.018524169921875
1772808539467966000,2.406966064453125,-0.9857635498046875,-0.191558837890625,0.0177154541015625
1772808539477990100,2.416990234375,-0.9816741943359375,-0.1923828125,0.0157318115234375
1772808539488013000,2.427012939453125,-0.978729248046875,-0.1925048828125,0.0141143798828125
1772808539498037000,2.437037109375,-0.97564697265625,-0.1937713623046875,0.0129852294921875
1772808539508061000,2.44706103515625,-0.976287841796875,-0.1972808837890625,0.0122222900390625
1772808539518084000,2.457083984375,-0.9746246337890625,-0.1970062255859375,0.009613037109375
1772808539528108000,2.46710791015625,-0.9781494140625,-0.1949920654296875,0.0067138671875
1772808539538132000,2.477132080078125,-0.97991943359375,-0.19287109375,0.0046539306640625
1772808539548156000,2.487156005859375,-0.9861907958984375,-0.194366455078125,0.00634765625
1772808539558179000,2.497178955078125,-0.9929046630859375,-0.194244384765625,0.00982666015625
1772808539568203000,2.507203125,-0.9946136474609375,-0.1909027099609375,0.011749267578125
1772808539578227000,2.51722705078125,-0.9949798583984375,-0.1895599365234375,0.0121002197265625
1772808539588249900,2.527249755859375,-0.9925689697265625,-0.1908721923828125,0.0137786865234375
1772808539598274000,2.537274169921875,-0.98944091796875,-0.1935272216796875,0.0142974853515625
1772808539608298000,2.547298095703125,-0.986572265625,-0.19671630859375,0.01531982421875
1772808539618322200,2.557322265625,-0.984466552734375,-0.1985015869140625,0.01751708984375
1772808539628345000,2.567344970703125,-0.984893798828125,-0.19775390625,0.018157958984375
1772808539638369000,2.577369140625,-0.9824676513671875,-0.1949615478515625,0.01861572265625
1772808539648393200,2.587393310546875,-0.981842041015625,-0.19097900390625,0.0166778564453125
1772808539658416000,2.597416015625,-0.9812774658203125,-0.1889495849609375,0.0150909423828125
1772808539668440000,2.607440185546875,-0.98028564453125,-0.1910858154296875,0.0137786865234375
1772808539678464000,2.617464111328125,-0.9795379638671875,-0.19287109375,0.013427734375
1772808539688488000,2.627488037109375,-0.9822998046875,-0.1938934326171875,0.0145721435546875
1772808539698511000,2.637510986328125,-0.984588623046875,-0.1943817138671875,0.0168304443359375
1772808539708535000,2.64753515625,-0.985565185546875,-0.1951446533203125,0.014617919921875
1772808539718559000,2.65755908203125,-0.985015869140625,-0.193145751953125,0.0106658935546875
1772808539728583200,2.667583251953125,-0.984130859375,-0.1896514892578125,0.006072998046875
1772808539738606000,2.677606201171875,-0.98199462890625,-0.186004638671875,0.0045013427734375
1772808539748630000,2.687630126953125,-0.9821319580078125,-0.186431884765625,0.0041961669921875
1772808539758654200,2.697654296875,-0.983123779296875,-0.1878662109375,0.0057220458984375
1772808539768677000,2.707677001953125,-0.9832000732421875,-0.1884002685546875,0.0044403076171875
1772808539778701000,2.717701171875,-0.9828643798828125,-0.1839141845703125,0.006866455078125
1772808539788725200,2.727725341796875,-0.9847564697265625,-0.1834564208984375,0.0090179443359375
1772808539798749000,2.7377490234375,-0.982940673828125,-0.18524169921875,0.0107269287109375
1772808539808772000,2.747772216796875,-0.982757568359375,-0.186248779296875,0.0095672607421875
1772808539818796000,2.757796142578125,-0.9851226806640625,-0.1878662109375,0.0115966796875
1772808539828820000,2.767820068359375,-0.986236572265625,-0.190185546875,0.0133819580078125
1772808539838843100,2.777843017578125,-0.9834747314453125,-0.1919708251953125,0.0100250244140625
1772808539848866800,2.78786669921875,-0.9765472412109375,-0.190521240234375,0.0055389404296875
1772808539858891000,2.79789111328125,-0.9750213623046875,-0.1904296875,0.004638671875
1772808539868915200,2.807915283203125,-0.975006103515625,-0.1906280517578125,0.0035247802734375
1772808539878937900,2.817937744140625,-0.9761199951171875,-0.1908111572265625,0.003326416015625
1772808539888962000,2.827962158203125,-0.978790283203125,-0.191009521484375,0.0042266845703125
1772808539898986000,2.837986083984375,-0.98040771484375,-0.1897125244140625,0.006011962890625
1772808539909009000,2.8480087890625,-0.9800567626953125,-0.1871185302734375,0.00726318359375
1772808539919033000,2.858033203125,-0.9802398681640625,-0.1862335205078125,0.00848388671875
1772808539929057000,2.86805712890625,-0.97918701171875,-0.1855316162109375,0.0077972412109375
1772808539939081000,2.8780810546875,-0.979583740234375,-0.185516357421875,0.007080078125
1772808539949104000,2.888104248046875,-0.980804443359375,-0.1867523193359375,0.0061492919921875
1772808539959128000,2.898128173828125,-0.9840545654296875,-0.187225341796875,0.008270263671875
1772808539969152000,2.908152099609375,-0.9864501953125,-0.1878662109375,0.009307861328125
1772808539979176000,2.918176025390625,-0.985595703125,-0.1859283447265625,0.008758544921875
1772808539989198800,2.92819873046875,-0.9862823486328125,-0.1832275390625,0.0074462890625
1772808539999223000,2.93822314453125,-0.985748291015625,-0.183441162109375,0.007659912109375
1772808540009247000,2.9482470703125,-0.987884521484375,-0.183868408203125,0.00885009765625
1772808540019270000,2.958269775390625,-0.9878387451171875,-0.1821441650390625,0.007080078125
1772808540029294000,2.968294189453125,-0.985626220703125,-0.178802490234375,0.004852294921875
1772808540039318000,2.978318115234375,-0.985137939453125,-0.1790771484375,0.0041046142578125
1772808540049342200,2.98834228515625,-0.9878082275390625,-0.1769866943359375,0.002227783203125
1772808540059365000,2.998365234375,-0.98809814453125,-0.1771240234375,0.0006103515625
1772808540069389000,3.00838916015625,-0.988861083984375,-0.1792755126953125,0.0031890869140625
1772808540079413000,3.0184130859375,-0.992218017578125,-0.1802825927734375,0.0059814453125
1772808540089436200,3.028436279296875,-0.990509033203125,-0.18017578125,0.007720947265625
1772808540099460000,3.038460205078125,-0.9868011474609375,-0.180877685546875,0.0070648193359375
1772808540109484000,3.048484130859375,-0.9854888916015625,-0.1827545166015625,0.0094757080078125
1772808540119508000,3.058508056640625,-0.9845123291015625,-0.1829071044921875,0.012603759765625
1772808540129531100,3.06853125,-0.9857330322265625,-0.182403564453125,0.0148773193359375
1772808540139555000,3.07855517578125,-0.9851226806640625,-0.1837921142578125,0.0152740478515625
1772808540149579000,3.0885791015625,-0.98394775390625,-0.183837890625,0.0137481689453125
1772808540159602000,3.098601806640625,-0.9836578369140625,-0.1835784912109375,0.0130767822265625
1772808540169626000,3.108626220703125,-0.9845123291015625,-0.184417724609375,0.01312255859375
1772808540179650000,3.118650146484375,-0.9862823486328125,-0.1874542236328125,0.0133514404296875
1772808540189674200,3.12867431640625,-0.985931396484375,-0.188934326171875,0.0152587890625
1772808540199697000,3.13869677734375,-0.9841461181640625,-0.1864166259765625,0.0172882080078125
1772808540209721000,3.14872119140625,-0.9812469482421875,-0.1819610595703125,0.0167388916015625
1772808540219745000,3.1587451171875,-0.978363037109375,-0.183349609375,0.0164947509765625
1772808540229769000,3.16876904296875,-0.9768218994140625,-0.184356689453125,0.0159912109375
1772808540239792000,3.178792236328125,-0.977996826171875,-0.1845245361328125,0.0170440673828125
1772808540249816000,3.188816162109375,-0.978302001953125,-0.1846466064453125,0.01776123046875
1772808540259840000,3.198840087890625,-0.978302001953125,-0.1811065673828125,0.01617431640625
1772808540269863200,3.20886328125,-0.978057861328125,-0.1771697998046875,0.0124969482421875
1772808540279886800,3.218886962890625,-0.980316162109375,-0.174560546875,0.0099945068359375
1772808540289911000,3.2289111328125,-0.982635498046875,-0.1740570068359375,0.0081634521484375
1772808540299935000,3.23893505859375,-0.981719970703125,-0.1731414794921875,0.00634765625
1772808540309958000,3.2489580078125,-0.985107421875,-0.174072265625,0.005523681640625
1772808540319982000,3.258982177734375,-0.99481201171875,-0.1752471923828125,0.0057373046875
1772808540330006000,3.269006103515625,-0.9980926513671875,-0.1753692626953125,0.0067901611328125
1772808540340030200,3.2790302734375,-0.994049072265625,-0.172271728515625,0.0027008056640625
1772808540350053400,3.289053466796875,-0.990234375,-0.16693115234375,-0.000518798828125
1772808540360077300,3.299077392578125,-0.9892425537109375,-0.165008544921875,-0.0021820068359375
1772808540370101200,3.309101318359375,-0.9852294921875,-0.16619873046875,-0.00335693359375
1772808540380124400,3.31912451171875,-0.9853515625,-0.1709136962890625,-0.0018157958984375
1772808540390148400,3.3291484375,-0.984619140625,-0.17529296875,0.001251220703125
1772808540400172300,3.33917236328125,-0.983367919921875,-0.1773529052734375,0.00408935546875
1772808540410196200,3.3491962890625,-0.9837188720703125,-0.1768646240234375,0.0069122314453125
1772808540420219100,3.35921923828125,-0.98431396484375,-0.1769256591796875,0.010955810546875
1772808540430243300,3.369243408203125,-0.9835968017578125,-0.1775054931640625,0.0131988525390625
1772808540440267300,3.379267333984375,-0.982818603515625,-0.17852783203125,0.013214111328125
1772808540450291500,3.38929150390625,-0.980133056640625,-0.1782379150390625,0.0150299072265625
1772808540460314400,3.399314453125,-0.981597900390625,-0.1772308349609375,0.0180511474609375
1772808540470338300,3.40933837890625,-0.9842529296875,-0.1770782470703125,0.0213775634765625
1772808540480362200,3.4193623046875,-0.985260009765625,-0.1796875,0.0244140625
1772808540490385400,3.429385498046875,-0.9869232177734375,-0.1793975830078125,0.026214599609375
1772808540500409300,3.439409423828125,-0.98712158203125,-0.178436279296875,0.0278472900390625
1772808540510433300,3.449433349609375,-0.9900970458984375,-0.1773223876953125,0.0292816162109375
1772808540520457200,3.459457275390625,-0.9911041259765625,-0.176055908203125,0.0293426513671875
1772808540530480400,3.46948046875,-0.989990234375,-0.1754150390625,0.028228759765625
1772808540540504300,3.47950439453125,-0.9915618896484375,-0.17828369140625,0.0275726318359375
1772808540550528300,3.4895283203125,-0.9914703369140625,-0.1786041259765625,0.0254669189453125
1772808540560551400,3.499551513671875,-0.9950408935546875,-0.1757354736328125,0.024200439453125
1772808540570575400,3.509575439453125,-0.994476318359375,-0.1722412109375,0.02166748046875
1772808540580599300,3.519599365234375,-0.9945068359375,-0.171295166015625,0.0201873779296875
1772808540590623500,3.52962353515625,-0.9943695068359375,-0.170623779296875,0.015625
1772808540600646100,3.539646240234375,-0.9916839599609375,-0.169891357421875,0.0128173828125
1772808540610670300,3.54967041015625,-0.989227294921875,-0.17041015625,0.0105438232421875
1772808540620694300,3.5596943359375,-0.9851531982421875,-0.1683502197265625,0.010589599609375
1772808540630718200,3.56971826171875,-0.982391357421875,-0.16815185546875,0.01123046875
1772808540640741400,3.579741455078125,-0.9804534912109375,-0.16925048828125,0.013214111328125
1772808540650765000,3.58976513671875,-0.9779815673828125,-0.1709136962890625,0.0151824951171875
1772808540660789200,3.599789306640625,-0.9757537841796875,-0.1720123291015625,0.0163421630859375
1772808540670812400,3.6098125,-0.974212646484375,-0.171539306640625,0.017608642578125
1772808540680836000,3.619836181640625,-0.9751739501953125,-0.1714935302734375,0.0200958251953125
1772808540690860300,3.6298603515625,-0.97613525390625,-0.17254638671875,0.022125244140625
1772808540700884200,3.63988427734375,-0.9784698486328125,-0.1710968017578125,0.0216827392578125
1772808540710907100,3.6499072265625,-0.982177734375,-0.17138671875,0.0208740234375
1772808540720931300,3.659931396484375,-0.9831085205078125,-0.1719818115234375,0.020050048828125
1772808540730955300,3.669955322265625,-0.9883880615234375,-0.1701812744140625,0.0193023681640625
1772808540740979200,3.679979248046875,-0.992401123046875,-0.1699371337890625,0.0191192626953125
1772808540751002400,3.69000244140625,-0.9953155517578125,-0.168975830078125,0.019317626953125
1772808540761026300,3.7000263671875,-0.99725341796875,-0.1700897216796875,0.0182342529296875
1772808540771050200,3.71005029296875,-0.9977569580078125,-0.171234130859375,0.0171051025390625
1772808540781073400,3.720073486328125,-0.9970245361328125,-0.1708526611328125,0.0157928466796875
1772808540791097300,3.730097412109375,-0.9965972900390625,-0.1683197021484375,0.013031005859375
1772808540801121300,3.740121337890625,-0.9964752197265625,-0.1689453125,0.012847900390625
1772808540811145200,3.750145263671875,-0.9932708740234375,-0.169708251953125,0.013641357421875
1772808540821168000,3.760168212890625,-0.991180419921875,-0.1691741943359375,0.0146636962890625
1772808540831192300,3.7701923828125,-0.9889984130859375,-0.1690673828125,0.01416015625
1772808540841216300,3.78021630859375,-0.986541748046875,-0.1719207763671875,0.016815185546875
1772808540851240400,3.790240478515625,-0.98492431640625,-0.1731719970703125,0.018829345703125
1772808540861263400,3.800263427734375,-0.9822540283203125,-0.1705169677734375,0.0203857421875
1772808540871287300,3.810287353515625,-0.9795379638671875,-0.168304443359375,0.021240234375
1772808540881311200,3.820311279296875,-0.9808807373046875,-0.168548583984375,0.0218505859375
1772808540891335200,3.830335205078125,-0.9846343994140625,-0.16998291015625,0.0223388671875
1772808540901358300,3.8403583984375,-0.9864349365234375,-0.1692962646484375,0.021636962890625
1772808540911382300,3.85038232421875,-0.9881744384765625,-0.1660919189453125,0.0194549560546875
1772808540921406200,3.86040625,-0.9897918701171875,-0.1664581298828125,0.016693115234375
1772808540931429400,3.870429443359375,-0.990386962890625,-0.167816162109375,0.013916015625
1772808540941453300,3.880453369140625,-0.988006591796875,-0.1672821044921875,0.010162353515625
1772808540951477200,3.890477294921875,-0.98211669921875,-0.16693115234375,0.0068359375
1772808540961501400,3.90050146484375,-0.978851318359375,-0.167205810546875,0.0076751708984375
1772808540971524400,3.9105244140625,-0.979461669921875,-0.16815185546875,0.010894775390625
1772808540981548300,3.92054833984375,-0.98046875,-0.1698455810546875,0.0141143798828125
1772808540991572500,3.930572509765625,-0.9800262451171875,-0.1689910888671875,0.014862060546875
1772808541001596200,3.94059619140625,-0.9800872802734375,-0.1680450439453125,0.0155181884765625
1772808541011619300,3.950619384765625,-0.983367919921875,-0.16717529296875,0.0172271728515625
1772808541021643500,3.9606435546875,-0.9861907958984375,-0.1655426025390625,0.0187530517578125
1772808541031667200,3.970667236328125,-0.985076904296875,-0.163848876953125,0.017486572265625
1772808541041690400,3.9806904296875,-0.9867095947265625,-0.164276123046875,0.01531982421875
1772808541051714300,3.99071435546875,-0.9887542724609375,-0.1656036376953125,0.0141754150390625
1772808541061738200,4.00073828125,-0.9900360107421875,-0.16448974609375,0.0133209228515625
1772808541071762400,4.010762451171875,-0.989959716796875,-0.1645355224609375,0.0124664306640625
1772808541081785000,4.02078515625,-0.9889373779296875,-0.165435791015625,0.0117340087890625
1772808541091809300,4.030809326171875,-0.9865570068359375,-0.1649017333984375,0.0110015869140625
1772808541101833200,4.040833251953125,-0.9874267578125,-0.163726806640625,0.0113677978515625
1772808541111857200,4.050857177734375,-0.9880218505859375,-0.16351318359375,0.0133056640625
1772808541121880300,4.06088037109375,-0.988525390625,-0.1648406982421875,0.0156097412109375
1772808541131904300,4.070904296875,-0.9904937744140625,-0.166351318359375,0.01678466796875
1772808541141928200,4.08092822265625,-0.9911346435546875,-0.167572021484375,0.0177764892578125
1772808541151952400,4.090952392578125,-0.9897613525390625,-0.16607666015625,0.0185394287109375
1772808541161975300,4.100975341796875,-0.9902801513671875,-0.1638641357421875,0.019989013671875
1772808541171999200,4.110999267578125,-0.990234375,-0.1637725830078125,0.022491455078125
1772808541182023200,4.121023193359375,-0.993896484375,-0.1637725830078125,0.024810791015625
1772808541192047400,4.13104736328125,-0.9922637939453125,-0.1650848388671875,0.02386474609375
1772808541202070300,4.1410703125,-0.99127197265625,-0.1661376953125,0.0222625732421875
1772808541212094200,4.15109423828125,-0.9931640625,-0.1642608642578125,0.0203857421875
1772808541222118400,4.161118408203125,-0.99310302734375,-0.1620941162109375,0.0156402587890625
1772808541232141300,4.171141357421875,-0.9892425537109375,-0.1613311767578125,0.0133514404296875
1772808541242165200,4.181165283203125,-0.9922637939453125,-0.1628265380859375,0.011383056640625
1772808541252189400,4.191189453125,-0.9907684326171875,-0.163848876953125,0.010406494140625
1772808541262213000,4.201213134765625,-0.988616943359375,-0.16558837890625,0.009246826171875
1772808541272236300,4.211236328125,-0.989410400390625,-0.1648712158203125,0.0097808837890625
1772808541282260200,4.22126025390625,-0.9875030517578125,-0.164276123046875,0.010406494140625
1772808541292284200,4.2312841796875,-0.9841766357421875,-0.165435791015625,0.011138916015625
1772808541302308400,4.241308349609375,-0.9823150634765625,-0.1655731201171875,0.013153076171875
1772808541312331300,4.251331298828125,-0.983245849609375,-0.167266845703125,0.01861572265625
1772808541322355200,4.261355224609375,-0.985076904296875,-0.16619873046875,0.0227508544921875
1772808541332379400,4.27137939453125,-0.984405517578125,-0.1655731201171875,0.0242919921875
1772808541342403000,4.281403076171875,-0.98394775390625,-0.16473388671875,0.0244293212890625
1772808541352426200,4.29142626953125,-0.9872283935546875,-0.1657562255859375,0.0247344970703125
1772808541362450400,4.301450439453125,-0.986602783203125,-0.1649627685546875,0.02294921875
1772808541372474000,4.31147412109375,-0.9859619140625,-0.163299560546875,0.0193634033203125
1772808541382497300,4.321497314453125,-0.9876556396484375,-0.1615753173828125,0.0142364501953125
1772808541392521500,4.331521484375,-0.9857635498046875,-0.1610870361328125,0.0110626220703125
1772808541402545200,4.341545166015625,-0.98486328125,-0.1607818603515625,0.009002685546875
1772808541412569300,4.3515693359375,-0.9846343994140625,-0.16046142578125,0.00872802734375
1772808541422592500,4.361592529296875,-0.98687744140625,-0.16119384765625,0.00885009765625
1772808541432616200,4.3716162109375,-0.9892120361328125,-0.1626129150390625,0.01080322265625
1772808541442640400,4.381640380859375,-0.9920501708984375,-0.1639404296875,0.0142974853515625
1772808541452664300,4.391664306640625,-0.9954681396484375,-0.163665771484375,0.0151519775390625
1772808541462687200,4.401687255859375,-0.9932403564453125,-0.160125732421875,0.014923095703125
1772808541472711400,4.41171142578125,-0.98980712890625,-0.1574859619140625,0.01654052734375
1772808541482735400,4.4217353515625,-0.990234375,-0.1573486328125,0.018096923828125
1772808541492759300,4.43175927734375,-0.9880828857421875,-0.1586456298828125,0.0196075439453125
1772808541502782500,4.441782470703125,-0.9834747314453125,-0.1604766845703125,0.02081298828125
1772808541512806100,4.45180615234375,-0.9804229736328125,-0.162353515625,0.02020263671875
1772808541522830300,4.461830322265625,-0.9787139892578125,-0.16387939453125,0.0174560546875
1772808541532853200,4.471853271484375,-0.979217529296875,-0.1622161865234375,0.0160675048828125
1772808541542877200,4.481877197265625,-0.9798736572265625,-0.1609344482421875,0.0167999267578125
1772808541552901400,4.4919013671875,-0.980377197265625,-0.1621551513671875,0.0182952880859375
1772808541562925300,4.50192529296875,-0.98583984375,-0.1645050048828125,0.0187530517578125
1772808541572948200,4.5119482421875,-0.98858642578125,-0.1638946533203125,0.016937255859375
1772808541582972400,4.521972412109375,-0.9878387451171875,-0.1626129150390625,0.0151519775390625
1772808541592996400,4.531996337890625,-0.98968505859375,-0.161865234375,0.0146942138671875
1772808541603020300,4.542020263671875,-0.9903717041015625,-0.162139892578125,0.0149688720703125
1772808541613043200,4.552043212890625,-0.991607666015625,-0.16058349609375,0.014617919921875
1772808541623067400,4.5620673828125,-0.99169921875,-0.1602630615234375,0.0162200927734375
1772808541633091300,4.57209130859375,-0.989715576171875,-0.16094970703125,0.016815185546875
1772808541643115300,4.582115234375,-0.99072265625,-0.161224365234375,0.017303466796875
1772808541653138400,4.592138427734375,-0.992706298828125,-0.1601409912109375,0.0194854736328125
1772808541663162000,4.602162109375,-0.993682861328125,-0.1591796875,0.0208740234375
1772808541673186300,4.612186279296875,-0.99053955078125,-0.1587982177734375,0.0211029052734375
1772808541683210500,4.62221044921875,-0.990386962890625,-0.1585693359375,0.0198974609375
1772808541693233200,4.632233154296875,-0.990478515625,-0.1577911376953125,0.0189056396484375
1772808541703257300,4.64225732421875,-0.986724853515625,-0.1580047607421875,0.0171356201171875
1772808541713281300,4.65228125,-0.985687255859375,-0.157623291015625,0.014801025390625
1772808541723305200,4.66230517578125,-0.9826812744140625,-0.1590423583984375,0.0145416259765625
1772808541733328400,4.672328369140625,-0.9820556640625,-0.1612701416015625,0.016326904296875
1772808541743352000,4.68235205078125,-0.984466552734375,-0.16156005859375,0.0173492431640625
1772808541753376300,4.692376220703125,-0.9830322265625,-0.1616668701171875,0.017578125
1772808541763399400,4.7023994140625,-0.9826507568359375,-0.15960693359375,0.01922607421875
1772808541773423000,4.712423095703125,-0.98822021484375,-0.1595306396484375,0.019744873046875
1772808541783447300,4.722447265625,-0.9907379150390625,-0.161376953125,0.0211944580078125
1772808541793471200,4.73247119140625,-0.991424560546875,-0.159454345703125,0.0214691162109375
1772808541803494100,4.742494140625,-0.9912567138671875,-0.15765380859375,0.022247314453125
1772808541813518300,4.752518310546875,-0.9885406494140625,-0.1572418212890625,0.0232391357421875
1772808541823542300,4.762542236328125,-0.9928741455078125,-0.1577301025390625,0.0247802734375
1772808541833566200,4.772566162109375,-0.9945220947265625,-0.15826416015625,0.0278472900390625
1772808541843589400,4.78258935546875,-0.9937286376953125,-0.1591644287109375,0.0293121337890625
1772808541853613300,4.79261328125,-0.9937744140625,-0.157623291015625,0.0282440185546875
1772808541863637200,4.80263720703125,-0.99127197265625,-0.1566619873046875,0.025909423828125
1772808541873661200,4.8126611328125,-0.991180419921875,-0.1586456298828125,0.02337646484375
1772808541883684400,4.822684326171875,-0.9910430908203125,-0.1595306396484375,0.024017333984375
1772808541893708300,4.832708251953125,-0.987762451171875,-0.1595306396484375,0.024200439453125
1772808541903732200,4.842732177734375,-0.9880828857421875,-0.1601715087890625,0.023162841796875
1772808541913756400,4.85275634765625,-0.986236572265625,-0.159576416015625,0.0247344970703125
1772808541923779300,4.862779296875,-0.987335205078125,-0.160186767578125,0.027435302734375
1772808541933803300,4.87280322265625,-0.9875030517578125,-0.160400390625,0.0273895263671875
1772808541943827500,4.882827392578125,-0.9857940673828125,-0.15716552734375,0.0277862548828125
1772808541953851100,4.89285107421875,-0.985504150390625,-0.1565399169921875,0.028472900390625
1772808541963874300,4.902874267578125,-0.9869842529296875,-0.15643310546875,0.0302886962890625
1772808541973898200,4.912898193359375,-0.986541748046875,-0.15667724609375,0.03131103515625
1772808541983922200,4.922922119140625,-0.987152099609375,-0.15753173828125,0.030731201171875
1772808541993945300,4.9329453125,-0.9891357421875,-0.1580352783203125,0.0313873291015625
1772808542003969300,4.94296923828125,-0.9881744384765625,-0.1572723388671875,0.0286102294921875
1772808542013993200,4.9529931640625,-0.9870758056640625,-0.1570281982421875,0.0282440185546875
1772808542024017400,4.963017333984375,-0.9878692626953125,-0.1580047607421875,0.0279693603515625
1772808542034040300,4.973040283203125,-0.9891815185546875,-0.157928466796875,0.0280609130859375
1772808542044064300,4.983064208984375,-0.990447998046875,-0.1572723388671875,0.0271453857421875
1772808542054088400,4.99308837890625,-0.9898223876953125,-0.15618896484375,0.0262603759765625
1772808542064112000,5.003112060546875,-0.9920501708984375,-0.154144287109375,0.02447509765625
1772808542074135300,5.01313525390625,-0.994903564453125,-0.1538238525390625,0.0234222412109375
1772808542084159500,5.023159423828125,-0.9951324462890625,-0.1532745361328125,0.0233917236328125
1772808542094183200,5.03318310546875,-0.993988037109375,-0.1516265869140625,0.0236663818359375
1772808542104207400,5.043207275390625,-0.9941864013671875,-0.154144287109375,0.02471923828125
1772808542114230300,5.053230224609375,-0.9916839599609375,-0.157257080078125,0.022003173828125
1772808542124254200,5.063254150390625,-0.9889068603515625,-0.1585845947265625,0.020294189453125
1772808542134278400,5.0732783203125,-0.9843902587890625,-0.1563873291015625,0.0185089111328125
1772808542144302300,5.08330224609375,-0.9836883544921875,-0.15606689453125,0.020050048828125
1772808542154325200,5.0933251953125,-0.9882354736328125,-0.1562042236328125,0.0220947265625
1772808542164349400,5.103349365234375,-0.9906463623046875,-0.1576385498046875,0.0247650146484375
1772808542174373400,5.113373291015625,-0.99224853515625,-0.15899658203125,0.0270233154296875
1772808542184397300,5.123397216796875,-0.9926910400390625,-0.1567230224609375,0.02728271484375
1772808542194420200,5.133420166015625,-0.9939117431640625,-0.1561126708984375,0.0284423828125
1772808542204444200,5.143444091796875,-0.9907989501953125,-0.1559906005859375,0.027496337890625
1772808542214468400,5.15346826171875,-0.9884033203125,-0.1576690673828125,0.0263214111328125
1772808542224492300,5.1634921875,-0.985992431640625,-0.1592559814453125,0.0252227783203125
1772808542234515200,5.17351513671875,-0.98382568359375,-0.1596527099609375,0.023590087890625
1772808542244539100,5.1835390625,-0.9820098876953125,-0.1587066650390625,0.0227203369140625
1772808542254563300,5.193563232421875,-0.9820098876953125,-0.158721923828125,0.024627685546875
1772808542264587500,5.20358740234375,-0.9850311279296875,-0.1588897705078125,0.0260162353515625
1772808542274610200,5.213610107421875,-0.986572265625,-0.1575927734375,0.024200439453125
1772808542284634400,5.22363427734375,-0.9897308349609375,-0.1565093994140625,0.023681640625
1772808542294658300,5.233658203125,-0.9945831298828125,-0.155853271484375,0.02386474609375
1772808542304681200,5.24368115234375,-0.9962158203125,-0.1558074951171875,0.0227203369140625
1772808542314705400,5.253705322265625,-0.998291015625,-0.1553192138671875,0.0213623046875
1772808542324729000,5.26372900390625,-0.9949951171875,-0.1552581787109375,0.0196685791015625
1772808542334753300,5.273753173828125,-0.9922943115234375,-0.1536865234375,0.018951416015625
1772808542344780000,5.283780029296875,-0.990325927734375,-0.1529998779296875,0.0176239013671875
1772808542354804000,5.293803955078125,-0.986236572265625,-0.153717041015625,0.0170135498046875
1772808542364828200,5.303828125,-0.9838714599609375,-0.155853271484375,0.0182647705078125
1772808542374851800,5.313851806640625,-0.9846038818359375,-0.1564178466796875,0.021759033203125
1772808542384875000,5.323875,-0.985443115234375,-0.15667724609375,0.0225372314453125
1772808542394899200,5.333899169921875,-0.9875335693359375,-0.1563568115234375,0.0238037109375
1772808542404923000,5.3439228515625,-0.9891204833984375,-0.1566314697265625,0.02337646484375
1772808542414947000,5.353947021484375,-0.990875244140625,-0.15582275390625,0.0221710205078125
1772808542424970200,5.36397021484375,-0.99237060546875,-0.1551055908203125,0.0225830078125
1772808542434994000,5.373993896484375,-0.993194580078125,-0.1551971435546875,0.02337646484375
1772808542445018000,5.38401806640625,-0.994659423828125,-0.1581268310546875,0.02386474609375
1772808542455042000,5.3940419921875,-0.9944305419921875,-0.1581573486328125,0.0239105224609375
1772808542465065000,5.40406494140625,-0.99072265625,-0.1566009521484375,0.023651123046875
1772808542475089200,5.414089111328125,-0.98834228515625,-0.1588287353515625,0.024261474609375
1772808542485113000,5.424113037109375,-0.988189697265625,-0.160369873046875,0.0256805419921875
1772808542495137000,5.434136962890625,-0.9883575439453125,-0.1610870361328125,0.0276336669921875
1772808542505160200,5.44416015625,-0.9862823486328125,-0.1598358154296875,0.02655029296875
1772808542515183900,5.454183837890625,-0.9829254150390625,-0.1591796875,0.025177001953125
1772808542525208000,5.4642080078125,-0.9828948974609375,-0.1595611572265625,0.025390625
1772808542535232000,5.47423193359375,-0.985382080078125,-0.1596832275390625,0.0266265869140625
1772808542545255000,5.4842548828125,-0.9873504638671875,-0.1609649658203125,0.0251617431640625
1772808542555279000,5.494279052734375,-0.9846954345703125,-0.1601715087890625,0.0222320556640625
1772808542565303000,5.504302978515625,-0.9847869873046875,-0.1608734130859375,0.0192108154296875
1772808542575327000,5.514326904296875,-0.989837646484375,-0.160400390625,0.0198822021484375
1772808542585350100,5.52435009765625,-0.9900360107421875,-0.158538818359375,0.020599365234375
1772808542595374000,5.5343740234375,-0.9873809814453125,-0.1580810546875,0.0188140869140625
1772808542605398000,5.54439794921875,-0.9879913330078125,-0.159393310546875,0.0181884765625
1772808542615422000,5.554421875,-0.9907379150390625,-0.160614013671875,0.0192718505859375
1772808542625445000,5.564445068359375,-0.9879608154296875,-0.1586151123046875,0.01959228515625
1772808542635469000,5.574468994140625,-0.9857330322265625,-0.159027099609375,0.0196380615234375
1772808542645493000,5.584492919921875,-0.985809326171875,-0.162384033203125,0.02001953125
1772808542655517200,5.59451708984375,-0.98675537109375,-0.1634521484375,0.02099609375
1772808542665540000,5.6045400390625,-0.9886016845703125,-0.1599273681640625,0.0242767333984375
1772808542675564000,5.61456396484375,-0.987274169921875,-0.157928466796875,0.022369384765625
1772808542685588200,5.624588134765625,-0.9830322265625,-0.1597442626953125,0.0177764892578125
1772808542695611000,5.63461083984375,-0.98712158203125,-0.161895751953125,0.0182647705078125
1772808542705635000,5.644635009765625,-0.991455078125,-0.1622772216796875,0.021087646484375
1772808542715659300,5.6546591796875,-0.9909820556640625,-0.1611175537109375,0.0210113525390625
1772808542725683000,5.664682861328125,-0.98956298828125,-0.1617584228515625,0.0185394287109375
1772808542735706000,5.6747060546875,-0.9900970458984375,-0.1621551513671875,0.017547607421875
1772808542745730000,5.68472998046875,-0.989105224609375,-0.15985107421875,0.016357421875
1772808542755754000,5.69475390625,-0.988037109375,-0.15972900390625,0.0141448974609375
1772808542765778200,5.704778076171875,-0.9857177734375,-0.1605072021484375,0.0137786865234375
1772808542775800800,5.71480078125,-0.986328125,-0.16143798828125,0.0166473388671875
1772808542785825000,5.724824951171875,-0.98834228515625,-0.16351318359375,0.0196533203125
1772808542795849000,5.734848876953125,-0.985565185546875,-0.1621246337890625,0.0211029052734375
1772808542805873200,5.744873046875,-0.984375,-0.160980224609375,0.0225982666015625
1772808542815896000,5.75489599609375,-0.98480224609375,-0.1612091064453125,0.024383544921875
1772808542825920000,5.764919921875,-0.986236572265625,-0.1625518798828125,0.0251312255859375
1772808542835944000,5.77494384765625,-0.9904937744140625,-0.1640167236328125,0.0235748291015625
1772808542845968100,5.784968017578125,-0.9912109375,-0.162384033203125,0.0232391357421875
1772808542855991000,5.794990966796875,-0.9907684326171875,-0.161041259765625,0.0211029052734375
1772808542866015000,5.805014892578125,-0.99298095703125,-0.159881591796875,0.020263671875
1772808542876039000,5.815038818359375,-0.9929351806640625,-0.16064453125,0.0201416015625
1772808542886063000,5.82506298828125,-0.9914703369140625,-0.1603546142578125,0.017242431640625
1772808542896086000,5.8350859375,-0.9884796142578125,-0.1593780517578125,0.0151824951171875
1772808542906110000,5.84510986328125,-0.9888763427734375,-0.1591644287109375,0.0158538818359375
1772808542916134100,5.855134033203125,-0.987518310546875,-0.159454345703125,0.014862060546875
1772808542926157800,5.86515771484375,-0.985321044921875,-0.1591949462890625,0.0141754150390625
1772808542936181000,5.875180908203125,-0.984039306640625,-0.159454345703125,0.01416015625
1772808542946205200,5.885205078125,-0.9858856201171875,-0.1602020263671875,0.0160064697265625
1772808542956228900,5.895228759765625,-0.9838714599609375,-0.159576416015625,0.017486572265625
1772808542966253000,5.905253173828125,-0.984222412109375,-0.158721923828125,0.01715087890625
1772808542976276000,5.91527587890625,-0.9846954345703125,-0.1591796875,0.017547607421875
1772808542986300000,5.9252998046875,-0.985992431640625,-0.1602630615234375,0.016265869140625
1772808542996324000,5.935323974609375,-0.9866180419921875,-0.1605682373046875,0.016845703125
1772808543006348000,5.94534814453125,-0.9866180419921875,-0.1602630615234375,0.0164642333984375
1772808543016371000,5.955370849609375,-0.9883575439453125,-0.15887451171875,0.014190673828125
1772808543026395100,5.96539501953125,-0.9938507080078125,-0.160308837890625,0.0216217041015625
1772808543036419000,5.975419189453125,-0.990997314453125,-0.1610870361328125,0.0201416015625
1772808543046443000,5.985443115234375,-0.98681640625,-0.16009521484375,0.0166473388671875
1772808543056466200,5.995466064453125,-0.9884796142578125,-0.160736083984375,0.0183563232421875
1772808543066489900,6.00548974609375,-0.992095947265625,-0.1634979248046875,0.0227203369140625
1772808543076514000,6.01551416015625,-0.9895172119140625,-0.1640777587890625,0.0232391357421875
1772808543086538000,6.0255380859375,-0.9868011474609375,-0.1618194580078125,0.022918701171875
1772808543096561000,6.035560791015625,-0.991790771484375,-0.1626434326171875,0.0246734619140625
1772808543106585000,6.045585205078125,-0.9913330078125,-0.164520263671875,0.0254058837890625
1772808543116609000,6.055609130859375,-0.990570068359375,-0.162750244140625,0.0230255126953125
1772808543126633000,6.065633056640625,-0.9912109375,-0.161865234375,0.020751953125
1772808543136656100,6.07565625,-0.992401123046875,-0.1621856689453125,0.021392822265625
1772808543146680000,6.08568017578125,-0.9901275634765625,-0.161407470703125,0.019378662109375
1772808543156704000,6.0957041015625,-0.98779296875,-0.1607208251953125,0.016632080078125
1772808543166728000,6.10572802734375,-0.99090576171875,-0.1617584228515625,0.0160980224609375
1772808543176751000,6.115751220703125,-0.9912872314453125,-0.1609954833984375,0.01690673828125
1772808543186775000,6.125775146484375,-0.987945556640625,-0.16058349609375,0.0152587890625
1772808543196799000,6.135799072265625,-0.985443115234375,-0.15985107421875,0.0146636962890625
1772808543206823200,6.1458232421875,-0.9881591796875,-0.160430908203125,0.0166473388671875
1772808543216846000,6.15584619140625,-0.984832763671875,-0.1614837646484375,0.0185546875
1772808543226870000,6.1658701171875,-0.980621337890625,-0.16015625,0.0182952880859375
1772808543236894200,6.175894287109375,-0.981353759765625,-0.16119384765625,0.0175933837890625
1772808543246918000,6.18591796875,-0.9832763671875,-0.161895751953125,0.0192413330078125
1772808543256941000,6.195941162109375,-0.9850006103515625,-0.1614532470703125,0.0210418701171875
1772808543266965200,6.20596533203125,-0.98638916015625,-0.16131591796875,0.0186309814453125
1772808543276989000,6.215989013671875,-0.9874114990234375,-0.160919189453125,0.0178985595703125
1772808543287013000,6.22601318359375,-0.98895263671875,-0.1617889404296875,0.0180206298828125
1772808543297036000,6.2360361328125,-0.9898834228515625,-0.160308837890625,0.0178375244140625
1772808543307060000,6.24606005859375,-0.988922119140625,-0.1587066650390625,0.016815185546875
1772808543317084200,6.256084228515625,-0.989715576171875,-0.162200927734375,0.0177764892578125
1772808543327107000,6.266107177734375,-0.988677978515625,-0.166107177734375,0.0188446044921875
1772808543337131000,6.276131103515625,-0.990386962890625,-0.1663665771484375,0.020355224609375
1772808543347151400,6.2861513671875,-0.9903106689453125,-0.166534423828125,0.0199432373046875
1772808543357175300,6.29617529296875,-0.987457275390625,-0.165069580078125,0.0173797607421875
1772808543367198200,6.3061982421875,-0.9873199462890625,-0.1625823974609375,0.0162811279296875
1772808543377222400,6.316222412109375,-0.9880523681640625,-0.162200927734375,0.0172882080078125
1772808543387246300,6.326246337890625,-0.987152099609375,-0.1627197265625,0.01934814453125
1772808543397270300,6.336270263671875,-0.98724365234375,-0.162384033203125,0.0200653076171875
1772808543407293400,6.34629345703125,-0.9895172119140625,-0.16546630859375,0.0223388671875
1772808543417317400,6.3563173828125,-0.9887847900390625,-0.166656494140625,0.02410888671875
1772808543427341300,6.36634130859375,-0.9868927001953125,-0.1643218994140625,0.0230712890625
1772808543437365200,6.376365234375,-0.9904632568359375,-0.1624755859375,0.023681640625
1772808543447388200,6.38638818359375,-0.9892120361328125,-0.16357421875,0.0233001708984375
1772808543457412400,6.396412353515625,-0.985870361328125,-0.164825439453125,0.01947021484375
1772808543467436300,6.406436279296875,-0.983612060546875,-0.1654052734375,0.017578125
1772808543477460500,6.41646044921875,-0.9849395751953125,-0.1659088134765625,0.018585205078125
1772808543487483100,6.426483154296875,-0.983367919921875,-0.166595458984375,0.0216217041015625
1772808543497507300,6.43650732421875,-0.9820556640625,-0.165679931640625,0.02105712890625
1772808543507531500,6.446531494140625,-0.98004150390625,-0.16583251953125,0.020782470703125
1772808543517555200,6.45655517578125,-0.981964111328125,-0.1653900146484375,0.0220489501953125
1772808543527578400,6.466578369140625,-0.983673095703125,-0.1669158935546875,0.0214080810546875
1772808543537602300,6.476602294921875,-0.98406982421875,-0.1655731201171875,0.02056884765625
1772808543547626200,6.486626220703125,-0.98883056640625,-0.1640777587890625,0.0212554931640625
1772808543557650400,6.496650390625,-0.992034912109375,-0.1638946533203125,0.0226898193359375
1772808543567673000,6.506673095703125,-0.9934539794921875,-0.1626434326171875,0.0222625732421875
1772808543577697300,6.516697265625,-0.994720458984375,-0.16229248046875,0.021331787109375
1772808543587721500,6.526721435546875,-0.994232177734375,-0.1630401611328125,0.02032470703125
1772808543597745200,6.5367451171875,-0.9960784912109375,-0.1641693115234375,0.0197296142578125
1772808543607768300,6.546768310546875,-0.996612548828125,-0.164093017578125,0.020294189453125
1772808543617792300,6.556792236328125,-0.9944915771484375,-0.1634368896484375,0.02130126953125
1772808543627816200,6.566816162109375,-0.9923095703125,-0.1633758544921875,0.02166748046875
1772808543637840400,6.57684033203125,-0.9924774169921875,-0.165985107421875,0.0239105224609375
1772808543647863300,6.58686328125,-0.9914398193359375,-0.1653289794921875,0.02374267578125
1772808543657887200,6.59688720703125,-0.9889678955078125,-0.1651611328125,0.0243072509765625
1772808543667911200,6.6069111328125,-0.988128662109375,-0.1647796630859375,0.024993896484375
1772808543677935400,6.616935302734375,-0.9869537353515625,-0.1639556884765625,0.02264404296875
1772808543687958300,6.626958251953125,-0.9814605712890625,-0.1657562255859375,0.02166748046875
1772808543697982200,6.636982177734375,-0.9808807373046875,-0.165252685546875,0.02154541015625
1772808543708006400,6.64700634765625,-0.981353759765625,-0.164337158203125,0.0217437744140625
1772808543718030300,6.6570302734375,-0.9814453125,-0.1655120849609375,0.0217437744140625
1772808543728053200,6.66705322265625,-0.981781005859375,-0.1660919189453125,0.020721435546875
1772808543738077400,6.677077392578125,-0.982330322265625,-0.1647186279296875,0.019744873046875
1772808543748101000,6.68710107421875,-0.98248291015625,-0.1645965576171875,0.0181427001953125
1772808543758125300,6.697125244140625,-0.98419189453125,-0.165618896484375,0.01824951171875
1772808543768148200,6.707148193359375,-0.98626708984375,-0.16534423828125,0.0185546875
1772808543778172200,6.717172119140625,-0.9887847900390625,-0.1634979248046875,0.0194244384765625
1772808543788196400,6.7271962890625,-0.993438720703125,-0.16278076171875,0.0215606689453125
1772808543798220300,6.73722021484375,-0.994232177734375,-0.163787841796875,0.020843505859375
1772808543808243200,6.7472431640625,-0.9936676025390625,-0.16168212890625,0.017791748046875
1772808543818267400,6.757267333984375,-0.997406005859375,-0.1608123779296875,0.016937255859375
1772808543828291000,6.767291015625,-0.995635986328125,-0.1621246337890625,0.018707275390625
1772808543838315300,6.777315185546875,-0.9941864013671875,-0.1632843017578125,0.01824951171875
1772808543848338400,6.78733837890625,-0.9913787841796875,-0.1646575927734375,0.01806640625
1772808543858362000,6.797362060546875,-0.989013671875,-0.1633148193359375,0.0185699462890625
1772808543868386300,6.80738623046875,-0.9864044189453125,-0.1639556884765625,0.0192718505859375
1772808543878410200,6.81741015625,-0.983856201171875,-0.1655731201171875,0.0206146240234375
1772808543888433200,6.82743310546875,-0.9825592041015625,-0.1657562255859375,0.021240234375
1772808543898457300,6.837457275390625,-0.9830780029296875,-0.1652069091796875,0.0240936279296875
1772808543908481300,6.847481201171875,-0.9818572998046875,-0.1668548583984375,0.024261474609375
1772808543918505200,6.857505126953125,-0.9818115234375,-0.1666412353515625,0.0230865478515625
1772808543928528400,6.8675283203125,-0.9830474853515625,-0.1654815673828125,0.022003173828125
1772808543938552300,6.87755224609375,-0.97918701171875,-0.1648406982421875,0.0202484130859375
1772808543948576300,6.887576171875,-0.980804443359375,-0.166290283203125,0.019775390625
1772808543958600200,6.89760009765625,-0.9833984375,-0.1674041748046875,0.020172119140625
1772808543968623400,6.907623291015625,-0.9838104248046875,-0.165130615234375,0.02142333984375
1772808543978647300,6.917647216796875,-0.986358642578125,-0.1635589599609375,0.021087646484375
1772808543988671200,6.927671142578125,-0.985992431640625,-0.166656494140625,0.018707275390625
1772808543998695400,6.9376953125,-0.985321044921875,-0.165252685546875,0.0156097412109375
1772808544008718300,6.94771826171875,-0.985931396484375,-0.16461181640625,0.01470947265625
1772808544018742300,6.9577421875,-0.9850616455078125,-0.16290283203125,0.0162506103515625
1772808544028766500,6.967766357421875,-0.983642578125,-0.162078857421875,0.017791748046875
1772808544038790100,6.9777900390625,-0.9853057861328125,-0.1624755859375,0.02105712890625
1772808544048813300,6.987813232421875,-0.9860382080078125,-0.1623992919921875,0.0232086181640625
1772808544058837200,6.997837158203125,-0.9873504638671875,-0.1643829345703125,0.0258026123046875
1772808544068861200,7.007861083984375,-0.987030029296875,-0.1658935546875,0.02593994140625
1772808544078885400,7.017885498046875,-0.9881591796875,-0.167205810546875,0.0264434814453125
1772808544088908300,7.027908203125,-0.988800048828125,-0.167144775390625,0.0279388427734375
1772808544098932200,7.03793212890625,-0.9892730712890625,-0.16790771484375,0.0258026123046875
1772808544108956400,7.047956298828125,-0.9887237548828125,-0.165802001953125,0.024139404296875
1772808544118980000,7.05797998046875,-0.9901580810546875,-0.1651458740234375,0.02288818359375
1772808544129003300,7.068003173828125,-0.9898834228515625,-0.1658172607421875,0.0232086181640625
1772808544139027500,7.07802734375,-0.9893646240234375,-0.1661224365234375,0.0247344970703125
1772808544149051100,7.088051025390625,-0.987030029296875,-0.1644439697265625,0.026611328125
1772808544159075300,7.098075439453125,-0.984283447265625,-0.1636810302734375,0.0258636474609375
1772808544169098500,7.108098388671875,-0.985931396484375,-0.165679931640625,0.028045654296875
1772808544179122200,7.1181220703125,-0.9821014404296875,-0.163360595703125,0.02630615234375
1772808544189146400,7.128146484375,-0.9794158935546875,-0.160491943359375,0.0248870849609375
1772808544199170300,7.13817041015625,-0.9874114990234375,-0.1632080078125,0.029510498046875
1772808544209193200,7.148193115234375,-0.9836578369140625,-0.1695404052734375,0.03271484375
1772808544219217400,7.158217529296875,-0.9861907958984375,-0.170257568359375,0.0314788818359375
1772808544229241300,7.168241455078125,-0.983367919921875,-0.159454345703125,0.02618408203125
1772808544239265300,7.178265380859375,-0.98291015625,-0.1598663330078125,0.02838134765625
1772808544249288400,7.188288330078125,-0.99298095703125,-0.1640625,0.0330352783203125
1772808544259312400,7.1983125,-0.9927215576171875,-0.1649017333984375,0.030792236328125
1772808544269336300,7.20833642578125,-0.9908294677734375,-0.1630401611328125,0.0294647216796875
1772808544279360300,7.2183603515625,-0.9938507080078125,-0.161895751953125,0.02886962890625
1772808544289383200,7.228383056640625,-0.993804931640625,-0.162994384765625,0.029937744140625
1772808544299407400,7.238407470703125,-0.9964752197265625,-0.163055419921875,0.0328216552734375
1772808544309431300,7.248431396484375,-0.9965057373046875,-0.1631927490234375,0.0335235595703125
1772808544319455500,7.25845556640625,-0.9951934814453125,-0.161529541015625,0.0299530029296875
1772808544329478100,7.26847802734375,-0.9920806884765625,-0.1621246337890625,0.0287933349609375
1772808544339502300,7.27850244140625,-0.9922027587890625,-0.16436767578125,0.030242919921875
1772808544349526300,7.2885263671875,-0.9879302978515625,-0.166229248046875,0.0328369140625
1772808544359550000,7.298550048828125,-0.986968994140625,-0.1666717529296875,0.035064697265625
1772808544369573000,7.308572998046875,-0.9876556396484375,-0.1673431396484375,0.037628173828125
1772808544379597300,7.318597412109375,-0.9866485595703125,-0.166290283203125,0.0373992919921875
1772808544389621000,7.32862109375,-0.9847869873046875,-0.1663665771484375,0.0370635986328125
1772808544399645200,7.338645263671875,-0.9853973388671875,-0.1663818359375,0.0358734130859375
1772808544409668000,7.348668212890625,-0.9874267578125,-0.1654510498046875,0.035247802734375
1772808544419692000,7.358692138671875,-0.988983154296875,-0.1665802001953125,0.0360260009765625
1772808544429716200,7.36871630859375,-0.9905242919921875,-0.1685943603515625,0.0354461669921875
1772808544439740200,7.378740234375,-0.9913482666015625,-0.1707763671875,0.03515625
1772808544449763000,7.38876318359375,-0.990814208984375,-0.17059326171875,0.03411865234375
1772808544459787000,7.398787109375,-0.99041748046875,-0.1700897216796875,0.0347137451171875
1772808544469811000,7.40881103515625,-0.988800048828125,-0.167510986328125,0.034393310546875
1772808544479835100,7.418835205078125,-0.9866180419921875,-0.1658782958984375,0.0340118408203125
1772808544489858000,7.428858154296875,-0.987030029296875,-0.1663055419921875,0.0338287353515625
1772808544499882000,7.438882080078125,-0.9868011474609375,-0.1685943603515625,0.0371246337890625
1772808544509906200,7.44890625,-0.9865875244140625,-0.1700592041015625,0.04058837890625
1772808544519930000,7.45893017578125,-0.9875030517578125,-0.17071533203125,0.04046630859375
1772808544529953000,7.468953125,-0.9860382080078125,-0.1694488525390625,0.03924560546875
1772808544539977000,7.47897705078125,-0.9841461181640625,-0.16717529296875,0.0373992919921875
1772808544550001200,7.489001220703125,-0.982452392578125,-0.16778564453125,0.0336151123046875
1772808544560025000,7.499025146484375,-0.984283447265625,-0.1683349609375,0.031005859375
1772808544570048000,7.509048095703125,-0.9850616455078125,-0.1676483154296875,0.0300445556640625
1772808544580072200,7.519072265625,-0.9841156005859375,-0.1654205322265625,0.028961181640625
1772808544590096000,7.529095947265625,-0.9853515625,-0.1629638671875,0.0285797119140625
1772808544600120000,7.5391201171875,-0.98309326171875,-0.1631622314453125,0.0271453857421875
1772808544610143200,7.549143310546875,-0.9832305908203125,-0.1634521484375,0.02703857421875
1772808544620167000,7.5591669921875,-0.9818572998046875,-0.1650848388671875,0.0272674560546875
1772808544630191000,7.569191162109375,-0.9833526611328125,-0.1658172607421875,0.028656005859375
1772808544640215000,7.579215087890625,-0.982452392578125,-0.1677093505859375,0.0298004150390625
1772808544650238000,7.589238037109375,-0.981597900390625,-0.1678009033203125,0.02886962890625
1772808544660262100,7.59926220703125,-0.9825592041015625,-0.1657257080078125,0.0290679931640625
1772808544670286000,7.6092861328125,-0.9825897216796875,-0.163177490234375,0.0267486572265625
1772808544680310000,7.61931005859375,-0.9839630126953125,-0.1629486083984375,0.0277099609375
1772808544690333200,7.629333251953125,-0.9869537353515625,-0.1641082763671875,0.0303497314453125
1772808544700357000,7.639357177734375,-0.987762451171875,-0.1660614013671875,0.0327606201171875
1772808544710381000,7.649381103515625,-0.988800048828125,-0.1674652099609375,0.0331268310546875
1772808544720405000,7.659405029296875,-0.99102783203125,-0.167755126953125,0.0336761474609375
1772808544730428000,7.669427978515625,-0.99072265625,-0.1675567626953125,0.0340118408203125
1772808544740452000,7.6794521484375,-0.9918975830078125,-0.1670379638671875,0.03350830078125
1772808544750476000,7.68947607421875,-0.9930572509765625,-0.16650390625,0.03228759765625
1772808544760500200,7.699500244140625,-0.9904632568359375,-0.166046142578125,0.031036376953125
1772808544770523100,7.709523193359375,-0.99078369140625,-0.1661376953125,0.0312042236328125
1772808544780547000,7.719547119140625,-0.9912872314453125,-0.1677398681640625,0.03125
1772808544790571000,7.729571044921875,-0.9885711669921875,-0.168792724609375,0.03173828125
1772808544800595000,7.739594970703125,-0.9885711669921875,-0.168182373046875,0.0320892333984375
1772808544810618000,7.7496181640625,-0.9876861572265625,-0.1674957275390625,0.03240966796875
1772808544820642000,7.75964208984375,-0.9875335693359375,-0.167877197265625,0.032470703125
1772808544830666000,7.769666015625,-0.987091064453125,-0.1665802001953125,0.033660888671875
1772808544840690200,7.779690185546875,-0.987823486328125,-0.165618896484375,0.0344696044921875
1772808544850713000,7.789713134765625,-0.9880828857421875,-0.1654205322265625,0.034423828125
1772808544860737000,7.799737060546875,-0.986907958984375,-0.1664886474609375,0.032928466796875
1772808544870761200,7.80976123046875,-0.9852447509765625,-0.1655731201171875,0.0295562744140625
1772808544880785000,7.819784912109375,-0.9852752685546875,-0.1650390625,0.0267486572265625
1772808544890808000,7.82980810546875,-0.9863128662109375,-0.163330078125,0.0252532958984375
1772808544900832300,7.839832275390625,-0.98870849609375,-0.163604736328125,0.0261077880859375
1772808544910856000,7.84985595703125,-0.9886932373046875,-0.16351318359375,0.025665283203125
1772808544920880000,7.859880126953125,-0.9900360107421875,-0.1638641357421875,0.0254669189453125
1772808544930903300,7.8699033203125,-0.9885711669921875,-0.1617889404296875,0.0241241455078125
1772808544940927000,7.879927001953125,-0.9879913330078125,-0.1624298095703125,0.023681640625
1772808544950951200,7.889951171875,-0.988677978515625,-0.1622161865234375,0.02557373046875
1772808544960975000,7.89997509765625,-0.9869384765625,-0.162445068359375,0.0240020751953125
1772808544970998000,7.909998046875,-0.9855499267578125,-0.16302490234375,0.0223541259765625
1772808544981022200,7.920022216796875,-0.9834747314453125,-0.1640472412109375,0.02215576171875
1772808544991046100,7.930046142578125,-0.981414794921875,-0.1680145263671875,0.0247802734375
1772808545001070000,7.940070068359375,-0.9833221435546875,-0.1639251708984375,0.022735595703125
1772808545011093200,7.95009326171875,-0.9774932861328125,-0.1602020263671875,0.02294921875
1772808545021117000,7.960116943359375,-0.9816741943359375,-0.165557861328125,0.025604248046875
1772808545031141000,7.97014111328125,-0.9859619140625,-0.1659393310546875,0.0272216796875
1772808545041165000,7.9801650390625,-0.9848175048828125,-0.1634063720703125,0.029052734375
1772808545051189200,7.990189208984375,-0.9845123291015625,-0.1641845703125,0.029022216796875
1772808545061212200,8.000212158203125,-0.9828643798828125,-0.1640472412109375,0.030181884765625
1772808545071236000,8.010236083984376,-0.982208251953125,-0.162994384765625,0.0307464599609375
1772808545081260000,8.020260009765625,-0.9803466796875,-0.162017822265625,0.029266357421875
1772808545091284000,8.030283935546874,-0.979766845703125,-0.1630401611328125,0.029510498046875
1772808545101307100,8.04030712890625,-0.9861602783203125,-0.1668853759765625,0.0309600830078125
1772808545111331000,8.0503310546875,-0.98382568359375,-0.1647491455078125,0.02587890625
1772808545121355000,8.06035498046875,-0.9834747314453125,-0.160614013671875,0.025604248046875
1772808545131379200,8.070379150390625,-0.989654541015625,-0.1632232666015625,0.02874755859375
1772808545141402000,8.080402099609374,-0.990936279296875,-0.1628570556640625,0.0292816162109375
1772808545151426000,8.090426025390625,-0.990631103515625,-0.1614227294921875,0.0292816162109375
1772808545161450200,8.1004501953125,-0.9903106689453125,-0.16119384765625,0.026702880859375
1772808545171474000,8.110473876953124,-0.98944091796875,-0.159912109375,0.02899169921875
1772808545181497000,8.1204970703125,-0.990997314453125,-0.1590728759765625,0.0313262939453125
1772808545191521300,8.130521240234375,-0.98858642578125,-0.1593017578125,0.0307769775390625
1772808545201545000,8.140544921875,-0.984588623046875,-0.1582183837890625,0.028961181640625
1772808545211569200,8.150569091796875,-0.98779296875,-0.158111572265625,0.0333099365234375
1772808545221592000,8.160592041015626,-0.9926605224609375,-0.1649932861328125,0.03955078125
1772808545231616000,8.170615966796875,-0.99267578125,-0.1667938232421875,0.04107666015625
1772808545241640200,8.18064013671875,-0.9927520751953125,-0.1638336181640625,0.0413360595703125
1772808545251664100,8.1906640625,-0.992340087890625,-0.163726806640625,0.04217529296875
1772808545261687000,8.20068701171875,-0.9934539794921875,-0.164337158203125,0.042083740234375
1772808545271711200,8.210711181640624,-0.9990997314453125,-0.1647491455078125,0.0408172607421875
1772808545281735200,8.220735107421875,-1.0023193359375,-0.16510009765625,0.0434417724609375
1772808545291759000,8.230759033203125,-1.003631591796875,-0.16473388671875,0.0435638427734375
1772808545301782000,8.240781982421876,-1.00323486328125,-0.164642333984375,0.0416107177734375
1772808545311806000,8.250805908203125,-1.0016326904296875,-0.16448974609375,0.039031982421875
1772808545321830100,8.260830078125,-0.997406005859375,-0.161376953125,0.034454345703125
1772808545331854000,8.27085400390625,-0.9901885986328125,-0.1590576171875,0.03094482421875
1772808545341877000,8.280876953125,-0.98797607421875,-0.158599853515625,0.031097412109375
1772808545351901700,8.290901611328126,-0.986480712890625,-0.1623687744140625,0.03363037109375
1772808545361925600,8.300925537109375,-0.9844512939453125,-0.1641387939453125,0.033477783203125
1772808545371949600,8.310949462890624,-0.98089599609375,-0.1632843017578125,0.032928466796875
1772808545381972700,8.32097265625,-0.9767913818359375,-0.1626434326171875,0.0321502685546875
1772808545391996700,8.33099658203125,-0.97662353515625,-0.1637420654296875,0.0328369140625
1772808545402020600,8.3410205078125,-0.9752349853515625,-0.16229248046875,0.032135009765625
1772808545412044800,8.351044921875,-0.97528076171875,-0.16143798828125,0.0299224853515625
1772808545422067700,8.361067626953124,-0.9767913818359375,-0.1609039306640625,0.0287933349609375
1772808545432091600,8.371091552734375,-0.9786834716796875,-0.161376953125,0.0276947021484375
1772808545442115800,8.38111572265625,-0.9812469482421875,-0.1598358154296875,0.026336669921875
1772808545452139500,8.391139404296876,-0.9822540283203125,-0.1567840576171875,0.0263519287109375
1772808545462162700,8.40116259765625,-0.9850311279296875,-0.15789794921875,0.028228759765625
1772808545472187000,8.411186767578124,-0.98651123046875,-0.1592864990234375,0.02734375
1772808545482210600,8.42121044921875,-0.9864654541015625,-0.1594696044921875,0.026641845703125
1772808545492234800,8.43123486328125,-0.987060546875,-0.15850830078125,0.027618408203125
1772808545502258000,8.4412578125,-0.98974609375,-0.1600189208984375,0.0286865234375
1772808545512281600,8.451281494140625,-0.9931793212890625,-0.160491943359375,0.0294647216796875
1772808545522305800,8.461305908203125,-0.9948272705078125,-0.1595458984375,0.029876708984375
1772808545532329700,8.471329833984376,-0.9935455322265625,-0.1581878662109375,0.028594970703125
1772808545542353700,8.481353759765625,-0.990692138671875,-0.158355712890625,0.0283050537109375
1772808545552376800,8.491376953125,-0.989959716796875,-0.159271240234375,0.029510498046875
1772808545562400800,8.50140087890625,-0.987579345703125,-0.160308837890625,0.0321197509765625
1772808545572424700,8.5114248046875,-0.986083984375,-0.16119384765625,0.033416748046875
1772808545582448600,8.52144873046875,-0.9852447509765625,-0.1619873046875,0.03350830078125
1772808545592471600,8.531471435546875,-0.986236572265625,-0.1619720458984375,0.033203125
1772808545602495700,8.541495849609374,-0.9862518310546875,-0.1612396240234375,0.0316009521484375
1772808545612519700,8.551519775390625,-0.986419677734375,-0.1606597900390625,0.03094482421875
1772808545622544000,8.5615439453125,-0.9895782470703125,-0.1609649658203125,0.02960205078125
1772808545632566800,8.57156689453125,-0.990936279296875,-0.16033935546875,0.0307159423828125
1772808545642590700,8.5815908203125,-0.9911346435546875,-0.16070556640625,0.029632568359375
1772808545652614700,8.59161474609375,-0.9885406494140625,-0.16015625,0.028717041015625
1772808545662638600,8.601638671875,-0.988861083984375,-0.1611175537109375,0.0301361083984375
1772808545672661800,8.611661865234375,-0.98944091796875,-0.1609039306640625,0.0311126708984375
1772808545682685700,8.621685791015626,-0.988189697265625,-0.161529541015625,0.0330963134765625
1772808545692709600,8.631709716796875,-0.9869384765625,-0.1625823974609375,0.0348663330078125
1772808545702733800,8.64173388671875,-0.9868316650390625,-0.16168212890625,0.035125732421875
1772808545712756700,8.6517568359375,-0.98602294921875,-0.160552978515625,0.0351104736328125
1772808545722780700,8.66178076171875,-0.9855804443359375,-0.1607513427734375,0.0334625244140625
1772808545732804900,8.671804931640626,-0.9857177734375,-0.1612091064453125,0.0330352783203125
1772808545742828500,8.68182861328125,-0.9896087646484375,-0.162841796875,0.0325775146484375
1772808545752851700,8.691851806640624,-0.98876953125,-0.1636810302734375,0.030609130859375
1772808545762876000,8.7018759765625,-0.989532470703125,-0.1627655029296875,0.028533935546875
1772808545772899600,8.711899658203125,-0.9896697998046875,-0.1566009521484375,0.0263214111328125
1772808545782923800,8.721923828125,-0.9890594482421875,-0.159027099609375,0.0258026123046875
1772808545792947700,8.73194775390625,-0.9903106689453125,-0.1611328125,0.0247650146484375
1772808545802970600,8.741970703125,-0.9902191162109375,-0.15960693359375,0.0245819091796875
1772808545812994800,8.751994873046876,-0.986724853515625,-0.1584320068359375,0.0257568359375
1772808545823018800,8.762018798828125,-0.9859161376953125,-0.15887451171875,0.026947021484375
1772808545833042700,8.772042724609374,-0.9816436767578125,-0.1597747802734375,0.025360107421875
1772808545843065900,8.78206591796875,-0.980682373046875,-0.1615753173828125,0.0281982421875
1772808545853089800,8.79208984375,-0.9813079833984375,-0.160858154296875,0.0296173095703125
1772808545863113700,8.80211376953125,-0.9844818115234375,-0.1612091064453125,0.0343475341796875
1772808545873137700,8.8121376953125,-0.990020751953125,-0.1636962890625,0.0353240966796875
1772808545883160600,8.82216064453125,-0.9930877685546875,-0.1660308837890625,0.0368499755859375
1772808545893184800,8.832184814453125,-0.9929962158203125,-0.1675567626953125,0.0389862060546875
1772808545903208700,8.842208740234375,-0.9898681640625,-0.1648712158203125,0.035125732421875
1772808545913233000,8.85223291015625,-0.985595703125,-0.1650238037109375,0.033538818359375
1772808545923255800,8.862255859375,-0.9844970703125,-0.16522216796875,0.0335540771484375
1772808545933279700,8.87227978515625,-0.9826812744140625,-0.164398193359375,0.0340423583984375
1772808545943304000,8.882303955078125,-0.9822540283203125,-0.166412353515625,0.0331573486328125
1772808545953327600,8.89232763671875,-0.9849700927734375,-0.1651153564453125,0.036895751953125
1772808545963350800,8.902350830078126,-0.982269287109375,-0.16455078125,0.0360565185546875
1772808545973374700,8.912374755859375,-0.9830169677734375,-0.1665802001953125,0.035888671875
1772808545983398700,8.922398681640624,-0.9883270263671875,-0.167449951171875,0.0364532470703125
1772808545993422800,8.9324228515625,-0.984130859375,-0.1660003662109375,0.0376434326171875
1772808546003445500,8.942445556640624,-0.98809814453125,-0.1619720458984375,0.0372161865234375
1772808546013469700,8.9524697265625,-0.9884033203125,-0.1634521484375,0.0361785888671875
1772808546023494000,8.962493896484375,-0.9894256591796875,-0.1650543212890625,0.036590576171875
1772808546033517600,8.972517578125,-0.9963226318359375,-0.16485595703125,0.039154052734375
1772808546043541800,8.982541748046875,-1.00604248046875,-0.165069580078125,0.0443572998046875
1772808546053564700,8.992564697265625,-1.020111083984375,-0.171234130859375,0.0493621826171875
1772808546063588600,9.002588623046876,-1.027740478515625,-0.1785430908203125,0.050872802734375
1772808546073612800,9.01261279296875,-1.0192413330078125,-0.1713714599609375,0.04266357421875
1772808546083636700,9.02263671875,-1.018341064453125,-0.1657257080078125,0.0348052978515625
1772808546093659600,9.03265966796875,-1.0050506591796875,-0.1683197021484375,0.030059814453125
1772808546103683600,9.04268359375,-0.9940948486328125,-0.170440673828125,0.0261077880859375
1772808546113707800,9.052707763671876,-0.9920806884765625,-0.1721954345703125,0.026641845703125
1772808546123731700,9.062731689453125,-0.9942626953125,-0.175079345703125,0.0318756103515625
1772808546133754600,9.072754638671874,-0.9815826416015625,-0.17852783203125,0.0315093994140625
1772808546143778800,9.08277880859375,-0.9611053466796875,-0.1801300048828125,0.0299835205078125
1772808546153802800,9.092802734375,-0.96356201171875,-0.1826629638671875,0.0350494384765625
1772808546163826700,9.10282666015625,-0.96563720703125,-0.1894989013671875,0.0373992919921875
1772808546173849900,9.112849853515625,-0.96551513671875,-0.1986236572265625,0.04266357421875
1772808546183873500,9.12287353515625,-0.9668731689453125,-0.207855224609375,0.0500946044921875
1772808546193897700,9.132897705078125,-0.969879150390625,-0.227325439453125,0.0531463623046875
1772808546203922000,9.142921875,-0.97906494140625,-0.26300048828125,0.072723388671875
1772808546213945600,9.152945556640624,-0.9894256591796875,-0.2042083740234375,0.0949249267578125
1772808546223968800,9.16296875,-0.9842681884765625,-0.14715576171875,0.0650787353515625
1772808546233992700,9.17299267578125,-0.9610748291015625,-0.1879425048828125,0.0517578125
1772808546244016600,9.1830166015625,-0.9573974609375,-0.217437744140625,0.0327606201171875
1772808546254040800,9.193040771484375,-0.9737701416015625,-0.2087554931640625,0.018096923828125
1772808546264063500,9.2030634765625,-0.9776458740234375,-0.1976776123046875,0.0138702392578125
1772808546274087700,9.213087646484375,-0.9672698974609375,-0.187744140625,0.0109710693359375
1772808546284111600,9.223111572265625,-0.96807861328125,-0.1828460693359375,0.012908935546875
1772808546294135800,9.2331357421875,-0.9747314453125,-0.188995361328125,0.017852783203125
1772808546304158700,9.24315869140625,-0.9804229736328125,-0.1942138671875,0.0214385986328125
1772808546314182700,9.2531826171875,-0.991455078125,-0.1930389404296875,0.0193939208984375
1772808546324206600,9.26320654296875,-0.985809326171875,-0.1928863525390625,0.01873779296875
1772808546334230800,9.273230712890625,-0.9754180908203125,-0.1947021484375,0.0201873779296875
1772808546344253700,9.283253662109376,-0.9759521484375,-0.193023681640625,0.021392822265625
1772808546354276900,9.29327685546875,-0.9886627197265625,-0.1908111572265625,0.0243072509765625
1772808546364301000,9.303301025390626,-1.0008087158203125,-0.197113037109375,0.0258331298828125
1772808546374325000,9.313324951171875,-0.9887542724609375,-0.2045745849609375,0.026214599609375
1772808546384349000,9.323348876953125,-0.9797210693359375,-0.2049407958984375,0.02655029296875
1772808546394372000,9.3333720703125,-0.983856201171875,-0.2020263671875,0.0259246826171875
1772808546404396000,9.34339599609375,-0.9849700927734375,-0.2007293701171875,0.0214691162109375
1772808546414420000,9.353419921875,-0.9808197021484375,-0.2031097412109375,0.0202178955078125
1772808546424444000,9.36344384765625,-0.977569580078125,-0.201995849609375,0.023345947265625
1772808546434466800,9.373466796875,-0.9747314453125,-0.20257568359375,0.023406982421875
1772808546444491000,9.383490966796876,-0.9749603271484375,-0.2064666748046875,0.0289459228515625
1772808546454515000,9.393514892578125,-0.9766845703125,-0.2086944580078125,0.0327301025390625
1772808546464539100,9.4035390625,-0.9756011962890625,-0.2112884521484375,0.0320281982421875
1772808546474562000,9.41356201171875,-0.983001708984375,-0.2163238525390625,0.026763916015625
1772808546484586000,9.4235859375,-0.9848480224609375,-0.2184906005859375,0.0252685546875
1772808546494610200,9.433610107421876,-0.9769287109375,-0.2168121337890625,0.02484130859375
1772808546504633900,9.4436337890625,-0.9803924560546875,-0.2144927978515625,0.0216827392578125
1772808546514657000,9.453656982421874,-0.9746551513671875,-0.2135009765625,0.0211639404296875
1772808546524681000,9.463680908203125,-0.970062255859375,-0.210052490234375,0.023193359375
1772808546534705000,9.473704833984375,-0.970489501953125,-0.2060089111328125,0.0253448486328125
1772808546544729000,9.48372900390625,-0.9714508056640625,-0.2039642333984375,0.0226287841796875
1772808546554753000,9.4937529296875,-0.9720001220703125,-0.2052764892578125,0.017333984375
1772808546564776000,9.50377587890625,-0.9684295654296875,-0.209747314453125,0.0147552490234375
1772808546574800100,9.513800048828125,-0.972015380859375,-0.215667724609375,0.0119781494140625
1772808546584823800,9.52382373046875,-0.9689178466796875,-0.21856689453125,0.0104217529296875
1772808546594848000,9.533847900390626,-0.97125244140625,-0.216064453125,0.0149993896484375
1772808546604871000,9.543870849609375,-0.9751129150390625,-0.2137908935546875,0.0217437744140625
1772808546614894800,9.553894775390624,-0.9716796875,-0.2101593017578125,0.0255889892578125
1772808546624919000,9.5639189453125,-0.9699249267578125,-0.204925537109375,0.0272979736328125
1772808546634943000,9.57394287109375,-0.975189208984375,-0.2088470458984375,0.0234832763671875
1772808546644966000,9.5839658203125,-0.98046875,-0.2174530029296875,0.01837158203125
1772808546654990000,9.593989990234375,-0.981109619140625,-0.222869873046875,0.0183563232421875
1772808546665014000,9.604013916015624,-0.97283935546875,-0.220001220703125,0.0165252685546875
1772808546675038000,9.614037841796875,-0.970855712890625,-0.2162933349609375,0.0146484375
1772808546685062000,9.624061767578125,-0.97393798828125,-0.2137451171875,0.016448974609375
1772808546695085000,9.6340849609375,-0.9766387939453125,-0.215545654296875,0.0212554931640625
1772808546705109000,9.64410888671875,-0.9747772216796875,-0.2177276611328125,0.0250244140625
1772808546715133000,9.6541328125,-0.9693450927734375,-0.2169189453125,0.0233001708984375
1772808546725157000,9.6641572265625,-0.969207763671875,-0.216766357421875,0.020965576171875
1772808546735179800,9.6741796875,-0.9692230224609375,-0.214935302734375,0.0195159912109375
1772808546745204000,9.684203857421876,-0.9613189697265625,-0.214691162109375,0.020172119140625
1772808546755228200,9.694228271484375,-0.962158203125,-0.2159423828125,0.0214385986328125
1772808546765251800,9.704251953125,-0.9686126708984375,-0.21588134765625,0.02362060546875
1772808546775275000,9.71427490234375,-0.9729156494140625,-0.2147674560546875,0.025421142578125
1772808546785299000,9.724298828125,-0.9704437255859375,-0.2115478515625,0.0254058837890625
1772808546795323000,9.734322998046874,-0.969207763671875,-0.2076568603515625,0.024627685546875
1772808546805347000,9.74434716796875,-0.974456787109375,-0.2090606689453125,0.022705078125
1772808546815371000,9.75437109375,-0.981109619140625,-0.2108306884765625,0.0211181640625
1772808546825394000,9.764393798828126,-0.9861297607421875,-0.2085113525390625,0.02099609375
1772808546835418000,9.774418212890625,-0.9880218505859375,-0.2050933837890625,0.0191497802734375
1772808546845442000,9.784442138671874,-0.986724853515625,-0.202178955078125,0.018524169921875
1772808546855466000,9.794466064453125,-0.983123779296875,-0.20184326171875,0.017852783203125
1772808546865489000,9.804489013671875,-0.984710693359375,-0.2047882080078125,0.0172271728515625
1772808546875512800,9.814512939453126,-0.98712158203125,-0.2060394287109375,0.0200653076171875
1772808546885537000,9.824537109375,-0.9944610595703125,-0.2074127197265625,0.0229644775390625
1772808546895561000,9.83456103515625,-0.9973907470703125,-0.2075958251953125,0.02435302734375
1772808546905583900,9.844583984375,-0.9893341064453125,-0.202484130859375,0.0258636474609375
1772808546915607800,9.85460791015625,-0.986785888671875,-0.20245361328125,0.026885986328125
1772808546925632000,9.864632080078126,-0.9867706298828125,-0.2023773193359375,0.02667236328125
1772808546935656200,9.87465625,-0.9873046875,-0.20166015625,0.02557373046875
1772808546945680000,9.884679931640624,-0.992950439453125,-0.201873779296875,0.024749755859375
1772808546955703000,9.894703125,-0.987701416015625,-0.199920654296875,0.020477294921875
1772808546965727000,9.90472705078125,-0.9803314208984375,-0.19915771484375,0.0181732177734375
1772808546975751000,9.9147509765625,-0.976104736328125,-0.198577880859375,0.0173797607421875
1772808546985775000,9.924775146484375,-0.97247314453125,-0.1988372802734375,0.0186614990234375
1772808546995797800,9.9347978515625,-0.9728851318359375,-0.2009735107421875,0.019195556640625
1772808547005822000,9.944822021484375,-0.9747314453125,-0.2006683349609375,0.0204315185546875
1772808547015846000,9.954845947265625,-0.9716339111328125,-0.199249267578125,0.0220184326171875
1772808547025869800,9.964869873046876,-0.9752349853515625,-0.200439453125,0.0226898193359375
1772808547035893000,9.97489306640625,-0.9807586669921875,-0.199005126953125,0.0221099853515625
1772808547045917000,9.9849169921875,-0.9831695556640625,-0.1982269287109375,0.021514892578125
1772808547055940900,9.99494091796875,-0.9862213134765625,-0.19952392578125,0.020172119140625
1772808547065965000,10.004965087890625,-0.9920501708984375,-0.20086669921875,0.0186767578125
1772808547075989000,10.014989013671874,-0.9868621826171875,-0.200775146484375,0.01513671875
1772808547086012000,10.025011962890625,-0.9808349609375,-0.1999053955078125,0.01458740234375
1772808547096035800,10.035035888671874,-0.9794769287109375,-0.1996002197265625,0.0153045654296875
1772808547106060000,10.04506005859375,-0.9853515625,-0.199310302734375,0.0200347900390625
1772808547116084000,10.055083984375,-0.9939727783203125,-0.1991424560546875,0.0218505859375
1772808547126107000,10.06510693359375,-0.9881591796875,-0.198089599609375,0.02117919921875
1772808547136131000,10.075131103515625,-0.9798736572265625,-0.198516845703125,0.0199127197265625
1772808547146155000,10.085155029296875,-0.9832000732421875,-0.2004852294921875,0.019744873046875
1772808547156179000,10.095178955078126,-0.9845733642578125,-0.2013397216796875,0.0195159912109375
1772808547166203100,10.105203125,-0.9783477783203125,-0.20208740234375,0.02020263671875
1772808547176225800,10.115225830078124,-0.97369384765625,-0.203582763671875,0.0178680419921875
1772808547186250000,10.12525,-0.9720001220703125,-0.2017059326171875,0.0186004638671875
1772808547196274000,10.13527392578125,-0.97198486328125,-0.200408935546875,0.0185089111328125
1772808547206297900,10.1452978515625,-0.97332763671875,-0.19708251953125,0.018218994140625
1772808547216321000,10.155321044921875,-0.9736480712890625,-0.197235107421875,0.01922607421875
1772808547226345000,10.165344970703124,-0.97796630859375,-0.1985015869140625,0.0196533203125
1772808547236369000,10.175368896484375,-0.985626220703125,-0.1979217529296875,0.019378662109375
1772808547246393000,10.18539306640625,-0.986419677734375,-0.1980133056640625,0.017120361328125
1772808547256415700,10.195415771484376,-0.9913482666015625,-0.1980438232421875,0.0128021240234375
1772808547266440000,10.20543994140625,-0.9907379150390625,-0.1966094970703125,0.0064544677734375
1772808547276463900,10.2154638671875,-0.982879638671875,-0.1919403076171875,0.0053558349609375
1772808547286488000,10.225488037109375,-0.9793853759765625,-0.18963623046875,0.0072174072265625
1772808547296512000,10.235511962890625,-0.977935791015625,-0.1943359375,0.0097198486328125
1772808547306535000,10.245534912109376,-0.9809722900390625,-0.1991424560546875,0.0131988525390625
1772808547316558800,10.255558837890625,-0.980133056640625,-0.2005615234375,0.01641845703125
1772808547326582800,10.265582763671874,-0.978790283203125,-0.2011871337890625,0.0190582275390625
1772808547336607000,10.27560693359375,-0.9834747314453125,-0.2012939453125,0.0199127197265625
1772808547346630000,10.2856298828125,-0.9852142333984375,-0.2010498046875,0.017669677734375
1772808547356654300,10.295654296875,-0.9797821044921875,-0.202850341796875,0.0160369873046875
1772808547366678300,10.30567822265625,-0.9803314208984375,-0.2030181884765625,0.0147247314453125
1772808547376702200,10.3157021484375,-0.9769287109375,-0.2032012939453125,0.0157012939453125
1772808547386725400,10.325725341796876,-0.9742889404296875,-0.204498291015625,0.0197296142578125
1772808547396749300,10.335749267578125,-0.980804443359375,-0.20684814453125,0.0243988037109375
1772808547406773200,10.345773193359374,-0.9810333251953125,-0.2086181640625,0.0281524658203125
1772808547416797400,10.35579736328125,-0.98065185546875,-0.2095184326171875,0.029815673828125
1772808547426821000,10.365821044921875,-0.981201171875,-0.2078704833984375,0.0296173095703125
1772808547436844300,10.37584423828125,-0.986358642578125,-0.2083587646484375,0.030670166015625
1772808547446868500,10.385868408203125,-0.9953460693359375,-0.206146240234375,0.0316009521484375
1772808547456892200,10.39589208984375,-0.9950103759765625,-0.202606201171875,0.0272064208984375
1772808547466916400,10.405916259765625,-0.992034912109375,-0.2005157470703125,0.0182342529296875
1772808547476939500,10.415939453125,-0.987335205078125,-0.1985931396484375,0.008544921875
1772808547486963200,10.425963134765626,-0.9850311279296875,-0.1963348388671875,0.001953125
1772808547496987400,10.4359873046875,-0.98748779296875,-0.1941680908203125,-0.0000457763671875
1772808547507011300,10.44601123046875,-0.9896087646484375,-0.19451904296875,-0.002685546875
1772808547517035300,10.45603515625,-0.985260009765625,-0.196258544921875,-0.0041351318359375
1772808547527058400,10.466058349609375,-0.979461669921875,-0.196807861328125,-0.00408935546875
1772808547537082400,10.476082275390626,-0.9748382568359375,-0.1975555419921875,-0.0029296875
1772808547547106300,10.486106201171875,-0.973297119140625,-0.20013427734375,0.002471923828125
1772808547557130200,10.496130126953124,-0.9728546142578125,-0.1994171142578125,0.0048370361328125
1772808547567153200,10.506153076171875,-0.967864990234375,-0.1990966796875,0.0060577392578125
1772808547577177300,10.51617724609375,-0.9653778076171875,-0.201690673828125,0.00750732421875
1772808547587201300,10.526201171875,-0.9666900634765625,-0.203369140625,0.0069732666015625
1772808547597225500,10.5362255859375,-0.96563720703125,-0.2030029296875,0.007598876953125
1772808547607249200,10.546249267578125,-0.9675750732421875,-0.20391845703125,0.0076751708984375
1772808547617272300,10.556272216796875,-0.9701385498046875,-0.20477294921875,0.0072479248046875
1772808547627296500,10.566296630859375,-0.97052001953125,-0.2031097412109375,0.006988525390625
1772808547637320200,10.5763203125,-0.9706573486328125,-0.2039794921875,0.0065155029296875
1772808547647344400,10.586344482421875,-0.9753875732421875,-0.205047607421875,0.0072784423828125
1772808547657367300,10.5963671875,-0.9748077392578125,-0.205352783203125,0.00787353515625
1772808547667391200,10.60639111328125,-0.9797210693359375,-0.207489013671875,0.010894775390625
1772808547677415400,10.61641552734375,-0.9863739013671875,-0.20654296875,0.0113525390625
1772808547687439400,10.626439453125,-0.9785003662109375,-0.2059783935546875,0.01129150390625
1772808547697462300,10.636462158203125,-0.97650146484375,-0.2074737548828125,0.0119781494140625
1772808547707486500,10.646486572265625,-0.9803314208984375,-0.20794677734375,0.0137939453125
1772808547717510100,10.65651025390625,-0.98480224609375,-0.20880126953125,0.016021728515625
1772808547727534300,10.666534423828125,-0.9884490966796875,-0.208343505859375,0.017578125
1772808547737558300,10.676558349609374,-0.986968994140625,-0.20654296875,0.0174560546875
1772808547747581200,10.686581298828125,-0.9868316650390625,-0.2072601318359375,0.016845703125
1772808547757605400,10.69660546875,-0.9872894287109375,-0.207855224609375,0.0162200927734375
1772808547767629300,10.70662939453125,-0.987945556640625,-0.2099151611328125,0.0162200927734375
1772808547777653200,10.7166533203125,-0.9844970703125,-0.2100830078125,0.0171356201171875
1772808547787676400,10.726676513671874,-0.9813690185546875,-0.209136962890625,0.01873779296875
1772808547797700400,10.736700439453125,-0.9760894775390625,-0.2104339599609375,0.02099609375
1772808547807724300,10.746724365234375,-0.975860595703125,-0.2100982666015625,0.0213775634765625
1772808547817748200,10.756748291015626,-0.9729766845703125,-0.2107391357421875,0.0237274169921875
1772808547827772400,10.7667724609375,-0.9718475341796875,-0.2115631103515625,0.0242462158203125
1772808547837795300,10.77679541015625,-0.970245361328125,-0.2132415771484375,0.022308349609375
1772808547847819300,10.7868193359375,-0.9698944091796875,-0.214019775390625,0.0242767333984375
1772808547857843500,10.796843505859375,-0.9827880859375,-0.2126007080078125,0.028656005859375
1772808547867867100,10.8068671875,-0.9871978759765625,-0.2063446044921875,0.0272369384765625
1772808547877890300,10.816890380859375,-0.9803466796875,-0.20721435546875,0.0244903564453125
1772808547887914500,10.82691455078125,-0.975677490234375,-0.2100067138671875,0.01922607421875
1772808547897938200,10.836938232421875,-0.972198486328125,-0.2131195068359375,0.014495849609375
1772808547907962400,10.84696240234375,-0.9723358154296875,-0.21484375,0.0126800537109375
1772808547917985500,10.856985595703126,-0.9721221923828125,-0.211578369140625,0.0156097412109375
1772808547928009200,10.86700927734375,-0.97454833984375,-0.2090301513671875,0.0233612060546875
1772808547938033400,10.877033447265624,-0.9843597412109375,-0.20855712890625,0.030853271484375
1772808547948057300,10.887057373046876,-0.990814208984375,-0.2125244140625,0.032989501953125
1772808547958081300,10.897081298828125,-0.9867706298828125,-0.21392822265625,0.030548095703125
1772808547968104400,10.9071044921875,-0.9832611083984375,-0.214691162109375,0.0276641845703125
1772808547978128400,10.91712841796875,-0.9800872802734375,-0.216461181640625,0.026123046875
1772808547988152300,10.92715234375,-0.97625732421875,-0.21533203125,0.0230865478515625
1772808547998176300,10.93717626953125,-0.969146728515625,-0.2129058837890625,0.022552490234375
1772808548008199200,10.94719921875,-0.959808349609375,-0.2087249755859375,0.022705078125
1772808548018223400,10.957223388671874,-0.960540771484375,-0.20648193359375,0.0215911865234375
1772808548028247300,10.967247314453125,-0.960723876953125,-0.206787109375,0.023895263671875
1772808548038271500,10.977271484375,-0.972991943359375,-0.21075439453125,0.0293121337890625
1772808548048295200,10.987295166015626,-0.9843292236328125,-0.2095489501953125,0.030517578125
1772808548058318300,10.997318359375,-0.984283447265625,-0.2067108154296875,0.028656005859375
1772808548068342500,11.007342529296874,-0.9789581298828125,-0.20660400390625,0.0262298583984375
1772808548078366200,11.0173662109375,-0.976043701171875,-0.2068328857421875,0.0233612060546875
1772808548088390400,11.027390380859375,-0.9767913818359375,-0.2093658447265625,0.022003173828125
1772808548098413300,11.037413330078126,-0.97540283203125,-0.20965576171875,0.023651123046875
1772808548108437200,11.047437255859375,-0.976776123046875,-0.208282470703125,0.0265960693359375
1772808548118461400,11.05746142578125,-0.9839324951171875,-0.2038726806640625,0.0303497314453125
1772808548128485400,11.0674853515625,-0.9891204833984375,-0.19854736328125,0.03472900390625
1772808548138509300,11.07750927734375,-0.99700927734375,-0.196746826171875,0.0335845947265625
1772808548148532500,11.087532470703126,-0.9934234619140625,-0.1975860595703125,0.027862548828125
1772808548158556200,11.09755615234375,-0.9957427978515625,-0.19696044921875,0.02227783203125
1772808548168580400,11.107580322265624,-0.9942474365234375,-0.1969451904296875,0.0193023681640625
1772808548178604300,11.117604248046876,-0.990386962890625,-0.1926422119140625,0.017608642578125
1772808548188627200,11.127627197265625,-0.9975128173828125,-0.1909332275390625,0.014251708984375
1772808548198651400,11.1376513671875,-0.989990234375,-0.19073486328125,0.0111846923828125
1772808548208675300,11.14767529296875,-0.9906768798828125,-0.191741943359375,0.0129852294921875
1772808548218699300,11.15769921875,-0.984222412109375,-0.193695068359375,0.0110015869140625
1772808548228722400,11.167722412109375,-0.99371337890625,-0.194488525390625,0.014404296875
1772808548238746400,11.177746337890625,-1.0059051513671875,-0.1956329345703125,0.019775390625
1772808548248770300,11.187770263671876,-1.003570556640625,-0.2000885009765625,0.0238800048828125
1772808548258794200,11.197794189453125,-0.9968719482421875,-0.20489501953125,0.0264739990234375
1772808548268818400,11.207818359375,-0.9950714111328125,-0.2099609375,0.02777099609375
1772808548278841300,11.21784130859375,-0.9849853515625,-0.2082061767578125,0.032806396484375
1772808548288865300,11.227865234375,-0.9813232421875,-0.2074127197265625,0.0383758544921875
1772808548298889500,11.237889404296874,-0.975555419921875,-0.2106170654296875,0.03955078125
1772808548308913200,11.2479130859375,-0.968292236328125,-0.2171630859375,0.03106689453125
1772808548318936300,11.257936279296874,-0.9604644775390625,-0.2216644287109375,0.0212860107421875
