time,seconds_elapsed,z,y,x
1772790621489383200,0.070383056640625,0.4481141269207001,0.11271989345550537,-0.36279764771461487
1772790621499449300,0.080449462890625,0.47471511363983154,0.12497708946466446,-0.35021713376045227
1772790621509514000,0.090513916015625,0.4853384792804718,0.11415985971689224,-0.31280770897865295
1772790621519579100,0.1005791015625,0.4920855760574341,0.04976223036646843,-0.24741218984127045
1772790621529645300,0.110645263671875,0.506798505783081,0.012086490169167519,-0.17472600936889648
1772790621539710200,0.120710205078125,0.5068392157554626,0.030477214604616165,-0.09802670031785965
1772790621549776100,0.130776123046875,0.5021970868110657,0.0812692865729332,-0.028671858832240105
1772790621559841300,0.14084130859375,0.49783214926719666,0.1135830208659172,0.017196830362081528
1772790621569906200,0.15090625,0.4883632957935333,0.14277046918869019,0.05723905563354492
1772790621579972400,0.160972412109375,0.47091665863990784,0.15663914382457733,0.061346713453531265
1772790621590037000,0.171037109375,0.4447380304336548,0.18138550221920013,0.03461842983961105
1772790621600103200,0.181103271484375,0.42359599471092224,0.19879618287086487,0.03061836212873459
1772790621610168300,0.191168212890625,0.40553897619247437,0.1780477613210678,0.08247517049312592
1772790621620233200,0.201233154296875,0.39737051725387573,0.10268696397542953,0.18111279606819153
1772790621630299100,0.211299072265625,0.39795562624931335,0.0390121154487133,0.3037058115005493
1772790621640364300,0.2213642578125,0.3958224356174469,-0.011227354407310486,0.40237435698509216
1772790621650429200,0.23142919921875,0.3964530825614929,-0.0754375010728836,0.4896426796913147
1772790621660495400,0.241495361328125,0.41184747219085693,-0.11812184751033783,0.5521798133850098
1772790621670560000,0.25156005859375,0.42211422324180603,-0.1261824369430542,0.5720395445823669
1772790621680626200,0.261626220703125,0.40300363302230835,-0.18919868767261505,0.4947953522205353
1772790621690691300,0.27169140625,0.37987276911735535,-0.28904592990875244,0.3137288987636566
1772790621700756000,0.281755859375,0.3844616413116455,-0.35280412435531616,0.026876887306571007
1772790621710822100,0.291822265625,0.4177953898906708,-0.3060219883918762,-0.3512267470359802
1772790621720887300,0.30188720703125,0.4739542603492737,-0.12202577292919159,-0.7221435308456421
1772790621730953200,0.311953125,0.5129493474960327,0.21488088369369507,-0.8445250988006592
1772790621741018400,0.322018310546875,0.5185110569000244,0.46985191106796265,-0.5526794195175171
1772790621751083000,0.3320830078125,0.5460708141326904,0.5118669867515564,0.026220684871077538
1772790621761149200,0.342149169921875,0.6200771331787109,0.42919132113456726,0.546639621257782
1772790621771214300,0.35221435546875,0.6684054732322693,0.29765671491622925,0.6596298217773438
1772790621781279000,0.362279052734375,0.6808139681816101,0.20402184128761292,0.4123774468898773
1772790621791345200,0.37234521484375,0.65049147605896,0.16154947876930237,0.08448958396911621
1772790621801410300,0.382410400390625,0.5729032158851624,0.1461034119129181,-0.06028198078274727
1772790621811476200,0.392476318359375,0.4725438356399536,0.1378002166748047,0.04434908926486969
1772790621821541000,0.402541015625,0.34022361040115356,0.13783510029315948,0.19593702256679535
1772790621831606300,0.412606201171875,0.18369074165821075,0.1182885617017746,0.26107901334762573
1772790621841672200,0.422672119140625,0.02743748389184475,0.0879407748579979,0.18847990036010742
1772790621851737300,0.4327373046875,-0.12592729926109314,0.11124370247125626,0.021554825827479362
1772790621861803300,0.44280322265625,-0.2684628665447235,0.17254380881786346,-0.18001291155815125
1772790621871868200,0.4528681640625,-0.35187333822250366,0.29986926913261414,-0.34562423825263977
1772790621881933300,0.462933349609375,-0.3833998441696167,0.4570903182029724,-0.4732455909252167
1772790621891999200,0.472999267578125,-0.3673202097415924,0.582204282283783,-0.5862541794776917
1772790621902064000,0.483064208984375,-0.30059579014778137,0.6124426126480103,-0.7041027545928955
1772790621912130000,0.493130126953125,-0.21862821280956268,0.5726158618927002,-0.8519129753112793
1772790621922195200,0.5031953125,-0.1718551218509674,0.5503241419792175,-1.004797101020813
1772790621932260400,0.51326025390625,-0.11683926731348038,0.49410825967788696,-1.0204631090164185
1772790621942326000,0.523325927734375,-0.04891987144947052,0.3092004656791687,-0.8955643177032471
1772790621952391200,0.53339111328125,0.033909764140844345,0.11427091807126999,-0.7076426148414612
1772790621962456300,0.543456298828125,0.10687585175037384,-0.01745062880218029,-0.5242230296134949
1772790621972522200,0.553522216796875,0.15062306821346283,-0.11978259682655334,-0.39729276299476624
1772790621982587100,0.563587158203125,0.17435555160045624,-0.23697365820407867,-0.36256566643714905
1772790621992653000,0.573653076171875,0.19839458167552948,-0.3465172052383423,-0.4215243458747864
1772790622002718200,0.58371826171875,0.216661736369133,-0.4057791829109192,-0.5563330054283142
1772790622012783400,0.593783447265625,0.21159107983112335,-0.45121246576309204,-0.7181727886199951
1772790622022849000,0.60384912109375,0.19277770817279816,-0.47026950120925903,-0.8520206212997437
1772790622032914200,0.6139140625,0.14911304414272308,-0.462721049785614,-0.9207695722579956
1772790622042980000,0.62397998046875,0.09264977276325226,-0.44722622632980347,-0.8950809836387634
1772790622053045200,0.634045166015625,0.06380774080753326,-0.4243544638156891,-0.7892709374427795
1772790622063110100,0.644110107421875,0.042459841817617416,-0.4054681360721588,-0.6518489122390747
1772790622073176000,0.654176025390625,0.03868294879794121,-0.35794296860694885,-0.537961483001709
1772790622083241200,0.6642412109375,0.0470665767788887,-0.2604457139968872,-0.477672815322876
1772790622093306400,0.674306396484375,0.057012952864170074,-0.13208159804344177,-0.4584903419017792
1772790622103372000,0.6843720703125,0.06053951010107994,0.002663161139935255,-0.4480704665184021
1772790622113437200,0.694437255859375,0.024024909362196922,0.12345749139785767,-0.43569767475128174
1772790622123503000,0.704503173828125,-0.017918812111020088,0.24489790201187134,-0.3826397955417633
1772790622133568300,0.714568359375,-0.03724217787384987,0.20395313203334808,-0.3171827495098114
1772790622143633200,0.724633056640625,-0.061828747391700745,0.15704980492591858,-0.25521790981292725
1772790622153699000,0.734698974609375,-0.08695513755083084,0.10110478103160858,-0.20891380310058594
1772790622163764200,0.74476416015625,-0.12335149198770523,-0.07392961531877518,-0.13836932182312012
1772790622173830100,0.754830078125,-0.15967674553394318,-0.2765181362628937,0.0025888588279485703
1772790622183895000,0.76489501953125,-0.1924770325422287,-0.43074631690979004,0.19015023112297058
1772790622193960200,0.774960205078125,-0.19916902482509613,-0.5311278104782104,0.43358126282691956
1772790622204026000,0.785026123046875,-0.16550800204277039,-0.5553956031799316,0.6961196660995483
1772790622214091300,0.79509130859375,-0.13647103309631348,-0.5375849008560181,0.8345204591751099
1772790622224157200,0.8051572265625,-0.10601431876420975,-0.48896995186805725,0.7871342897415161
1772790622234222000,0.81522216796875,-0.05517110973596573,-0.4068199694156647,0.5906909704208374
1772790622244287200,0.825287353515625,-0.038541268557310104,-0.3295675218105316,0.23887382447719574
1772790622254353400,0.835353515625,-0.05836983397603035,-0.2428073137998581,-0.16561825573444366
1772790622264418000,0.84541796875,-0.06889677792787552,-0.1324262171983719,-0.44881242513656616
1772790622274483200,0.855483154296875,-0.07789666205644608,0.033362217247486115,-0.5503454208374023
1772790622284549000,0.865549072265625,-0.07107337564229965,0.21717146039009094,-0.5289266705513
1772790622294614000,0.875614013671875,-0.02658660337328911,0.4279649257659912,-0.4712892174720764
1772790622304680200,0.88568017578125,0.028495291247963905,0.6308570504188538,-0.4280514717102051
1772790622314745000,0.8957451171875,0.04319620504975319,0.7353826761245728,-0.417893648147583
1772790622324810200,0.905810302734375,0.02093963697552681,0.7160904407501221,-0.33052757382392883
1772790622334876400,0.91587646484375,-0.006045908201485872,0.641075074672699,-0.06709461659193039
1772790622344941000,0.925941162109375,-0.07048961520195007,0.4843299388885498,0.3039851784706116
1772790622355007200,0.93600732421875,-0.1597995162010193,0.2710570693016052,0.6214009523391724
1772790622365072100,0.946072021484375,-0.26806020736694336,0.09716623276472092,0.7909548282623291
1772790622375137000,0.956136962890625,-0.36930108070373535,-0.0294316578656435,0.8068584203720093
1772790622385200600,0.96620068359375,-0.4379619061946869,-0.11747043579816818,0.7297269105911255
1772790622395265500,0.976265625,-0.5086296796798706,-0.16053694486618042,0.6254202127456665
1772790622405330700,0.98633056640625,-0.6145403981208801,-0.23598803579807281,0.5727807283401489
1772790622415396600,0.996396728515625,-0.6842614412307739,-0.3182362914085388,0.549022912979126
1772790622425461500,1.00646142578125,-0.7323943376541138,-0.39285141229629517,0.5596987009048462
1772790622435527700,1.016527587890625,-0.7589966654777527,-0.36826884746551514,0.5770547986030579
1772790622445592600,1.026592529296875,-0.7562240362167358,-0.30411460995674133,0.5595746040344238
1772790622455657700,1.03665771484375,-0.7108072638511658,-0.23808127641677856,0.5061923265457153
1772790622465723600,1.0467236328125,-0.6371588706970215,-0.15447905659675598,0.4146523177623749
1772790622475788500,1.05678857421875,-0.564186692237854,-0.025970613583922386,0.3163694143295288
1772790622485854700,1.066854736328125,-0.5022918581962585,0.19780628383159637,0.14317765831947327
1772790622495919600,1.076919677734375,-0.46094977855682373,0.4097318649291992,0.03555586189031601
1772790622505984500,1.086984619140625,-0.4234013259410858,0.6530933976173401,-0.024515995755791664
1772790622516050700,1.09705078125,-0.44585710763931274,0.7734392285346985,-0.025523735210299492
1772790622526115600,1.107115478515625,-0.4619290232658386,0.7209765315055847,0.01792547106742859
1772790622536180700,1.1171806640625,-0.4253414571285248,0.5804338455200195,0.06095309928059578
1772790622546246700,1.12724658203125,-0.3588135540485382,0.4270069897174835,0.052258677780628204
1772790622556311600,1.1373115234375,-0.29335492849349976,0.3017995357513428,-0.020385965704917908
1772790622566377700,1.147377685546875,-0.2371358573436737,0.2663038671016693,-0.150947704911232
1772790622576442600,1.157442626953125,-0.1966683268547058,0.32222145795822144,-0.2941645085811615
1772790622586507500,1.167507568359375,-0.18150481581687927,0.4020662009716034,-0.4093118906021118
1772790622596573700,1.17757373046875,-0.20368655025959015,0.37580931186676025,-0.48924770951271057
1772790622606638600,1.187638671875,-0.22206342220306396,0.2958984971046448,-0.5255295634269714
1772790622616703700,1.197703857421875,-0.20768634974956512,0.21434372663497925,-0.5179196000099182
1772790622626769700,1.207769775390625,-0.18208006024360657,0.11187140643596649,-0.4684486985206604
1772790622636834600,1.21783447265625,-0.15293042361736298,0.003245860803872347,-0.3623606264591217
1772790622646900700,1.227900634765625,-0.1319982409477234,-0.048408277332782745,-0.25009506940841675
1772790622656965600,1.237965576171875,-0.10610539466142654,-0.010204967111349106,-0.20941713452339172
1772790622667030500,1.248030517578125,-0.0987529382109642,0.1036188006401062,-0.232312873005867
1772790622677096700,1.2580966796875,-0.11112252622842789,0.273576945066452,-0.3219788372516632
1772790622687161600,1.26816162109375,-0.11993705481290817,0.4264692962169647,-0.42429855465888977
1772790622697227800,1.278227783203125,-0.12394431233406067,0.4954547584056854,-0.4831070005893707
1772790622707292700,1.288292724609375,-0.12412407994270325,0.4673498868942261,-0.5090389847755432
1772790622717357600,1.298357666015625,-0.1285310834646225,0.4161335527896881,-0.49634718894958496
1772790622727423700,1.308423828125,-0.15502233803272247,0.3790000379085541,-0.4333018958568573
1772790622737488600,1.318488525390625,-0.2046612650156021,0.3361995816230774,-0.3576318919658661
1772790622747553500,1.328553466796875,-0.21944181621074677,0.3210238218307495,-0.3035984933376312
1772790622757619700,1.33861962890625,-0.21728678047657013,0.3286857306957245,-0.27740737795829773
1772790622767684600,1.3486845703125,-0.20919770002365112,0.290986031293869,-0.2813960015773773
1772790622777750800,1.358750732421875,-0.1977250576019287,0.21913447976112366,-0.2777216136455536
1772790622787815700,1.368815673828125,-0.18494348227977753,0.11891626566648483,-0.22116486728191376
1772790622797880600,1.378880615234375,-0.18312028050422668,0.017851967364549637,-0.12756381928920746
1772790622807946800,1.38894677734375,-0.1913643628358841,-0.04138072952628136,-0.031676702201366425
1772790622818011600,1.39901171875,-0.20329612493515015,-0.07802022993564606,0.035352133214473724
1772790622828077600,1.40907763671875,-0.2180769443511963,-0.11177793145179749,0.07316955178976059
1772790622838142700,1.419142822265625,-0.22730453312397003,-0.161799818277359,0.11045487225055695
1772790622848207600,1.42920751953125,-0.23055997490882874,-0.2059856504201889,0.1419379562139511
1772790622858273800,1.439273681640625,-0.2465440034866333,-0.18365345895290375,0.1466754674911499
1772790622868338700,1.449338623046875,-0.26707136631011963,-0.1424652636051178,0.11341630667448044
1772790622878403600,1.459403564453125,-0.28432387113571167,-0.14227831363677979,0.07230402529239655
1772790622888469800,1.4694697265625,-0.2952183187007904,-0.19422540068626404,0.05253111943602562
1772790622898534700,1.47953466796875,-0.29263827204704285,-0.26313894987106323,0.05524567887187004
1772790622908600600,1.4896005859375,-0.2871670722961426,-0.3051271438598633,0.07835259288549423
1772790622918665700,1.499665771484375,-0.28032007813453674,-0.37156903743743896,0.13331837952136993
1772790622928730600,1.509730712890625,-0.2722941040992737,-0.4470371603965759,0.17109638452529907
1772790622938796800,1.519796875,-0.2392919510602951,-0.468178391456604,0.18352961540222168
1772790622948861700,1.52986181640625,-0.2313365489244461,-0.4723707437515259,0.19641904532909393
1772790622958927600,1.539927734375,-0.2291484922170639,-0.4687749445438385,0.19802306592464447
1772790622968992800,1.54999267578125,-0.20784027874469757,-0.4929809272289276,0.18457463383674622
1772790622979057700,1.5600576171875,-0.1940019577741623,-0.5267852544784546,0.15233094990253448
1772790622989123600,1.57012353515625,-0.1911342740058899,-0.5776708126068115,0.0997455045580864
1772790622999188700,1.580188720703125,-0.19091589748859406,-0.6423296928405762,0.04983093962073326
1772790623009253600,1.590253662109375,-0.20202873647212982,-0.6730282306671143,0.021262411028146744
1772790623019319600,1.600319580078125,-0.2175600230693817,-0.6381762027740479,0.006727145053446293
1772790623029384700,1.610384765625,-0.24237161874771118,-0.5481131672859192,-0.0207500196993351
1772790623039450600,1.62045068359375,-0.27449360489845276,-0.43335437774658203,-0.04002251848578453
1772790623049515800,1.630515869140625,-0.32793524861335754,-0.3117826581001282,-0.06463571637868881
1772790623059580700,1.64058056640625,-0.3396283984184265,-0.1894484907388687,-0.08543447405099869
1772790623069646600,1.650646484375,-0.36805737018585205,-0.071513332426548,-0.09556993097066879
1772790623079711700,1.660711669921875,-0.3987402021884918,0.009004946798086166,-0.08518147468566895
1772790623089777700,1.670777587890625,-0.436947226524353,0.049900978803634644,-0.0890507772564888
1772790623099842600,1.680842529296875,-0.4733252227306366,0.10137322545051575,-0.10856988281011581
1772790623109907700,1.69090771484375,-0.5116225481033325,0.11743661761283875,-0.14098535478115082
1772790623119973600,1.7009736328125,-0.538040041923523,0.07840532809495926,-0.2076120525598526
1772790623130038800,1.711038818359375,-0.5614337921142578,-0.015835421159863472,-0.27211806178092957
1772790623140103700,1.721103759765625,-0.5970804691314697,-0.08180751651525497,-0.28491082787513733
1772790623150169600,1.731169677734375,-0.6402772068977356,-0.05516818165779114,-0.24541296064853668
1772790623160234800,1.74123486328125,-0.6979995965957642,0.028553614392876625,-0.16095559298992157
1772790623170300700,1.75130078125,-0.7569391131401062,0.03554308041930199,-0.05772455036640167
1772790623180365600,1.761365478515625,-0.8224160671234131,-0.052550558000802994,0.03116937167942524
1772790623190430700,1.7714306640625,-0.8804453015327454,-0.1911901980638504,0.08703210204839706
1772790623200496600,1.78149658203125,-0.9417486190795898,-0.36247727274894714,0.16938316822052002
1772790623210561800,1.791561767578125,-1.0103825330734253,-0.48586469888687134,0.36854395270347595
1772790623220627500,1.80162744140625,-1.060390830039978,-0.5743927359580994,0.6743816137313843
1772790623230692600,1.811692626953125,-1.0975091457366943,-0.6175955533981323,0.9663360118865967
1772790623240757800,1.8217578125,-1.1133097410202026,-0.6108431220054626,1.1228035688400269
1772790623250823700,1.83182373046875,-1.0888142585754395,-0.47143837809562683,1.047397494316101
1772790623260888600,1.841888671875,-1.0333821773529053,-0.22109057009220123,0.7505555152893066
1772790623270953700,1.85195361328125,-0.9748951196670532,0.1177159771323204,0.37231364846229553
1772790623281019600,1.86201953125,-0.9243578910827637,0.46783217787742615,0.048231177031993866
1772790623291084500,1.87208447265625,-0.8309147953987122,0.6876750588417053,-0.11238406598567963
1772790623301150500,1.882150390625,-0.6961268782615662,0.7515555024147034,-0.04096980392932892
1772790623311215600,1.892215576171875,-0.5851098299026489,0.7246373295783997,0.26357677578926086
1772790623321280800,1.90228076171875,-0.5211643576622009,0.6239405274391174,0.7193198204040527
1772790623331346700,1.9123466796875,-0.46475115418434143,0.4563156068325043,1.230061650276184
1772790623341411600,1.92241162109375,-0.41615405678749084,0.3070813715457916,1.65462064743042
1772790623351477500,1.9324775390625,-0.37361380457878113,0.15354454517364502,1.839687705039978
1772790623361542700,1.942542724609375,-0.32870012521743774,-0.025411617010831833,1.75765061378479
1772790623371607600,1.952607666015625,-0.3089951276779175,-0.20674385130405426,1.4069141149520874
1772790623381672700,1.962672607421875,-0.2713114023208618,-0.3887983560562134,0.931052565574646
1772790623391737300,1.9727373046875,-0.17014403641223907,-0.6969678997993469,0.5299429297447205
1772790623401802500,1.982802490234375,-0.05064933001995087,-1.0487291812896729,0.2815304696559906
1772790623411868700,1.99286865234375,0.02279692515730858,-1.1805140972137451,0.022487465292215347
1772790623421933300,2.002933349609375,0.0949438214302063,-1.2379419803619385,-0.16223284602165222
1772790623431999500,2.01299951171875,0.16753627359867096,-1.2890357971191406,-0.2618209719657898
1772790623442064600,2.023064697265625,0.20572440326213837,-1.2844820022583008,-0.32961171865463257
1772790623452129500,2.033129638671875,0.23014238476753235,-1.1702007055282593,-0.4281875789165497
1772790623462195700,2.04319580078125,0.2481975555419922,-0.9954150319099426,-0.5419655442237854
1772790623472260400,2.05326025390625,0.2531864643096924,-0.8388017416000366,-0.6348512768745422
1772790623482326500,2.063326416015625,0.2510436773300171,-0.5964756608009338,-0.6827205419540405
1772790623492391700,2.0733916015625,0.21427607536315918,-0.4224838614463806,-0.694129228591919
1772790623502456300,2.083456298828125,0.1913262903690338,-0.30172815918922424,-0.7073278427124023
1772790623512522500,2.0935224609375,0.16636954247951508,-0.177959606051445,-0.7309296131134033
1772790623522587600,2.103587646484375,0.12535205483436584,-0.06408364325761795,-0.7662037014961243
1772790623532652500,2.113652587890625,0.09131233394145966,0.06488525867462158,-0.8290524482727051
1772790623542718500,2.123718505859375,0.060267601162195206,0.19213135540485382,-0.9103962779045105
1772790623552783600,2.13378369140625,0.02196175791323185,0.30314069986343384,-0.9337002635002136
1772790623562849500,2.143849609375,0.016343019902706146,0.3756955862045288,-0.887942910194397
1772790623572914700,2.153914794921875,0.02484755963087082,0.47397929430007935,-0.8270803689956665
1772790623582979300,2.163979248046875,0.06397205591201782,0.674322247505188,-0.7208631038665771
1772790623593045500,2.17404541015625,0.11840840429067612,0.8777145147323608,-0.5299496054649353
1772790623603110700,2.184110595703125,0.17238561809062958,1.0191134214401245,-0.26565831899642944
1772790623613176600,2.194176513671875,0.21901357173919678,1.0926851034164429,0.06388098001480103
1772790623623241500,2.204241455078125,0.23173868656158447,1.0446217060089111,0.38508403301239014
1772790623633306600,2.214306640625,0.2700195014476776,0.8881914019584656,0.6589001417160034
1772790623643372500,2.22437255859375,0.3207814693450928,0.6557421684265137,0.8460583090782166
1772790623653437700,2.234437744140625,0.3525780141353607,0.3410976827144623,0.9505021572113037
1772790623663502300,2.24450244140625,0.3634714186191559,-0.0014362427173182368,1.0205574035644531
1772790623673568500,2.254568603515625,0.38671788573265076,-0.22916075587272644,1.1441243886947632
1772790623683633700,2.264633544921875,0.3729352355003357,-0.2771349251270294,1.3157349824905396
1772790623693699600,2.274699462890625,0.31789833307266235,-0.22749920189380646,1.4721416234970093
1772790623703764500,2.284764404296875,0.3423469662666321,-0.18757735192775726,1.567883849143982
1772790623713829600,2.29482958984375,0.31348973512649536,-0.19464938342571259,1.6385012865066528
1772790623723895600,2.3048955078125,0.2603306472301483,-0.19384217262268066,1.6088038682937622
1772790623733960700,2.314960693359375,0.21608249843120575,-0.09593451768159866,1.4539573192596436
1772790623744025300,2.325025390625,0.20935508608818054,0.14570286870002747,1.240665316581726
1772790623754091500,2.335091552734375,0.22129963338375092,0.3376336991786957,1.070458173751831
1772790623764156700,2.34515673828125,0.2456425130367279,0.5063060522079468,1.0411779880523682
1772790623774222600,2.35522265625,0.32874539494514465,0.6511242389678955,1.1250263452529907
1772790623784287500,2.36528759765625,0.46687689423561096,0.7686585783958435,1.2273393869400024
1772790623794352600,2.3753525390625,0.6221418380737305,0.8591168522834778,1.2481274604797363
1772790623804418600,2.38541845703125,0.7969107627868652,0.937032163143158,1.1363558769226074
1772790623814483500,2.3954833984375,0.9135148525238037,1.0643006563186646,0.9247424602508545
1772790623824549400,2.40554931640625,0.9488198161125183,1.1588926315307617,0.719746470451355
1772790623834614500,2.415614501953125,0.9231687784194946,1.1597923040390015,0.5982199907302856
1772790623844679700,2.4256796875,0.8599464297294617,1.078546404838562,0.5224648118019104
1772790623854745600,2.43574560546875,0.7823624014854431,0.9442815184593201,0.45742267370224
1772790623864810500,2.445810546875,0.7027301788330078,0.7291063666343689,0.3533596694469452
1772790623874875600,2.455875732421875,0.6880511045455933,0.46307602524757385,0.24537087976932526
1772790623884941600,2.465941650390625,0.628075361251831,0.4073089063167572,0.004195810295641422
1772790623895006500,2.47600634765625,0.5656543374061584,0.4650896489620209,-0.38444754481315613
1772790623905072400,2.486072265625,0.5430387854576111,0.5429130792617798,-0.7760768532752991
1772790623915137500,2.496137451171875,0.5554310083389282,0.6515730023384094,-1.0658873319625854
1772790623925202700,2.50620263671875,0.5974250435829163,0.834507405757904,-1.2198750972747803
1772790623935268400,2.516268310546875,0.6902484893798828,0.9155029058456421,-1.3072052001953125
1772790623945333500,2.52633349609375,0.7958100438117981,0.8824501633644104,-1.4057466983795166
1772790623955399400,2.5363994140625,0.9067613482475281,0.7104892730712891,-1.5194412469863892
1772790623965464600,2.546464599609375,1.0016419887542725,0.494367390871048,-1.6175681352615356
1772790623975529500,2.556529541015625,1.0675978660583496,0.204781636595726,-1.6717969179153442
1772790623985595400,2.566595458984375,1.0695574283599854,-0.16892457008361816,-1.6447336673736572
1772790623995660500,2.57666064453125,1.0451834201812744,-0.5569953322410583,-1.5388461351394653
1772790624005725700,2.5867255859375,1.0156739950180054,-0.9340531229972839,-1.376215934753418
1772790624015791400,2.596791259765625,1.001656174659729,-1.2924100160598755,-1.143405556678772
1772790624025856500,2.6068564453125,0.9855126142501831,-1.5381035804748535,-0.8638865947723389
1772790624035922400,2.61692236328125,0.967060923576355,-1.6477888822555542,-0.5898433327674866
1772790624045987600,2.626987548828125,0.9327599406242371,-1.7552449703216553,-0.3884846270084381
1772790624056052500,2.637052490234375,0.8734694123268127,-1.7819197177886963,-0.2771682143211365
1772790624066118400,2.647118408203125,0.7260205745697021,-1.7232303619384766,-0.24872006475925446
1772790624076183600,2.65718359375,0.7320616841316223,-1.5306910276412964,-0.2680157423019409
1772790624086249500,2.66724951171875,0.7769942879676819,-1.2040598392486572,-0.30471861362457275
1772790624096314400,2.677314453125,0.6951391100883484,-0.6772085428237915,-0.2887718677520752
1772790624106379500,2.687379638671875,0.6127337217330933,-0.13281530141830444,-0.23745836317539215
1772790624116445400,2.697445556640625,0.5671486258506775,0.27716848254203796,-0.19360995292663574
1772790624126510600,2.707510498046875,0.5588342547416687,0.6026731133460999,-0.12881417572498322
1772790624136575500,2.717575439453125,0.5812343955039978,0.8293075561523438,-0.023259250447154045
1772790624146641400,2.727641357421875,0.6155694127082825,0.8837798833847046,0.03413186967372894
1772790624156706600,2.73770654296875,0.6819154620170593,0.7221813797950745,0.036684777587652206
1772790624166772500,2.7477724609375,0.7585156559944153,0.45691534876823425,0.055157262831926346
1772790624176837400,2.75783740234375,0.8131328225135803,0.3147539496421814,0.11544110625982285
1772790624186902500,2.767902587890625,0.8378275632858276,0.2974252998828888,0.17751966416835785
1772790624196968400,2.777968505859375,0.8610695004463196,0.34636619687080383,0.22326716780662537
1772790624207033600,2.78803369140625,0.8831028938293457,0.39587968587875366,0.24925349652767181
1772790624217099500,2.798099609375,0.9220708012580872,0.42763257026672363,0.263680100440979
1772790624227164400,2.808164306640625,0.963184118270874,0.4706284999847412,0.252509742975235
1772790624237229600,2.8182294921875,1.0067163705825806,0.6244071125984192,0.159258633852005
1772790624247295700,2.828295654296875,1.0550930500030518,0.8936580419540405,0.02929850108921528
1772790624257360400,2.8383603515625,1.0470925569534302,0.9928938150405884,-0.1161082312464714
1772790624267425500,2.848425537109375,1.0197064876556396,1.0245391130447388,-0.2008225917816162
1772790624277491500,2.858491455078125,1.001146912574768,1.0419210195541382,-0.18745724856853485
1772790624287556400,2.868556396484375,0.980518639087677,1.0218833684921265,-0.08680706471204758
1772790624297622500,2.87862255859375,0.9820262789726257,0.9199719429016113,0.07000119239091873
1772790624307687400,2.8886875,1.0148910284042358,0.8807161450386047,0.23325243592262268
1772790624317752600,2.898752685546875,1.0827760696411133,1.0535271167755127,0.28638967871665955
1772790624327818800,2.90881884765625,1.19270920753479,1.3011009693145752,0.16686542332172394
1772790624337883400,2.91888330078125,1.3178130388259888,1.5681291818618774,-0.07784419506788254
1772790624347949600,2.928949462890625,1.4137438535690308,1.6663612127304077,-0.31562238931655884
1772790624358014500,2.939014404296875,1.4666129350662231,1.4843688011169434,-0.41518229246139526
1772790624368079400,2.949079345703125,1.4990425109863281,1.0558480024337769,-0.25678011775016785
1772790624378150700,2.959150634765625,1.4991689920425415,0.5770934224128723,0.1350848525762558
1772790624388215800,2.9692158203125,1.4482192993164062,0.2533145546913147,0.6263344883918762
1772790624398281000,2.979281005859375,1.3923088312149048,0.12314429879188538,0.9913550615310669
1772790624408346600,2.9893466796875,1.3687870502471924,0.17943421006202698,1.0750643014907837
1772790624418411800,2.999411865234375,1.3708739280700684,0.32248297333717346,0.8678333759307861
1772790624428477700,3.009477783203125,1.3999390602111816,0.5060930252075195,0.4475146532058716
1772790624438542800,3.01954296875,1.4126977920532227,0.643912672996521,-0.07719678431749344
1772790624448607700,3.029607666015625,1.4070377349853516,0.6944701075553894,-0.6403844952583313
1772790624458673700,3.039673583984375,1.4184070825576782,0.6705019474029541,-1.1651159524917603
1772790624468738800,3.04973876953125,1.4414327144622803,0.7100421786308289,-1.5755431652069092
1772790624478804700,3.0598046875,1.4479836225509644,0.7669597864151001,-1.8231539726257324
1772790624488869600,3.06986962890625,1.4295287132263184,0.7341088652610779,-1.8643901348114014
1772790624498934800,3.079934814453125,1.363213062286377,0.4961775243282318,-1.6957987546920776
1772790624509000700,3.090000732421875,1.25816011428833,0.15596696734428406,-1.3652644157409668
1772790624519065900,3.10006591796875,1.137574553489685,-0.22857113182544708,-0.9603936672210693
1772790624529130800,3.110130859375,1.008021593093872,-0.5618289709091187,-0.607829213142395
1772790624539196700,3.12019677734375,0.8757008910179138,-0.8453807830810547,-0.43534374237060547
1772790624549261800,3.13026171875,0.775184154510498,-1.0345216989517212,-0.45724424719810486
1772790624559327700,3.14032763671875,0.7029005885124207,-1.104557752609253,-0.5914303064346313
1772790624569392600,3.150392578125,0.6299952268600464,-1.0651462078094482,-0.7456451654434204
1772790624579457800,3.160457763671875,0.5906462669372559,-0.8741163015365601,-0.8520328402519226
1772790624589523700,3.170523681640625,0.5516522526741028,-0.6106966733932495,-0.852077841758728
1772790624599588900,3.1805888671875,0.48081669211387634,-0.289644330739975,-0.7317628860473633
1772790624609653800,3.19065380859375,0.4550498127937317,0.003111637430265546,-0.5137386918067932
1772790624619719700,3.2007197265625,0.3838754892349243,0.16447389125823975,-0.23082415759563446
1772790624629784800,3.210784912109375,0.3733735978603363,0.24883484840393066,0.0795009508728981
1772790624639850800,3.220850830078125,0.4096516966819763,0.2240927517414093,0.35878053307533264
1772790624649915600,3.23091552734375,0.45938384532928467,0.1325705647468567,0.5384477376937866
1772790624659980800,3.240980712890625,0.5303099155426025,0.06671831011772156,0.593858540058136
1772790624670046700,3.251046630859375,0.5643690824508667,0.1934027522802353,0.5275434255599976
1772790624680111900,3.26111181640625,0.5943546891212463,0.3389247953891754,0.4297705590724945
1772790624690177800,3.271177734375,0.5911908745765686,0.35489365458488464,0.3794572949409485
1772790624700242700,3.28124267578125,0.568071186542511,0.22957992553710938,0.4089145362377167
1772790624710307800,3.291307861328125,0.5350103974342346,0.053107425570487976,0.49349385499954224
1772790624720373800,3.301373779296875,0.5309126377105713,-0.12654143571853638,0.5662176012992859
1772790624730438700,3.311438720703125,0.5496322512626648,-0.291694700717926,0.6629822254180908
1772790624740503800,3.32150390625,0.5440100431442261,-0.4025876522064209,0.7631314396858215
1772790624750569700,3.33156982421875,0.4823077917098999,-0.47499075531959534,0.7729936838150024
1772790624760634600,3.341634521484375,0.3878156542778015,-0.3470170795917511,0.6446905732154846
1772790624770700800,3.35170068359375,0.3304849863052368,0.0038338867016136646,0.507033109664917
1772790624780765700,3.361765625,0.30524274706840515,0.38825345039367676,0.48650360107421875
1772790624790830800,3.371830810546875,0.2601969540119171,0.6408755779266357,0.6304575800895691
1772790624800896800,3.381896728515625,0.23796595633029938,0.762047290802002,0.8488010764122009
1772790624810961700,3.391961669921875,0.25999322533607483,0.9061786532402039,1.0133641958236694
1772790624821027800,3.40202783203125,0.31520161032676697,1.1130266189575195,1.056439757347107
1772790624831092700,3.4120927734375,0.3987119495868683,1.3574193716049194,0.9171772003173828
1772790624841157600,3.42215771484375,0.4942651093006134,1.6416401863098145,0.6578332781791687
1772790624851223800,3.432223876953125,0.6011103391647339,1.86314058303833,0.3631443679332733
1772790624861288700,3.442288818359375,0.6710902452468872,1.8479653596878052,0.13547739386558533
1772790624871353900,3.452353759765625,0.665948212146759,1.533713698387146,0.006310360040515661
1772790624881419800,3.462419677734375,0.6346922516822815,0.9574029445648193,-0.014824486337602139
1772790624891484700,3.472484619140625,0.5754806399345398,0.3444492518901825,-0.028295554220676422
1772790624901550800,3.48255078125,0.46964311599731445,-0.021944979205727577,-0.1396540403366089
1772790624911615700,3.49261572265625,0.4038899540901184,-0.15096767246723175,-0.37206384539604187
1772790624921680600,3.5026806640625,0.41668590903282166,-0.10911476612091064,-0.6475158929824829
1772790624931746800,3.512746826171875,0.507634162902832,-0.011919243261218071,-0.8337627649307251
1772790624941811700,3.522811767578125,0.640333354473114,-0.02112152986228466,-0.8867141008377075
1772790624951878000,3.5328779296875,0.7747244834899902,-0.10153993964195251,-0.8500500917434692
1772790624961942800,3.54294287109375,0.9003865122795105,-0.25374919176101685,-0.7879361510276794
1772790624972007700,3.553007568359375,0.9842630624771118,-0.4704394042491913,-0.7675368785858154
1772790624982073900,3.563073974609375,0.987827718257904,-0.6939494609832764,-0.8562438488006592
1772790624992138800,3.573138671875,0.9467734694480896,-0.890256941318512,-1.0453226566314697
1772790625002203600,3.58320361328125,0.8808466196060181,-1.004868507385254,-1.2793910503387451
1772790625012269800,3.593269775390625,0.7825602889060974,-1.0531818866729736,-1.488968014717102
1772790625022334700,3.603334716796875,0.6932101845741272,-1.151471734046936,-1.6112161874771118
1772790625032401000,3.61340087890625,0.6471886038780212,-1.2587002515792847,-1.6470208168029785
1772790625042465800,3.6234658203125,0.5840490460395813,-1.1696491241455078,-1.60262131690979
1772790625052530700,3.63353076171875,0.509573221206665,-0.9000174403190613,-1.5102077722549438
1772790625062596900,3.643596923828125,0.48130324482917786,-0.46001872420310974,-1.3869596719741821
1772790625072661800,3.653661865234375,0.4772248864173889,0.037705834954977036,-1.2265172004699707
1772790625082727700,3.663727783203125,0.4668523967266083,0.4854031801223755,-1.0610822439193726
1772790625092792800,3.673792724609375,0.48923999071121216,0.7919766902923584,-0.9111478328704834
1772790625102857700,3.683857666015625,0.5240967869758606,0.9200012683868408,-0.8086848258972168
1772790625112924000,3.693923828125,0.5136910080909729,0.9334312677383423,-0.7523128986358643
1772790625122988800,3.70398876953125,0.46206775307655334,0.9959537982940674,-0.775486409664154
1772790625133053700,3.7140537109375,0.3553383946418762,1.0398149490356445,-0.8682224750518799
1772790625143120000,3.724119873046875,0.22512632608413696,0.9036185145378113,-0.8913328647613525
1772790625153184800,3.734184814453125,0.10319375991821289,0.6679027080535889,-0.7494638562202454
1772790625163250700,3.744250732421875,0.031026093289256096,0.34736168384552,-0.427084743976593
1772790625173315800,3.75431591796875,-0.0031579763162881136,-0.024704281240701675,0.09458109736442566
1772790625183380700,3.764380615234375,-0.016557937487959862,-0.2673366367816925,0.6842750310897827
1772790625193447000,3.774447021484375,-0.03474173694849014,-0.23233497142791748,1.1176533699035645
1772790625203511800,3.78451171875,-0.08378864079713821,-0.032463133335113525,1.3926126956939697
1772790625213576700,3.79457666015625,-0.15573233366012573,0.19462807476520538,1.4343329668045044
1772790625223643000,3.804642822265625,-0.20784667134284973,0.49895787239074707,1.2627074718475342
1772790625233707800,3.814707763671875,-0.22596202790737152,0.923579216003418,0.9979828596115112
1772790625243773700,3.824773681640625,-0.22036592662334442,1.1928421258926392,0.9687767624855042
1772790625253838800,3.8348388671875,-0.17610952258110046,1.1973785161972046,1.4848710298538208
1772790625263903700,3.84490380859375,-0.11191800981760025,0.973272442817688,2.421283006668091
1772790625273969700,3.8549697265625,-0.09665996581315994,0.6919260025024414,3.24604868888855
1772790625284034800,3.865034912109375,-0.05896345153450966,0.6321007609367371,3.3908162117004395
1772790625294100700,3.875100830078125,-0.016409600153565407,0.8208078145980835,2.600531816482544
1772790625304166000,3.885165771484375,0.047680970281362534,1.2295894622802734,1.1816954612731934
1772790625314230800,3.895230712890625,0.04941335693001747,1.4584790468215942,-0.07040225714445114
1772790625324296700,3.905296630859375,-0.09086519479751587,1.2682465314865112,-0.5843846201896667
1772790625334361900,3.91536181640625,-0.22225996851921082,0.5424736738204956,-0.2837555408477783
1772790625344426800,3.9254267578125,-0.27396097779273987,-0.08166690170764923,0.39238670468330383
1772790625354492700,3.93549267578125,-0.23719337582588196,-0.35047200322151184,1.1509371995925903
1772790625364557800,3.945557861328125,-0.19014038145542145,-0.28741952776908875,1.5620957612991333
1772790625374623700,3.955623779296875,-0.1721065193414688,0.003147856332361698,1.416420817375183
1772790625384687400,3.965687255859375,-0.042693134397268295,0.5651478171348572,0.7394509315490723
1772790625394752500,3.97575244140625,0.15987195074558258,1.3307080268859863,-0.2200724482536316
1772790625404818400,3.985818359375,0.36265650391578674,1.8258025646209717,-0.9696534872055054
1772790625414883600,3.995883544921875,0.49948543310165405,1.7772001028060913,-1.1459872722625732
1772790625424948500,4.005948486328125,0.5935661196708679,1.3200637102127075,-0.8279834389686584
1772790625435013600,4.016013671875,0.5587045550346375,0.6676188111305237,-0.41593408584594727
1772790625445079600,4.02607958984375,0.37414804100990295,-0.16853681206703186,-0.11060933768749237
1772790625455144400,4.03614453125,0.1629982441663742,-0.9947434067726135,0.056769005954265594
1772790625465210400,4.04621044921875,0.0003028014034498483,-1.8241404294967651,0.11719559878110886
1772790625475275500,4.056275634765625,-0.06520643085241318,-2.301760673522949,0.06203833594918251
1772790625485340700,4.066340576171875,-0.1997099220752716,-2.368513822555542,-0.024389762431383133
1772790625495406600,4.076406494140625,-0.11532100290060043,-1.9734630584716797,-0.42492198944091797
1772790625505471500,4.086471435546875,-0.08717777580022812,-1.15885591506958,-0.9302117824554443
1772790625515536600,4.09653662109375,-0.19057872891426086,-0.3766500651836395,-1.1726627349853516
1772790625525602600,4.1066025390625,-0.27536261081695557,0.11097818613052368,-1.0947504043579102
1772790625535667500,4.11666748046875,-0.3179856836795807,0.23955506086349487,-0.8249072432518005
1772790625545733400,4.1267333984375,-0.3036661446094513,0.01751161552965641,-0.5704208612442017
1772790625555798500,4.136798583984375,-0.1771865040063858,-0.19833892583847046,-0.5504900217056274
1772790625565863700,4.14686376953125,0.05462196469306946,-0.2564874589443207,-0.7143327593803406
1772790625575929300,4.156929443359375,0.21877096593379974,-0.12127476185560226,-0.9765079021453857
1772790625585994500,4.166994384765625,0.2752249240875244,-0.008765527978539467,-1.2022526264190674
1772790625596060400,4.177060302734375,0.34976786375045776,-0.1199551671743393,-1.2514995336532593
1772790625606125600,4.18712548828125,0.408702552318573,-0.31586021184921265,-1.0262187719345093
1772790625616190500,4.1971904296875,0.374782919883728,-0.4151538014411926,-0.6399815678596497
1772790625626256400,4.20725634765625,0.23782508075237274,-0.4023655652999878,-0.26946184039115906
1772790625636321500,4.217321533203125,0.1597667634487152,-0.6449307799339294,-0.1893741935491562
1772790625646386700,4.22738671875,0.1543152630329132,-1.0019035339355469,-0.42608872056007385
1772790625656452400,4.237452392578125,0.03955273702740669,-1.20913827419281,-0.6235865950584412
1772790625666517500,4.247517578125,-0.20225270092487335,-1.1954344511032104,-0.5441386699676514
1772790625676583400,4.25758349609375,-0.4028688967227936,-1.0193594694137573,-0.188025563955307
1772790625686648600,4.267648681640625,-0.558590829372406,-0.8745578527450562,0.2561825215816498
1772790625696713500,4.27771337890625,-0.6755214333534241,-0.8444694876670837,0.4965762197971344
1772790625706779400,4.287779296875,-0.7289828062057495,-0.6545559763908386,0.32256871461868286
1772790625716844500,4.297844482421875,-0.7294754981994629,-0.1766786277294159,-0.15566761791706085
1772790625726909400,4.307909423828125,-0.7636235952377319,0.4046039283275604,-0.6013404130935669
1772790625736975400,4.317975341796875,-0.8204943537712097,0.8907301425933838,-0.7245225310325623
1772790625747040500,4.32804052734375,-0.7829754948616028,0.9819623231887817,-0.28805044293403625
1772790625757106400,4.3381064453125,-0.672148585319519,0.7895247340202332,0.5245665907859802
1772790625767171600,4.348171630859375,-0.5252984166145325,0.5927379131317139,1.2223759889602661
1772790625777236500,4.358236572265625,-0.40533310174942017,0.47481605410575867,1.5780534744262695
1772790625787302400,4.368302490234375,-0.3477608859539032,0.3433813452720642,1.638105869293213
1772790625797367600,4.378367431640625,-0.30167755484580994,0.20967359840869904,1.5695477724075317
1772790625807433700,4.388433837890625,-0.2862149775028229,0.04692862555384636,1.5007351636886597
1772790625817498400,4.398498291015625,-0.31277576088905334,-0.19808751344680786,1.5378708839416504
1772790625827563500,4.4085634765625,-0.3585094213485718,-0.4384828209877014,1.6408052444458008
1772790625837629400,4.41862939453125,-0.3707117438316345,-0.6150962114334106,1.6821331977844238
1772790625847694600,4.428694580078125,-0.3525484502315521,-0.6833232045173645,1.532370686531067
1772790625857759500,4.438759521484375,-0.33174943923950195,-0.5815140008926392,1.2718751430511475
1772790625867825400,4.448825439453125,-0.29540449380874634,-0.36716148257255554,0.9212121963500977
1772790625877890600,4.458890625,-0.24779941141605377,-0.010747186839580536,0.4652600884437561
1772790625887956700,4.468956787109375,-0.21643057465553284,0.38819247484207153,0.10262597352266312
1772790625898021400,4.479021484375,-0.1254791021347046,0.49385231733322144,-0.05343765765428543
1772790625908086500,4.48908642578125,-0.008619853295385838,0.2279719114303589,-0.09491772204637527
1772790625918152400,4.49915234375,0.1357136219739914,-0.21337805688381195,-0.1673639565706253
1772790625928217300,4.50921728515625,0.2676663398742676,-0.546633780002594,-0.4112298786640167
1772790625938283500,4.519283447265625,0.2815251648426056,-0.7551081776618958,-0.7992116808891296
1772790625948348400,4.529348388671875,0.20642587542533875,-0.9213184118270874,-1.2108997106552124
1772790625958413600,4.53941357421875,0.10123846679925919,-1.0107742547988892,-1.527677059173584
1772790625968479700,4.549479736328125,-0.010989267379045486,-1.1177561283111572,-1.7161071300506592
1772790625978544400,4.55954443359375,-0.0805896520614624,-1.3302292823791504,-1.7648906707763672
1772790625988609500,4.569609619140625,-0.1765555888414383,-1.6399730443954468,-1.6979113817214966
1772790625998675700,4.57967578125,-0.30431488156318665,-1.885498046875,-1.529902458190918
1772790626008740400,4.589740234375,-0.4776903986930847,-1.918300747871399,-1.331383228302002
1772790626018806500,4.599806640625,-0.680233895778656,-1.7893075942993164,-1.174041509628296
1772790626028871400,4.609871337890625,-0.7839603424072266,-1.5441149473190308,-1.0940380096435547
1772790626038937600,4.6199375,-0.875313937664032,-1.1432095766067505,-1.0871015787124634
1772790626049002500,4.63000244140625,-0.9410104155540466,-0.5860448479652405,-1.061129093170166
1772790626059067400,4.6400673828125,-0.9560545682907104,0.026884078979492188,-0.9599875211715698
1772790626069133600,4.650133544921875,-0.9221445322036743,0.6024344563484192,-0.7732315063476562
1772790626079198700,4.66019873046875,-0.8510823845863342,1.1446924209594727,-0.5537947416305542
1772790626089264600,4.6702646484375,-0.7434033155441284,1.5968716144561768,-0.33594363927841187
1772790626099329500,4.68032958984375,-0.6106652021408081,1.892538070678711,-0.18392430245876312
1772790626109394400,4.69039453125,-0.49366137385368347,1.8479762077331543,-0.13995763659477234
1772790626119460600,4.700460693359375,-0.3362014591693878,1.5347671508789062,-0.12554407119750977
1772790626129525500,4.710525390625,-0.208591029047966,1.2425217628479004,-0.10091143101453781
1772790626139590400,4.72059033203125,-0.19413964450359344,1.0617109537124634,0.002005093963816762
1772790626149656600,4.730656494140625,-0.2397335022687912,0.7228569984436035,0.25797322392463684
1772790626159721700,4.7407216796875,-0.316240519285202,0.2771383821964264,0.632173478603363
1772790626169787400,4.750787353515625,-0.4019325375556946,-0.19958367943763733,1.0155565738677979
1772790626179852500,4.7608525390625,-0.5484409928321838,-0.49369093775749207,1.2965104579925537
1772790626189917400,4.77091748046875,-0.7077673077583313,-0.6695820689201355,1.4447259902954102
1772790626199983600,4.780983642578125,-0.7913777232170105,-0.778405487537384,1.4570271968841553
1772790626210048500,4.791048583984375,-0.8332067131996155,-0.721917450428009,1.347606897354126
1772790626220114400,4.801114501953125,-0.8885623812675476,-0.4619652330875397,1.0991915464401245
1772790626230179600,4.8111796875,-0.8209036588668823,-0.12596778571605682,0.6761702299118042
1772790626240244700,4.82124462890625,-0.6675117611885071,0.27358707785606384,0.12104200571775436
1772790626250310400,4.831310302734375,-0.5305421948432922,0.8333649039268494,-0.3148120045661926
1772790626260375600,4.84137548828125,-0.42335259914398193,1.212903380393982,-0.36381497979164124
1772790626270440700,4.851440673828125,-0.34174269437789917,1.2232338190078735,0.17835135757923126
1772790626280506600,4.861506591796875,-0.2511957287788391,1.026160717010498,1.1018751859664917
1772790626290571500,4.871571533203125,-0.1154584214091301,0.7216708660125732,1.9972903728485107
1772790626300637400,4.881637451171875,0.022218752652406693,0.3717423975467682,2.6407315731048584
1772790626310702600,4.89170263671875,0.11689199507236481,0.06527407467365265,2.7961316108703613
1772790626320767500,4.901767578125,0.15371845662593842,0.019151058048009872,2.408796548843384
1772790626330833400,4.91183349609375,0.1883467435836792,0.16393327713012695,1.7454136610031128
1772790626340898600,4.921898681640625,0.21140918135643005,0.3262777030467987,1.1241551637649536
1772790626350964500,4.931964599609375,0.19894371926784515,0.4084745943546295,0.7673712372779846
1772790626361029600,4.942029541015625,0.1530337631702423,0.3974573612213135,0.630995512008667
1772790626371094500,4.952094482421875,0.11192227154970169,0.2631770372390747,0.597373366355896
1772790626381156400,4.96215625,0.03386262431740761,0.17193233966827393,0.5612976551055908
1772790626391221200,4.97222119140625,-0.03875378891825676,0.06347911059856415,0.4158659279346466
1772790626401286400,4.982286376953125,-0.07798055559396744,-0.029888123273849487,0.13202887773513794
1772790626411352300,4.992352294921875,-0.05228530988097191,-0.23254163563251495,-0.24539804458618164
1772790626421417500,5.00241748046875,0.002689526416361332,-0.49458229541778564,-0.6078974008560181
1772790626431483400,5.0124833984375,0.06785254925489426,-0.7415934205055237,-0.9013146162033081
1772790626441548300,5.02254833984375,0.13017265498638153,-0.9215003252029419,-1.0749154090881348
1772790626451613400,5.032613525390625,0.16352634131908417,-1.1556612253189087,-1.0924571752548218
1772790626461679400,5.042679443359375,0.15299886465072632,-1.3131623268127441,-0.9900820851325989
1772790626471744300,5.052744140625,0.1915595829486847,-1.279693603515625,-0.8541777729988098
1772790626481809400,5.062809326171875,0.2786523997783661,-1.0776185989379883,-0.7827256917953491
1772790626491875300,5.072875244140625,0.46319589018821716,-0.7146611213684082,-0.7854444980621338
1772790626501940500,5.0829404296875,0.6220704913139343,-0.3092590570449829,-0.8721370697021484
1772790626512006400,5.09300634765625,0.6923643350601196,0.05968010798096657,-0.9642829298973083
1772790626522071300,5.1030712890625,0.6966243386268616,0.3561890125274658,-1.0081766843795776
1772790626532136400,5.113136474609375,0.6553037762641907,0.5066022276878357,-1.0635533332824707
1772790626542202400,5.123202392578125,0.6176339387893677,0.5123248100280762,-1.1365056037902832
1772790626552267300,5.133267333984375,0.591090738773346,0.4214950501918793,-1.0650221109390259
1772790626562333400,5.14333349609375,0.5315496325492859,0.31471532583236694,-0.819497287273407
1772790626572398300,5.1533984375,0.5753056406974792,0.22184744477272034,-0.511669933795929
1772790626582463500,5.16346337890625,0.6188960075378418,0.14284929633140564,-0.24311944842338562
1772790626592529400,5.173529296875,0.6420156955718994,0.12553715705871582,-0.04980830103158951
1772790626602594300,5.18359423828125,0.6425051689147949,0.19673089683055878,0.07606413960456848
1772790626612659500,5.193659423828125,0.6375120282173157,0.2584640383720398,0.13972221314907074
1772790626622725400,5.203725341796875,0.6507378220558167,0.22666829824447632,0.18973158299922943
1772790626632790300,5.213790283203125,0.6811463236808777,0.08009723573923111,0.2236245721578598
1772790626642856400,5.2238564453125,0.7150377035140991,-0.17514199018478394,0.41380730271339417
1772790626652921300,5.23392138671875,0.7315160036087036,-0.19095876812934875,0.6497582793235779
1772790626662986200,5.243986328125,0.6814632415771484,-0.13773389160633087,0.7894253730773926
1772790626673052400,5.254052490234375,0.6206638216972351,-0.00421365350484848,0.8760553598403931
1772790626683117300,5.264117431640625,0.6141558289527893,0.16453461349010468,1.0203044414520264
1772790626693183500,5.27418359375,0.5959855914115906,0.3892572224140167,1.1575075387954712
1772790626703248400,5.284248291015625,0.5208767652511597,0.8943515419960022,1.078864336013794
1772790626713313300,5.294313232421875,0.5146816968917847,1.1069234609603882,1.0210695266723633
1772790626723379500,5.30437939453125,0.5432702302932739,0.9748093485832214,0.9069400429725647
1772790626733444400,5.3144443359375,0.5333685874938965,0.7620768547058105,0.827491283416748
1772790626743509200,5.32450927734375,0.5156217813491821,0.70264732837677,0.7577435970306396
1772790626753575400,5.334575439453125,0.4012795090675354,0.7509970664978027,0.6894662976264954
1772790626763640300,5.344640380859375,0.20734013617038727,0.617311954498291,0.6446756720542908
1772790626773706500,5.35470654296875,0.01600293442606926,0.4469117224216461,0.6303326487541199
1772790626783771400,5.364771484375,-0.145474374294281,0.4702031910419464,0.8198104500770569
1772790626793836300,5.374836181640625,-0.2900773584842682,0.6179710626602173,1.401553750038147
1772790626803902500,5.38490234375,-0.3506315052509308,0.807388961315155,2.085313558578491
1772790626813967400,5.39496728515625,-0.3178061842918396,1.0270283222198486,2.3243377208709717
1772790626824032300,5.4050322265625,-0.2511959969997406,1.2171045541763306,2.0682554244995117
1772790626834098400,5.415098388671875,-0.1589507758617401,1.3672165870666504,1.6227116584777832
1772790626844163300,5.425163330078125,-0.06694387644529343,1.590712547302246,1.2130134105682373
1772790626854229500,5.4352294921875,0.017253288999199867,1.829092025756836,0.9066992998123169
1772790626864294400,5.44529443359375,0.06060262769460678,1.9894825220108032,0.6747995018959045
1772790626874359300,5.455359375,0.05752161517739296,1.9375247955322266,0.5111075043678284
1772790626884425500,5.465425537109375,0.008776447735726833,1.5876706838607788,0.37434056401252747
1772790626894490400,5.475490478515625,-0.046612244099378586,1.0567042827606201,0.21386967599391937
1772790626904555300,5.48555517578125,-0.050998467952013016,0.5176995992660522,-0.00914609432220459
1772790626914621400,5.495621337890625,0.04587321728467941,0.10503054410219193,-0.31161487102508545
1772790626924686300,5.505686279296875,0.19665393233299255,-0.13574211299419403,-0.6151760816574097
1772790626934752500,5.51575244140625,0.38194364309310913,-0.2242429554462433,-0.8277245759963989
1772790626944817400,5.5258173828125,0.5566169023513794,-0.27370426058769226,-0.9218856692314148
1772790626954882300,5.53588232421875,0.6536387801170349,-0.29601168632507324,-0.883302628993988
1772790626964948500,5.545948486328125,0.6710979342460632,-0.3012615740299225,-0.7153668999671936
1772790626975013400,5.556013427734375,0.6639963388442993,-0.41143760085105896,-0.5025669932365417
1772790626985079300,5.566079345703125,0.5949310064315796,-0.6880119442939758,-0.34930258989334106
1772790626995144400,5.57614453125,0.45017701387405396,-0.9138320088386536,-0.3847082555294037
1772790627005209300,5.586209228515625,0.449535995721817,-1.1442279815673828,-0.47458115220069885
1772790627015275500,5.596275634765625,0.4894692897796631,-1.241368055343628,-0.5183065533638
1772790627025340400,5.60634033203125,0.5545244812965393,-1.1849324703216553,-0.5604395866394043
1772790627035405300,5.6164052734375,0.6309524178504944,-0.9837738275527954,-0.6555485725402832
1772790627045471500,5.626471435546875,0.6865711808204651,-0.7590789198875427,-0.7177517414093018
1772790627055536400,5.636536376953125,0.7409835457801819,-0.4816015064716339,-0.7856924533843994
1772790627065602300,5.646602294921875,0.7720924615859985,-0.10453040152788162,-0.9079360365867615
1772790627075667500,5.65666748046875,0.8154284954071045,0.2684761881828308,-0.9893118739128113
1772790627085732400,5.666732421875,0.8540637493133545,0.5942684412002563,-0.994116485118866
1772790627095798500,5.676798583984375,0.8915925025939941,0.8824120759963989,-1.00530207157135
1772790627105863400,5.686863525390625,0.9243919849395752,1.069732427597046,-1.0342460870742798
1772790627115928300,5.69692822265625,0.9656981825828552,1.0757005214691162,-1.0404834747314453
1772790627125994500,5.706994384765625,1.0188367366790771,0.9308911561965942,-1.0355541706085205
1772790627136059400,5.717059326171875,1.0524442195892334,0.6746127605438232,-1.0558576583862305
1772790627146125300,5.727125244140625,1.034446120262146,0.3413242995738983,-1.0376075506210327
1772790627156190500,5.7371904296875,0.9695285558700562,0.03521045297384262,-0.9005287289619446
1772790627166255400,5.74725537109375,0.8663942217826843,-0.20651695132255554,-0.6510038375854492
1772790627176321500,5.757321533203125,0.7443697452545166,-0.3874012529850006,-0.3659854531288147
1772790627186386400,5.767386474609375,0.6059173345565796,-0.4619399309158325,-0.10045390576124191
1772790627196452400,5.777452392578125,0.4926919937133789,-0.45488041639328003,0.13343395292758942
1772790627206517500,5.787517578125,0.39642536640167236,-0.4365546703338623,0.3132631182670593
1772790627216582400,5.79758251953125,0.32004430890083313,-0.37881922721862793,0.4715597927570343
1772790627226648300,5.8076484375,0.26030534505844116,-0.37174853682518005,0.5773158073425293
1772790627236713500,5.81771337890625,0.23295681178569794,-0.37406226992607117,0.6208891272544861
1772790627246778400,5.8277783203125,0.19750268757343292,-0.3986983895301819,0.626878559589386
1772790627256844300,5.83784423828125,0.15293627977371216,-0.42092084884643555,0.5087391138076782
1772790627266909400,5.847909423828125,0.13348402082920074,-0.1599302738904953,0.26839444041252136
1772790627276975400,5.857975341796875,0.09809460490942001,0.20135362446308136,0.023194001987576485
1772790627287040500,5.86804052734375,0.060387708246707916,0.43194207549095154,-0.11566933989524841
1772790627297105400,5.87810546875,0.014859107322990894,0.5356636643409729,-0.0648903176188469
1772790627307171300,5.88817138671875,-0.039257656782865524,0.5468196868896484,0.20229238271713257
1772790627317236500,5.898236572265625,-0.09557099640369415,0.3854837715625763,0.5159118175506592
1772790627327301400,5.90830126953125,-0.15152348577976227,0.17336326837539673,0.764287531375885
1772790627337367300,5.9183671875,-0.20605570077896118,0.0683915764093399,0.8085977435112
1772790627347432400,5.928432373046875,-0.25075259804725647,0.08550851047039032,0.6827828288078308
1772790627357498400,5.938498291015625,-0.30542755126953125,0.15340286493301392,0.4660542607307434
1772790627367563500,5.9485634765625,-0.3980259299278259,0.24045628309249878,0.2707718312740326
1772790627377628400,5.95862841796875,-0.5038032531738281,0.2923721969127655,0.21363212168216705
1772790627387694300,5.9686943359375,-0.5821619629859924,0.3636394739151001,0.26751798391342163
1772790627397759500,5.978759521484375,-0.6252912878990173,0.4481130540370941,0.3145667314529419
1772790627407824400,5.988824462890625,-0.630381166934967,0.5026703476905823,0.265054315328598
1772790627417890300,5.998890380859375,-0.6121971011161804,0.4941561818122864,0.09323859959840775
1772790627427955500,6.00895556640625,-0.574726939201355,0.4457593560218811,-0.18271414935588837
1772790627438021400,6.019021484375,-0.5593200325965881,0.30289381742477417,-0.47775405645370483
1772790627448086500,6.02908642578125,-0.5302897095680237,0.07746842503547668,-0.7382948398590088
1772790627458151400,6.0391513671875,-0.4697006642818451,-0.2441442310810089,-0.920212984085083
1772790627468217300,6.04921728515625,-0.4091435670852661,-0.5510293245315552,-1.049858808517456
1772790627478282500,6.059282470703125,-0.37263110280036926,-0.7625961899757385,-1.142560601234436
1772790627488348400,6.069348388671875,-0.37449103593826294,-0.848868191242218,-1.099167823791504
1772790627498413300,6.079413330078125,-0.4078758955001831,-0.9761923551559448,-0.9242433905601501
1772790627508478500,6.089478515625,-0.4628813564777374,-1.1992543935775757,-0.6602202653884888
1772790627518544400,6.09954443359375,-0.5183693766593933,-1.4669082164764404,-0.3668195307254791
1772790627528609300,6.109609375,-0.5519222617149353,-1.6837468147277832,-0.1163543090224266
1772790627538674400,6.11967431640625,-0.5799326300621033,-1.7943687438964844,-0.008197209797799587
1772790627548740400,6.129740234375,-0.5936718583106995,-1.7635644674301147,-0.04800321161746979
1772790627558805500,6.139805419921875,-0.5969334244728088,-1.6142641305923462,-0.176296204328537
1772790627568871400,6.149871337890625,-0.5558432340621948,-1.3144561052322388,-0.33812692761421204
1772790627578936300,6.159936279296875,-0.5007568597793579,-0.8361590504646301,-0.5046588778495789
1772790627589001500,6.17000146484375,-0.4576013684272766,-0.28527969121932983,-0.5983656644821167
1772790627599067400,6.1800673828125,-0.4136464297771454,0.19479745626449585,-0.5503914952278137
1772790627609132300,6.19013232421875,-0.3607374131679535,0.5392261743545532,-0.3450455367565155
1772790627619198200,6.2001982421875,-0.31930315494537354,0.6814613938331604,-0.0931408628821373
1772790627629263400,6.210263427734375,-0.2787565290927887,0.6586782932281494,0.13927294313907623
1772790627639328500,6.22032861328125,-0.2346055805683136,0.4908437430858612,0.29440367221832275
1772790627649394200,6.230394287109375,-0.190304696559906,0.34251606464385986,0.32369738817214966
1772790627659459300,6.240459228515625,-0.15044888854026794,0.2536250650882721,0.2712536156177521
1772790627669524500,6.2505244140625,-0.13003762066364288,0.2088959515094757,0.17567701637744904
1772790627679590400,6.26059033203125,-0.11919642984867096,0.13944843411445618,0.0484229251742363
1772790627689655300,6.2706552734375,-0.12087395787239075,-0.013524863868951797,0.009879528544843197
1772790627699720400,6.280720458984375,-0.14634816348552704,-0.23782934248447418,0.10780289769172668
1772790627709786400,6.290786376953125,-0.21011541783809662,-0.37413445115089417,0.2693086862564087
1772790627719851500,6.3008515625,-0.29719066619873047,-0.39781659841537476,0.43906497955322266
1772790627729917200,6.310917236328125,-0.3648250997066498,-0.3591965138912201,0.5797379612922668
1772790627739982300,6.320982421875,-0.4237174391746521,-0.2601785957813263,0.5802010893821716
1772790627750047500,6.331047607421875,-0.4964286684989929,-0.059964001178741455,0.353600412607193
1772790627760113400,6.341113525390625,-0.5607176423072815,0.11605469882488251,-0.02069569006562233
1772790627770178300,6.35117822265625,-0.5987041592597961,0.2195856124162674,-0.4525536298751831
1772790627780244200,6.361244140625,-0.6685165166854858,0.26881495118141174,-0.7157351970672607
1772790627790309400,6.371309326171875,-0.7732155323028564,0.1601550430059433,-0.6604501008987427
1772790627800374500,6.38137451171875,-0.9052209854125977,-0.049733202904462814,-0.2913101315498352
1772790627810440200,6.391440185546875,-1.0067771673202515,-0.14851383864879608,0.16649045050144196
1772790627820505300,6.40150537109375,-1.091314673423767,-0.09803761541843414,0.4904765188694
1772790627830570500,6.411570556640625,-1.1844704151153564,-0.024287495762109756,0.5933735966682434
1772790627840636400,6.421636474609375,-1.2567830085754395,-0.0021406488958746195,0.5456675887107849
1772790627850701300,6.431701416015625,-1.3032817840576172,0.03359897434711456,0.5684165954589844
1772790627860767500,6.441767578125,-1.362778663635254,0.040113598108291626,0.7987467050552368
1772790627870832400,6.451832275390625,-1.3752816915512085,0.021541777998209,1.0999915599822998
1772790627880897300,6.461897216796875,-1.3429964780807495,0.0340394601225853,1.226696491241455
1772790627890963200,6.471963134765625,-1.301515817642212,0.021449897438287735,1.0636342763900757
1772790627901028400,6.4820283203125,-1.262039303779602,0.03729197755455971,0.680372416973114
1772790627911093500,6.492093505859375,-1.2407654523849487,0.013085441663861275,0.32370349764823914
1772790627921159400,6.502159423828125,-1.2650212049484253,-0.06365807354450226,0.1686989963054657
1772790627931224300,6.512224365234375,-1.3488268852233887,-0.2006465494632721,0.1513245403766632
1772790627941290500,6.52229052734375,-1.3911980390548706,-0.3803183138370514,0.19650746881961823
1772790627951355400,6.53235546875,-1.362532377243042,-0.6036017537117004,0.19248023629188538
1772790627961420300,6.542420166015625,-1.2925431728363037,-0.8212496042251587,0.0602143369615078
1772790627971486200,6.552486328125,-1.203693151473999,-0.9931585192680359,-0.16164322197437286
1772790627981551400,6.56255126953125,-1.1202658414840698,-1.114801049232483,-0.38581109046936035
1772790627991616500,6.572616455078125,-1.0578176975250244,-1.1381274461746216,-0.5157864093780518
1772790628001682200,6.58268212890625,-1.032503604888916,-1.1282343864440918,-0.5297293663024902
1772790628011747300,6.592747314453125,-1.0234466791152954,-1.1653566360473633,-0.4589998126029968
1772790628021813500,6.6028134765625,-1.0410075187683105,-1.225977897644043,-0.3329595923423767
1772790628031878400,6.61287841796875,-1.0746477842330933,-1.2136887311935425,-0.2363203912973404
1772790628041943300,6.622943359375,-1.0531878471374512,-1.0737318992614746,-0.16563424468040466
1772790628052009500,6.633009521484375,-1.0042144060134888,-1.0278276205062866,-0.05637139827013016
1772790628062074400,6.643074462890625,-0.9275861978530884,-0.7291839122772217,-0.015490543097257614
1772790628072139500,6.653139404296875,-0.8466846942901611,-0.21891289949417114,-0.24479083716869354
1772790628082205200,6.663205078125,-0.8028594255447388,0.1443643718957901,-0.4710303544998169
1772790628092270300,6.673270263671875,-0.7192913293838501,0.25394997000694275,-0.5258856415748596
1772790628102336500,6.68333642578125,-0.6390779614448547,0.2949317693710327,-0.4308776259422302
1772790628112401400,6.6934013671875,-0.5675380229949951,0.31578192114830017,-0.2855667769908905
1772790628122466300,6.70346630859375,-0.5423508882522583,0.31648287177085876,-0.15356318652629852
1772790628132532500,6.713532470703125,-0.5371822118759155,0.3387942910194397,-0.15433551371097565
1772790628142597400,6.723597412109375,-0.5736821889877319,0.4860452711582184,-0.3390190601348877
1772790628152662300,6.733662353515625,-0.589978039264679,0.610444962978363,-0.5792151689529419
1772790628162728200,6.743728271484375,-0.5926127433776855,0.8730174899101257,-0.6817391514778137
1772790628172793300,6.75379345703125,-0.540054440498352,0.9269095063209534,-0.5742933750152588
1772790628182859500,6.763859619140625,-0.45962032675743103,0.8634806871414185,-0.4553840458393097
1772790628192924400,6.77392431640625,-0.6630709171295166,0.36205169558525085,-0.23959927260875702
1772790628202989300,6.7839892578125,-0.8662221431732178,0.4311465919017792,0.0014253237750381231
1772790628213055500,6.794055419921875,-0.9512156248092651,0.5354133248329163,0.3371439278125763
1772790628223120400,6.804120361328125,-1.014812707901001,0.6167308688163757,0.6291121244430542
1772790628233186600,6.8141865234375,-1.092826247215271,0.5595519542694092,0.8209441900253296
1772790628243251200,6.824251220703125,-1.1353764533996582,0.2865247130393982,0.8447280526161194
1772790628253316400,6.83431640625,-1.1839269399642944,-0.22024235129356384,0.6333606839179993
1772790628263382500,6.844382568359375,-1.2537480592727661,-0.7194598913192749,0.30009910464286804
1772790628273447200,6.854447265625,-1.3782808780670166,-1.0042804479599,0.013760553672909737
1772790628283512300,6.86451220703125,-1.5540884733200073,-1.0897167921066284,-0.19475430250167847
1772790628293578500,6.87457861328125,-1.698240876197815,-0.953769862651825,-0.2888730764389038
1772790628303643400,6.884643310546875,-1.7772117853164673,-1.0854918956756592,-0.2540954053401947
1772790628313709600,6.89470947265625,-1.777827262878418,-1.3636138439178467,-0.05013347417116165
1772790628323774500,6.9047744140625,-1.7441340684890747,-1.5556095838546753,0.35696426033973694
1772790628333839400,6.91483935546875,-1.6864060163497925,-1.5128648281097412,0.7977927923202515
1772790628343905500,6.924905517578125,-1.6237514019012451,-1.3069385290145874,0.9586668610572815
1772790628353970200,6.93497021484375,-1.5649375915527344,-1.0323059558868408,0.8054816126823425
1772790628364035300,6.945035400390625,-1.5372120141983032,-0.6323827505111694,0.4951636791229248
1772790628374101500,6.9551015625,-1.5322552919387817,-0.1772163212299347,0.2683776617050171
1772790628384166100,6.965166259765625,-1.5282549858093262,0.1931942254304886,0.28505969047546387
1772790628394232300,6.975232421875,-1.499589204788208,0.4473809599876404,0.48589587211608887
1772790628404297500,6.98529736328125,-1.4694156646728516,0.47411030530929565,0.6954056620597839
1772790628414362000,6.995362060546875,-1.457352876663208,0.3188363015651703,0.8030804991722107
1772790628424428300,7.00542822265625,-1.4905978441238403,0.06189931929111481,0.7851507663726807
1772790628434493200,7.0154931640625,-1.4866009950637817,-0.27140727639198303,0.6255597472190857
1772790628444558300,7.025558349609375,-1.4689592123031616,-0.6075125932693481,0.40541115403175354
1772790628454624500,7.03562451171875,-1.4555813074111938,-0.7058098316192627,0.1347905695438385
1772790628464689200,7.045689208984375,-1.5101553201675415,-0.4687032997608185,-0.0833020806312561
1772790628474755300,7.05575537109375,-1.3961044549942017,-0.32517915964126587,-0.35880157351493835
1772790628484820500,7.065820556640625,-1.277091145515442,-0.27395591139793396,-0.6248686909675598
1772790628494885000,7.075885009765625,-1.2008750438690186,-0.24832938611507416,-0.7340028882026672
1772790628504951300,7.085951416015625,-1.1294492483139038,-0.07620581984519958,-0.6505266427993774
1772790628515016200,7.09601611328125,-1.0061302185058594,0.028120851144194603,-0.5448590517044067
1772790628525081300,7.106081298828125,-0.9147617220878601,0.0285248514264822,-0.44143280386924744
1772790628535147300,7.116147216796875,-0.848721981048584,-0.05180354416370392,-0.3893248438835144
1772790628545212200,7.126212158203125,-0.7894514799118042,-0.2164745181798935,-0.3588992953300476
1772790628555278300,7.1362783203125,-0.6463531851768494,-0.3280694782733917,-0.33015528321266174
1772790628565343500,7.146343505859375,-0.5949118137359619,-0.39028438925743103,-0.3541642129421234
1772790628575408000,7.156408203125,-0.6005726456642151,-0.30935412645339966,-0.44445228576660156
1772790628585474300,7.166474365234375,-0.5891205072402954,-0.20606687664985657,-0.569191038608551
1772790628595539500,7.17653955078125,-0.5944164991378784,-0.14024418592453003,-0.6898908019065857
1772790628605604400,7.186604248046875,-0.5731668472290039,-0.1119971051812172,-0.7870775461196899
1772790628615670300,7.196670166015625,-0.5455712080001831,-0.09994204342365265,-0.8822080492973328
1772790628625735200,7.206735107421875,-0.5277690291404724,-0.1053253561258316,-0.931348979473114
1772790628635801300,7.21680126953125,-0.5065462589263916,-0.11901000887155533,-0.9187748432159424
1772790628645866500,7.226866455078125,-0.47238990664482117,-0.1341753751039505,-0.8451027870178223
1772790628655931100,7.23693115234375,-0.4541667103767395,-0.18729719519615173,-0.7041935920715332
1772790628665997300,7.246997314453125,-0.44756072759628296,-0.24645797908306122,-0.5415180921554565
1772790628676062500,7.2570625,-0.45259249210357666,-0.21567609906196594,-0.39366766810417175
1772790628686127400,7.26712744140625,-0.512187123298645,-0.1830691546201706,-0.32889533042907715
1772790628696193300,7.277193359375,-0.5615554451942444,-0.18069814145565033,-0.3710518479347229
1772790628706258200,7.287258056640625,-0.6035961508750916,-0.25782063603401184,-0.5192825794219971
1772790628716324400,7.297324462890625,-0.6785409450531006,-0.45994362235069275,-0.6626706123352051
1772790628726389500,7.307389404296875,-0.7687334418296814,-0.7772542238235474,-0.7127686738967896
1772790628736454100,7.3174541015625,-0.8386049270629883,-0.9152818322181702,-0.6370893716812134
1772790628746520300,7.327520263671875,-0.9287779331207275,-0.884957492351532,-0.3568800985813141
1772790628756585500,7.33758544921875,-1.003810167312622,-0.7817155122756958,0.07960294932126999
1772790628766650000,7.347650146484375,-1.049034833908081,-0.6863293647766113,0.5258150696754456
1772790628776716300,7.35771630859375,-1.1276357173919678,-0.6168504357337952,0.7079696655273438
1772790628786781200,7.36778125,-1.2122602462768555,-0.6004677414894104,0.6029298305511475
1772790628796847400,7.377847412109375,-1.3533324003219604,-0.6560068726539612,0.3599722981452942
1772790628806912500,7.38791259765625,-1.4714689254760742,-0.7763341069221497,0.13438017666339874
1772790628816977200,7.39797705078125,-1.5397042036056519,-0.8638607263565063,0.1386265903711319
1772790628827043300,7.408043212890625,-1.5516575574874878,-0.9281121492385864,0.44424694776535034
1772790628837108500,7.4181083984375,-1.5040154457092285,-0.941887378692627,0.9453198909759521
1772790628847173000,7.428173095703125,-1.3790245056152344,-0.8198690414428711,1.4487266540527344
1772790628857239300,7.4382392578125,-1.266014814376831,-0.590640127658844,1.7456780672073364
1772790628867304400,7.448304443359375,-1.1546382904052734,-0.2685025632381439,1.7779710292816162
1772790628877370400,7.458370361328125,-1.0649828910827637,0.03576012700796127,1.6594656705856323
1772790628887435300,7.468435302734375,-0.9907974004745483,0.20061832666397095,1.5261141061782837
1772790628897500200,7.478500244140625,-0.8628138303756714,0.2542474567890167,1.4662946462631226
1772790628907566300,7.48856640625,-0.7989669442176819,0.20541706681251526,1.4903008937835693
1772790628917631500,7.498631591796875,-0.7633325457572937,-0.006512760184705257,1.5375312566757202
1772790628927696100,7.508696044921875,-0.7432994246482849,-0.29196128249168396,1.4476869106292725
1772790628937762300,7.51876220703125,-0.7962276339530945,-0.5278427600860596,1.1253160238265991
1772790628947827500,7.528827392578125,-1.0325112342834473,-0.693306565284729,0.6026794910430908
1772790628957893400,7.538893310546875,-0.9849096536636353,-0.9015721678733826,-0.05151938274502754
1772790628967958300,7.548958251953125,-0.794248640537262,-1.0075334310531616,-0.6753076314926147
1772790628978023200,7.559023193359375,-0.5982221364974976,-0.824655294418335,-1.1588990688323975
1772790628988089300,7.56908935546875,-0.3583381772041321,-0.5424432754516602,-1.4728326797485352
1772790628998154500,7.579154541015625,-0.09737875312566757,-0.2630521357059479,-1.620266079902649
1772790629008219100,7.58921923828125,0.10990839451551437,0.004539091605693102,-1.6069103479385376
1772790629018285300,7.599285400390625,0.18926286697387695,0.1499362289905548,-1.4498810768127441
1772790629028350500,7.6093505859375,0.20650391280651093,0.17972981929779053,-1.1875035762786865
1772790629038416400,7.61941650390625,0.2179749459028244,0.024867799133062363,-0.8341190814971924
1772790629048481300,7.629481201171875,0.19960232079029083,-0.20067238807678223,-0.48646578192710876
1772790629058546400,7.63954638671875,0.14017334580421448,-0.2991022765636444,-0.34274083375930786
1772790629068612400,7.6496123046875,0.05835891515016556,-0.22964145243167877,-0.3848768472671509
1772790629078677500,7.659677490234375,-0.01648683100938797,-0.054557785391807556,-0.5177560448646545
1772790629088742100,7.6697421875,-0.07250935584306717,0.18521831929683685,-0.7071672677993774
1772790629098808300,7.679808349609375,-0.12694703042507172,0.4514492154121399,-0.8777874708175659
1772790629108873500,7.68987353515625,-0.170619934797287,0.6541045904159546,-0.9891201257705688
1772790629118939400,7.699939453125,-0.19084185361862183,0.7453199625015259,-1.058592677116394
1772790629129004300,7.71000439453125,-0.2052394300699234,0.7928227782249451,-1.0329957008361816
1772790629139069400,7.7200693359375,-0.21536344289779663,0.7880061864852905,-0.8956037759780884
1772790629149135400,7.73013525390625,-0.2210644781589508,0.6800850629806519,-0.7070351839065552
1772790629159200300,7.7402001953125,-0.2004537433385849,0.4806230664253235,-0.5640753507614136
1772790629169265200,7.75026513671875,-0.18208831548690796,0.3022695779800415,-0.5317555069923401
1772790629179331300,7.760331298828125,-0.16682253777980804,0.16394978761672974,-0.5165048837661743
1772790629189396500,7.770396484375,-0.1652880311012268,0.10476023703813553,-0.49073830246925354
1772790629199462400,7.78046240234375,-0.16080805659294128,0.11083570122718811,-0.40499383211135864
1772790629209527300,7.79052734375,-0.14792954921722412,0.12404551357030869,-0.24996136128902435
1772790629219592400,7.800592529296875,-0.15313681960105896,0.16532424092292786,-0.053896788507699966
1772790629229658400,7.810658447265625,-0.16736368834972382,0.2635730504989624,0.17799876630306244
1772790629239723300,7.82072314453125,-0.23807941377162933,0.31202128529548645,0.43991026282310486
1772790629249788200,7.8307880859375,-0.2518516778945923,0.29108962416648865,0.6637356281280518
1772790629259854300,7.840854248046875,-0.2843949794769287,0.2383507788181305,0.7088975310325623
1772790629269919500,7.85091943359375,-0.33715885877609253,0.21551018953323364,0.5519188046455383
1772790629279985400,7.8609853515625,-0.3462364971637726,0.2273162454366684,0.2936915457248688
1772790629290050300,7.87105029296875,-0.33690932393074036,0.2181035727262497,0.033134251832962036
1772790629300115500,7.881115478515625,-0.36140933632850647,0.11847498267889023,-0.06309667974710464
1772790629310181400,7.891181396484375,-0.42327457666397095,-0.13960476219654083,0.14631646871566772
1772790629320246300,7.901246337890625,-0.34553050994873047,-0.34317681193351746,0.4994673430919647
1772790629330311400,7.9113115234375,-0.48659548163414,-0.6162501573562622,0.8235692381858826
1772790629340377300,7.92137744140625,-0.6368811130523682,-0.49061843752861023,1.1360983848571777
1772790629350442500,7.9314423828125,-0.6849136352539062,-0.30641746520996094,1.2895036935806274
1772790629360507100,7.941507080078125,-0.7250592112541199,-0.25468847155570984,1.3679296970367432
1772790629370573300,7.9515732421875,-0.7294707298278809,-0.16945800185203552,1.4068717956542969
1772790629380638500,7.961638427734375,-0.6822864413261414,-0.0010807107901200652,1.3159208297729492
1772790629390704400,7.971704345703125,-0.6208766102790833,0.19495777785778046,1.1171777248382568
1772790629400769500,7.98176953125,-0.5444747805595398,0.3313020169734955,0.89593905210495
1772790629410834400,7.99183447265625,-0.48377758264541626,0.36840519309043884,0.6192421913146973
1772790629420899300,8.0018994140625,-0.4468994736671448,0.28839239478111267,0.3736092746257782
1772790629430965500,8.011965576171875,-0.4235028028488159,0.1434658169746399,0.1754615753889084
1772790629441030400,8.022030517578125,-0.4001988172531128,-0.0006354302167892456,0.0002719087351579219
1772790629451096600,8.0320966796875,-0.35427552461624146,-0.09802643209695816,-0.14595560729503632
1772790629461161500,8.042161376953125,-0.252653568983078,-0.13097506761550903,-0.29314666986465454
1772790629471226400,8.052226318359375,-0.09328413754701614,-0.12543222308158875,-0.42078956961631775
1772790629481292500,8.06229248046875,0.10334103554487228,-0.0845620185136795,-0.5940651893615723
1772790629491357400,8.072357421875,0.28045883774757385,0.0718185305595398,-0.7244991064071655
1772790629501422300,8.08242236328125,0.4017176032066345,0.19678816199302673,-0.6961103677749634
1772790629511488500,8.092488525390625,0.4607234001159668,0.18733739852905273,-0.6241447925567627
1772790629521553400,8.102553466796875,0.45634517073631287,-0.0004982774262316525,-0.522948682308197
1772790629531618300,8.112618408203126,0.41591545939445496,-0.20467936992645264,-0.37147101759910583
1772790629541684500,8.1226845703125,0.3433435261249542,-0.3453936278820038,-0.2689265310764313
1772790629551749400,8.132749267578125,0.2562299072742462,-0.39176565408706665,-0.26219913363456726
1772790629561815600,8.142815673828125,0.16360943019390106,-0.3569836914539337,-0.35813602805137634
1772790629571880400,8.15288037109375,0.05555034428834915,-0.2301727533340454,-0.5155003666877747
1772790629581945300,8.1629453125,-0.03400776907801628,-0.06065935268998146,-0.6508893370628357
1772790629592011500,8.173011474609375,-0.1012219563126564,0.13107866048812866,-0.7689390182495117
1772790629602076400,8.183076416015625,-0.12776541709899902,0.24141715466976166,-0.8648104071617126
1772790629612141300,8.193141357421876,-0.0751354992389679,0.3356826603412628,-0.9984201788902283
1772790629622207500,8.20320751953125,-0.010329603217542171,0.4757292568683624,-1.1048542261123657
1772790629632272400,8.2132724609375,0.10471922159194946,0.5848664045333862,-1.152127981185913
1772790629642338600,8.223338623046875,0.20619231462478638,0.6412409543991089,-1.0996570587158203
1772790629652403500,8.233403564453125,0.2842485010623932,0.6229439973831177,-0.9432719349861145
1772790629662468400,8.24346826171875,0.31997719407081604,0.549103856086731,-0.7043091654777527
1772790629672534500,8.253534423828125,0.32787615060806274,0.39235687255859375,-0.44626590609550476
1772790629682599400,8.263599365234375,0.3136332929134369,0.20248199999332428,-0.26146623492240906
1772790629692664300,8.273664306640624,0.27433621883392334,0.03696334362030029,-0.17193447053432465
1772790629702730500,8.28373046875,0.23134933412075043,-0.0886603593826294,-0.11987074464559555
1772790629712795400,8.29379541015625,0.1973801851272583,-0.08913680166006088,-0.050034672021865845
1772790629722861600,8.303861572265625,0.16360704600811005,-0.0043982104398310184,0.10046561807394028
1772790629732926500,8.313926513671875,0.13621456921100616,0.06906801462173462,0.31408363580703735
1772790629742991400,8.323991455078126,0.11998739093542099,0.11038749665021896,0.5745290517807007
1772790629753057500,8.3340576171875,0.08134252578020096,0.17493745684623718,0.9305446743965149
1772790629763122400,8.344122314453125,0.05151086300611496,0.15294240415096283,1.2912746667861938
1772790629773187300,8.354187255859374,0.01878061145544052,-0.018562765792012215,1.4989337921142578
1772790629783253500,8.36425341796875,0.009150887839496136,-0.2061007022857666,1.3906656503677368
1772790629793318400,8.374318359375,0.0031411985401064157,-0.27131858468055725,0.9244425892829895
1772790629803384600,8.384384521484375,-0.036923930048942566,-0.21669769287109375,0.2562709152698517
1772790629813449500,8.394449462890625,-0.0832086056470871,-0.13049542903900146,-0.3211817443370819
1772790629823514400,8.404514404296876,-0.08842547237873077,-0.17517341673374176,-0.4019610285758972
1772790629833580500,8.41458056640625,-0.023682426661252975,-0.33021998405456543,0.20493556559085846
1772790629843645400,8.4246455078125,0.08161816000938416,-0.42049023509025574,1.2537280321121216
1772790629853710300,8.43471044921875,0.13931980729103088,-0.3493689298629761,2.13348126411438
1772790629863776500,8.444776611328125,0.13435594737529755,-0.23524101078510284,2.3238272666931152
1772790629873841400,8.45484130859375,0.0678701251745224,-0.1697690635919571,1.9322773218154907
1772790629883907300,8.4649072265625,-0.010835870169103146,-0.07352055609226227,1.3192490339279175
1772790629893972500,8.474972412109375,-0.09886905550956726,0.04603167250752449,0.8487747311592102
1772790629904037400,8.485037353515626,-0.16515247523784637,0.07052689790725708,0.695098876953125
1772790629914103600,8.495103515625,-0.20136906206607819,0.07847776263952255,0.6963801383972168
1772790629924168400,8.50516845703125,-0.22036485373973846,0.08822200447320938,0.6275531053543091
1772790629934233300,8.5152333984375,-0.2064916491508484,0.16010791063308716,0.4047791659832001
1772790629944299500,8.525299560546875,-0.1704188734292984,0.26741093397140503,0.088558629155159
1772790629954364400,8.535364501953126,-0.1375943422317505,0.31684958934783936,-0.24084191024303436
1772790629964430300,8.545430419921875,-0.09513583779335022,0.2597804367542267,-0.5225076675415039
1772790629974495500,8.55549560546875,-0.03157550469040871,0.1071791872382164,-0.7505800127983093
1772790629984560400,8.565560302734376,0.07472856342792511,-0.07710490375757217,-0.9201549291610718
1772790629994626600,8.57562646484375,0.1508006900548935,-0.1755310744047165,-1.0102778673171997
1772790630004691500,8.58569140625,0.248806893825531,-0.13517247140407562,-0.9693309664726257
1772790630014756400,8.59575634765625,0.33214038610458374,-0.10088826715946198,-0.8329946994781494
1772790630024822500,8.605822509765625,0.3669061064720154,-0.14124128222465515,-0.6731371283531189
1772790630034887700,8.6158876953125,0.35310959815979004,-0.2396530658006668,-0.5368245840072632
1772790630044952300,8.625952392578125,0.3054041266441345,-0.3365772068500519,-0.43447715044021606
1772790630055018500,8.6360185546875,0.2458188235759735,-0.38745105266571045,-0.3970509469509125
1772790630065083400,8.64608349609375,0.18896272778511047,-0.32947245240211487,-0.47163811326026917
1772790630075149600,8.656149658203125,0.14230068027973175,-0.22557693719863892,-0.6306620836257935
1772790630085214500,8.66621435546875,0.0995018258690834,-0.14656546711921692,-0.8017041683197021
1772790630095279400,8.676279296875,0.06586210429668427,-0.16312314569950104,-0.9354094862937927
1772790630105345500,8.686345458984375,0.043586358428001404,-0.2108192890882492,-0.9908783435821533
1772790630115410400,8.696410400390626,0.0633627250790596,-0.23663385212421417,-0.9735616445541382
1772790630125475300,8.706475341796875,0.11833436787128448,-0.1909065693616867,-0.8923667073249817
1772790630135541500,8.71654150390625,0.19681160151958466,-0.05754691734910011,-0.7991938591003418
1772790630145606400,8.7266064453125,0.28899532556533813,0.07482390850782394,-0.7071923017501831
1772790630155672600,8.736672607421875,0.3912005126476288,0.16594769060611725,-0.6402835845947266
1772790630165737500,8.746737548828126,0.48051440715789795,0.2209499627351761,-0.5778867602348328
1772790630175802400,8.75680224609375,0.5525739789009094,0.25084367394447327,-0.483501672744751
1772790630185868500,8.76686865234375,0.598048210144043,0.2492460459470749,-0.32009944319725037
1772790630195933400,8.776933349609376,0.6179755926132202,0.20298880338668823,-0.07290004193782806
1772790630205999400,8.786999267578125,0.6136460900306702,0.09869728237390518,0.20955641567707062
1772790630216064500,8.797064453125,0.5754119157791138,-0.015966182574629784,0.44461607933044434
1772790630226129400,8.80712939453125,0.5255796313285828,-0.06636810302734375,0.590867280960083
1772790630236195300,8.8171953125,0.4802667498588562,-0.06554518640041351,0.6873709559440613
1772790630246260500,8.827260498046876,0.4499245584011078,-0.0713500827550888,0.767273485660553
1772790630256325400,8.837325439453124,0.42900222539901733,-0.08457001298666,0.8376709222793579
1772790630266391600,8.8473916015625,0.40363508462905884,-0.07363826781511307,0.8901227116584778
1772790630276456400,8.85745654296875,0.36285996437072754,-0.008351407013833523,0.9335841536521912
1772790630286521300,8.867521240234375,0.3281690776348114,0.013640711084008217,0.9543147683143616
1772790630296587500,8.87758740234375,0.3036530911922455,0.01938488334417343,0.8708198666572571
1772790630306652700,8.887652587890624,0.2712024748325348,-0.00021891183860134333,0.5870528221130371
1772790630316718300,8.89771826171875,0.24721378087997437,-0.03226020187139511,0.11157926172018051
1772790630326783500,8.907783447265626,0.24308668076992035,-0.09581254422664642,-0.32567450404167175
1772790630336848400,8.917848388671874,0.2658199667930603,-0.21184514462947845,-0.4926360547542572
1772790630346914600,8.92791455078125,0.25473615527153015,-0.3127179741859436,-0.3326205611228943
1772790630356979500,8.9379794921875,0.16151513159275055,-0.3540954887866974,0.13198892772197723
1772790630367044400,8.94804443359375,0.02635277807712555,-0.39317765831947327,0.7076748609542847
1772790630377110500,8.958110595703126,-0.06953513622283936,-0.4072551131248474,1.1795259714126587
1772790630387175700,8.96817578125,-0.11168711632490158,-0.3216366171836853,1.400708794593811
1772790630397241600,8.97824169921875,-0.11447011679410934,-0.06833618134260178,1.4228053092956543
1772790630407306800,8.988306640625,-0.1233416423201561,0.2827443480491638,1.2673977613449097
1772790630417371600,8.99837158203125,-0.11749200522899628,0.530264139175415,1.0152941942214966
1772790630427437600,9.0084375,-0.0820796862244606,0.6232417225837708,0.8524283170700073
1772790630437502700,9.018502685546874,-0.011108044534921646,0.6237610578536987,0.8630026578903198
1772790630447567600,9.028567626953125,0.05801323428750038,0.5709851980209351,1.001509666442871
1772790630457633800,9.0386337890625,0.08636125177145004,0.4662744998931885,1.0867310762405396
1772790630467698700,9.04869873046875,0.06851407885551453,0.29912999272346497,1.0481996536254883
1772790630477764600,9.0587646484375,0.04911428317427635,0.15128405392169952,0.8097525238990784
1772790630487829800,9.068829833984376,0.04719201475381851,0.11813756078481674,0.38015294075012207
1772790630497894400,9.078894287109375,0.08757033199071884,0.16789312660694122,-0.12106037884950638
1772790630507960600,9.088960693359375,0.17008917033672333,0.18704073131084442,-0.5416653752326965
1772790630518025700,9.099025634765624,0.28025802969932556,0.20745998620986938,-0.8528813123703003
1772790630528090600,9.109090576171875,0.38391438126564026,0.2567146122455597,-1.0197489261627197
1772790630538156800,9.11915673828125,0.4578876793384552,0.30029964447021484,-0.9920493364334106
1772790630548221700,9.1292216796875,0.5024594068527222,0.31255602836608887,-0.8191958069801331
1772790630558286600,9.13928662109375,0.5180087685585022,0.2954005002975464,-0.616414487361908
1772790630568352800,9.149352783203126,0.48451370000839233,0.2623370885848999,-0.47993916273117065
1772790630578417700,9.159417724609375,0.40503671765327454,0.24633601307868958,-0.43523216247558594
1772790630588483600,9.169483642578125,0.3165358603000641,0.2382059097290039,-0.4762895703315735
1772790630598548700,9.179548828125,0.25269243121147156,0.20417895913124084,-0.5888733863830566
1772790630608613600,9.189613525390625,0.2133229374885559,0.1523040533065796,-0.7773407697677612
1772790630618679600,9.199679443359376,0.2155890166759491,0.09524103254079819,-1.0221965312957764
1772790630628744700,9.20974462890625,0.2550637125968933,0.051307663321495056,-1.247562050819397
1772790630638810600,9.219810546875,0.30416709184646606,0.031790684908628464,-1.380235195159912
1772790630648875800,9.229875732421876,0.37986958026885986,-0.0073260897770524025,-1.395210862159729
1772790630658940700,9.239940673828125,0.4689541757106781,-0.0033867419697344303,-1.2846343517303467
1772790630669006600,9.250006591796875,0.5627291202545166,0.006665625609457493,-1.0845662355422974
1772790630679071700,9.26007177734375,0.654975414276123,0.013615943491458893,-0.8500895500183105
1772790630689136600,9.27013671875,0.7215629816055298,0.00321896281093359,-0.6381983160972595
1772790630699202600,9.28020263671875,0.7536218762397766,-0.04575071111321449,-0.47708532214164734
1772790630709267700,9.290267822265625,0.7419697046279907,-0.11790452897548676,-0.3700707256793976
1772790630719332600,9.30033251953125,0.6922639608383179,-0.19575698673725128,-0.26237356662750244
1772790630729398800,9.310398681640624,0.6154890060424805,-0.28035229444503784,-0.12317918986082077
1772790630739463700,9.320463623046875,0.5184106826782227,-0.40710359811782837,0.0593823678791523
1772790630749529600,9.330529541015625,0.421520859003067,-0.5655661821365356,0.2941328287124634
1772790630759594800,9.3405947265625,0.32076576352119446,-0.7439766526222229,0.5180753469467163
1772790630769659600,9.35065966796875,0.2257939875125885,-0.8910406827926636,0.6775249242782593
1772790630779725600,9.3607255859375,0.14671380817890167,-0.8752039670944214,0.7777972221374512
1772790630789790700,9.370790771484375,0.06700513511896133,-0.6712321639060974,0.8846057057380676
1772790630799855600,9.380855712890625,0.03244795277714729,-0.44802892208099365,1.0091884136199951
1772790630809921800,9.390921875,0.02448137477040291,-0.33147913217544556,1.0728821754455566
1772790630819986700,9.400986572265625,-0.006502374075353146,-0.27204403281211853,0.9769958257675171
1772790630830052600,9.411052490234376,-0.04525376483798027,-0.2588701844215393,0.6571480631828308
1772790630840117800,9.42111767578125,-0.07565028965473175,-0.2664117217063904,0.2728951871395111
1772790630850182700,9.4311826171875,-0.09717635065317154,-0.23704743385314941,0.08193401247262955
1772790630860248600,9.44124853515625,-0.14646880328655243,-0.2395678460597992,0.17536436021327972
1772790630870313700,9.451313720703125,-0.10112741589546204,0.0007142598042264581,0.48959314823150635
1772790630880378600,9.461378662109375,-0.18402203917503357,0.017706824466586113,0.7308869957923889
1772790630890444800,9.47144482421875,-0.3264563977718353,-0.034809913486242294,0.812621533870697
1772790630900509700,9.481509765625,-0.3480690121650696,0.0424015186727047,0.7657874226570129
1772790630910575600,9.49157568359375,-0.36115580797195435,0.13246722519397736,0.6219884753227234
1772790630920640800,9.501640869140624,-0.3359500467777252,0.2397766411304474,0.4572426378726959
1772790630930705700,9.51170556640625,-0.2652902603149414,0.41562142968177795,0.24063950777053833
1772790630940771600,9.521771484375,-0.19867128133773804,0.6499670743942261,0.078733429312706
1772790630950836700,9.531836669921875,-0.1324043720960617,0.7905505895614624,-0.00392736354842782
1772790630960901600,9.541901611328125,-0.07121079415082932,0.8877578377723694,-0.038659244775772095
1772790630970967600,9.551967529296874,0.012819391675293446,0.8982632160186768,-0.08727791160345078
1772790630981032700,9.56203271484375,0.09620323032140732,0.7523254156112671,-0.15072932839393616
1772790630991098600,9.5720986328125,0.1440301388502121,0.5459762215614319,-0.27282753586769104
1772790631001163800,9.582163818359374,0.15268434584140778,0.3815705180168152,-0.4252687394618988
1772790631011228700,9.592228759765625,0.1531248390674591,0.263528048992157,-0.5316665768623352
1772790631021294600,9.602294677734376,0.16607765853405,0.1365293562412262,-0.6371508836746216
1772790631031359700,9.61235986328125,0.19170498847961426,0.06542854011058807,-0.7230815291404724
1772790631041424600,9.622424560546875,0.2547726333141327,0.03566904738545418,-0.8016572594642639
1772790631051490600,9.632490478515624,0.3273634910583496,0.07106352597475052,-0.8405902981758118
1772790631061555700,9.6425556640625,0.3734241724014282,0.07972279191017151,-0.7928784489631653
1772790631071621600,9.65262158203125,0.3777291774749756,-0.029860693961381912,-0.7047832012176514
1772790631081686800,9.662686767578125,0.3579230010509491,-0.21405397355556488,-0.6394063234329224
1772790631091751700,9.672751708984375,0.3104918301105499,-0.39656147360801697,-0.6223077774047852
1772790631101817600,9.682817626953126,0.24133166670799255,-0.47170546650886536,-0.6428122520446777
1772790631111882800,9.6928828125,0.16839194297790527,-0.49733468890190125,-0.640333890914917
1772790631121947600,9.70294775390625,0.10453733056783676,-0.5110848546028137,-0.5700517296791077
1772790631132013600,9.713013671875,0.06807465851306915,-0.46790647506713867,-0.46149227023124695
1772790631142078700,9.72307861328125,0.06703176349401474,-0.3499646782875061,-0.3020506799221039
1772790631152143600,9.7331435546875,0.06601177155971527,-0.17911195755004883,-0.09585462510585785
1772790631162209800,9.743209716796875,0.0642562210559845,-0.04326837882399559,0.14426955580711365
1772790631172274700,9.753274658203125,0.09886719286441803,0.10898933559656143,0.37070244550704956
1772790631182340600,9.763340576171874,0.11359207332134247,0.2492455095052719,0.5485118627548218
1772790631192405800,9.77340576171875,0.14931970834732056,0.30694690346717834,0.6579243540763855
1772790631202470700,9.783470703125,0.20363515615463257,0.2777043282985687,0.698309600353241
1772790631212536600,9.79353662109375,0.25498276948928833,0.2065473198890686,0.65400630235672
1772790631222601700,9.803601806640625,0.3036762475967407,0.07975900918245316,0.5779253840446472
1772790631232666600,9.81366650390625,0.3407306969165802,-0.14093075692653656,0.5376136302947998
1772790631242732500,9.823732666015625,0.34819766879081726,-0.3109522759914398,0.5310447216033936
1772790631252797700,9.833797607421875,0.3522038459777832,-0.32927802205085754,0.5252200961112976
1772790631262863600,9.843863525390624,0.3241005837917328,-0.2653469741344452,0.5709708333015442
1772790631272928800,9.8539287109375,0.27401265501976013,-0.18238471448421478,0.6594812273979187
1772790631282993700,9.86399365234375,0.22310444712638855,-0.10166670382022858,0.7886844873428345
1772790631293059600,9.8740595703125,0.1658978909254074,-0.045098766684532166,0.9321386218070984
1772790631303124700,9.884124755859375,0.12947064638137817,0.012064119800925255,1.0437932014465332
1772790631313189600,9.894189697265626,0.11820413917303085,0.07056844234466553,1.0842043161392212
1772790631323255600,9.904255615234375,0.10096336901187897,0.02214205451309681,1.040819764137268
1772790631333320700,9.91432080078125,0.05946971848607063,0.06149265542626381,0.8389135599136353
1772790631343386600,9.92438671875,-0.03551431745290756,0.1125371977686882,0.5837728977203369
1772790631353451800,9.93445166015625,-0.11013901978731155,0.028902221471071243,0.33225545287132263
1772790631363516700,9.9445166015625,-0.20395871996879578,-0.031131820753216743,0.24594345688819885
1772790631373582600,9.95458251953125,-0.3029082119464874,-0.08107408136129379,0.40417543053627014
1772790631383647700,9.964647705078125,-0.35369840264320374,-0.04135303199291229,0.7153308987617493
1772790631393716000,9.974716064453125,-0.3941401243209839,0.10016388446092606,0.9907824993133545
1772790631403782000,9.984781982421875,-0.42487379908561707,0.31132805347442627,1.1405173540115356
1772790631413847000,9.994846923828124,-0.42935216426849365,0.5118331909179688,1.159323811531067
1772790631423913000,10.004912841796875,-0.43488994240760803,0.6554715633392334,1.1258044242858887
1772790631433977900,10.014977783203125,-0.44844329357147217,0.6973660588264465,1.0768049955368042
1772790631444043000,10.02504296875,-0.4612709581851959,0.7111436128616333,0.9145697355270386
1772790631454109000,10.03510888671875,-0.4845730662345886,0.7422086000442505,0.6494981050491333
1772790631464173800,10.045173828125,-0.5005522966384888,0.7299000024795532,0.3971068859100342
1772790631474239000,10.055239013671875,-0.4981602430343628,0.6846504807472229,0.2606707513332367
1772790631484305000,10.065304931640625,-0.48229554295539856,0.620073139667511,0.2068229466676712
1772790631494370000,10.0753701171875,-0.4793873727321625,0.5280337333679199,0.14821450412273407
1772790631504435700,10.085435791015625,-0.48599973320961,0.4394623339176178,0.052205681800842285
1772790631514500900,10.0955009765625,-0.46094444394111633,0.3668304681777954,-0.07323453575372696
1772790631524566000,10.10556591796875,-0.41465070843696594,0.3089754283428192,-0.25519341230392456
1772790631534632000,10.1156318359375,-0.3540582060813904,0.25152143836021423,-0.495447039604187
1772790631544696800,10.12569677734375,-0.26122814416885376,0.1918085813522339,-0.7532532811164856
1772790631554762000,10.135761962890625,-0.13587979972362518,0.17411373555660248,-0.934633195400238
1772790631564828000,10.145827880859375,0.011773568578064442,0.1821223944425583,-0.9867373704910278
1772790631574893000,10.15589306640625,0.15245665609836578,0.1949697583913803,-0.9184531569480896
1772790631584958000,10.1659580078125,0.2686213254928589,0.1480208933353424,-0.7925559282302856
1772790631595024000,10.17602392578125,0.34980273246765137,0.014960307627916336,-0.7263897061347961
1772790631605089000,10.186089111328124,0.36733272671699524,-0.15889963507652283,-0.7901545763015747
1772790631615155000,10.196155029296875,0.33650824427604675,-0.2829161286354065,-0.9743297100067139
1772790631625219800,10.2062197265625,0.24063391983509064,-0.32291334867477417,-1.1706289052963257
1772790631635285000,10.216284912109375,0.1273997724056244,-0.32378366589546204,-1.2779767513275146
1772790631645351000,10.226350830078125,0.024329841136932373,-0.29504868388175964,-1.2033828496932983
1772790631655415800,10.236415771484374,-0.04462872073054314,-0.3041106164455414,-0.9675173759460449
1772790631665481700,10.246481689453125,-0.0607786625623703,-0.34672120213508606,-0.6548899412155151
1772790631675547000,10.256546875,-0.046977363526821136,-0.35208988189697266,-0.3786221444606781
1772790631685612000,10.266612060546874,0.004680505488067865,-0.3181478679180145,-0.20846451818943024
1772790631695678000,10.276677978515625,0.07805059105157852,-0.2536002993583679,-0.1401781439781189
1772790631705742800,10.286742919921876,0.14044126868247986,-0.21242597699165344,-0.11189324408769608
1772790631715808000,10.29680810546875,0.18052689731121063,-0.22639372944831848,-0.09253552556037903
1772790631725874000,10.3068740234375,0.2095753252506256,-0.25871971249580383,-0.03410230949521065
1772790631735938800,10.316938720703124,0.24190184473991394,-0.28726905584335327,0.04777844250202179
1772790631746004000,10.32700390625,0.2656838595867157,-0.26607295870780945,0.12056982517242432
1772790631756070000,10.33706982421875,0.27754878997802734,-0.1902218759059906,0.15513205528259277
1772790631766135000,10.347135009765625,0.2782353460788727,-0.1088884025812149,0.1885443478822708
1772790631776201000,10.357200927734375,0.2663504481315613,-0.042020153254270554,0.23975320160388947
1772790631786265900,10.367265869140626,0.2415716052055359,0.02467179112136364,0.30069538950920105
1772790631796331000,10.3773310546875,0.18971267342567444,0.08128499984741211,0.3851378262042999
1772790631806397000,10.38739697265625,0.1359807401895523,0.07640688866376877,0.48877236247062683
1772790631816461800,10.3974619140625,0.09053122997283936,0.053711432963609695,0.6338637471199036
1772790631826527000,10.40752685546875,0.048297759145498276,0.05868088826537132,0.7779809832572937
1772790631836593000,10.417593017578126,0.02509656548500061,0.07551712542772293,0.8580273389816284
1772790631846658000,10.427657958984375,0.023072030395269394,0.13394847512245178,0.8966019153594971
1772790631856723700,10.4377236328125,0.02839329093694687,0.1538902372121811,0.868439793586731
1772790631866788900,10.447788818359374,0.025130121037364006,0.12036556005477905,0.7611293196678162
1772790631876854000,10.45785400390625,0.0205119326710701,0.10221132636070251,0.5664871335029602
1772790631886920000,10.467919921875,-0.0016977651976048946,0.1148940920829773,0.22134970128536224
1772790631896984800,10.47798486328125,-0.024042485281825066,0.1278117597103119,-0.25128576159477234
1772790631907050000,10.488050048828125,-0.05342407524585724,0.1862279325723648,-0.6299678087234497
1772790631917116000,10.498115966796876,-0.10155937820672989,0.18374159932136536,-0.6771047115325928
1772790631927181000,10.50818115234375,-0.1377091258764267,0.07515067607164383,-0.40187740325927734
1772790631937246700,10.518246826171875,-0.17853166162967682,-0.004118045791983604,-0.06534891575574875
1772790631947311900,10.528311767578124,-0.23196452856063843,0.01689988747239113,0.0480831079185009
1772790631957377000,10.538376953125,-0.27143657207489014,0.08586164563894272,-0.03614442050457001
1772790631967443000,10.54844287109375,-0.2551785111427307,0.16158835589885712,-0.12318158894777298
1772790631977507800,10.5585078125,-0.2105034440755844,0.23910978436470032,-0.04308115690946579
1772790631987573000,10.568572998046875,-0.1631029099225998,0.26950445771217346,0.1964121162891388
1772790631997639000,10.578638916015626,-0.13869822025299072,0.27790379524230957,0.45039620995521545
1772790632007703800,10.588703857421875,-0.13455142080783844,0.28297045826911926,0.5560240745544434
1772790632017769700,10.598769775390625,-0.14412760734558105,0.34208038449287415,0.4940083920955658
1772790632027835000,10.6088349609375,-0.17011287808418274,0.3851484954357147,0.3078955113887787
1772790632037900000,10.618900146484375,-0.21446196734905243,0.34420716762542725,0.06227296218276024
1772790632047966000,10.628966064453126,-0.2477315068244934,0.22936341166496277,-0.21122196316719055
1772790632058030800,10.63903076171875,-0.2608148157596588,0.10554400086402893,-0.48320847749710083
1772790632068096000,10.649095947265625,-0.2358357012271881,0.026153041049838066,-0.7372868061065674
1772790632078162000,10.659161865234376,-0.19161976873874664,0.00037683729897253215,-0.9505466222763062
1772790632088226800,10.669226806640625,-0.12998303771018982,0.021224861964583397,-1.0583564043045044
1772790632098292000,10.6792919921875,-0.06567461788654327,-0.0016234630020335317,-1.0641136169433594
1772790632108358000,10.68935791015625,-0.016394685953855515,-0.0850142240524292,-1.0109386444091797
1772790632118423000,10.699423095703125,0.003923369105905294,-0.16980554163455963,-0.9448120594024658
1772790632128488700,10.70948876953125,0.0029643645975738764,-0.28821635246276855,-0.8835026025772095
1772790632138553900,10.719553955078124,-0.0052016861736774445,-0.3892636001110077,-0.8809491991996765
1772790632148619000,10.729618896484375,-0.017967814579606056,-0.39985525608062744,-0.9316789507865906
1772790632158685000,10.739684814453126,-0.03039705380797386,-0.3690057396888733,-0.9673746228218079
1772790632168749800,10.749749755859375,-0.04887246713042259,-0.3808938264846802,-0.9368507862091064
1772790632178815000,10.75981494140625,-0.05684783682227135,-0.40106645226478577,-0.8287384510040283
1772790632188881000,10.769880859375,-0.05134521424770355,-0.4146893322467804,-0.652127742767334
1772790632198946000,10.779946044921875,-0.014604508876800537,-0.4342779517173767,-0.4472624659538269
1772790632209011700,10.79001171875,0.02304965816438198,-0.41412606835365295,-0.27283766865730286
1772790632219076900,10.800076904296875,0.06466261297464371,-0.3642999231815338,-0.14587464928627014
1772790632229142000,10.81014208984375,0.09729219973087311,-0.2836942970752716,-0.06747757643461227
1772790632239208000,10.8202080078125,0.13663586974143982,-0.19543926417827606,-0.011173025704920292
1772790632249272800,10.83027294921875,0.17419922351837158,-0.07780132442712784,0.040772464126348495
1772790632259338000,10.840337890625,0.20475047826766968,0.035654399544000626,0.11174890398979187
1772790632269404000,10.85040380859375,0.23727700114250183,0.06540217250585556,0.2031342089176178
1772790632279468800,10.86046875,0.2552509307861328,0.0498993843793869,0.3095613121986389
1772790632289534700,10.87053466796875,0.2844807207584381,0.10974141210317612,0.4198308289051056
1772790632299600000,10.880599853515625,0.30685102939605713,0.2164825052022934,0.5036764740943909
1772790632309665000,10.8906650390625,0.33567866683006287,0.3125840127468109,0.563213586807251
1772790632319731000,10.90073095703125,0.35949239134788513,0.4367413818836212,0.606184184551239
1772790632329795800,10.9107958984375,0.3715818226337433,0.6775936484336853,0.743512749671936
1772790632339861000,10.920861083984375,0.3965201675891876,0.7042830586433411,0.730282723903656
1772790632349927000,10.930927001953124,0.4515394866466522,0.38684067130088806,0.6491897106170654
1772790632359991800,10.94099169921875,0.4531419277191162,0.07477250695228577,0.6710862517356873
1772790632370057000,10.951056884765626,0.42486047744750977,-0.14896337687969208,0.7286770939826965
1772790632380123000,10.961122802734375,0.36048123240470886,-0.297823429107666,0.7234370708465576
1772790632390184700,10.971184814453125,0.26343801617622375,-0.4339437186717987,0.6918796300888062
1772790632400250600,10.981250732421875,0.14612604677677155,-0.4869494140148163,0.5951624512672424
1772790632410315800,10.991315673828124,0.026011893525719643,-0.4409520924091339,0.4079643189907074
1772790632420380700,11.001380615234375,-0.036556944251060486,-0.3574497401714325,0.08700786530971527
1772790632430446600,11.011446533203125,-0.13252954185009003,-0.3796099126338959,-0.3481888771057129
1772790632440511700,11.02151171875,-0.19800522923469543,-0.42612573504447937,-0.7450134754180908
