time,seconds_elapsed,z,y,x
1772790835808722700,0.06672265625,-0.1175929456949234,0.39258483052253723,-0.2293783277273178
1772790835818787800,0.076787841796875,-0.14591938257217407,0.2763804495334625,-0.1378049999475479
1772790835828853800,0.086853759765625,-0.17868399620056152,0.06999240070581436,-0.05413993448019028
1772790835838918700,0.096918701171875,-0.2050410360097885,-0.13706783950328827,0.0363987535238266
1772790835848983800,0.10698388671875,-0.19174893200397491,-0.34554940462112427,0.10095670819282532
1772790835859049000,0.117049072265625,-0.16915281116962433,-0.5394200682640076,0.14536118507385254
1772790835869114600,0.127114501953125,-0.18427716195583344,-0.6772485375404358,0.16852164268493652
1772790835879179800,0.1371796875,-0.17311719059944153,-0.7687251567840576,0.15511874854564667
1772790835889244700,0.14724462890625,-0.16612611711025238,-0.8270366787910461,0.10868147015571594
1772790835899310800,0.157310791015625,-0.14106817543506622,-0.8622255325317383,0.0710374265909195
1772790835909375700,0.167375732421875,-0.10503054410219193,-0.8746334910392761,0.024561801925301552
1772790835919440600,0.177440673828125,-0.07880373299121857,-0.5067114233970642,-0.20743787288665771
1772790835929505800,0.187505859375,-0.12371475249528885,-0.1639777570962906,-0.3852217197418213
1772790835939571700,0.19757177734375,-0.10297991335391998,0.09325245022773743,-0.554477870464325
1772790835949636600,0.20763671875,-0.06685386598110199,0.22191642224788666,-0.6869397759437561
1772790835959701800,0.21770166015625,-0.07986181229352951,0.2545313537120819,-0.7413023114204407
1772790835969768000,0.227767822265625,-0.11810906231403351,0.2798375189304352,-0.7526370286941528
1772790835979832600,0.23783251953125,-0.16433008015155792,0.2899489998817444,-0.7409625053405762
1772790835989897700,0.247897705078125,-0.19882415235042572,0.27087703347206116,-0.7171165943145752
1772790835999963000,0.257962890625,-0.2143612951040268,0.23698830604553223,-0.6723991632461548
1772790836010028800,0.26802880859375,-0.2103886604309082,0.1685733050107956,-0.624252438545227
1772790836020093700,0.27809375,-0.20109449326992035,0.0722089484333992,-0.5804162621498108
1772790836030158800,0.288158935546875,-0.19220513105392456,0.03290841355919838,-0.5439549088478088
1772790836040224800,0.298224853515625,-0.20085108280181885,0.0318218469619751,-0.526096522808075
1772790836050289700,0.30828955078125,-0.2101476490497589,0.02701137773692608,-0.49791765213012695
1772790836060354800,0.318354736328125,-0.2100808024406433,0.009401490911841393,-0.4651589095592499
1772790836070419700,0.328419677734375,-0.21086563169956207,-0.01872148923575878,-0.4362505376338959
1772790836080486000,0.33848583984375,-0.22283786535263062,-0.02875468321144581,-0.4155668318271637
1772790836090550800,0.34855078125,-0.22321151196956635,-0.02629898115992546,-0.4119710326194763
1772790836100615700,0.35861572265625,-0.2143077701330185,-0.01991112343966961,-0.43720850348472595
1772790836110680800,0.368680908203125,-0.20741070806980133,0.03780330345034599,-0.48260074853897095
1772790836120746800,0.378746826171875,-0.2130049467086792,0.11670531332492828,-0.5449813008308411
1772790836130811600,0.388811767578125,-0.20616142451763153,0.19076435267925262,-0.6187210083007812
1772790836140876800,0.398876708984375,-0.19375641644001007,0.2491309940814972,-0.7117247581481934
1772790836150942700,0.408942626953125,-0.17755481600761414,0.29326331615448,-0.7990332841873169
1772790836161007600,0.419007568359375,-0.17351213097572327,0.39056429266929626,-0.8797928094863892
1772790836171072800,0.42907275390625,-0.18030878901481628,0.5202871561050415,-0.9555363059043884
1772790836181138000,0.439137939453125,-0.17408019304275513,0.6535895466804504,-1.0091958045959473
1772790836191203800,0.449203857421875,-0.13909290730953217,0.7080085873603821,-1.064882516860962
1772790836201268700,0.459268798828125,-0.0852789431810379,0.6596096158027649,-1.1531593799591064
1772790836211333600,0.469333740234375,-0.031570710241794586,0.6000738143920898,-1.2752668857574463
1772790836221399800,0.47939990234375,-0.03826296702027321,0.47891733050346375,-1.4094934463500977
1772790836231464700,0.489464599609375,-0.07150907069444656,0.4389163851737976,-1.4695829153060913
1772790836241529600,0.499529541015625,-0.057488858699798584,0.5646061301231384,-1.5165890455245972
1772790836251594800,0.5095947265625,-0.019897807389497757,0.6061328053474426,-1.539700984954834
1772790836261661000,0.519660888671875,0.0059540290385484695,0.6247861385345459,-1.5394994020462036
1772790836271725600,0.5297255859375,0.0262443870306015,0.6219748854637146,-1.5885143280029297
1772790836281790700,0.539790771484375,0.033253028988838196,0.6560527086257935,-1.7042158842086792
1772790836291856000,0.54985595703125,-0.027366377413272858,0.6720508337020874,-1.809862732887268
1772790836301921800,0.559921875,-0.15265558660030365,0.7134539484977722,-1.8429018259048462
1772790836311986700,0.569986572265625,-0.28030702471733093,0.7573092579841614,-1.8466942310333252
1772790836322051800,0.5800517578125,-0.31384262442588806,0.6800767779350281,-1.8239601850509644
1772790836332117800,0.59011767578125,-0.28831061720848083,0.4884394407272339,-1.7777655124664307
1772790836342182700,0.6001826171875,-0.24802285432815552,0.29482579231262207,-1.7260080575942993
1772790836352247800,0.610247802734375,-0.2360045462846756,0.14428581297397614,-1.6665552854537964
1772790836362312700,0.620312744140625,-0.2881377935409546,0.1024257093667984,-1.5757991075515747
1772790836372379000,0.63037890625,-0.33956873416900635,0.3231887221336365,-1.4872945547103882
1772790836382443800,0.64044384765625,-0.35146456956863403,0.5581852197647095,-1.4433832168579102
1772790836392508700,0.6505087890625,-0.25787946581840515,0.4883718192577362,-1.3766387701034546
1772790836402573800,0.66057373046875,-0.13973365724086761,0.40367448329925537,-1.2093768119812012
1772790836412639700,0.6706396484375,-0.05044107139110565,0.15758590400218964,-0.9784914255142212
1772790836422704600,0.68070458984375,0.02034362033009529,-0.13909636437892914,-0.6600287556648254
1772790836432769800,0.690769775390625,0.05257825553417206,-0.44751012325286865,-0.30392658710479736
1772790836442835700,0.700835693359375,0.08471568673849106,-0.8704795241355896,-0.02948332391679287
1772790836452900600,0.710900634765625,0.11747656017541885,-1.1298288106918335,0.26634645462036133
1772790836462965800,0.7209658203125,0.14745736122131348,-1.1151049137115479,0.5566169023513794
1772790836473031000,0.731031005859375,0.1702742576599121,-0.9564535021781921,0.6894042491912842
1772790836483096800,0.741096923828125,0.1794869303703308,-0.789830207824707,0.6014350056648254
1772790836493161700,0.75116162109375,0.1617335081100464,-0.6142346858978271,0.31894123554229736
1772790836503227000,0.761226806640625,0.13704493641853333,-0.39629408717155457,-0.05242405831813812
1772790836513291800,0.771291748046875,0.09361623972654343,-0.16437962651252747,-0.35854029655456543
1772790836523357700,0.781357666015625,0.06810395419597626,0.10531870275735855,-0.532811164855957
1772790836533422600,0.791422607421875,0.08663369715213776,0.364656001329422,-0.624184250831604
1772790836543487700,0.80148779296875,0.08210578560829163,0.4765159487724304,-0.630172073841095
1772790836553554000,0.811553955078125,0.056820403784513474,0.357334166765213,-0.5886960029602051
1772790836563618600,0.82161865234375,0.024701884016394615,0.0881839245557785,-0.5183733701705933
1772790836573683700,0.83168359375,0.02684732712805271,-0.16553570330142975,-0.35158252716064453
1772790836583748900,0.841748779296875,0.10262810438871384,-0.3602151572704315,-0.1153164729475975
1772790836593814800,0.851814697265625,0.22370952367782593,-0.45251554250717163,0.26411688327789307
1772790836603879700,0.861879638671875,0.27881884574890137,-0.450438529253006,0.7672446966171265
1772790836613944800,0.87194482421875,0.27471545338630676,-0.5370267033576965,1.0697203874588013
1772790836624010800,0.8820107421875,0.27910274267196655,-0.47534096240997314,1.3478268384933472
1772790836634075600,0.89207568359375,0.3064805567264557,-0.4378945231437683,1.4611142873764038
1772790836644140800,0.902140869140625,0.34008246660232544,-0.5274131894111633,1.350375771522522
1772790836654205700,0.912205810546875,0.33307889103889465,-0.6008610725402832,1.1143624782562256
1772790836664272000,0.92227197265625,0.26749029755592346,-0.6078012585639954,0.7991267442703247
1772790836674336800,0.932336669921875,0.2753679156303406,-0.6300418376922607,0.46113699674606323
1772790836684401700,0.942401611328125,0.30849072337150574,-0.7152984142303467,0.11972267180681229
1772790836694466800,0.952466796875,0.2470361590385437,-0.8884313106536865,-0.1642746925354004
1772790836704532700,0.96253271484375,0.09812124073505402,-0.9950944185256958,-0.49430611729621887
1772790836714597600,0.97259765625,-0.09601308405399323,-1.025408387184143,-0.8272534608840942
1772790836724662800,0.982662841796875,-0.26972147822380066,-1.071597695350647,-1.1019151210784912
1772790836734727700,0.992727783203125,-0.36766988039016724,-1.1376962661743164,-1.361134648323059
1772790836744793600,1.002793701171875,-0.40571075677871704,-1.2356233596801758,-1.6215583086013794
1772790836754858800,1.012858642578125,-0.40983039140701294,-1.181371808052063,-1.7684593200683594
1772790836764924000,1.022923828125,-0.3864142894744873,-1.0636478662490845,-1.7979573011398315
1772790836774989800,1.03298974609375,-0.3407357335090637,-0.8343483805656433,-1.7528886795043945
1772790836785054700,1.0430546875,-0.3012908697128296,-0.5228725075721741,-1.652077555656433
1772790836795119900,1.053119873046875,-0.23375682532787323,-0.22132040560245514,-1.4446399211883545
1772790836805184800,1.063184814453125,-0.08781533688306808,0.08059604465961456,-1.1409748792648315
1772790836815250700,1.073250732421875,0.06491721421480179,0.1895401030778885,-0.7772939205169678
1772790836825315800,1.08331591796875,0.23478907346725464,0.12386228889226913,-0.4037264287471771
1772790836835380700,1.093380615234375,0.3399421274662018,0.009815346449613571,-0.004012584686279297
1772790836845445600,1.103445556640625,0.3579091429710388,-0.04562687501311302,0.38382968306541443
1772790836855511600,1.113511474609375,0.35994166135787964,0.08250179886817932,0.6836097240447998
1772790836865576700,1.12357666015625,0.42692628502845764,0.29523590207099915,0.866125226020813
1772790836875641900,1.133641845703125,0.5393444299697876,0.431977242231369,1.0105348825454712
1772790836885706800,1.143706787109375,0.5973158478736877,0.525413990020752,1.116424322128296
1772790836895772700,1.153772705078125,0.5932161808013916,0.581596314907074,1.18539559841156
1772790836905837800,1.163837890625,0.5463421940803528,0.5869852304458618,1.219172477722168
1772790836915903000,1.173903076171875,0.45540693402290344,0.5418009161949158,1.2072052955627441
1772790836925968600,1.18396875,0.324455589056015,0.49891313910484314,1.135405421257019
1772790836936033800,1.19403369140625,0.2122853696346283,0.46977362036705017,1.008005976676941
1772790836946098700,1.2040986328125,0.15680372714996338,0.3857088088989258,0.8404709696769714
1772790836956163600,1.21416357421875,0.08358197659254074,0.3343082070350647,0.6949495077133179
1772790836966229800,1.224229736328125,-0.021814750507473946,0.21379511058330536,0.5874651074409485
1772790836976294700,1.234294677734375,-0.12867648899555206,-0.016598418354988098,0.4651874005794525
1772790836986359800,1.24435986328125,-0.20694147050380707,-0.5542190074920654,0.23518668115139008
1772790836996424700,1.2544248046875,-0.25932052731513977,-1.309647798538208,-0.10406062006950378
1772790837006490600,1.26449072265625,-0.28536251187324524,-1.8286396265029907,-0.35428377985954285
1772790837016555800,1.2745556640625,-0.21910332143306732,-1.9630039930343628,-0.46427178382873535
1772790837026620700,1.28462060546875,0.011716577224433422,-1.8062983751296997,-0.08577562123537064
1772790837036685800,1.294685791015625,0.14743126928806305,-1.1868449449539185,0.3676757514476776
1772790837046751700,1.304751708984375,0.24540816247463226,-0.8780721426010132,1.0174750089645386
1772790837056817000,1.31481689453125,0.2740272879600525,-0.9856294989585876,1.42562735080719
1772790837066881500,1.324881591796875,0.21480338275432587,-1.4032148122787476,1.377036213874817
1772790837076946700,1.33494677734375,0.04140576347708702,-1.6671092510223389,1.3126376867294312
1772790837087012900,1.345012939453125,-0.14784352481365204,-1.4166746139526367,1.5744102001190186
1772790837097077800,1.355077880859375,-0.19430848956108093,-0.7263135313987732,2.0180251598358154
1772790837107142700,1.365142578125,-0.05914374813437462,0.043070238083601,2.385892629623413
1772790837117208800,1.375208740234375,0.13558365404605865,0.40221136808395386,2.4676125049591064
1772790837127273700,1.385273681640625,0.23286254703998566,0.3914386034011841,2.2706828117370605
1772790837137338600,1.395338623046875,0.14805631339550018,0.22519263625144958,1.9359756708145142
1772790837147403800,1.40540380859375,-0.07972891628742218,-0.16359825432300568,1.5563212633132935
1772790837157469700,1.4154697265625,-0.24729607999324799,-0.5259506106376648,1.3237944841384888
1772790837167534800,1.425534912109375,-0.2337578982114792,-0.7014100551605225,1.289251685142517
1772790837177599700,1.435599853515625,-0.08222483098506927,-0.43012288212776184,1.2787162065505981
1772790837187664600,1.44566455078125,0.03238430619239807,-0.08023785054683685,1.2061536312103271
1772790837197730800,1.455730712890625,0.04519304260611534,0.004631769843399525,0.9053086042404175
1772790837207795700,1.465795654296875,0.01769697107374668,0.006214752793312073,0.3605824112892151
1772790837217860600,1.475860595703125,0.0180588960647583,0.09751776605844498,-0.23036077618598938
1772790837227925800,1.48592578125,0.053830210119485855,0.20120421051979065,-0.7138659358024597
1772790837237992000,1.495991943359375,0.10403984785079956,0.29454854130744934,-1.041612148284912
1772790837248056600,1.506056640625,0.15690705180168152,0.44580596685409546,-1.2486432790756226
1772790837258121700,1.516121826171875,0.19809550046920776,0.6166823506355286,-1.366217017173767
1772790837268187000,1.526186767578125,0.2510378062725067,0.6831008195877075,-1.4946149587631226
1772790837278252800,1.536252685546875,0.24945004284381866,0.5825235843658447,-1.66679048538208
1772790837288317700,1.546317626953125,0.13814641535282135,0.4636116027832031,-1.8079771995544434
1772790837298382800,1.5563828125,-0.04039429500699043,0.4401928186416626,-1.8559175729751587
1772790837308448800,1.56644873046875,-0.21706387400627136,0.46247124671936035,-1.766479253768921
1772790837318513700,1.576513671875,-0.3983441889286041,0.5063425302505493,-1.6265597343444824
1772790837328578800,1.586578857421875,-0.5876038670539856,0.6605957746505737,-1.5705348253250122
1772790837338643700,1.596643798828125,-0.7818830609321594,0.8158101439476013,-1.5154705047607422
1772790837348710000,1.6067099609375,-0.936738133430481,0.9026222229003906,-1.397420048713684
1772790837358774800,1.61677490234375,-1.0153671503067017,0.8432254791259766,-1.3021787405014038
1772790837368839700,1.626839599609375,-1.0124627351760864,0.6461984515190125,-1.2808568477630615
1772790837378904800,1.63690478515625,-0.9273198843002319,0.3480810225009918,-1.1652672290802002
1772790837388970800,1.646970703125,-0.7520409822463989,0.07027016580104828,-1.0106456279754639
1772790837399035600,1.65703564453125,-0.5374871492385864,-0.09974204003810883,-0.8463352918624878
1772790837409100800,1.667100830078125,-0.3534667193889618,-0.1581270545721054,-0.730806827545166
1772790837419166000,1.677166015625,-0.15932227671146393,-0.1327069103717804,-0.5619898438453674
1772790837429231600,1.687231689453125,-0.025965554639697075,-0.09498962759971619,-0.36637452244758606
1772790837439296800,1.697296875,0.0041065942496061325,-0.03924034535884857,-0.16409413516521454
1772790837449362000,1.70736181640625,-0.01792094297707081,0.04813956469297409,0.05417695268988609
1772790837459426600,1.717426513671875,-0.025065671652555466,0.09212220460176468,0.21709290146827698
1772790837469492700,1.72749267578125,-0.017128387466073036,0.047025300562381744,0.26107579469680786
1772790837479557600,1.7375576171875,-0.02672322280704975,-0.07168883085250854,0.18957845866680145
1772790837489622800,1.747622802734375,-0.03302213177084923,-0.21620340645313263,-0.0048826392740011215
1772790837499687700,1.757687744140625,-0.0830264464020729,-0.3044198155403137,-0.28011074662208557
1772790837509753600,1.767753662109375,-0.15236876904964447,-0.3220558166503906,-0.5340274572372437
1772790837519818800,1.77781884765625,-0.15661410987377167,-0.23337866365909576,-0.697257399559021
1772790837529883600,1.787883544921875,-0.0742177739739418,-0.005197425372898579,-0.7063920497894287
1772790837539948800,1.79794873046875,0.05919860675930977,0.2764339745044708,-0.6388009786605835
1772790837550014700,1.8080146484375,0.17889198660850525,0.5161898732185364,-0.5826317071914673
1772790837560080000,1.818079833984375,0.28178802132606506,0.6823684573173523,-0.504791259765625
1772790837570144800,1.828144775390625,0.3637015223503113,0.8128971457481384,-0.3908276855945587
1772790837580209700,1.838209716796875,0.37951457500457764,0.9394180774688721,-0.19987796247005463
1772790837590275800,1.84827587890625,0.40880507230758667,1.0015254020690918,0.09870979934930801
1772790837600341500,1.858341552734375,0.46696531772613525,0.9535354971885681,0.36474815011024475
1772790837610406400,1.868406494140625,0.5079905390739441,0.824582040309906,0.5453778505325317
1772790837620472300,1.878472412109375,0.4934544563293457,0.636594295501709,0.6618275046348572
1772790837630537500,1.888537353515625,0.4205789268016815,0.5000913143157959,0.7668015956878662
1772790837640602600,1.8986025390625,0.31831619143486023,0.45486125349998474,0.8373225927352905
1772790837650667500,1.90866748046875,0.19108286499977112,0.47238484025001526,0.7411050200462341
1772790837660733400,1.9187333984375,0.08908353745937347,0.44712769985198975,0.48632383346557617
1772790837670798600,1.928798583984375,0.06642270088195801,0.2870163321495056,0.23391155898571014
1772790837680863500,1.938863525390625,0.07327315211296082,0.10600180178880692,0.22057685256004333
1772790837690928400,1.948928466796875,0.0926404520869255,-0.041849445551633835,0.4775764048099518
1772790837700994600,1.95899462890625,0.14917084574699402,-0.23783040046691895,0.8268241882324219
1772790837711059500,1.9690595703125,0.2131599485874176,-0.4081350266933441,1.0705697536468506
1772790837721124400,1.979124267578125,0.2612438499927521,-0.4607601463794708,1.1647340059280396
1772790837731189500,1.989189453125,0.22156114876270294,-0.3764721751213074,1.109413504600525
1772790837741255400,1.99925537109375,0.13797438144683838,-0.24790887534618378,0.9114887118339539
1772790837751320600,2.009320556640625,0.10240866243839264,-0.09742375463247299,0.630246102809906
1772790837761385500,2.019385498046875,0.138206347823143,-0.004686897154897451,0.35179266333580017
1772790837771450600,2.02945068359375,0.13337136805057526,-0.07095513492822647,0.08326985687017441
1772790837781516500,2.0395166015625,0.07195860892534256,-0.2829483449459076,-0.1983301341533661
1772790837791581400,2.04958154296875,-0.039925310760736465,-0.5135914087295532,-0.5083897113800049
1772790837801646600,2.059646484375,-0.2046029418706894,-0.671416699886322,-0.8254515528678894
1772790837811711500,2.06971142578125,-0.38156360387802124,-0.6577629446983337,-1.120901107788086
1772790837821777700,2.079777587890625,-0.5025648474693298,-0.47104209661483765,-1.3487962484359741
1772790837831842300,2.08984228515625,-0.571298360824585,-0.1296677142381668,-1.4973410367965698
1772790837841907500,2.099907470703125,-0.6178035736083984,0.23242339491844177,-1.531556487083435
1772790837851972600,2.10997265625,-0.6379128098487854,0.5351219773292542,-1.4258981943130493
1772790837862038300,2.120038330078125,-0.6298159956932068,0.6964586973190308,-1.2174347639083862
1772790837872103400,2.130103515625,-0.6123358607292175,0.6787340044975281,-0.9322406053543091
1772790837882168600,2.14016845703125,-0.6018813252449036,0.5410826802253723,-0.6112106442451477
1772790837892233500,2.1502333984375,-0.5967108011245728,0.33387571573257446,-0.2578293979167938
1772790837902299400,2.16029931640625,-0.597956120967865,0.0989079400897026,0.12445937097072601
1772790837912364500,2.170364501953125,-0.6168504357337952,-0.13828995823860168,0.4759649336338043
1772790837922429400,2.180429443359375,-0.6486033201217651,-0.35777437686920166,0.7094964981079102
1772790837932494300,2.190494384765625,-0.7060908079147339,-0.5003467202186584,0.778179407119751
1772790837942560500,2.200560546875,-0.7431005239486694,-0.51435387134552,0.7190098166465759
1772790837952625400,2.21062548828125,-0.7081158757209778,-0.4500185549259186,0.605434775352478
1772790837962690600,2.220690673828125,-0.5959470272064209,-0.30212363600730896,0.5239412784576416
1772790837972756500,2.230756591796875,-0.5572635531425476,-0.13026879727840424,0.3875293433666229
1772790837982821400,2.2408212890625,-0.5382959842681885,0.07772622257471085,0.25060930848121643
1772790837992886500,2.250886474609375,-0.4791005551815033,0.32574987411499023,0.23856277763843536
1772790838002951400,2.260951416015625,-0.43839892745018005,0.5923339128494263,0.26511502265930176
1772790838013016600,2.2710166015625,-0.38750699162483215,0.8117117881774902,0.24314101040363312
1772790838023082500,2.28108251953125,-0.33775806427001953,0.7964081764221191,0.15447266399860382
1772790838033147600,2.291147705078125,-0.3898036777973175,0.4834015369415283,0.027813522145152092
1772790838043212300,2.30121240234375,-0.543708324432373,0.040225185453891754,-0.06886641681194305
1772790838053278500,2.311278564453125,-0.7374146580696106,-0.22348982095718384,-0.06534598022699356
1772790838063343600,2.321343505859375,-0.8313379287719727,-0.2782992720603943,0.04113997891545296
1772790838073408300,2.331408203125,-0.7510822415351868,-0.1667833924293518,0.14776922762393951
1772790838083473400,2.341473388671875,-0.5192633867263794,0.09561227262020111,0.2119484692811966
1772790838093539600,2.35153955078125,-0.2066197544336319,0.4406101405620575,0.2700040638446808
1772790838103604500,2.3616044921875,0.02936907485127449,0.7468518018722534,0.26878857612609863
1772790838113669400,2.37166943359375,0.10720847547054291,0.9324414134025574,0.21437887847423553
1772790838123734500,2.381734619140625,0.08032839745283127,0.9451801180839539,0.11337129771709442
1772790838133800400,2.391800537109375,0.09790685772895813,0.9063946008682251,-0.04056926444172859
1772790838143865600,2.401865478515625,0.24897333979606628,0.8756430745124817,-0.19965079426765442
1772790838153930500,2.411930419921875,0.48737579584121704,0.962723433971405,-0.2233361452817917
1772790838163995400,2.421995361328125,0.7276049256324768,1.150431513786316,-0.04899550601840019
1772790838174061600,2.4320615234375,0.9166123867034912,1.2395880222320557,0.24047039449214935
1772790838184126500,2.44212646484375,1.0853228569030762,1.103118896484375,0.6227530241012573
1772790838194191400,2.45219140625,1.2425752878189087,0.8336077928543091,1.0667544603347778
1772790838204256500,2.462256591796875,1.3938034772872925,0.556268036365509,1.520861029624939
1772790838214322700,2.47232275390625,1.5445079803466797,0.1281915307044983,1.856150507926941
1772790838224387300,2.48238720703125,1.6820919513702393,-0.33916741609573364,1.9262601137161255
1772790838234452500,2.492452392578125,1.7890557050704956,-0.6912684440612793,1.6626570224761963
1772790838244517600,2.502517578125,1.8236618041992188,-0.8741672039031982,1.207415223121643
1772790838254583600,2.51258349609375,1.793428897857666,-0.823681116104126,0.6488885283470154
1772790838264648400,2.5226484375,1.7516270875930786,-0.6030368804931641,0.04983999580144882
1772790838274713600,2.532713623046875,1.7459380626678467,-0.22719933092594147,-0.5308660268783569
1772790838284778500,2.542778564453125,1.7254841327667236,0.25882092118263245,-1.066217303276062
1772790838294844400,2.552844482421875,1.600128412246704,0.7224769592285156,-1.4857066869735718
1772790838304909600,2.56290966796875,1.3753505945205688,0.9085389971733093,-1.736191987991333
1772790838314974500,2.572974365234375,1.0852620601654053,0.8331971168518066,-1.8856765031814575
1772790838325039400,2.583039306640625,0.8364118337631226,0.6455129384994507,-1.9358028173446655
1772790838335105500,2.59310546875,0.6238343119621277,0.4320962727069855,-1.9640445709228516
1772790838345170400,2.60317041015625,0.3935086727142334,0.25895485281944275,-1.9929776191711426
1772790838355235600,2.613235595703125,0.16626407206058502,0.191781148314476,-2.0169665813446045
1772790838365300500,2.623300537109375,-0.027601800858974457,0.21395009756088257,-1.9588590860366821
1772790838375366400,2.633366455078125,-0.17978280782699585,0.27240675687789917,-1.740967035293579
1772790838385431600,2.643431640625,-0.2955333888530731,0.28083592653274536,-1.388988971710205
1772790838395496400,2.653496337890625,-0.3763826787471771,0.19002665579319,-0.9774858355522156
1772790838405561300,2.663561279296875,-0.4416804611682892,0.03936444967985153,-0.5732139945030212
1772790838415627500,2.67362744140625,-0.4948132038116455,-0.13695918023586273,-0.20475740730762482
1772790838425692700,2.683692626953125,-0.5604952573776245,-0.2888416647911072,0.08816847205162048
1772790838435757300,2.69375732421875,-0.588169515132904,-0.35703563690185547,0.27253246307373047
1772790838445822500,2.703822509765625,-0.5501605868339539,-0.3082997798919678,0.3371167778968811
1772790838455888400,2.713888427734375,-0.44477933645248413,-0.18497411906719208,0.3154575526714325
1772790838465953500,2.72395361328125,-0.32439538836479187,-0.05987851321697235,0.2778579890727997
1772790838476018400,2.734018310546875,-0.2979038655757904,-0.0763821229338646,0.2737385928630829
1772790838486083600,2.74408349609375,-0.34791669249534607,-0.24313275516033173,0.34147557616233826
1772790838496149500,2.7541494140625,-0.4405062794685364,-0.5122542381286621,0.5054120421409607
1772790838506214400,2.76421435546875,-0.5363233685493469,-0.7628310918807983,0.6583523154258728
1772790838516279600,2.774279541015625,-0.5947797298431396,-0.8563189506530762,0.7010933756828308
1772790838526344400,2.784344482421875,-0.578233003616333,-0.8562041521072388,0.6654187440872192
1772790838536410600,2.79441064453125,-0.4833959639072418,-0.8496575951576233,0.5523508191108704
1772790838546475500,2.8044755859375,-0.35284939408302307,-0.8431591987609863,0.37654247879981995
1772790838556540400,2.81454052734375,-0.2533574402332306,-0.8154577612876892,0.19066742062568665
1772790838566605600,2.82460546875,-0.2427564561367035,-0.7823081016540527,0.030012493953108788
1772790838576671500,2.83467138671875,-0.32954755425453186,-0.7677832245826721,-0.09810259938240051
1772790838586736400,2.844736328125,-0.4429718255996704,-0.6905574202537537,-0.1681290864944458
1772790838596804400,2.854804443359375,-0.5387252569198608,-0.46615466475486755,-0.15381699800491333
1772790838606869500,2.864869384765625,-0.5704333782196045,-0.12410144507884979,-0.04853637516498566
1772790838616935200,2.87493505859375,-0.5261114835739136,0.3028634786605835,0.11842145025730133
1772790838627000300,2.885000244140625,-0.41711360216140747,0.7965538501739502,0.3573019504547119
1772790838637065500,2.8950654296875,-0.2714536190032959,1.1650669574737549,0.6585017442703247
1772790838647130400,2.90513037109375,-0.12764877080917358,1.280724287033081,0.8923642635345459
1772790838657196300,2.9151962890625,-0.04385267570614815,1.193320870399475,1.054206132888794
1772790838667261400,2.925261474609375,-0.04844716191291809,0.9527421593666077,1.107747197151184
1772790838677326300,2.935326416015625,-0.1050473228096962,0.7001059055328369,1.0043706893920898
1772790838687391200,2.94539111328125,-0.12280235439538956,0.5063388347625732,0.8356804847717285
1772790838697457400,2.95545751953125,-0.08218222111463547,0.542671799659729,0.7434855699539185
1772790838707522300,2.965522216796875,0.0245511494576931,0.7768560647964478,0.856711745262146
1772790838717587500,2.97558740234375,0.2084331065416336,0.9886958599090576,1.0779902935028076
1772790838727652400,2.98565234375,0.37812384963035583,0.9133590459823608,1.2132312059402466
1772790838737718300,2.99571826171875,0.45936518907546997,0.5703199505805969,1.2265241146087646
1772790838747783400,3.005783447265625,0.45847195386886597,0.060556020587682724,1.1485944986343384
1772790838757848300,3.015848388671875,0.4010038673877716,-0.5462372303009033,0.9653713703155518
1772790838767913200,3.025913330078125,0.37458187341690063,-1.1184074878692627,0.7730088829994202
1772790838777978400,3.035978271484375,0.49579375982284546,-1.427700400352478,0.6307728886604309
1772790838788044500,3.04604443359375,0.7324201464653015,-1.3812546730041504,0.5373708009719849
1772790838798109200,3.056109130859375,0.8997260928153992,-1.1005427837371826,0.4702569842338562
1772790838808174300,3.06617431640625,0.8816120624542236,-0.7541800737380981,0.3935907185077667
1772790838818239500,3.076239501953125,0.7274717688560486,-0.4537009000778198,0.2423708289861679
1772790838828305200,3.08630517578125,0.5137274861335754,-0.32284650206565857,0.05734238401055336
1772790838838370300,3.096370361328125,0.3364773392677307,-0.3033526837825775,-0.07265129685401917
1772790838848435500,3.106435546875,0.23817048966884613,-0.30930060148239136,-0.17042286694049835
1772790838858500400,3.116500244140625,0.18283826112747192,-0.2958737313747406,-0.279325395822525
1772790838868566300,3.126566162109375,0.15899869799613953,-0.21025949716567993,-0.4464275538921356
1772790838878631400,3.13663134765625,0.1289507895708084,-0.05209782347083092,-0.7041752338409424
1772790838888696300,3.1466962890625,0.04831986129283905,0.15422658622264862,-1.0072115659713745
1772790838898761200,3.15676123046875,-0.056605223566293716,0.3892470896244049,-1.2782355546951294
1772790838908827400,3.166827392578125,-0.17597129940986633,0.6219109892845154,-1.4645966291427612
1772790838918892300,3.176892333984375,-0.27523237466812134,0.7691936492919922,-1.5353275537490845
1772790838928957400,3.18695751953125,-0.34585222601890564,0.8031156063079834,-1.4818925857543945
1772790838939022300,3.197022216796875,-0.38161686062812805,0.7266099452972412,-1.3275010585784912
1772790838949088300,3.207088134765625,-0.3958996534347534,0.5645832419395447,-1.1193583011627197
1772790838959153400,3.2171533203125,-0.3966711759567261,0.28684481978416443,-0.9198001623153687
1772790838969218300,3.22721826171875,-0.40939629077911377,-0.051543619483709335,-0.7821102142333984
1772790838979283500,3.237283447265625,-0.42313581705093384,-0.43436184525489807,-0.7015488147735596
1772790838989349400,3.247349365234375,-0.4303247630596161,-0.627334475517273,-0.6172842383384705
1772790838999414500,3.25741455078125,-0.38748326897621155,-0.6603931188583374,-0.48815715312957764
1772790839009479200,3.267479248046875,-0.27679243683815,-0.6200541853904724,-0.32397833466529846
1772790839019544300,3.27754443359375,-0.1511482447385788,-0.5409908294677734,-0.1347290575504303
1772790839029610500,3.287610595703125,-0.04490009695291519,-0.39127933979034424,0.04131707921624184
1772790839039675400,3.29767529296875,0.0806940495967865,-0.25962650775909424,0.13865481317043304
1772790839049740300,3.307740234375,0.22272229194641113,-0.22204585373401642,0.12249688804149628
1772790839059805400,3.317805419921875,0.3227759301662445,-0.31576007604599,0.033793382346630096
1772790839069871400,3.327871337890625,0.2936801016330719,-0.5490303635597229,0.017784057185053825
1772790839079936300,3.337936279296875,0.1182430163025856,-0.830476701259613,-0.026332538574934006
1772790839090001400,3.34800146484375,-0.056340768933296204,-0.9095177054405212,-0.004749215207993984
1772790839100066300,3.35806640625,-0.09316855669021606,-0.8482652902603149,0.050758253782987595
1772790839110132500,3.368132568359375,-0.04995371028780937,-0.582570493221283,0.09513583779335022
1772790839120197400,3.378197265625,0.038789473474025726,-0.2031579166650772,0.07247979193925858
1772790839130262300,3.38826220703125,0.18231840431690216,0.12850897014141083,-0.02009062096476555
1772790839140327400,3.398327392578125,0.34401142597198486,0.3653729259967804,-0.06647889316082001
1772790839150393300,3.408393310546875,0.43139082193374634,0.5107886791229248,-0.002097771968692541
1772790839160458200,3.418458251953125,0.46220090985298157,0.5709894299507141,0.1817740648984909
1772790839170523400,3.4285234375,0.5555095672607422,0.6792786717414856,0.5259684324264526
1772790839180588300,3.43858837890625,0.7576389908790588,0.8299326300621033,0.8205785155296326
1772790839190654200,3.448654296875,0.9599254727363586,0.7147127985954285,0.8252981901168823
1772790839200719400,3.45871923828125,0.9860740303993225,0.35894832015037537,0.6077136397361755
1772790839210784500,3.468784423828125,0.8337941765785217,0.06686611473560333,0.5245751142501831
1772790839220849200,3.47884912109375,0.7177120447158813,0.13686677813529968,0.7193695902824402
1772790839230914300,3.488914306640625,0.810086727142334,0.5900790095329285,1.092297077178955
1772790839240980500,3.49898046875,1.0498969554901123,1.2171056270599365,1.4814573526382446
1772790839251045400,3.50904541015625,1.291487693786621,1.654159665107727,1.723524570465088
1772790839261110300,3.5191103515625,1.3823856115341187,1.556135654449463,1.7356986999511719
1772790839271175400,3.529175537109375,1.3061891794204712,1.082198977470398,1.6024415493011475
1772790839281241300,3.539241455078125,1.1376968622207642,0.3376576602458954,1.363963007926941
1772790839291306200,3.54930615234375,0.9715131521224976,-0.3612529933452606,1.0078909397125244
1772790839301371400,3.559371337890625,0.9071938395500183,-0.8357473611831665,0.585256040096283
1772790839311436300,3.569436279296875,0.9067046046257019,-0.9541831612586975,0.14509007334709167
1772790839321502500,3.57950244140625,0.9048907160758972,-0.7865784764289856,-0.2213803231716156
1772790839331567400,3.5895673828125,0.8568523526191711,-0.4537736177444458,-0.4327085316181183
1772790839341632300,3.59963232421875,0.7408123016357422,-0.14547517895698547,-0.48522448539733887
1772790839351697400,3.609697509765625,0.5720589756965637,-0.12621918320655823,-0.4711930751800537
1772790839361763600,3.619763671875,0.3615376949310303,-0.35526835918426514,-0.490635484457016
1772790839371828200,3.629828125,0.11296383291482925,-0.658336341381073,-0.576596736907959
1772790839381893400,3.639893310546875,-0.09167265892028809,-0.8949941396713257,-0.7273297905921936
1772790839391958500,3.64995849609375,-0.21629901230335236,-0.8592084646224976,-0.9091659188270569
1772790839402024200,3.660024169921875,-0.2820042669773102,-0.5034272074699402,-1.057032823562622
1772790839412089300,3.67008935546875,-0.340072363615036,0.03936418518424034,-1.122084617614746
1772790839422154500,3.680154541015625,-0.4070862829685211,0.5708296895027161,-1.1186773777008057
1772790839432219400,3.690219482421875,-0.44935595989227295,0.9737451672554016,-1.0753077268600464
1772790839442285300,3.700285400390625,-0.465605765581131,1.124875545501709,-1.0008350610733032
1772790839452350500,3.7103505859375,-0.45879900455474854,1.028490424156189,-0.8792484998703003
1772790839462415400,3.720415283203125,-0.429027795791626,0.7770478129386902,-0.7302566170692444
1772790839472480300,3.730480224609375,-0.38107171654701233,0.4185841977596283,-0.5767541527748108
1772790839482545400,3.74054541015625,-0.33587202429771423,0.04422152414917946,-0.4154110550880432
1772790839492611300,3.750611328125,-0.31409722566604614,-0.20336323976516724,-0.2627711594104767
1772790839502676200,3.76067626953125,-0.28465941548347473,-0.2464902102947235,-0.1379762440919876
1772790839512741400,3.770741455078125,-0.2462712973356247,-0.1506614089012146,-0.07627293467521667
1772790839522806500,3.780806640625,-0.22988379001617432,-0.021034445613622665,-0.10051967948675156
1772790839532872400,3.79087255859375,-0.2442598044872284,0.09238772094249725,-0.15662316977977753
1772790839542937300,3.800937255859375,-0.25125032663345337,0.14985154569149017,-0.17915590107440948
1772790839553002200,3.811002197265625,-0.23906370997428894,0.11149430274963379,-0.16791443526744843
1772790839563067400,3.8210673828125,-0.26279619336128235,-0.07150907069444656,-0.14870665967464447
1772790839573133600,3.831133544921875,-0.3302548825740814,-0.29961439967155457,-0.18055114150047302
1772790839583198200,3.8411982421875,-0.38937437534332275,-0.5488101243972778,-0.27629896998405457
1772790839593263400,3.851263427734375,-0.3816531002521515,-0.7098379135131836,-0.3877139091491699
1772790839603328800,3.861328857421875,-0.32424572110176086,-0.7913114428520203,-0.5012820363044739
1772790839613394400,3.87139453125,-0.251607209444046,-0.8283019661903381,-0.563373327255249
1772790839623459600,3.88145947265625,-0.18830733001232147,-0.8571240305900574,-0.4916914403438568
1772790839633524700,3.891524658203125,-0.17283782362937927,-0.8113477230072021,-0.3143310248851776
1772790839643589400,3.90158935546875,-0.20200422406196594,-0.6549599766731262,-0.09284178912639618
1772790839653655600,3.911655517578125,-0.2186649590730667,-0.35143178701400757,0.15272589027881622
1772790839663720700,3.921720703125,-0.17763710021972656,0.005041630007326603,0.37995266914367676
1772790839673785600,3.93178564453125,-0.06677956134080887,0.30638018250465393,0.5870685577392578
1772790839683850500,3.9418505859375,0.05073055624961853,0.47732609510421753,0.779964804649353
1772790839693916700,3.951916748046875,0.14658890664577484,0.47259098291397095,0.9875717759132385
1772790839703981600,3.961981689453125,0.21267710626125336,0.3469454348087311,1.1545466184616089
1772790839714046700,3.972046630859375,0.2596387565135956,0.15966716408729553,1.1776338815689087
1772790839724111600,3.982111572265625,0.29472190141677856,-0.12529534101486206,0.9853296279907227
1772790839734177500,3.992177490234375,0.2815091609954834,-0.3567506670951843,0.7403944730758667
1772790839744241700,4.00224169921875,0.2475978136062622,-0.32161745429039,0.723565399646759
1772790839754307600,4.0123076171875,0.244588702917099,0.016592025756835938,0.9403454065322876
1772790839764372500,4.02237255859375,0.24806733429431915,0.4536239504814148,1.1611642837524414
1772790839774437600,4.032437744140625,0.2639666795730591,0.7854689955711365,1.2574455738067627
1772790839784502500,4.04250244140625,0.3142884373664856,0.9104735255241394,1.1931544542312622
1772790839794567700,4.052567626953125,0.3827415108680725,0.8017486333847046,1.0592288970947266
1772790839804633600,4.062633544921875,0.42592015862464905,0.5372765064239502,0.916860818862915
1772790839814698800,4.07269873046875,0.4517677128314972,0.16836105287075043,0.7454933524131775
1772790839824763600,4.082763671875,0.4692351222038269,-0.22578972578048706,0.5585399866104126
1772790839834828500,4.09282861328125,0.46102407574653625,-0.4780898690223694,0.4201411008834839
1772790839844894700,4.102894775390625,0.4108234941959381,-0.5196967124938965,0.31817159056663513
1772790839854959600,4.112959716796875,0.3334330916404724,-0.3953595757484436,0.14895673096179962
1772790839865024500,4.1230244140625,0.2448912411928177,-0.18581807613372803,-0.13198386132717133
1772790839875089700,4.133089599609375,0.15493951737880707,-0.07797655463218689,-0.5082483291625977
1772790839885155600,4.143155517578125,0.06840196251869202,-0.09566527605056763,-0.9229419231414795
1772790839895220500,4.153220458984375,-0.049372341483831406,-0.1147414967417717,-1.2801730632781982
1772790839905285600,4.16328564453125,-0.17169079184532166,-0.11057285219430923,-1.4705450534820557
1772790839915350800,4.173350830078125,-0.3097645044326782,-0.21365875005722046,-1.5037118196487427
1772790839925416700,4.183416748046875,-0.43459218740463257,-0.394696980714798,-1.4064875841140747
1772790839935481600,4.193481689453125,-0.5445005893707275,-0.5070650577545166,-1.1929196119308472
1772790839945546800,4.203546630859375,-0.6120727062225342,-0.5093977451324463,-0.9425121545791626
1772790839955611600,4.213611572265625,-0.652277946472168,-0.5120733976364136,-0.6908972263336182
1772790839965677600,4.223677490234375,-0.660870373249054,-0.4653700888156891,-0.4715110659599304
1772790839975742500,4.233742431640625,-0.6651183366775513,-0.35976508259773254,-0.26052427291870117
1772790839985807600,4.2438076171875,-0.6645374894142151,-0.19189779460430145,-0.02075694315135479
1772790839995872500,4.25387255859375,-0.6363945603370667,0.012702479027211666,0.2135719358921051
1772790840005937700,4.263937744140625,-0.5759538412094116,0.13558152318000793,0.3661383092403412
1772790840016003600,4.274003662109375,-0.5239465832710266,0.22869229316711426,0.37053677439689636
1772790840026068700,4.28406884765625,-0.45606154203414917,0.3703540861606598,0.23628577589988708
1772790840036133600,4.294133544921875,-0.4008592665195465,0.451137900352478,-0.023614250123500824
1772790840046198500,4.304198486328125,-0.39899054169654846,0.4369238018989563,-0.3349186182022095
1772790840056264700,4.3142646484375,-0.44810959696769714,0.4109308123588562,-0.6141249537467957
1772790840066329600,4.32432958984375,-0.49645715951919556,0.43104833364486694,-0.7967682480812073
1772790840076394500,4.33439453125,-0.5290942192077637,0.49017342925071716,-0.8726731538772583
1772790840086459600,4.344459716796875,-0.5212724804878235,0.5312225818634033,-0.7946622371673584
1772790840096525600,4.354525634765625,-0.443928986787796,0.5443344116210938,-0.6255669593811035
1772790840106590500,4.364590576171875,-0.31616276502609253,0.530565619468689,-0.42560163140296936
1772790840116655600,4.374655517578125,-0.15250751376152039,0.41082242131233215,-0.24751898646354675
1772790840126720800,4.384720703125,-0.06885869055986404,0.2723553478717804,-0.16960687935352325
1772790840136786700,4.39478662109375,-0.09197599440813065,0.07748254388570786,-0.2035408765077591
1772790840146851600,4.4048515625,-0.10165125876665115,-0.023020097985863686,-0.19248902797698975
1772790840156916700,4.414916748046875,-0.04826287180185318,-0.00038828887045383453,-0.12889912724494934
1772790840166981600,4.424981689453125,0.00415319949388504,0.20695185661315918,-0.09330091625452042
1772790840177046500,4.435046630859375,0.08038858324289322,0.6174296736717224,-0.05251540616154671
1772790840187112400,4.445112548828125,0.20051924884319305,1.1342475414276123,0.0479494147002697
1772790840197177600,4.455177490234375,0.34665995836257935,1.5782300233840942,0.28810369968414307
1772790840207242800,4.46524267578125,0.49504354596138,1.7576512098312378,0.6065844893455505
1772790840217307600,4.4753076171875,0.6057932376861572,1.607035517692566,0.9721091985702515
1772790840227373600,4.48537353515625,0.6333617568016052,1.3054953813552856,1.364022135734558
1772790840237438700,4.495438720703125,0.5958351492881775,0.9716812372207642,1.58201003074646
1772790840247503600,4.505503662109375,0.43148642778396606,0.5959296822547913,1.5601423978805542
1772790840257568500,4.515568603515625,0.27314579486846924,0.39381253719329834,1.5191882848739624
1772790840267634700,4.525634765625,0.27274152636528015,0.4843869209289551,1.5864194631576538
1772790840277699600,4.535699462890625,0.40087178349494934,0.674327552318573,1.6631605625152588
1772790840287764500,4.545764404296875,0.5015672445297241,0.8125975728034973,1.6422404050827026
1772790840297829600,4.55582958984375,0.5064075589179993,0.8788971900939941,1.5286728143692017
1772790840307895600,4.5658955078125,0.45946797728538513,0.8561620712280273,1.3451378345489502
1772790840317960400,4.57596044921875,0.3951595723628998,0.6661633849143982,1.0912832021713257
1772790840328025600,4.586025634765625,0.3258172571659088,0.34008434414863586,0.8306817412376404
1772790840338090800,4.5960908203125,0.2662756145000458,-0.05649176985025406,0.5252739191055298
1772790840348155400,4.6061552734375,0.17661285400390625,-0.39742380380630493,0.17220479249954224
1772790840358221600,4.6162216796875,0.10706759989261627,-0.6638019680976868,-0.18782369792461395
1772790840368286700,4.62628662109375,0.0919773280620575,-0.8091253042221069,-0.5152393579483032
1772790840378351600,4.6363515625,0.13571734726428986,-0.7695400714874268,-0.8107064366340637
1772790840388417800,4.646417724609375,0.2018473744392395,-0.6689157485961914,-1.0178308486938477
1772790840398482700,4.656482666015625,0.23428680002689362,-0.6885243654251099,-1.1780085563659668
1772790840408547600,4.666547607421875,0.15416613221168518,-0.9292940497398376,-1.3455029726028442
1772790840418612700,4.67661279296875,-0.12565699219703674,-1.2289968729019165,-1.4759443998336792
1772790840428678400,4.686678466796875,-0.4672508239746094,-1.2909902334213257,-1.510259747505188
1772790840438743600,4.69674365234375,-0.6617883443832397,-1.1087267398834229,-1.4364323616027832
1772790840448808700,4.70680859375,-0.617680013179779,-0.7529755234718323,-1.1776520013809204
1772790840458873600,4.71687353515625,-0.4069376587867737,-0.40437012910842896,-0.7805829048156738
1772790840468938500,4.7269384765625,-0.17010541260242462,0.05973470211029053,-0.3441515266895294
1772790840479004700,4.737004638671875,0.039791885763406754,0.362194687128067,0.04008882865309715
1772790840489069800,4.74706982421875,0.18330751359462738,0.4278802275657654,0.3483057916164398
1772790840499134500,4.757134521484375,0.2268161028623581,0.3915264904499054,0.5666354298591614
1772790840509199600,4.76719970703125,0.19976504147052765,0.18190987408161163,0.6734841465950012
1772790840519265500,4.777265625,0.1633700132369995,-0.05799858644604683,0.7372599244117737
1772790840529330400,4.787330322265625,0.15656431019306183,-0.25140079855918884,0.7669387459754944
1772790840539395600,4.7973955078125,0.19443419575691223,-0.21197722852230072,0.7316315770149231
1772790840549460700,4.807460693359375,0.29154902696609497,-0.05341262370347977,0.6072023510932922
1772790840559526700,4.817526611328125,0.33171722292900085,-0.018872223794460297,0.46025601029396057
1772790840569591600,4.827591552734375,0.31436246633529663,0.04596669226884842,0.3527207672595978
1772790840579656700,4.83765673828125,0.22545921802520752,0.06957001984119415,0.31854814291000366
1772790840589721600,4.8477216796875,0.06520536541938782,0.06906109303236008,0.36253318190574646
1772790840599782700,4.85778271484375,-0.1068369671702385,0.11121706664562225,0.45710283517837524
1772790840609848600,4.8678486328125,-0.2275623232126236,0.2577063739299774,0.526833713054657
1772790840619913500,4.87791357421875,-0.24616743624210358,-0.047442883253097534,0.38278093934059143
1772790840629978600,4.887978515625,-0.2921695411205292,-0.09965362399816513,0.24548272788524628
1772790840640043500,4.89804345703125,-0.3112258017063141,-0.19483846426010132,0.13274845480918884
1772790840650109400,4.908109375,-0.2776675522327423,-0.16165414452552795,0.22695405781269073
1772790840660174600,4.918174560546875,-0.22543072700500488,-0.1496318280696869,0.4342542588710785
1772790840670239700,4.92823974609375,-0.17984619736671448,-0.18660876154899597,0.6166088581085205
1772790840680304600,4.9383046875,-0.11236169189214706,-0.23627884685993195,0.706828773021698
1772790840690370600,4.94837060546875,-0.09502291679382324,-0.30429890751838684,0.7388349175453186
1772790840700435700,4.958435791015625,-0.20909595489501953,-0.26909592747688293,0.8515905141830444
1772790840710500600,4.96850048828125,-0.3048302233219147,-0.1968960165977478,1.1093168258666992
1772790840720565500,4.9785654296875,-0.2968021035194397,-0.18771210312843323,1.3629589080810547
1772790840730631700,4.988631591796875,-0.19634927809238434,-0.23433713614940643,1.4596431255340576
1772790840740696600,4.998696533203125,-0.09528124332427979,-0.24653281271457672,1.4025404453277588
1772790840750761500,5.008761474609375,-0.015116102062165737,-0.26361432671546936,1.2197471857070923
1772790840760826600,5.01882666015625,0.0014921691035851836,-0.37974998354911804,0.9698569774627686
1772790840770891800,5.028891845703125,-0.030591731891036034,-0.3856302499771118,0.8156886696815491
1772790840780957700,5.038957763671875,-0.055278170853853226,-0.16388720273971558,0.9147420525550842
1772790840791022600,5.049022705078125,-0.12432488054037094,0.13275831937789917,1.1445965766906738
1772790840801087700,5.059087646484375,-0.19726993143558502,0.24617062509059906,1.2771422863006592
1772790840811152600,5.069152587890625,-0.16501106321811676,0.18718187510967255,1.2135438919067383
1772790840821218600,5.079218505859375,-0.03985900059342384,0.05192098766565323,1.0345840454101562
1772790840831283500,5.089283447265625,0.053876280784606934,-0.18469740450382233,0.8040027618408203
1772790840841348600,5.0993486328125,0.08032865822315216,-0.4270610511302948,0.5338338613510132
1772790840851413800,5.109413818359375,0.08948540687561035,-0.5481142401695251,0.2998785972595215
1772790840861479400,5.1194794921875,0.11777536571025848,-0.5763988494873047,0.10105471312999725
1772790840871544600,5.129544677734375,0.1948363333940506,-0.5931243300437927,-0.047254063189029694
1772790840881609700,5.139609619140625,0.25389885902404785,-0.6239333748817444,-0.15484577417373657
1772790840891674600,5.149674560546875,0.27942338585853577,-0.5887508988380432,-0.2472449392080307
1772790840901739500,5.159739501953125,0.2591138482093811,-0.5339574217796326,-0.3399154841899872
1772790840911805700,5.1698056640625,0.1822342574596405,-0.42858436703681946,-0.4501405358314514
1772790840921870600,5.17987060546875,0.09375285357236862,-0.35700365900993347,-0.6257578730583191
1772790840931935500,5.189935546875,0.03093900717794895,-0.3370664417743683,-0.8792340755462646
1772790840942000600,5.200000732421875,0.018367821350693703,-0.33579930663108826,-1.1402300596237183
1772790840952066600,5.210066650390625,0.050212036818265915,-0.35651445388793945,-1.3672189712524414
1772790840962131500,5.22013134765625,0.12613210082054138,-0.32424625754356384,-1.516305923461914
1772790840972196600,5.230196533203125,0.10154792666435242,-0.14507755637168884,-1.5325744152069092
1772790840982261800,5.24026171875,-0.02743508666753769,0.23455631732940674,-1.4314149618148804
1772790840992327700,5.25032763671875,-0.20011284947395325,0.6072449088096619,-1.3044285774230957
1772790841002392600,5.260392578125,-0.3901296555995941,0.835199773311615,-1.2124701738357544
1772790841012457700,5.270457763671875,-0.5391045212745667,0.954440712928772,-1.1013180017471313
1772790841022522600,5.280522705078125,-0.6075554490089417,0.9479644298553467,-0.9456672072410583
1772790841032587500,5.29058740234375,-0.6445190906524658,0.8377777338027954,-0.7371291518211365
1772790841042653400,5.3006533203125,-0.644367516040802,0.7327868938446045,-0.5214120745658875
1772790841052718600,5.310718505859375,-0.6088582873344421,0.6467587947845459,-0.32201531529426575
1772790841062783700,5.32078369140625,-0.5662738084793091,0.5935965180397034,-0.13343395292758942
1772790841072848600,5.3308486328125,-0.5331946611404419,0.5944154262542725,0.06797824800014496
1772790841082914600,5.34091455078125,-0.5414520502090454,0.5806639194488525,0.2677781879901886
1772790841092979700,5.350979736328125,-0.6280306577682495,0.48716673254966736,0.4348689019680023
1772790841103044600,5.361044677734375,-0.7353776097297668,0.37881922721862793,0.5474516153335571
1772790841113109500,5.371109619140625,-0.8145390152931213,0.2935517132282257,0.6185708045959473
1772790841123175700,5.38117578125,-0.8472029566764832,0.20629698038101196,0.6405802369117737
1772790841133240600,5.391240478515625,-0.8203404545783997,0.16323019564151764,0.6085155010223389
1772790841143305500,5.401305419921875,-0.7770459651947021,0.20383355021476746,0.5218096375465393
1772790841153370600,5.41137060546875,-0.7304635643959045,0.11017949879169464,0.41713517904281616
1772790841163435800,5.421435791015625,-0.7054007649421692,0.07390378415584564,0.26836249232292175
1772790841173501400,5.43150146484375,-0.69831782579422,0.07897710800170898,0.15818217396736145
1772790841183566600,5.441566650390625,-0.698974072933197,0.10125737637281418,0.11740545928478241
1772790841193631700,5.4516318359375,-0.6857192516326904,0.10874219238758087,0.17097121477127075
1772790841203696600,5.461696533203125,-0.6573424339294434,0.07548117637634277,0.3217836320400238
1772790841213762600,5.471762451171875,-0.5931477546691895,0.00635004136711359,0.5127162933349609
1772790841223827700,5.48182763671875,-0.42963364720344543,-0.14582538604736328,0.6754103899002075
1772790841233892600,5.491892578125,-0.21951131522655487,-0.3913792073726654,0.7389052510261536
1772790841243957500,5.50195751953125,-0.10774164646863937,-0.5417609810829163,0.7597711086273193
1772790841254023400,5.5120234375,-0.07575947791337967,-0.5456513166427612,0.8721972107887268
1772790841264088600,5.522088623046875,-0.09010033309459686,-0.5065529346466064,1.1542891263961792
1772790841274153700,5.53215380859375,-0.08002293109893799,-0.5613315105438232,1.4803614616394043
1772790841284218600,5.542218505859375,0.02569098211824894,-0.7806622385978699,1.5564687252044678
1772790841294284500,5.552284423828125,0.1528278887271881,-0.9897587299346924,1.3785725831985474
1772790841304349700,5.562349609375,0.1960075944662094,-0.8931355476379395,1.2331061363220215
1772790841314414600,5.57241455078125,0.11754447221755981,-0.42319998145103455,1.338950276374817
1772790841324479500,5.5824794921875,-0.0392155796289444,0.15158392488956451,1.739351749420166
1772790841334544600,5.592544677734375,-0.205471932888031,0.3402489125728607,2.2323203086853027
1772790841344610800,5.60261083984375,-0.29029548168182373,0.2011115401983261,2.480311632156372
1772790841354675500,5.612675537109375,-0.290168434381485,-0.20161274075508118,2.2801802158355713
1772790841364740600,5.62274072265625,-0.37244465947151184,-0.7438501715660095,1.5343812704086304
1772790841374805800,5.6328056640625,-0.4829205870628357,-1.0620324611663818,0.532135009765625
1772790841384871700,5.64287158203125,-0.46664732694625854,-0.9712796211242676,-0.22426319122314453
1772790841394936600,5.6529365234375,-0.36063194274902344,-0.652275800704956,-0.6622772812843323
1772790841405001700,5.663001708984375,-0.1663636714220047,-0.2672402262687683,-0.8481557965278625
1772790841415066600,5.673066650390625,0.09390918165445328,0.0347776859998703,-0.8771224617958069
1772790841425132500,5.683132568359375,0.3041239380836487,0.1674121618270874,-0.8108451962471008
1772790841435197700,5.69319775390625,0.41637831926345825,0.2324761152267456,-0.6707884669303894
1772790841445262600,5.7032626953125,0.43146565556526184,0.21870890259742737,-0.5489070415496826
1772790841455327500,5.713327392578125,0.36982491612434387,-0.005795837379992008,-0.5794071555137634
1772790841465392600,5.723392578125,0.26864343881607056,-0.39759689569473267,-0.8839178085327148
1772790841475458600,5.73345849609375,0.17913059890270233,-0.796787679195404,-1.4116953611373901
1772790841485523700,5.743523681640625,0.049977146089076996,-0.9808339476585388,-1.9586620330810547
1772790841495588600,5.753588623046875,-0.07966793328523636,-0.7735827565193176,-2.2362821102142334
1772790841505653500,5.763653564453125,-0.14150360226631165,-0.33857059478759766,-2.215064287185669
1772790841515719700,5.7737197265625,-0.16044826805591583,0.13976402580738068,-1.8957493305206299
1772790841525784600,5.78378466796875,-0.1708231419324875,0.568902313709259,-1.3741205930709839
1772790841535849500,5.793849365234375,-0.2071409374475479,0.827718198299408,-0.8129600286483765
1772790841545914600,5.80391455078125,-0.2868482768535614,0.7766779065132141,-0.3507321774959564
1772790841555979500,5.8139794921875,-0.41561052203178406,0.4903039336204529,0.03199548274278641
1772790841566045400,5.82404541015625,-0.5474308729171753,0.08069431036710739,0.3371085226535797
1772790841576110600,5.834110595703125,-0.6477649211883545,-0.2187451273202896,0.5350083112716675
1772790841586175700,5.84417578125,-0.7006323933601379,-0.35684627294540405,0.6495532393455505
1772790841596240600,5.85424072265625,-0.7304843068122864,-0.33448052406311035,0.6961992979049683
1772790841606306800,5.864306884765625,-0.7425132989883423,-0.18521539866924286,0.6514712572097778
1772790841616372000,5.8743720703125,-0.7210327386856079,0.02562999539077282,0.5019789934158325
1772790841626436900,5.884436767578125,-0.702711284160614,0.3626287877559662,0.28879716992378235
1772790841636501800,5.894501708984375,-0.6984038949012756,0.5730592608451843,0.1596975177526474
1772790841646568000,5.90456787109375,-0.7051347494125366,0.7015064358711243,0.1412050575017929
1772790841656632800,5.9146328125,-0.697406530380249,0.8427836894989014,0.17465436458587646
1772790841666698000,5.924697998046875,-0.6840156316757202,0.9201700687408447,0.23354856669902802
1772790841676763000,5.934762939453125,-0.6934030055999756,0.9178797602653503,0.29883888363838196
1772790841686827800,5.944827880859375,-0.700920820236206,0.9441590309143066,0.36507678031921387
1772790841696894000,5.95489404296875,-0.681873083114624,0.9451092481613159,0.41998741030693054
1772790841706959000,5.964958984375,-0.6332413554191589,0.8868589997291565,0.43290960788726807
1772790841717023700,5.975023681640625,-0.5382179021835327,0.8117666244506836,0.47594016790390015
1772790841727089000,5.9850888671875,-0.4003428816795349,0.755918025970459,0.6351149082183838
1772790841737155000,5.995155029296875,-0.22558172047138214,0.6296541094779968,0.8558523654937744
1772790841747219700,6.0052197265625,-0.1428154706954956,0.45507243275642395,1.112526535987854
1772790841757284900,6.015284912109375,-0.04753103479743004,0.27754878997802734,1.4102606773376465
1772790841767350000,6.02535009765625,0.07824607193470001,-0.042826294898986816,1.6582832336425781
1772790841777416000,6.035416015625,0.155056431889534,-0.45374351739883423,1.860547423362732
1772790841787480800,6.045480712890625,0.17229001224040985,-0.9206880927085876,1.969243049621582
1772790841797546000,6.0555458984375,0.07821491360664368,-1.4762953519821167,1.7899081707000732
1772790841807611000,6.06561083984375,-0.04778004065155983,-1.8182977437973022,1.2573190927505493
1772790841817675800,6.07567578125,-0.08141336590051651,-1.624733567237854,0.588922381401062
1772790841827742000,6.085741943359375,-0.004918059334158897,-1.0917167663574219,0.015670837834477425
1772790841837806800,6.095806884765625,0.10048532485961914,-0.5216634273529053,-0.23580853641033173
1772790841847872000,6.1058720703125,0.2757010757923126,-0.26502367854118347,-0.19370022416114807
1772790841857937000,6.11593701171875,0.50799161195755,-0.3278729319572449,-0.0036008600145578384
1772790841868002800,6.1260029296875,0.6604570150375366,-0.4251188039779663,0.183151975274086
1772790841878068000,6.13606787109375,0.6483180522918701,-0.5067611932754517,0.20691269636154175
1772790841888132900,6.1461328125,0.5532283186912537,-0.6269493699073792,0.0694776102900505
1772790841898198000,6.156197998046875,0.5057212114334106,-0.7802467942237854,-0.10253303498029709
1772790841908263000,6.166262939453125,0.5374599695205688,-1.0194934606552124,-0.27459481358528137
1772790841918329000,6.1763291015625,0.6099317669868469,-1.2914155721664429,-0.43184489011764526
1772790841928393700,6.186393798828125,0.7086570262908936,-1.4995207786560059,-0.5608513355255127
1772790841938459000,6.196458984375,0.7857286334037781,-1.536874532699585,-0.6615419983863831
1772790841948524000,6.20652392578125,0.8033875226974487,-1.4520618915557861,-0.73738032579422
1772790841958589700,6.216589599609375,0.7193602919578552,-1.2523807287216187,-0.8279730677604675
1772790841968654800,6.22665478515625,0.6192933320999146,-0.9745473265647888,-0.9537685513496399
1772790841978720000,6.236719970703125,0.5510282516479492,-0.70391845703125,-1.1273504495620728
1772790841988785000,6.246784912109375,0.47042688727378845,-0.5408198237419128,-1.3476684093475342
1772790841998849800,6.256849853515625,0.3618397116661072,-0.4581958055496216,-1.609582543373108
1772790842008916000,6.266916015625,0.2683102786540985,-0.40934330224990845,-1.8985099792480469
1772790842018980900,6.27698095703125,0.13837678730487823,-0.26344549655914307,-2.0763423442840576
1772790842029045800,6.287045654296875,-0.03903980925679207,0.016166452318429947,-2.0028741359710693
1772790842039111000,6.29711083984375,-0.2390701025724411,0.29404041171073914,-1.7354576587677002
1772790842049176800,6.3071767578125,-0.4117521345615387,0.41442620754241943,-1.3830559253692627
1772790842059242000,6.317241943359375,-0.5041353106498718,0.4510124623775482,-1.0275382995605469
1772790842069307000,6.327306884765625,-0.5458100438117981,0.4457186162471771,-0.7163466811180115
1772790842079372000,6.3373720703125,-0.5634031891822815,0.40705883502960205,-0.49905988574028015
1772790842089437000,6.34743701171875,-0.5715372562408447,0.3926197290420532,-0.35768595337867737
1772790842099502800,6.3575029296875,-0.5769006013870239,0.4206870496273041,-0.23879925906658173
1772790842109568000,6.367568115234375,-0.5516096353530884,0.42915108799934387,-0.1126842051744461
1772790842119633000,6.3776328125,-0.4772624373435974,0.4359844923019409,0.001291100517846644
1772790842129697800,6.38769775390625,-0.40060681104660034,0.4618147611618042,0.09093629568815231
1772790842139763700,6.397763671875,-0.3650037944316864,0.5263983011245728,0.14700914919376373
1772790842149828900,6.407828857421875,-0.3818807899951935,0.6266324520111084,0.17664694786071777
1772790842159894000,6.41789404296875,-0.441543310880661,0.6511993408203125,0.17100369930267334
1772790842169959000,6.427958984375,-0.5242376923561096,0.6077226996421814,0.1312437802553177
1772790842180024800,6.43802490234375,-0.5910230875015259,0.5915187001228333,0.058869972825050354
1772790842190090000,6.448090087890625,-0.6348446011543274,0.41829365491867065,0.016537964344024658
1772790842200155000,6.45815478515625,-0.6580678820610046,0.3367391526699066,0.049788594245910645
1772790842210219800,6.4682197265625,-0.6277419328689575,0.3875402808189392,0.10611045360565186
1772790842220285000,6.478284912109375,-0.5549516081809998,0.4720016121864319,0.13710911571979523
1772790842230350800,6.488350830078125,-0.4662902057170868,0.5595415830612183,0.09836119413375854
1772790842240415700,6.498415771484375,-0.40793049335479736,0.6807119846343994,-0.0024780714884400368
1772790842250481000,6.50848095703125,-0.37236931920051575,0.8512397408485413,-0.13087785243988037
1772790842260546000,6.518546142578125,-0.3254460096359253,0.9745105504989624,-0.24371971189975739
1772790842270612000,6.528612060546875,-0.2737681567668915,1.0128531455993652,-0.30536550283432007
1772790842280676900,6.5386767578125,-0.19160990417003632,1.092444896697998,-0.5091891884803772
1772790842290742000,6.548741943359375,-0.07167205959558487,1.1983397006988525,-0.5124276280403137
1772790842300807000,6.558806884765625,0.17296698689460754,1.1839202642440796,-0.33769840002059937
1772790842310871800,6.568871826171875,0.3457283675670624,1.289698600769043,-0.22515295445919037
1772790842320938000,6.57893798828125,0.4754839837551117,1.469916582107544,-0.2741881310939789
1772790842331003000,6.5890029296875,0.7226855158805847,1.7470661401748657,-0.19020482897758484
1772790842341067800,6.59906787109375,1.103520154953003,2.073890447616577,0.13234685361385345
1772790842351133000,6.6091328125,1.4824475049972534,2.206747531890869,0.4857698976993561
1772790842361198800,6.61919873046875,1.7359095811843872,1.8941158056259155,0.684631884098053
1772790842371264000,6.629263916015625,1.732479453086853,1.1726902723312378,0.5511465072631836
1772790842381329000,6.639328857421875,1.4690526723861694,0.2510679066181183,0.05817994847893715
1772790842391393800,6.649393798828125,1.1453957557678223,-0.5867489576339722,-0.473479688167572
1772790842401459000,6.659458984375,0.9320381879806519,-1.1596282720565796,-0.8768742680549622
1772790842411525000,6.669525146484375,0.8792461156845093,-1.476425290107727,-1.2142586708068848
1772790842421589800,6.67958984375,0.9378974437713623,-1.5858330726623535,-1.5295969247817993
1772790842431655000,6.689655029296875,1.0328974723815918,-1.411245584487915,-1.8014767169952393
1772790842441720000,6.699719970703125,1.0996778011322021,-1.0492428541183472,-2.0484492778778076
1772790842451785700,6.70978564453125,1.1406960487365723,-0.7122256755828857,-2.3616065979003906
1772790842461851000,6.719850830078125,1.144722819328308,-0.49155908823013306,-2.6853675842285156
1772790842471916000,6.729916015625,1.100737452507019,-0.3906170129776001,-2.916036367416382
1772790842481981000,6.73998095703125,0.9799391627311707,-0.4035551846027374,-3.0349385738372803
1772790842492046800,6.750046875,0.7676551342010498,-0.4493844509124756,-3.0691583156585693
1772790842502112000,6.760112060546875,0.534978985786438,-0.41155320405960083,-3.0451855659484863
1772790842512177000,6.770177001953125,0.340971976518631,-0.21820876002311707,-2.9946982860565186
1772790842522241800,6.78024169921875,0.1962541937828064,0.0365324430167675,-2.9082112312316895
1772790842532307000,6.790306884765625,0.09509402513504028,0.2676234543323517,-2.7407925128936768
1772790842542372900,6.800372802734375,0.03148708492517471,0.42265698313713074,-2.509965419769287
1772790842552437800,6.810437744140625,-0.03669356554746628,0.44365519285202026,-2.2230207920074463
1772790842562503000,6.8205029296875,-0.11569970101118088,0.3301747143268585,-1.906113624572754
1772790842572568000,6.830568115234375,-0.1961766928434372,0.16739778220653534,-1.6112545728683472
1772790842582634000,6.840634033203125,-0.24829316139221191,0.02828463539481163,-1.3944380283355713
1772790842592699000,6.850698974609375,-0.24003364145755768,-0.0791531428694725,-1.2828787565231323
1772790842602763800,6.860763671875,-0.21264222264289856,-0.17991730570793152,-1.2807064056396484
1772790842612829000,6.870828857421875,-0.2392733097076416,-0.322032630443573,-1.4027785062789917
1772790842622893800,6.880893798828125,-0.3370715081691742,-0.4388985335826874,-1.5722516775131226
1772790842632959700,6.890959716796875,-0.42455342411994934,-0.45642584562301636,-1.659259557723999
1772790842643025000,6.90102490234375,-0.4452584385871887,-0.3863429129123688,-1.6173326969146729
1772790842653090000,6.911090087890625,-0.3873218894004822,-0.27524301409721375,-1.457207202911377
1772790842663155000,6.921155029296875,-0.23272618651390076,-0.11900255084037781,-1.1889408826828003
1772790842673220900,6.931220947265625,-0.045531533658504486,0.06826400756835938,-0.829143226146698
1772790842683286000,6.9412861328125,0.0880931094288826,0.23401115834712982,-0.495228111743927
1772790842693351000,6.951350830078125,0.15101827681064606,0.2706615924835205,-0.280304878950119
1772790842703415800,6.961415771484375,0.21202704310417175,0.2414187490940094,-0.09495873749256134
1772790842713481000,6.97148095703125,0.27498310804367065,0.1816941648721695,0.11368954926729202
1772790842723547000,6.981546875,0.3368573784828186,0.02696397341787815,0.3385772407054901
1772790842733611800,6.99161181640625,0.358492374420166,-0.19653889536857605,0.5390909314155579
1772790842743677000,7.001677001953125,0.32025283575057983,-0.3266524076461792,0.7451074719429016
1772790842753742000,7.0117421875,0.2677164077758789,-0.3421940803527832,1.0122864246368408
1772790842763808000,7.02180810546875,0.25799480080604553,-0.2282094657421112,1.318312406539917
1772790842773873000,7.031872802734375,0.2934558391571045,0.04192987456917763,1.5985499620437622
1772790842783938000,7.04193798828125,0.35149306058883667,0.3637806177139282,1.7889918088912964
1772790842794003000,7.0520029296875,0.37159353494644165,0.6654326319694519,1.8088408708572388
1772790842804067800,7.06206787109375,0.34904560446739197,0.8547521829605103,1.708283543586731
1772790842814133800,7.0721337890625,0.31031206250190735,0.9229519963264465,1.5661664009094238
1772790842824199000,7.082198974609375,0.21467448770999908,0.8982275128364563,1.4895565509796143
1772790842834263800,7.092263916015625,0.1008770763874054,0.8538352847099304,1.5380330085754395
1772790842844329000,7.102328857421875,0.03236566111445427,0.7450376749038696,1.7016578912734985
1772790842854395000,7.112394775390625,-0.016807742416858673,0.5081015825271606,1.822814702987671
1772790842864460000,7.1224599609375,-0.11263173818588257,0.011639611795544624,1.7238478660583496
1772790842874525000,7.13252490234375,-0.2381124347448349,-0.6447779536247253,1.4282231330871582
1772790842884589800,7.14258984375,-0.36910614371299744,-1.2346569299697876,1.1313399076461792
1772790842894655000,7.152655029296875,-0.4548753798007965,-1.5431604385375977,0.9433454275131226
1772790842904721000,7.162720947265625,-0.4092447757720947,-1.432480812072754,0.7997003793716431
1772790842914785800,7.172785888671875,-0.2644577622413635,-1.0525859594345093,0.6067644953727722
1772790842924851000,7.182850830078125,-0.1747976392507553,-0.48488306999206543,0.32028186321258545
1772790842934916000,7.192916015625,-0.22641529142856598,0.14259204268455505,-0.015362177975475788
1772790842944981800,7.202981689453125,-0.3826432526111603,0.6456354856491089,-0.2885439097881317
1772790842955047000,7.213046875,-0.5127565264701843,0.8819907307624817,-0.4258061647415161
1772790842965112000,7.223112060546875,-0.5801309943199158,0.9212105870246887,-0.45881444215774536
1772790842975176700,7.2331767578125,-0.6225192546844482,0.7744264602661133,-0.4667373597621918
1772790842985241900,7.243241943359375,-0.6460365653038025,0.5011424422264099,-0.4968686103820801
1772790842995308000,7.25330810546875,-0.6357561945915222,0.22170522809028625,-0.5227750539779663
1772790843005373000,7.263373046875,-0.68158358335495,0.00845660176128149,-0.5209177732467651
1772790843015437800,7.273437744140625,-0.7473114728927612,-0.16616341471672058,-0.47978124022483826
1772790843025503000,7.2835029296875,-0.7376532554626465,-0.25765231251716614,-0.4010142683982849
1772790843035569000,7.29356884765625,-0.7296933531761169,-0.3269219398498535,-0.3359135687351227
1772790843045633800,7.3036337890625,-0.7515427470207214,-0.41863587498664856,-0.31605836749076843
1772790843055699000,7.313698974609375,-0.8266899585723877,-0.47900307178497314,-0.31966668367385864
1772790843065763800,7.323763916015625,-0.9546353816986084,-0.4769313931465149,-0.3492554724216461
1772790843075828700,7.333828857421875,-1.078251838684082,-0.3917725682258606,-0.3728840947151184
1772790843085895000,7.34389501953125,-1.1530011892318726,-0.2531355917453766,-0.3921464681625366
1772790843095959800,7.353959716796875,-1.199601411819458,-0.12904852628707886,-0.4172438383102417
1772790843106025000,7.36402490234375,-1.2299233675003052,-0.010308297351002693,-0.40896832942962646
1772790843116089900,7.37408984375,-1.2049320936203003,0.09569936245679855,-0.3362200856208801
1772790843126155800,7.38415576171875,-1.1747571229934692,0.13689154386520386,-0.27342700958251953
1772790843136221000,7.394220947265625,-1.137864589691162,0.1603904664516449,-0.21278762817382812
1772790843146286000,7.4042861328125,-1.0792700052261353,0.21762074530124664,-0.13361158967018127
1772790843156351000,7.41435107421875,-1.0034825801849365,0.31220635771751404,-0.04583673179149628
1772790843166416000,7.424415771484375,-0.882928192615509,0.4734613001346588,0.0528498999774456
1772790843176482000,7.43448193359375,-0.7075973749160767,0.5976969599723816,0.16268186271190643
1772790843186546700,7.444546630859375,-0.5132811665534973,0.6841477155685425,0.3180919587612152
1772790843196611800,7.45461181640625,-0.3189961016178131,0.7064367532730103,0.5377835631370544
1772790843206677000,7.464677001953125,-0.14205408096313477,0.6434402465820312,0.833843469619751
1772790843216743000,7.474742919921875,-0.0729498416185379,0.5211055278778076,1.1510728597640991
1772790843226807800,7.484807861328125,-0.09619870781898499,0.3639928698539734,1.3802117109298706
1772790843236873000,7.494873046875,-0.11800253391265869,0.07870626449584961,1.4488898515701294
1772790843246938000,7.504938232421875,-0.04733582213521004,-0.17478565871715546,1.4288469552993774
1772790843257002800,7.515002685546875,0.08718390762805939,-0.2019277960062027,1.4742088317871094
1772790843267069000,7.52506884765625,0.2779879570007324,0.0415160171687603,1.6578108072280884
1772790843277133800,7.5351337890625,0.49508535861968994,0.4516257643699646,1.9935227632522583
1772790843287198700,7.54519873046875,0.6854550242424011,0.7278555035591125,2.1996283531188965
1772790843297263900,7.555263916015625,0.7022683620452881,0.5959512591362,2.0990993976593018
1772790843307329800,7.565329833984375,0.47516733407974243,0.13156095147132874,1.761292815208435
1772790843317395000,7.57539501953125,0.1594487726688385,-0.35352665185928345,1.4751787185668945
1772790843327459800,7.5854599609375,-0.049008022993803024,-0.577121913433075,1.4525580406188965
1772790843337525000,7.59552490234375,-0.09669405221939087,-0.5414108037948608,1.4849014282226562
1772790843347590000,7.60558984375,-0.020716996863484383,-0.47320857644081116,1.3346285820007324
1772790843357656000,7.615656005859375,0.015728630125522614,-0.5994868874549866,0.9004637598991394
1772790843367721000,7.625720947265625,-0.025187911465764046,-0.8283368349075317,0.1859072893857956
1772790843377785900,7.635785888671875,-0.06458591669797897,-0.911932110786438,-0.5607349276542664
1772790843387851000,7.64585107421875,-0.0788617953658104,-0.8187148571014404,-1.1488887071609497
1772790843397916700,7.655916748046875,-0.08630639314651489,-0.5652940273284912,-1.5080519914627075
1772790843407981800,7.66598193359375,-0.04290485754609108,-0.26930418610572815,-1.7267118692398071
1772790843418047000,7.676046875,0.03477715328335762,-0.022065354511141777,-1.8446241617202759
1772790843428112000,7.68611181640625,0.1325250267982483,0.14643390476703644,-1.8364481925964355
1772790843438176800,7.6961767578125,0.17982009053230286,0.17739582061767578,-1.7873382568359375
1772790843448243000,7.706242919921875,0.14865978062152863,0.05427895113825798,-1.7734622955322266
1772790843458308000,7.71630810546875,0.08053266257047653,-0.19644621014595032,-1.8311655521392822
1772790843468372700,7.726372802734375,0.026732278987765312,-0.4703406095504761,-1.9710670709609985
1772790843478438000,7.73643798828125,0.006066680885851383,-0.6371892690658569,-2.2135753631591797
1772790843488503800,7.74650390625,-0.0258124228566885,-0.5099942684173584,-2.5255157947540283
1772790843498569000,7.75656884765625,-0.05375883728265762,-0.1918671727180481,-2.819164514541626
1772790843508633900,7.7666337890625,-0.08887900412082672,0.15000654757022858,-3.0184295177459717
1772790843518699000,7.776698974609375,-0.13726438581943512,0.43426117300987244,-2.9904234409332275
1772790843528764000,7.786763916015625,-0.1658981591463089,0.6715461611747742,-2.6723880767822266
1772790843538829800,7.796829833984375,-0.15976782143115997,0.7759947776794434,-2.157642126083374
1772790843548895000,7.80689501953125,-0.07344651967287064,0.7187325954437256,-1.530495524406433
1772790843558959900,7.8169599609375,0.06940384209156036,0.554629385471344,-0.851694643497467
1772790843569024800,7.827024658203125,0.20556087791919708,0.37538453936576843,-0.22455081343650818
1772790843579091000,7.837091064453125,0.3376355469226837,0.18059374392032623,0.2547758221626282
1772790843589155800,7.84715576171875,0.4370143413543701,0.017138507217168808,0.5579716563224792
1772790843599221000,7.857220947265625,0.5196858048439026,-0.03315768763422966,0.7287346124649048
1772790843609285000,7.86728515625,0.5782366991043091,-0.0055004931055009365,0.7921319603919983
1772790843619350300,7.877350341796875,0.6168714761734009,0.040076844394207,0.7653341889381409
1772790843629416200,7.887416259765625,0.6508936285972595,0.11425440013408661,0.6893613934516907
1772790843639481300,7.8974814453125,0.6924759149551392,0.192734032869339,0.5894653797149658
1772790843649546200,7.907546142578125,0.7351376414299011,0.2618236243724823,0.5099591016769409
1772790843659611100,7.917611083984375,0.7756014466285706,0.3026195168495178,0.5078038573265076
1772790843669677300,7.92767724609375,0.8063116669654846,0.35353195667266846,0.5969007015228271
1772790843679742500,7.937742431640625,0.8154497742652893,0.41940686106681824,0.7448760271072388
1772790843689807000,7.94780712890625,0.8186237812042236,0.5237961411476135,0.9176592826843262
1772790843699872300,7.957872314453125,0.7903913259506226,0.6804698705673218,1.0434526205062866
1772790843709937400,7.9679375,0.7332901954650879,0.8324042558670044,1.1036837100982666
1772790843720003000,7.978003173828125,0.6416063904762268,0.9413337111473083,1.1011906862258911
1772790843730068200,7.988068115234375,0.5126638412475586,1.0303378105163574,1.0536237955093384
1772790843740133400,7.99813330078125,0.35180652141571045,1.0412986278533936,0.9744000434875488
1772790843750198000,8.008197998046874,0.18008534610271454,1.125388741493225,0.9038203954696655
1772790843760263200,8.01826318359375,0.0521010160446167,1.0842993259429932,0.7821022272109985
1772790843770329300,8.028329345703124,0.016286294907331467,1.0676591396331787,0.6194632649421692
1772790843780394200,8.038394287109375,0.11304213106632233,0.9862420558929443,0.3677268922328949
1772790843790459100,8.048459228515625,0.21574588119983673,0.6539050936698914,-0.033851440995931625
1772790843800524300,8.058524169921874,0.24321319162845612,0.10410749167203903,-0.505756676197052
1772790843810589400,8.06858935546875,0.2707478702068329,-0.3965958058834076,-0.7829152941703796
1772790843820655400,8.0786552734375,0.37358370423316956,-0.5387700200080872,-0.72154301404953
1772790843830720300,8.08872021484375,0.6366217136383057,-0.25758254528045654,-0.3420553505420685
1772790843840785200,8.09878515625,1.046559453010559,0.10255886614322662,0.22008202970027924
1772790843850850300,8.108850341796876,1.3747689723968506,0.16234762966632843,0.8157728314399719
1772790843860916200,8.118916259765625,1.4433057308197021,-0.029698774218559265,1.305618405342102
1772790843870981000,8.128981201171875,1.318919062614441,-0.29307156801223755,1.552872657775879
1772790843881046300,8.13904638671875,1.2818039655685425,-0.4997331202030182,1.4911137819290161
1772790843891111200,8.149111083984375,1.3226429224014282,-0.5024878978729248,1.2553582191467285
1772790843901176300,8.15917626953125,1.3022884130477905,-0.3608889579772949,0.9049202799797058
1772790843911242200,8.1692421875,1.1374603509902954,-0.25996872782707214,0.44772425293922424
1772790843921307400,8.179307373046875,0.8626503348350525,-0.1911659687757492,-0.09259890764951706
1772790843931372300,8.189372314453125,0.5711588263511658,-0.021319935098290443,-0.6493175625801086
1772790843941437200,8.199437255859374,0.29939788579940796,0.16646593809127808,-1.1480916738510132
1772790843951503400,8.20950341796875,0.02906573936343193,0.17136669158935547,-1.4947758913040161
1772790843961568000,8.219568115234376,-0.2042788416147232,0.0073567163199186325,-1.6844182014465332
1772790843971633200,8.229633056640624,-0.370631605386734,-0.19386987388134003,-1.7710609436035156
1772790843981698300,8.2396982421875,-0.429808109998703,-0.3578904867172241,-1.7500659227371216
1772790843991763200,8.24976318359375,-0.3899853229522705,-0.40089043974876404,-1.6421018838882446
1772790844001829000,8.2598291015625,-0.3233064115047455,-0.3996911942958832,-1.4680049419403076
1772790844011894300,8.269894287109375,-0.29069387912750244,-0.41415777802467346,-1.2358039617538452
1772790844021959400,8.27995947265625,-0.26889485120773315,-0.43891769647598267,-0.9699424505233765
1772790844032024000,8.290024169921875,-0.2036825567483902,-0.5208019018173218,-0.7126435041427612
1772790844042090200,8.30009033203125,-0.09500454366207123,-0.6421059966087341,-0.445580393075943
1772790844052155100,8.310155029296874,0.019648801535367966,-0.7490918040275574,-0.1646169126033783
1772790844062220300,8.32022021484375,0.10851875692605972,-0.8439139127731323,0.12563754618167877
1772790844072285200,8.33028515625,0.1704537570476532,-0.905800998210907,0.43963462114334106
1772790844082350300,8.340350341796874,0.2558711767196655,-1.0189579725265503,0.784675121307373
1772790844092416300,8.350416259765625,0.3784101605415344,-1.175882339477539,1.1587104797363281
1772790844102481200,8.360481201171876,0.5090363621711731,-1.2694801092147827,1.5073564052581787
1772790844112546300,8.37054638671875,0.6137939095497131,-1.192335844039917,1.778343677520752
1772790844122611200,8.380611083984375,0.7070455551147461,-0.9266524910926819,1.9412769079208374
1772790844132677400,8.390677490234374,0.7892336249351501,-0.5366573333740234,1.9927911758422852
1772790844142742300,8.4007421875,0.8421946167945862,-0.13059395551681519,1.9439733028411865
1772790844152807200,8.41080712890625,0.7860804796218872,0.19674529135227203,1.8259761333465576
1772790844162872300,8.420872314453124,0.5879514217376709,0.4406900405883789,1.6277024745941162
1772790844172937200,8.430937255859375,0.33023011684417725,0.6146842241287231,1.3309760093688965
1772790844183003100,8.441003173828125,0.10902022570371628,0.7143186330795288,0.9391371011734009
1772790844193068300,8.451068359375,-0.06664720177650452,0.7305751442909241,0.46313515305519104
1772790844203133400,8.461133544921875,-0.29994118213653564,0.6445236206054688,-0.04476374387741089
1772790844213198000,8.471197998046875,-0.5541326999664307,0.45386284589767456,-0.5065420269966125
1772790844223263200,8.48126318359375,-0.7465279698371887,0.27259451150894165,-0.8916133046150208
1772790844233329400,8.491329345703125,-0.8662077784538269,0.09860220551490784,-1.1712363958358765
1772790844243394000,8.50139404296875,-0.8949214816093445,-0.009256082586944103,-1.271897554397583
1772790844253459200,8.511459228515625,-0.8395167589187622,0.004293814767152071,-1.0802154541015625
1772790844263524400,8.5215244140625,-0.815697193145752,0.11793062835931778,-0.4892040491104126
1772790844273590300,8.53159033203125,-0.8216531276702881,0.34286919236183167,0.44201549887657166
1772790844283655200,8.5416552734375,-0.7055877447128296,0.7465189099311829,1.5054726600646973
1772790844293720300,8.55172021484375,-0.49017077684402466,1.1393355131149292,2.375795602798462
1772790844303785200,8.56178515625,-0.33610236644744873,1.3187144994735718,2.795208692550659
1772790844313850000,8.57185009765625,-0.31652095913887024,1.133173942565918,2.9509434700012207
1772790844323916300,8.581916259765626,-0.4088279902935028,0.7532010674476624,3.2355165481567383
1772790844333981200,8.591981201171874,-0.49708646535873413,0.4617098271846771,3.8047738075256348
1772790844344046000,8.602046142578125,-0.5298827886581421,0.30929791927337646,4.308434963226318
1772790844354111200,8.612111328125,-0.49108636379241943,0.23963603377342224,4.504612445831299
1772790844364177200,8.62217724609375,-0.3991282284259796,0.10890118032693863,4.293240070343018
1772790844374242300,8.6322421875,-0.39105725288391113,-0.14331641793251038,3.7519564628601074
1772790844384307200,8.64230712890625,-0.5421293377876282,-0.31928929686546326,3.10465931892395
1772790844394372400,8.652372314453125,-0.7311447858810425,-0.3389647305011749,2.502260684967041
1772790844404437200,8.662437255859375,-0.8492301106452942,-0.2742278277873993,1.9465041160583496
1772790844414503400,8.67250341796875,-0.9043932557106018,-0.2537590265274048,1.3256547451019287
1772790844424568000,8.682568115234375,-0.9764887690544128,-0.21985353529453278,0.6521871089935303
1772790844434633200,8.69263330078125,-1.0048741102218628,-0.1337016075849533,-0.026502180844545364
1772790844444698400,8.702698486328124,-0.985889196395874,-0.10334289819002151,-0.6293252110481262
1772790844454764000,8.712763916015625,-0.986195981502533,-0.20138317346572876,-1.0693438053131104
1772790844464829200,8.7228291015625,-0.9954973459243774,-0.37085211277008057,-1.3444985151290894
1772790844474894300,8.732894287109374,-0.9760274887084961,-0.6155103445053101,-1.50420081615448
1772790844484959200,8.742959228515625,-0.9047263860702515,-0.8871884346008301,-1.5812236070632935
1772790844495024000,8.753024169921876,-0.8334549069404602,-1.0890775918960571,-1.6034469604492188
1772790844505090300,8.76309033203125,-0.7758925557136536,-1.2390847206115723,-1.5744563341140747
1772790844515155200,8.7731552734375,-0.634579598903656,-1.2697983980178833,-1.4677321910858154
1772790844525220000,8.78322021484375,-0.30623316764831543,-1.1764639616012573,-1.301489233970642
1772790844535285200,8.79328515625,-0.043542418628931046,-0.9349157214164734,-1.0619136095046997
1772790844545350400,8.803350341796875,0.23339250683784485,-0.5648887157440186,-0.7673565745353699
1772790844555416300,8.813416259765624,0.4749537408351898,-0.15059830248355865,-0.47147539258003235
1772790844565481200,8.823481201171875,0.6207247972488403,0.10939706116914749,-0.1885552704334259
1772790844575546400,8.83354638671875,0.659908652305603,0.17001566290855408,0.09725411236286163
1772790844585611300,8.843611328125,0.7402317523956299,0.1562388688325882,0.3848198354244232
1772790844595677200,8.85367724609375,0.6742439270019531,0.08381740003824234,0.6158072352409363
1772790844605742300,8.863742431640626,0.5647520422935486,-0.03614895045757294,0.8062581419944763
1772790844615807200,8.87380712890625,0.5164428353309631,-0.13279399275779724,0.9896445274353027
1772790844625872100,8.8838720703125,0.4801996350288391,-0.20236162841320038,1.1343907117843628
1772790844635937300,8.893937255859376,0.37192749977111816,-0.29186779260635376,1.1880156993865967
1772790844646003200,8.904003173828125,0.22761665284633636,-0.42234352231025696,1.147810459136963
1772790844656068400,8.914068359375,0.09501785784959793,-0.5438989996910095,1.0111620426177979
1772790844666133200,8.92413330078125,-0.001918807509355247,-0.682390034198761,0.7546128034591675
1772790844676198100,8.9341982421875,-0.1157044917345047,-0.6680179834365845,0.4806089699268341
1772790844686263300,8.94426318359375,-0.19668057560920715,-0.5706222057342529,0.30836209654808044
1772790844696329200,8.9543291015625,-0.24184884130954742,-0.3794993758201599,0.24866653978824615
1772790844706394000,8.96439404296875,-0.3181188404560089,-0.1445760875940323,0.2946998178958893
1772790844716459300,8.974459228515625,-0.34700483083724976,0.05572584643959999,0.351431280374527
1772790844726524400,8.9845244140625,-0.3680723011493683,0.23356668651103973,0.40690678358078003
1772790844736590000,8.994590087890625,-0.4339847266674042,0.33076566457748413,0.44651225209236145
1772790844746655200,9.0046552734375,-0.520621120929718,0.35277748107910156,0.44012731313705444
1772790844756720400,9.014720458984375,-0.5524293780326843,0.32816776633262634,0.40359488129615784
1772790844766785000,9.024784912109375,-0.5213646292686462,0.321957528591156,0.3984784185886383
1772790844776850200,9.03485009765625,-0.4315471351146698,0.3259330987930298,0.44752398133277893
1772790844786916400,9.044916259765625,-0.32585588097572327,0.39032992720603943,0.5341286659240723
1772790844796981200,9.054981201171875,-0.2827762961387634,0.835716962814331,0.7003147006034851
1772790844807046100,9.065046142578124,-0.16291089355945587,1.362976312637329,0.9688763618469238
1772790844817111300,9.075111328125,-0.08226877450942993,1.4913893938064575,1.0952636003494263
1772790844827176400,9.085176513671875,-0.19108739495277405,0.9164669513702393,0.9060065746307373
1772790844837242000,9.0952421875,-0.46951770782470703,-0.14445757865905762,0.3422388434410095
1772790844847307300,9.105307373046875,-0.7446379661560059,-0.6527714133262634,-0.09359440207481384
1772790844857372200,9.1153720703125,-0.8373457789421082,-0.870302677154541,-0.10438792407512665
1772790844867437000,9.12543701171875,-0.6334853172302246,-0.6974768042564392,0.17525944113731384
1772790844877503200,9.135503173828125,-0.37556058168411255,-0.08250553160905838,0.5039302706718445
1772790844887568100,9.145568115234376,-0.14691275358200073,0.30498814582824707,0.6637718677520752
1772790844897633300,9.15563330078125,0.06408284604549408,0.26201722025871277,0.5671585202217102
1772790844907698200,9.1656982421875,0.14949335157871246,-0.04825115203857422,0.2685190737247467
1772790844917763300,9.175763427734376,0.19308237731456757,-0.34686607122421265,-0.01215759664773941
1772790844927829200,9.185829345703125,0.3163270652294159,-0.49772003293037415,-0.16725370287895203
1772790844937894400,9.195894287109375,0.5038573145866394,-0.5930519104003906,-0.19249089062213898
1772790844947959300,9.205959228515624,0.6937678456306458,-0.7537957429885864,-0.16713014245033264
1772790844958024200,9.216024169921875,0.7977088689804077,-0.9722159504890442,-0.17664188146591187
1772790844968089300,9.22608935546875,0.7083723545074463,-1.1731408834457397,-0.2659163773059845
1772790844978155300,9.2361552734375,0.49442464113235474,-1.3050652742385864,-0.3942679464817047
1772790844988220200,9.24622021484375,0.33507680892944336,-1.5066399574279785,-0.5031459331512451
1772790844998285300,9.256285400390626,0.3053750991821289,-1.8761130571365356,-0.5930241942405701
1772790845008350200,9.26635009765625,0.40807750821113586,-2.2119429111480713,-0.7319945693016052
1772790845018416000,9.276416015625,0.5644700527191162,-2.247343063354492,-0.9280639886856079
1772790845028481300,9.286481201171876,0.6874495148658752,-1.9219266176223755,-1.1798964738845825
1772790845038546400,9.29654638671875,0.7106389403343201,-1.3224618434906006,-1.4256683588027954
1772790845048611000,9.306611083984375,0.676421046257019,-0.6680890917778015,-1.5599240064620972
1772790845058676200,9.31667626953125,0.6210417151451111,-0.17977268993854523,-1.5240871906280518
1772790845068742400,9.326742431640625,0.5143970251083374,0.060750700533390045,-1.3906174898147583
1772790845078807000,9.33680712890625,0.3921978771686554,0.06826640665531158,-1.2276644706726074
1772790845088872200,9.3468720703125,0.2638380229473114,-0.02502945251762867,-1.0866895914077759
1772790845098937300,9.356937255859375,0.11832451075315475,-0.12324816733598709,-1.027057409286499
1772790845109003300,9.367003173828126,-0.013168798759579659,-0.1261901557445526,-1.0051664113998413
1772790845119068200,9.377068115234374,-0.09084388613700867,-0.017307350412011147,-0.9348310828208923
1772790845129133300,9.38713330078125,-0.13271783292293549,0.14511990547180176,-0.8066845536231995
1772790845139198200,9.3971982421875,-0.1560809463262558,0.3448562026023865,-0.6267746686935425
1772790845149263000,9.40726318359375,-0.18417516350746155,0.4964744746685028,-0.4336893856525421
1772790845159329300,9.417329345703125,-0.2626470625400543,0.5677347779273987,-0.27566778659820557
1772790845169394200,9.427394287109376,-0.3702579438686371,0.5094779133796692,-0.1692606657743454
1772790845179459300,9.437459228515625,-0.489661306142807,0.288448303937912,-0.08920791000127792
1772790845189524200,9.447524169921875,-0.5561250448226929,0.0612388551235199,-0.002755572786554694
1772790845199589400,9.45758935546875,-0.5474002361297607,-0.15452753007411957,0.10277005285024643
1772790845209655300,9.4676552734375,-0.6129946708679199,-0.34993776679039,0.21710248291492462
1772790845219720200,9.47772021484375,-0.7859912514686584,-0.3572175204753876,0.31778329610824585
1772790845229785000,9.48778515625,-0.9039756655693054,-0.23908661305904388,0.3481696844100952
1772790845239850200,9.497850341796875,-0.9401512742042542,-0.11130921542644501,0.37129366397857666
1772790845249916400,9.50791650390625,-0.8696249127388,0.02443663403391838,0.42388761043548584
1772790845259981000,9.51798095703125,-0.7146750092506409,0.15404336154460907,0.5022087693214417
1772790845270046200,9.528046142578125,-0.5063478946685791,0.24024029076099396,0.5686594843864441
1772790845280111400,9.538111328125,-0.3713913857936859,0.19134758412837982,0.679034948348999
1772790845290176300,9.54817626953125,-0.3218904137611389,0.20908664166927338,0.846165120601654
1772790845300242200,9.5582421875,-0.32304278016090393,0.3196333944797516,1.1358214616775513
1772790845310307300,9.568307373046874,-0.34656861424446106,0.5617959499359131,1.507481575012207
1772790845320372200,9.578372314453125,-0.38216841220855713,0.7815285921096802,1.847299575805664
1772790845330437000,9.58843701171875,-0.4604690670967102,0.9169250130653381,2.0918214321136475
1772790845340502300,9.598502197265624,-0.5108574032783508,0.8931488394737244,2.1959991455078125
1772790845350568200,9.608568115234375,-0.5339571237564087,0.7047805190086365,2.1018590927124023
1772790845360633000,9.618633056640626,-0.544094979763031,0.4694098234176636,1.894910454750061
1772790845370698200,9.6286982421875,-0.5635004043579102,0.38744014501571655,1.8075993061065674
1772790845380763400,9.638763427734375,-0.5618178248405457,0.47285276651382446,1.9468802213668823
1772790845390829300,9.648829345703126,-0.5157176852226257,0.48250725865364075,2.2068657875061035
1772790845400894200,9.658894287109375,-0.44897887110710144,0.29735392332077026,2.397075891494751
1772790845410959400,9.66895947265625,-0.38326430320739746,0.03628956526517868,2.457149028778076
1772790845421024300,9.679024169921876,-0.334093302488327,-0.3171662390232086,2.3513009548187256
1772790845431089200,9.689089111328125,-0.29640209674835205,-0.8178892731666565,2.0261220932006836
1772790845441155000,9.699155029296875,-0.24857093393802643,-1.3213491439819336,1.5168424844741821
1772790845451220200,9.70922021484375,-0.1890072077512741,-1.7357831001281738,0.9397462010383606
1772790845461285400,9.719285400390625,-0.13825801014900208,-1.8404264450073242,0.4339309334754944
1772790845471350300,9.729350341796875,-0.06566556543111801,-1.635034203529358,0.06618408113718033
1772790845481415200,9.739415283203124,0.05890006944537163,-1.3169687986373901,-0.15436773002147675
1772790845491481300,9.7494814453125,0.24403849244117737,-1.089512825012207,-0.16086424887180328
1772790845501546200,9.759546142578126,0.3482501208782196,-1.0532461404800415,-0.051301270723342896
1772790845511611100,9.769611083984374,0.23146039247512817,-1.1766133308410645,0.01387027557939291
1772790845521676300,9.77967626953125,-0.045104362070560455,-1.3622080087661743,-0.03693990781903267
1772790845531742200,9.7897421875,-0.304321825504303,-1.5458401441574097,-0.21554240584373474
1772790845541807000,9.79980712890625,-0.37650200724601746,-1.5786020755767822,-0.513980507850647
1772790845551872300,9.809872314453125,-0.15883146226406097,-1.6745394468307495,-0.8281067609786987
1772790845561937400,9.8199375,0.11485281586647034,-1.8747165203094482,-1.0595998764038086
1772790845572002000,9.830001953125,0.2314145863056183,-1.5730266571044922,-1.1743628978729248
1772790845582068200,9.840068115234375,0.22860734164714813,-0.8778175711631775,-1.1348499059677124
1772790845592133400,9.85013330078125,0.11601927876472473,0.007478688843548298,-0.9368614554405212
1772790845602198000,9.860197998046875,-0.07162811607122421,0.727745771408081,-0.6435360908508301
1772790845612263400,9.870263427734375,-0.298645555973053,1.0169719457626343,-0.39973968267440796
1772790845622328600,9.88032861328125,-0.5528264045715332,0.8250912427902222,-0.25052541494369507
1772790845632394500,9.89039453125,-0.7930704355239868,0.31934788823127747,-0.1281377226114273
1772790845642459600,9.900459716796876,-0.9583480954170227,-0.20245243608951569,-0.00956953689455986
1772790845652524500,9.910524658203125,-1.0310662984848022,-0.44511622190475464,0.10247497260570526
1772790845662589400,9.92058935546875,-1.032679796218872,-0.344298779964447,0.21535518765449524
1772790845672654600,9.930654541015626,-0.9762495756149292,-0.06222103163599968,0.29956167936325073
1772790845682720500,9.940720458984375,-0.8482705950737,0.20041964948177338,0.3763693869113922
1772790845692785400,9.950785400390625,-0.730657696723938,0.31632867455482483,0.3958032727241516
1772790845702850600,9.9608505859375,-0.6632347106933594,0.2241438925266266,0.271148681640625
1772790845712915500,9.97091552734375,-0.70562344789505,0.0567500963807106,0.09294884651899338
1772790845722981400,9.9809814453125,-0.7924579381942749,-0.1215306892991066,-0.09148597717285156
1772790845733046500,9.991046630859374,-0.8436169624328613,-0.1014946699142456,-0.2700969874858856
1772790845743111700,10.001111572265625,-0.8493260145187378,0.09644504636526108,-0.35675331950187683
1772790845753176600,10.011176513671876,-0.8148601651191711,0.35117295384407043,-0.334736168384552
1772790845763241500,10.021241455078124,-0.736933708190918,0.5824580788612366,-0.17097947001457214
1772790845773307600,10.0313076171875,-0.6477838158607483,0.710037350654602,0.13322782516479492
1772790845783372500,10.04137255859375,-0.5799736380577087,0.6418803930282593,0.42325645685195923
1772790845793437400,10.0514375,-0.5690549612045288,0.40248194336891174,0.6458394527435303
1772790845803502600,10.061502685546875,-0.573975682258606,0.10708437860012054,0.8335244059562683
1772790845813567700,10.071567626953126,-0.5492045283317566,-0.0953638032078743,1.0712178945541382
1772790845823633400,10.08163330078125,-0.5183805823326111,-0.04525909200310707,1.3317829370498657
1772790845833698600,10.091698486328125,-0.5272723436355591,0.10125791281461716,1.484769582748413
1772790845843763700,10.101763671875,-0.6377740502357483,0.14027801156044006,1.3572232723236084
1772790845853828400,10.111828369140625,-0.8039212226867676,0.20214803516864777,0.8753594756126404
1772790845863894500,10.12189453125,-0.9060723781585693,0.2935083210468292,0.1950179636478424
1772790845873959400,10.13195947265625,-0.8785563111305237,0.6041495203971863,-0.3365303575992584
1772790845884024600,10.142024658203125,-0.6380454301834106,0.9510060548782349,-0.48607802391052246
1772790845894089500,10.15208935546875,-0.23746608197689056,1.1692118644714355,-0.289793461561203
1772790845904154600,10.162154541015624,0.16290609538555145,1.39900541305542,0.16268238425254822
1772790845914220500,10.172220458984375,0.4745334982872009,1.372780442237854,0.6665665507316589
1772790845924285400,10.182285400390626,0.5741375684738159,1.0469032526016235,0.9195325374603271
1772790845934350600,10.1923505859375,0.4499613046646118,0.5915890336036682,0.8280545473098755
1772790845944415500,10.20241552734375,0.3400912582874298,0.3142724335193634,0.4798547625541687
1772790845954480400,10.21248046875,0.38804998993873596,0.06174885109066963,0.12532170116901398
1772790845964546600,10.222546630859375,0.6340208649635315,-0.05011430010199547,-0.37171149253845215
1772790845974611500,10.232611572265625,0.9521375894546509,-0.15584471821784973,-0.7151823043823242
1772790845984676600,10.242676513671874,1.1589664220809937,-0.06312704086303711,-0.9421457052230835
1772790845994741500,10.252741455078125,1.2345507144927979,0.18666282296180725,-1.0230170488357544
1772790846004807400,10.262807373046876,1.1805857419967651,0.44078752398490906,-0.9882341027259827
1772790846014872600,10.27287255859375,0.9558449983596802,0.49914082884788513,-0.9976521134376526
1772790846024937700,10.282937744140625,0.7518263459205627,0.3181383013725281,-1.013469934463501
1772790846035002400,10.29300244140625,0.7269462943077087,-0.022041918709874153,-0.9998803734779358
1772790846045067500,10.303067626953125,0.7360729575157166,-0.3515883982181549,-0.9576807022094727
1772790846055133700,10.3131337890625,0.6555818319320679,-0.5284861922264099,-0.8233306407928467
1772790846065198300,10.3231982421875,0.4754597246646881,-0.5311552286148071,-0.5953704118728638
1772790846075263500,10.333263427734375,0.23603196442127228,-0.4028443992137909,-0.3329513370990753
1772790846085328600,10.34332861328125,0.005406483076512814,-0.20875588059425354,-0.11697082966566086
1772790846095393500,10.3533935546875,-0.16518522799015045,-0.10183847695589066,-0.01828925870358944
1772790846105459500,10.36345947265625,-0.2895902693271637,-0.10094578564167023,-0.038845665752887726
1772790846115524600,10.373524658203126,-0.3486005961894989,0.0020069582387804985,-0.07604177296161652
1772790846125589500,10.383589599609374,-0.34196504950523376,0.010133594274520874,-0.03975939750671387
1772790846135654400,10.393654296875,-0.31748369336128235,0.07799679785966873,0.017643176019191742
1772790846145719600,10.403719482421875,-0.25111743807792664,0.25404027104377747,0.029027391225099564
1772790846155785500,10.413785400390625,-0.23167051374912262,0.42701151967048645,0.012783706188201904
1772790846165850600,10.4238505859375,-0.29366010427474976,0.5280731320381165,-0.00960042979568243
1772790846175915500,10.43391552734375,-0.3921302258968353,0.447706401348114,-0.032519858330488205
1772790846185980700,10.443980712890625,-0.5150100588798523,0.23463034629821777,-0.07359219342470169
1772790846196046600,10.454046630859375,-0.6610394716262817,0.06734335422515869,-0.12439891695976257
1772790846206111500,10.464111572265624,-0.7606733441352844,-0.12595206499099731,-0.1605886071920395
1772790846216176400,10.47417626953125,-0.7866532802581787,-0.2800132632255554,-0.22921401262283325
1772790846226241500,10.484241455078125,-0.7401680946350098,-0.27929288148880005,-0.3364560604095459
1772790846236306400,10.494306396484374,-0.7017781138420105,-0.24705693125724792,-0.3415922224521637
1772790846246372400,10.504372314453125,-0.6757345199584961,-0.25551512837409973,-0.17778676748275757
1772790846256437500,10.5144375,-0.6524976491928101,-0.3875298798084259,0.09051312506198883
1772790846266502700,10.524502685546874,-0.66176438331604,-0.638239324092865,0.32837867736816406
1772790846276567600,10.534567626953125,-0.7596871852874756,-0.7773413062095642,0.39087802171707153
1772790846286632400,10.544632568359376,-0.7520689368247986,-0.8962607383728027,0.5076549649238586
1772790846296698600,10.55469873046875,-0.7701606154441833,-0.7324222922325134,0.5548187494277954
1772790846306763500,10.564763427734375,-0.8115642666816711,-0.5704618692398071,0.4943644404411316
1772790846316828400,10.574828369140626,-0.8094965815544128,-0.5243170261383057,0.43161240220069885
1772790846326893600,10.5848935546875,-0.7758472561836243,-0.551265299320221,0.4016678035259247
1772790846336958500,10.59495849609375,-0.7263146042823792,-0.6612445116043091,0.23736408352851868
1772790846347024400,10.6050244140625,-0.6279057264328003,-0.6991724371910095,-0.13476340472698212
1772790846357089500,10.615089599609375,-0.5006574988365173,-0.6726948022842407,-0.6511394381523132
1772790846367154700,10.62515478515625,-0.3194195330142975,-0.6095813512802124,-1.241121768951416
1772790846377219300,10.63521923828125,-0.07116153091192245,-0.37384310364723206,-1.8349225521087646
1772790846387285500,10.645285400390625,0.04677469655871391,0.998155415058136,-2.813431739807129
1772790846397350700,10.6553505859375,0.5927740931510925,0.26179540157318115,-3.744288444519043
1772790846407415600,10.66541552734375,0.37526416778564453,0.002529204124584794,-3.6651604175567627
1772790846417480400,10.67548046875,0.02262035757303238,-0.2318127304315567,-3.394254684448242
1772790846427545600,10.685545654296876,0.012790629640221596,-0.8633195757865906,-2.901201009750366
1772790846437611500,10.695611572265625,0.23318132758140564,-1.3258068561553955,-2.2470955848693848
1772790846447676400,10.705676513671875,0.43706414103507996,-1.6883368492126465,-1.5623950958251953
1772790846457741600,10.715741455078126,0.4941561818122864,-1.7483175992965698,-0.999204695224762
1772790846467806500,10.725806396484375,0.421072393655777,-1.4603369235992432,-0.5548411011695862
1772790846477871400,10.735871337890625,0.2796638607978821,-1.0082975625991821,-0.17923873662948608
1772790846487937500,10.7459375,0.14318086206912994,-0.6474922299385071,0.150706946849823
1772790846498002400,10.75600244140625,0.04711318388581276,-0.544829785823822,0.47547945380210876
1772790846508067600,10.766067626953125,-0.029197566211223602,-0.5040197372436523,0.7875577211380005
1772790846518132500,10.776132568359374,-0.08894745260477066,-0.5628545880317688,1.04746413230896
1772790846528197600,10.78619775390625,-0.13415195047855377,-0.6342976093292236,1.2192825078964233
1772790846538263600,10.796263671875,-0.15474990010261536,-0.5646188855171204,1.2665189504623413
1772790846548328700,10.80632861328125,-0.20052111148834229,-0.297227680683136,1.277514100074768
1772790846558393600,10.8163935546875,-0.28857293725013733,-0.016653545200824738,1.34358549118042
1772790846568458500,10.82645849609375,-0.3769078552722931,0.05337374284863472,1.4232628345489502
1772790846578524700,10.836524658203125,-0.45222046971321106,0.04778137058019638,1.4588085412979126
1772790846588589300,10.84658935546875,-0.4754440188407898,0.11039149016141891,1.4356704950332642
1772790846598654500,10.856654541015626,-0.48598748445510864,0.18336476385593414,1.3989827632904053
1772790846608719000,10.866718994140625,-0.49763959646224976,0.2710149884223938,1.3241777420043945
1772790846618784300,10.8767841796875,-0.5113703608512878,0.3015236258506775,1.1635249853134155
1772790846628850200,10.88685009765625,-0.5547508597373962,0.26379597187042236,0.9004831910133362
1772790846638915000,10.8969150390625,-0.5955515503883362,0.175174742937088,0.5683239102363586
1772790846648980200,10.906980224609375,-0.6006682515144348,0.12059379369020462,0.2355443388223648
1772790846659045000,10.917045166015624,-0.5891785621643066,0.1741694062948227,-0.043901678174734116
1772790846669110000,10.927110107421875,-0.5780699849128723,0.35617542266845703,-0.21039292216300964
1772790846679176200,10.93717626953125,-0.5840490460395813,0.5493028163909912,-0.2486305832862854
1772790846689241000,10.947240966796874,-0.5895175933837891,0.6893661618232727,-0.16623051464557648
1772790846699306200,10.95730615234375,-0.5709268450737,0.7196378111839294,0.0440947562456131
1772790846709371100,10.96737109375,-0.49370479583740234,0.5807912349700928,0.33414947986602783
1772790846719437000,10.97743701171875,-0.3778271973133087,0.3649817109107971,0.623591423034668
1772790846729502200,10.987502197265625,-0.2596920132637024,0.1022012010216713,0.9015250205993652
1772790846739567000,10.997567138671876,-0.18309631943702698,-0.1259709745645523,1.133829116821289
1772790846749632000,11.007632080078125,-0.14774738252162933,-0.284635454416275,1.3001658916473389
1772790846759697200,11.017697265625,-0.10717518627643585,-0.344218373298645,1.4186350107192993
1772790846769763300,11.027763427734374,-0.024689100682735443,-0.38870540261268616,1.4942150115966797
1772790846779828000,11.037827880859375,0.04514697194099426,-0.3876204192638397,1.507867455482483
1772790846789893000,11.04789306640625,0.07848601788282394,-0.3617558181285858,1.4590016603469849
1772790846799958300,11.057958251953124,0.03933462128043175,-0.28104978799819946,1.3535782098770142
1772790846810023200,11.068023193359375,-0.08602782338857651,-0.18364305794239044,1.227295994758606
1772790846820089000,11.078089111328126,-0.24669979512691498,-0.08350741118192673,1.0975501537322998
1772790846830154200,11.088154296875,-0.3747698664665222,-0.03792900592088699,0.9913086891174316
1772790846840219100,11.09821923828125,-0.44212841987609863,-0.00560941593721509,0.8862144947052002
1772790846850284000,11.108283935546876,-0.4699525833129883,0.04442072659730911,0.7797876596450806
1772790846860349200,11.11834912109375,-0.47253450751304626,0.08065516501665115,0.6888556480407715
1772790846870415000,11.1284150390625,-0.42822912335395813,0.1224803775548935,0.5823190808296204
1772790846880480000,11.13847998046875,-0.3572548031806946,0.1931353658437729,0.4505149722099304
1772790846890545200,11.148545166015625,-0.27036598324775696,0.24907107651233673,0.37101829051971436
1772790846900610300,11.1586103515625,-0.19677644968032837,0.30066022276878357,0.36727920174598694
1772790846910675000,11.168675048828124,-0.13737542927265167,0.38067489862442017,0.4186427891254425
1772790846920741000,11.1787412109375,-0.08837273716926575,0.3877336084842682,0.4855930805206299
1772790846930806300,11.18880615234375,-0.05469440296292305,0.29302069544792175,0.5569058656692505
1772790846940871200,11.19887109375,-0.020304206758737564,0.1308392435312271,0.6542196273803711
1772790846950936000,11.20893603515625,0.045166146010160446,0.010203635320067406,0.7202290296554565
1772790846961002000,11.219001953125,0.05246587097644806,-0.008435030467808247,0.6641124486923218
1772790846971067100,11.229067138671875,0.059250008314847946,0.04987195134162903,0.5159978270530701
1772790846981132300,11.23913232421875,0.07891372591257095,0.1488611102104187,0.3251274824142456
1772790846991197200,11.249197265625,0.09743494540452957,0.24024748802185059,0.1625596135854721
1772790847001262000,11.259261962890625,0.09781364351511002,0.3025287091732025,0.0695580393075943
1772790847011328300,11.269328369140625,0.07862263917922974,0.308355450630188,0.06620378792285919
1772790847021393200,11.27939306640625,0.0642562210559845,0.29530566930770874,0.06488685309886932
1772790847031458000,11.2894580078125,0.10228216648101807,0.41616153717041016,-0.019937222823500633
1772790847041523200,11.299523193359375,0.07456158846616745,0.5285741090774536,-0.15254133939743042
