time,seconds_elapsed,z,y,x
1772797617882661400,0.082661376953125,0.9031655192375183,0.8480554223060608,1.4431602954864502
1772797617892687600,0.0926875,0.8319643139839172,0.659601092338562,1.3158081769943237
1772797617902713600,0.102713623046875,0.7597599029541016,0.5414920449256897,1.1702853441238403
1772797617912740400,0.112740234375,0.6932804584503174,0.4903193712234497,1.0036975145339966
1772797617922766300,0.122766357421875,0.6411464214324951,0.4565984308719635,0.832126796245575
1772797617932792300,0.132792236328125,0.6027039885520935,0.34661415219306946,0.645117998123169
1772797617942819300,0.1428193359375,0.5641360878944397,0.23085318505764008,0.44171109795570374
1772797617952845300,0.15284521484375,0.5427333116531372,0.08872534334659576,0.1544249951839447
1772797617962871600,0.16287158203125,0.533471405506134,-0.026071814820170403,-0.09547752141952515
1772797617972898600,0.172898681640625,0.5322979688644409,-0.07034313678741455,-0.29993876814842224
1772797617982924500,0.182924560546875,0.5332391262054443,-0.06444051116704941,-0.46890196204185486
1772797617992951300,0.192951416015625,0.5470026135444641,0.013433516956865788,-0.6096689701080322
1772797618002977300,0.202977294921875,0.5571609735488892,0.13659992814064026,-0.735292911529541
1772797618013003300,0.213003173828125,0.5637571215629578,0.2657374143600464,-0.8530264496803284
1772797618023030500,0.223030517578125,0.5891660451889038,0.39283010363578796,-0.9305662512779236
1772797618033056500,0.233056396484375,0.6203562021255493,0.5267069339752197,-0.9423744678497314
1772797618043082500,0.24308251953125,0.6360888481140137,0.5975643396377563,-0.8811172246932983
1772797618053109500,0.253109619140625,0.6725248694419861,0.590630829334259,-0.7964076399803162
1772797618063135500,0.263135498046875,0.7237273454666138,0.5613346695899963,-0.7570051550865173
1772797618073161500,0.273161376953125,0.7626513242721558,0.5500926971435547,-0.7545222640037537
1772797618083188500,0.2831884765625,0.8066773414611816,0.5638353824615479,-0.7609394192695618
1772797618093214500,0.29321435546875,0.8422294855117798,0.5653038620948792,-0.764214813709259
1772797618103241500,0.303241455078125,0.8444225788116455,0.5557000041007996,-0.7703741788864136
1772797618113267500,0.313267333984375,0.8230046629905701,0.5268427729606628,-0.7890427112579346
1772797618123293400,0.32329345703125,0.8030908703804016,0.4956158697605133,-0.8265916705131531
1772797618133320400,0.333320556640625,0.8165286183357239,0.4604445695877075,-0.8495534658432007
1772797618143346400,0.343346435546875,0.8386025428771973,0.42450013756752014,-0.8043092489242554
1772797618153372400,0.353372314453125,0.8723956346511841,0.4687272608280182,-0.6968368887901306
1772797618163399400,0.3633994140625,0.9127395749092102,0.5675550699234009,-0.5490383505821228
1772797618173425400,0.37342529296875,0.9567235708236694,0.7255590558052063,-0.4099390506744385
1772797618183451400,0.383451416015625,1.0270190238952637,0.7524199485778809,-0.3232787251472473
1772797618193478400,0.393478515625,1.144217610359192,0.528032124042511,-0.3742140829563141
1772797618203504600,0.403504638671875,1.4139432907104492,0.3202488422393799,-0.951824426651001
1772797618213531400,0.413531494140625,1.8854596614837646,0.1943524330854416,-2.7151107788085938
1772797618223557400,0.423557373046875,2.1733767986297607,0.7828013300895691,-5.0121917724609375
1772797618233583400,0.433583251953125,1.8894264698028564,2.099325180053711,-5.881384372711182
1772797618243610400,0.4436103515625,1.6859647035598755,2.668468475341797,-4.2165751457214355
1772797618253636400,0.45363623046875,1.8822476863861084,0.8490772843360901,0.02389654517173767
1772797618263662300,0.463662353515625,2.0202038288116455,-1.319049596786499,4.102208614349365
1772797618273689600,0.473689697265625,2.4052658081054688,-2.200336217880249,5.74638557434082
1772797618283715600,0.483715576171875,2.5542991161346436,-1.5657647848129272,5.339755058288574
1772797618293741600,0.493741455078125,2.3106398582458496,-0.1938656121492386,3.9544527530670166
1772797618303768300,0.503768310546875,2.0010528564453125,0.9440187215805054,2.6687588691711426
1772797618313794300,0.513794189453125,1.6673550605773926,1.4493263959884644,2.0477802753448486
1772797618323821600,0.523821533203125,1.475827932357788,1.5142898559570312,2.0076444149017334
1772797618333847600,0.53384765625,1.4069373607635498,1.3587008714675903,2.158639430999756
1772797618343873500,0.54387353515625,1.3568238019943237,1.1979122161865234,2.2419228553771973
1772797618353900500,0.553900634765625,1.3106821775436401,1.27969229221344,2.1419992446899414
1772797618363926500,0.563926513671875,1.274086594581604,1.5329549312591553,1.96141517162323
1772797618373952500,0.573952392578125,1.2710005044937134,1.6953648328781128,1.796372413635254
1772797618383979500,0.5839794921875,1.2327865362167358,1.7583295106887817,1.6529287099838257
1772797618394005500,0.594005615234375,1.1726516485214233,1.7198158502578735,1.579772710800171
1772797618404031500,0.604031494140625,1.1223418712615967,1.6431221961975098,1.6094880104064941
1772797618414058500,0.61405859375,1.0230882167816162,1.7521549463272095,1.6261682510375977
1772797618424084500,0.62408447265625,0.882488489151001,1.7331700325012207,1.5160422325134277
1772797618434111200,0.634111328125,0.8628633618354797,1.465147614479065,1.4961374998092651
1772797618444137200,0.64413720703125,0.8004705905914307,0.920671820640564,1.428375482559204
1772797618454163500,0.65416357421875,0.7514130473136902,0.32586944103240967,1.4255703687667847
1772797618464190500,0.6641904296875,0.5819470286369324,-0.03315555676817894,1.3494932651519775
1772797618474216400,0.674216552734375,0.3962155282497406,-0.28691592812538147,1.0766172409057617
1772797618484242400,0.684242431640625,0.3527492582798004,-0.4154091775417328,0.6272575259208679
1772797618494269400,0.69426953125,0.35257697105407715,-0.4349423944950104,0.10958907753229141
1772797618504295400,0.70429541015625,0.320830762386322,-0.33785954117774963,-0.333013653755188
1772797618514322400,0.714322509765625,0.30391833186149597,-0.14711275696754456,-0.6445621848106384
1772797618524348400,0.724348388671875,0.3055018484592438,0.046007171273231506,-0.8446500301361084
1772797618534374400,0.73437451171875,0.33067405223846436,0.21365369856357574,-0.9744064211845398
1772797618544401400,0.7444013671875,0.39908215403556824,0.36399659514427185,-1.0721029043197632
1772797618554427400,0.754427490234375,0.47724246978759766,0.48884719610214233,-1.137350082397461
1772797618564453400,0.764453369140625,0.5363526344299316,0.5815305113792419,-1.1656339168548584
1772797618574480600,0.774480712890625,0.5938553810119629,0.5890576839447021,-1.1778022050857544
1772797618584506600,0.784506591796875,0.644135057926178,0.4885616898536682,-1.1879594326019287
1772797618594532600,0.79453271484375,0.6694089770317078,0.36100879311561584,-1.217221736907959
1772797618604559400,0.804559326171875,0.6902577877044678,0.2695941925048828,-1.2715270519256592
1772797618614585300,0.81458544921875,0.7009879350662231,0.2021072953939438,-1.3260902166366577
1772797618624612600,0.824612548828125,0.7061954736709595,0.15811720490455627,-1.3673419952392578
1772797618634638600,0.834638671875,0.6977761387825012,0.1374494731426239,-1.4151489734649658
1772797618644665000,0.8446650390625,0.7149959206581116,0.12649482488632202,-1.49500572681427
1772797618654692000,0.854692138671875,0.7715467810630798,0.06391453742980957,-1.6607475280761719
1772797618664718000,0.864718017578125,0.7945011258125305,0.015092399902641773,-1.882286787033081
1772797618674744000,0.874744140625,0.8641326427459717,-0.0030056436080485582,-2.1200015544891357
1772797618684771000,0.88477099609375,0.9540119171142578,0.033900707960128784,-2.250997543334961
1772797618694797000,0.894797119140625,1.066959261894226,0.12745462357997894,-2.3104727268218994
1772797618704824000,0.904823974609375,1.1592625379562378,0.2257487028837204,-2.279360771179199
1772797618714850300,0.914850341796875,1.2239893674850464,0.3001704812049866,-2.176147699356079
1772797618724876300,0.924876220703125,1.3216829299926758,0.18672114610671997,-2.050220489501953
1772797618734903000,0.934903076171875,1.4868992567062378,-0.257889062166214,-1.8490239381790161
1772797618744929000,0.944928955078125,1.6934905052185059,-0.9961255788803101,-1.7105371952056885
1772797618754955000,0.954955078125,1.9219226837158203,-1.556801438331604,-2.074160099029541
1772797618764982000,0.96498193359375,2.183419942855835,-1.3243473768234253,-3.087655544281006
1772797618775008000,0.975008056640625,2.281043767929077,-0.74956876039505,-4.151087760925293
1772797618785035000,0.985034912109375,1.8831437826156616,0.5852368474006653,-3.9289393424987793
1772797618795061000,0.99506103515625,1.1696113348007202,1.8513950109481812,-2.311161994934082
1772797618805087000,1.0050869140625,0.9115830063819885,2.134474039077759,0.28793829679489136
1772797618815114000,1.015114013671875,1.096909761428833,1.3254488706588745,3.054128646850586
1772797618825140000,1.025139892578125,1.7700351476669312,0.07612832635641098,4.970571994781494
1772797618835166000,1.035166015625,2.0410099029541016,-0.7309048175811768,5.540377616882324
1772797618845193200,1.045193115234375,1.7081507444381714,-0.6154237389564514,4.695988178253174
1772797618855219200,1.05521923828125,1.1751629114151,0.22357024252414703,3.211512327194214
1772797618865246000,1.065245849609375,0.8308237195014954,1.0394916534423828,2.0469870567321777
1772797618875272000,1.07527197265625,0.669999897480011,1.1081501245498657,1.756001591682434
1772797618885298000,1.0852978515625,0.41486403346061707,0.7903196811676025,1.9515119791030884
1772797618895325200,1.0953251953125,0.15839603543281555,0.5697636008262634,1.9659329652786255
1772797618905351200,1.10535107421875,-0.027219636365771294,0.6407304406166077,1.6630690097808838
1772797618915377200,1.115377197265625,-0.13566355407238007,0.8378635048866272,1.271471381187439
1772797618925404200,1.125404052734375,-0.17600351572036743,1.282745361328125,0.9784581661224365
1772797618935430100,1.13543017578125,-0.20224471390247345,1.7220638990402222,0.9044023156166077
1772797618945457000,1.145456787109375,-0.16022509336471558,1.948939561843872,1.0619629621505737
1772797618955483100,1.155483154296875,-0.04675765335559845,1.8380264043807983,1.3846248388290405
1772797618965509000,1.165509033203125,0.14981772005558014,1.6411775350570679,1.7730780839920044
1772797618975536000,1.1755361328125,0.2406187355518341,1.1603760719299316,2.030994176864624
1772797618985562000,1.18556201171875,0.24033351242542267,0.6411738991737366,2.1647000312805176
1772797618995588000,1.195588134765625,0.21047760546207428,0.20270490646362305,2.127244472503662
1772797619005615000,1.205614990234375,0.21899999678134918,-0.06125004217028618,1.8747601509094238
1772797619015641000,1.21564111328125,0.24389122426509857,-0.18612699210643768,1.4998244047164917
1772797619025668000,1.225668212890625,0.22367863357067108,-0.194938063621521,1.1069508790969849
1772797619035694000,1.235694091796875,0.13625185191631317,-0.08151669800281525,0.7216300964355469
1772797619045720000,1.245719970703125,0.05624569579958916,0.034748658537864685,0.36675217747688293
1772797619055747000,1.2557470703125,0.012724051252007484,0.10169467329978943,0.03681899979710579
1772797619065773000,1.26577294921875,-0.055325306951999664,0.05676288157701492,-0.29811665415763855
1772797619075799000,1.275799072265625,-0.18964636325836182,-0.06680219620466232,-0.5749831199645996
1772797619085826000,1.285825927734375,-0.33962282538414,-0.1521623730659485,-0.816055953502655
1772797619095852000,1.29585205078125,-0.43398499488830566,-0.2219821959733963,-1.0596294403076172
1772797619105879000,1.305879150390625,-0.47813594341278076,-0.2598382234573364,-1.2373560667037964
1772797619115905000,1.315905029296875,-0.4429191052913666,-0.257139652967453,-1.4123835563659668
1772797619125931000,1.325930908203125,-0.3500373661518097,-0.2791501581668854,-1.5615516901016235
1772797619135958300,1.335958251953125,-0.22301417589187622,-0.30582889914512634,-1.6524603366851807
1772797619145984300,1.345984375,0.01221591979265213,-0.3391716778278351,-1.6296889781951904
1772797619156010200,1.35601025390625,0.06613747775554657,-0.45443886518478394,-1.5215665102005005
1772797619166037000,1.366037109375,0.05709364637732506,-0.593927800655365,-1.3690927028656006
1772797619176063000,1.37606298828125,0.02099503017961979,-0.7202742695808411,-1.213849425315857
1772797619186090000,1.386090087890625,-0.012834039516746998,-0.8483651280403137,-1.1042935848236084
1772797619196116000,1.396115966796875,-0.05300462990999222,-0.8888009786605835,-1.101163625717163
1772797619206142200,1.40614208984375,-0.08736500144004822,-0.8451008796691895,-1.2076951265335083
1772797619216169200,1.416169189453125,-0.08730108290910721,-0.7564751505851746,-1.393415093421936
1772797619226195200,1.4261953125,-0.07257380336523056,-0.6906258463859558,-1.566382646560669
1772797619236221200,1.43622119140625,-0.09461705386638641,-0.6563738584518433,-1.6571978330612183
1772797619246248000,1.446248046875,-0.12008272856473923,-0.6808083653450012,-1.6649153232574463
1772797619256274000,1.45627392578125,-0.1529187113046646,-0.6971524357795715,-1.5546420812606812
1772797619266301200,1.46630126953125,-0.23375390470027924,-0.6935670375823975,-1.236350178718567
1772797619276327200,1.4763271484375,-0.2874639928340912,-0.5191949605941772,-0.7237765789031982
1772797619286353200,1.486353271484375,-0.1631537675857544,-0.12037701159715652,-0.10986445099115372
1772797619296380200,1.496380126953125,0.18546652793884277,-0.016207732260227203,0.29490381479263306
1772797619306406100,1.50640625,0.5111104249954224,-0.637043833732605,0.2797214090824127
1772797619316433200,1.51643310546875,0.372358113527298,-1.5756275653839111,-0.1038409098982811
1772797619326459100,1.526459228515625,-0.1771305650472641,-2.329972267150879,-0.9458860754966736
1772797619336485000,1.536485107421875,-0.021324995905160904,-2.45259428024292,-1.9880383014678955
1772797619346512100,1.54651220703125,0.006644587032496929,-1.7060686349868774,-2.510193109512329
1772797619356538000,1.5565380859375,-0.3487340211868286,-0.661090612411499,-1.8559691905975342
1772797619366564000,1.566564208984375,-0.7514452338218689,0.38017717003822327,-0.5097934603691101
1772797619376590800,1.5765908203125,-0.7066705822944641,0.9505490064620972,0.6564151644706726
1772797619386617000,1.5866171875,-0.245113343000412,0.6127696633338928,1.2435859441757202
1772797619396644000,1.59664404296875,0.08851654827594757,-0.2646755874156952,1.4820445775985718
1772797619406670000,1.606670166015625,0.1334342211484909,-1.155282735824585,1.5376101732254028
1772797619416696000,1.616696044921875,-0.05073268711566925,-1.6948248147964478,1.3857321739196777
1772797619426723000,1.62672314453125,-0.46066853404045105,-1.7263816595077515,1.0805163383483887
1772797619436749000,1.6367490234375,-0.8968671560287476,-1.3066304922103882,0.7233014702796936
1772797619446775300,1.646775390625,-1.2069720029830933,-0.73126620054245,0.43383294343948364
1772797619456802000,1.656802001953125,-1.4098255634307861,-0.17097413539886475,0.28502827882766724
1772797619466828000,1.666828125,-1.5970896482467651,0.3052917420864105,0.23524314165115356
1772797619476855000,1.67685498046875,-1.7479602098464966,0.7387968301773071,0.32091036438941956
1772797619486881000,1.686881103515625,-1.8258477449417114,1.0858099460601807,0.5087311267852783
1772797619496907000,1.696906982421875,-1.8535521030426025,1.2778198719024658,0.7648516297340393
1772797619506934300,1.706934326171875,-1.8488212823867798,1.3798117637634277,1.0461621284484863
1772797619516960300,1.716960205078125,-1.788570761680603,1.33765709400177,1.2738325595855713
1772797619526986200,1.726986328125,-1.6462340354919434,1.1042165756225586,1.3819422721862793
1772797619537013000,1.737012939453125,-1.501293420791626,0.6160961985588074,1.3154261112213135
1772797619547039000,1.7470390625,-1.4959444999694824,0.06747864186763763,1.0127253532409668
1772797619557066000,1.75706591796875,-1.5120365619659424,-0.47719743847846985,0.6909643411636353
1772797619567092200,1.76709228515625,-1.4963045120239258,-0.9352627396583557,0.49331384897232056
1772797619577118200,1.7771181640625,-1.423812747001648,-1.1529148817062378,0.4392564594745636
1772797619587145200,1.787145263671875,-1.4242547750473022,-1.2412176132202148,0.371345579624176
1772797619597171000,1.7971708984375,-1.4006075859069824,-1.3602083921432495,0.22038483619689941
1772797619607198000,1.807197998046875,-1.3999556303024292,-1.472307562828064,-0.01561011839658022
1772797619617224000,1.817223876953125,-1.4222753047943115,-1.486818552017212,-0.36032888293266296
1772797619627250200,1.827250244140625,-1.4466530084609985,-1.4749387502670288,-0.770115077495575
1772797619637277200,1.837277099609375,-1.485241413116455,-1.4829179048538208,-1.1087291240692139
1772797619647303400,1.847303466796875,-1.4985791444778442,-1.379345417022705,-1.3276145458221436
1772797619657329400,1.857329345703125,-1.5327173471450806,-1.2887403964996338,-1.4654059410095215
1772797619667356200,1.867356201171875,-1.5354052782058716,-1.2373435497283936,-1.5556285381317139
1772797619677382100,1.877382080078125,-1.48126220703125,-1.1957502365112305,-1.6604294776916504
1772797619687409400,1.887409423828125,-1.4172147512435913,-1.0898054838180542,-1.7226002216339111
1772797619697435400,1.897435302734375,-1.3820139169692993,-0.886894166469574,-1.735535740852356
1772797619707461400,1.90746142578125,-1.3249988555908203,-0.694940984249115,-1.7516933679580688
1772797619717488400,1.91748828125,-1.2315559387207031,-0.5942844152450562,-1.7710734605789185
1772797619727514400,1.927514404296875,-1.1301422119140625,-0.5606178045272827,-1.7926069498062134
1772797619737540400,1.937540283203125,-1.051356554031372,-0.6106830835342407,-1.7832320928573608
1772797619747567400,1.9475673828125,-0.9840457439422607,-0.7246003150939941,-1.7140864133834839
1772797619757593300,1.95759326171875,-0.9578967094421387,-0.8714392781257629,-1.6058470010757446
1772797619767620400,1.967620361328125,-0.9841616153717041,-0.8744574785232544,-1.5073344707489014
1772797619777646300,1.977646240234375,-1.0109375715255737,-0.623880922794342,-1.465436577796936
1772797619787672300,1.98767236328125,-0.9878708124160767,-0.15799149870872498,-1.4973775148391724
1772797619797699300,1.99769921875,-1.0135173797607422,0.33908137679100037,-1.5739049911499023
1772797619807725300,2.007725341796875,-1.0437769889831543,0.5756773948669434,-1.5231808423995972
1772797619817751300,2.017751220703125,-1.0880147218704224,0.4629490077495575,-1.3301477432250977
1772797619827778300,2.0277783203125,-1.0994436740875244,0.05910113826394081,-1.0603985786437988
1772797619837804300,2.03780419921875,-1.2110735177993774,-0.20291662216186523,-0.7180633544921875
1772797619847831300,2.047831298828125,-1.5114134550094604,-0.36928215622901917,-0.28063327074050903
1772797619857857300,2.057857177734375,-1.6479896306991577,-0.3653380274772644,0.2922036349773407
1772797619867883500,2.067883544921875,-1.6799094676971436,-0.4341815412044525,0.7281151413917542
1772797619877910300,2.07791015625,-1.7984784841537476,-0.43667906522750854,0.7146997451782227
1772797619887936300,2.087936279296875,-1.8871548175811768,-1.0428766012191772,0.06359708309173584
1772797619897962200,2.097962158203125,-1.5477133989334106,-1.232216715812683,-0.7182151079177856
1772797619907989200,2.1079892578125,-1.5664827823638916,-0.5619552135467529,-0.7162986993789673
1772797619918015200,2.11801513671875,-1.9153223037719727,0.26520371437072754,0.16125786304473877
1772797619928042500,2.12804248046875,-2.0963289737701416,0.9232428669929504,1.2912578582763672
1772797619938068500,2.138068359375,-2.157515525817871,1.2772427797317505,1.940026044845581
1772797619948094500,2.148094482421875,-2.009295701980591,1.2424464225769043,1.8649190664291382
1772797619958121200,2.158121337890625,-2.1167049407958984,0.7317479848861694,1.5262179374694824
1772797619968147200,2.168147216796875,-2.3432414531707764,-0.256537526845932,1.4075149297714233
1772797619978174500,2.178174560546875,-2.330744981765747,-1.3629357814788818,1.5037137269973755
1772797619988200400,2.188200439453125,-2.366407871246338,-2.1541290283203125,1.6587368249893188
1772797619998226400,2.198226318359375,-2.3843371868133545,-2.5860915184020996,1.7603808641433716
1772797620008253400,2.20825341796875,-2.390542507171631,-2.649691343307495,1.6713758707046509
1772797620018279400,2.218279541015625,-2.3981659412384033,-2.1317222118377686,1.4679203033447266
1772797620028305400,2.228305419921875,-2.3396270275115967,-1.3087636232376099,1.1859554052352905
1772797620038332200,2.238332275390625,-2.1722753047943115,-0.4984518587589264,0.854625403881073
1772797620048358400,2.2483583984375,-2.0345988273620605,0.3126401901245117,0.7658188343048096
1772797620058385400,2.258385498046875,-1.8886624574661255,0.6764498353004456,0.8252984285354614
1772797620068411400,2.268411376953125,-1.7682665586471558,1.0491770505905151,1.0510586500167847
1772797620078437400,2.278437255859375,-1.7078324556350708,1.109492301940918,1.22379469871521
1772797620088464400,2.28846435546875,-1.612752079963684,1.044113039970398,1.267520546913147
1772797620098490000,2.298489990234375,-1.494870662689209,0.877474844455719,1.118353247642517
1772797620108516000,2.30851611328125,-1.340260624885559,0.654380738735199,0.89361172914505
1772797620118543400,2.31854345703125,-1.2100354433059692,0.3174847662448883,0.6317862272262573
1772797620128569300,2.3285693359375,-1.160966396331787,-0.08334176242351532,0.3843143880367279
1772797620138596400,2.338596435546875,-1.1309012174606323,-0.36010119318962097,0.1436208188533783
1772797620148622300,2.348622314453125,-1.0512630939483643,-0.4538023769855499,-0.048772864043712616
1772797620158648300,2.3586484375,-0.9173284769058228,-0.3578247129917145,-0.1213565245270729
1772797620168675300,2.36867529296875,-0.9040627479553223,-0.27562040090560913,-0.16884468495845795
1772797620178701300,2.378701416015625,-0.9145657420158386,-0.33625391125679016,-0.2899569869041443
1772797620188727300,2.388727294921875,-0.9185471534729004,-0.48172563314437866,-0.42052191495895386
1772797620198754300,2.39875439453125,-0.914391279220581,-0.5800777673721313,-0.5199262499809265
1772797620208780300,2.4087802734375,-0.8934636116027832,-0.7655810713768005,-0.5830133557319641
1772797620218807300,2.418807373046875,-0.8427964448928833,-0.9463801383972168,-0.619477391242981
1772797620228833500,2.42883349609375,-0.7776944041252136,-1.078709363937378,-0.6402454972267151
1772797620238859500,2.438859619140625,-0.7549499869346619,-1.1334240436553955,-0.6774019002914429
1772797620248886300,2.44888623046875,-0.7708227038383484,-1.10575270652771,-0.7563124299049377
1772797620258912300,2.458912353515625,-0.8194621205329895,-1.0281871557235718,-0.8604282140731812
1772797620268938200,2.468938232421875,-0.9173313975334167,-0.7762789726257324,-0.985443115234375
1772797620278965200,2.47896533203125,-1.0473123788833618,-0.4762248694896698,-1.150820016860962
1772797620288991200,2.4889912109375,-1.1610021591186523,-0.2972433865070343,-1.3583391904830933
1772797620299018500,2.4990185546875,-1.277001976966858,-0.19555431604385376,-1.5767128467559814
1772797620309044500,2.50904443359375,-1.3585615158081055,-0.19128499925136566,-1.76722252368927
1772797620319070500,2.519070556640625,-1.4466626644134521,-0.28896230459213257,-1.8909146785736084
1772797620329097200,2.52909716796875,-1.5200530290603638,-0.4897257685661316,-1.9417935609817505
1772797620339123200,2.539123291015625,-1.580947756767273,-0.7358026504516602,-1.9429243803024292
1772797620349150500,2.549150390625,-1.6214874982833862,-0.9756549000740051,-1.8530315160751343
1772797620359176400,2.559176513671875,-1.6532150506973267,-1.1769267320632935,-1.6589213609695435
1772797620369202400,2.569202392578125,-1.6668884754180908,-1.3419357538223267,-1.426863670349121
1772797620379229200,2.579229248046875,-1.6241298913955688,-1.374891757965088,-1.209286093711853
1772797620389255200,2.589255126953125,-1.6276084184646606,-1.336327075958252,-1.133555293083191
1772797620399281200,2.59928125,-1.6625653505325317,-1.274742603302002,-1.208707571029663
1772797620409308400,2.609308349609375,-1.703718900680542,-1.2141788005828857,-1.2943636178970337
1772797620419334400,2.61933447265625,-1.6677683591842651,-1.224229097366333,-1.4809346199035645
1772797620429361400,2.629361328125,-1.5602294206619263,-1.7209208011627197,-1.5205971002578735
1772797620439387400,2.639387451171875,-1.3948146104812622,-2.0385937690734863,-1.4967074394226074
1772797620449413400,2.649413330078125,-1.3544895648956299,-2.3703205585479736,-1.7019940614700317
1772797620459440000,2.659440185546875,-1.5623908042907715,-2.2550530433654785,-1.667156457901001
1772797620469466400,2.66946630859375,-1.7601326704025269,-1.203717589378357,-0.7983943819999695
1772797620479492400,2.679492431640625,-2.038832187652588,0.22202959656715393,0.49698153138160706
1772797620489519400,2.689519287109375,-2.3499085903167725,1.000464916229248,1.3460599184036255
1772797620499545300,2.69954541015625,-2.4844038486480713,1.1327763795852661,1.5904685258865356
1772797620509572400,2.709572265625,-2.48396635055542,1.031106948852539,1.5936598777770996
1772797620519598300,2.719598388671875,-2.467897891998291,0.8682200908660889,1.6989444494247437
1772797620529624300,2.729624267578125,-2.4248337745666504,0.1194840520620346,1.926064372062683
1772797620539651300,2.7396513671875,-2.4405930042266846,-0.5280214548110962,2.0948400497436523
1772797620549677300,2.74967724609375,-2.5234923362731934,-0.8890712857246399,2.0530121326446533
1772797620559703300,2.759703369140625,-2.6969709396362305,-1.0899420976638794,1.8953994512557983
1772797620569730300,2.769730224609375,-2.944748640060425,-0.953013002872467,1.627886176109314
1772797620579756300,2.77975634765625,-3.0949440002441406,-0.5781094431877136,1.2754557132720947
1772797620589783600,2.789783447265625,-3.1097798347473145,-0.24171888828277588,0.9706958532333374
1772797620599809500,2.7998095703125,-3.097402334213257,0.032993901520967484,0.856034517288208
1772797620609835300,2.809835205078125,-3.063079357147217,0.26640477776527405,0.9487210512161255
1772797620619862300,2.8198623046875,-2.950547218322754,0.4326938986778259,1.1390646696090698
1772797620629888300,2.82988818359375,-2.775663137435913,0.5246096849441528,1.348780870437622
1772797620639913700,2.839913818359375,-2.5791144371032715,0.4982697069644928,1.522882103919983
1772797620649940700,2.849940673828125,-2.39939284324646,0.3752172887325287,1.6458606719970703
1772797620659967000,2.859967041015625,-2.2529492378234863,0.19329595565795898,1.7455034255981445
1772797620669994000,2.869993896484375,-2.159398317337036,0.01859046146273613,1.7695517539978027
1772797620680020000,2.88002001953125,-2.113781452178955,-0.09108570218086243,1.7134612798690796
1772797620690046000,2.8900458984375,-2.0628137588500977,-0.16295935213565826,1.5720535516738892
1772797620700072700,2.90007275390625,-1.9848757982254028,-0.29746338725090027,1.368209958076477
1772797620710098700,2.9100986328125,-1.8891242742538452,-0.506209135055542,1.1116931438446045
1772797620720124700,2.920124755859375,-1.7895995378494263,-0.7836159467697144,0.7864480018615723
1772797620730152000,2.93015185546875,-1.7119624614715576,-1.0756068229675293,0.4613918662071228
1772797620740178000,2.940177978515625,-1.6764649152755737,-1.3927322626113892,0.1798776239156723
1772797620750205000,2.950204833984375,-1.6842498779296875,-1.6759685277938843,-0.09107132256031036
1772797620760230700,2.960230712890625,-1.6852113008499146,-1.8957821130752563,-0.33036085963249207
1772797620770256600,2.970256591796875,-1.6823694705963135,-2.043351173400879,-0.5524386763572693
1772797620780284000,2.980283935546875,-1.6756998300552368,-2.1310317516326904,-0.7597410082817078
1772797620790310000,2.990309814453125,-1.6637001037597656,-2.155890464782715,-0.9654347896575928
1772797620800336000,3.0003359375,-1.6548992395401,-2.1279311180114746,-1.1687008142471313
1772797620810363000,3.01036279296875,-1.667628288269043,-2.0555238723754883,-1.3616527318954468
1772797620820388900,3.020388916015625,-1.6968743801116943,-1.9647263288497925,-1.559791922569275
1772797620830415600,3.03041552734375,-1.7472398281097412,-1.8434001207351685,-1.7559856176376343
1772797620840441900,3.04044189453125,-1.8339080810546875,-1.6284873485565186,-1.9501245021820068
1772797620850467800,3.0504677734375,-1.9424289464950562,-1.4096689224243164,-2.151681900024414
1772797620860494800,3.060494873046875,-2.0251550674438477,-1.2740325927734375,-2.3330652713775635
1772797620870520800,3.070520751953125,-2.0764174461364746,-1.1941540241241455,-2.4723153114318848
1772797620880546800,3.080546875,-2.1127560138702393,-1.1797993183135986,-2.577073574066162
1772797620890573800,3.09057373046875,-2.125012159347534,-1.2196131944656372,-2.6214475631713867
1772797620900599800,3.100599853515625,-2.131852626800537,-1.325619101524353,-2.5837485790252686
1772797620910626800,3.110626708984375,-2.1688075065612793,-1.4220411777496338,-2.4885523319244385
1772797620920652800,3.12065283203125,-2.219726800918579,-1.4569333791732788,-2.383073568344116
1772797620930678800,3.1306787109375,-2.32084321975708,-1.4143766164779663,-2.306074619293213
1772797620940705800,3.140705810546875,-2.4777987003326416,-1.284999132156372,-2.305553436279297
1772797620950731800,3.150731689453125,-2.630464553833008,-1.0458934307098389,-2.4057364463806152
1772797620960757800,3.1607578125,-2.787022352218628,-0.6571019887924194,-2.634683609008789
1772797620970785000,3.170784912109375,-2.9325320720672607,-0.1927766352891922,-2.9145255088806152
1772797620980811000,3.18081103515625,-2.979379415512085,0.215038001537323,-3.1897830963134766
1772797620990837800,3.190837646484375,-2.869929313659668,0.12082921713590622,-3.4512319564819336
1772797621000863700,3.20086376953125,-2.6234469413757324,-0.8874310255050659,-3.597945213317871
1772797621010889700,3.2108896484375,-2.5925207138061523,-2.1641573905944824,-3.464921474456787
1772797621020917000,3.2209169921875,-2.6658899784088135,-2.787574291229248,-2.86751127243042
1772797621030943000,3.23094287109375,-2.8148105144500732,-1.9788600206375122,-1.8842236995697021
1772797621040969000,3.240968994140625,-2.9194140434265137,0.1620757281780243,-0.8004562258720398
1772797621050995700,3.25099560546875,-3.1355819702148438,2.2093801498413086,0.14830930531024933
1772797621061021700,3.261021728515625,-3.2749338150024414,3.3992960453033447,0.7557278871536255
1772797621071048700,3.271048583984375,-3.228346109390259,3.36529541015625,1.2543885707855225
1772797621081074700,3.28107470703125,-3.0492682456970215,2.54231595993042,1.7581150531768799
1772797621091101000,3.291100830078125,-2.7610673904418945,1.5615242719650269,2.135411262512207
1772797621101128000,3.3011279296875,-2.5255565643310547,0.5370607972145081,2.398867130279541
1772797621111154000,3.31115380859375,-2.4488179683685303,-0.3220936059951782,2.5510478019714355
1772797621121180000,3.321179931640625,-2.4289534091949463,-0.9000320434570312,2.5334131717681885
1772797621131206700,3.33120654296875,-2.458225965499878,-1.09453284740448,2.2842631340026855
1772797621141232600,3.341232666015625,-2.484102487564087,-0.8288055658340454,1.909548044204712
1772797621151260000,3.351260009765625,-2.5644068717956543,-0.43292853236198425,1.5603681802749634
1772797621161286000,3.361285888671875,-2.6648614406585693,-0.04026166722178459,1.3783824443817139
1772797621171311900,3.371311767578125,-2.7068381309509277,0.3214312791824341,1.280889868736267
1772797621181339000,3.3813388671875,-2.688422918319702,0.560149610042572,1.1707687377929688
1772797621191364900,3.39136474609375,-2.634840726852417,0.7001746296882629,1.1056946516036987
1772797621201390800,3.401390869140625,-2.541775941848755,0.6956679821014404,1.1834690570831299
1772797621211417900,3.41141796875,-2.4318950176239014,0.5437402725219727,1.3586784601211548
1772797621221443800,3.42144384765625,-2.2851319313049316,0.30536311864852905,1.5857079029083252
1772797621231469800,3.4314697265625,-2.1182899475097656,0.05379398912191391,1.8427420854568481
1772797621241496800,3.441496826171875,-1.9656040668487549,-0.17734256386756897,2.0832693576812744
1772797621251522800,3.451522705078125,-1.8274507522583008,-0.3735799789428711,2.2436892986297607
1772797621261549800,3.4615498046875,-1.7148107290267944,-0.4824020564556122,2.2913143634796143
1772797621271575800,3.471575927734375,-1.6567103862762451,-0.4953615367412567,2.1504600048065186
1772797621281601800,3.481601806640625,-1.6361420154571533,-0.4313918650150299,1.826107144355774
1772797621291628800,3.49162890625,-1.5738427639007568,-0.35915708541870117,1.4515072107315063
1772797621301654800,3.50165478515625,-1.496363639831543,-0.3537953495979309,1.0986967086791992
1772797621311680800,3.5116806640625,-1.4502986669540405,-0.40281084179878235,0.7615548968315125
1772797621321707800,3.521707763671875,-1.4522768259048462,-0.5618441700935364,0.46833550930023193
1772797621331734000,3.531734130859375,-1.487764596939087,-0.7798641324043274,0.19424058496952057
1772797621341760800,3.5417607421875,-1.541785717010498,-0.9756407737731934,-0.09200449287891388
1772797621351786800,3.551786865234375,-1.597753882408142,-1.0681049823760986,-0.357711523771286
1772797621361812700,3.561812744140625,-1.6797001361846924,-1.07173752784729,-0.6323518753051758
1772797621371839700,3.57183984375,-1.7750333547592163,-1.0321611166000366,-0.8990376591682434
1772797621381865700,3.58186572265625,-1.8447346687316895,-0.9311404228210449,-1.1235381364822388
1772797621391891700,3.5918916015625,-1.8925445079803467,-0.8271083235740662,-1.3056563138961792
1772797621401919000,3.6019189453125,-1.9182991981506348,-0.7706061601638794,-1.4060505628585815
1772797621411945000,3.611945068359375,-1.9341814517974854,-0.8080273270606995,-1.4320770502090454
1772797621421971700,3.6219716796875,-1.9622544050216675,-0.9445348381996155,-1.4098303318023682
1772797621431997700,3.631997802734375,-2.007861614227295,-1.1370840072631836,-1.4079192876815796
1772797621442023700,3.642023681640625,-2.0364155769348145,-1.2555965185165405,-1.4530763626098633
1772797621452051000,3.652051025390625,-2.006490468978882,-1.2638760805130005,-1.5076730251312256
1772797621462077000,3.662076904296875,-1.9616327285766602,-1.2768890857696533,-1.5437372922897339
1772797621472103000,3.67210302734375,-1.8969813585281372,-1.3498657941818237,-1.5241031646728516
1772797621482130000,3.6821298828125,-1.8309181928634644,-1.4296927452087402,-1.4611533880233765
1772797621492156000,3.692156005859375,-1.820555329322815,-1.452444076538086,-1.3964288234710693
1772797621502182000,3.702181884765625,-1.8428137302398682,-1.3770577907562256,-1.3479418754577637
1772797621512209000,3.712208984375,-1.8741897344589233,-1.2536824941635132,-1.3606423139572144
1772797621522235000,3.72223486328125,-1.8975131511688232,-1.1062744855880737,-1.374562382698059
1772797621532262000,3.732261962890625,-1.8991504907608032,-0.9717523455619812,-1.364335536956787
1772797621542288000,3.742287841796875,-1.9024381637573242,-0.797088623046875,-1.3651320934295654
1772797621552313900,3.75231396484375,-1.8673025369644165,-0.6794496178627014,-1.3890776634216309
1772797621562340900,3.7623408203125,-1.7884870767593384,-0.5054442882537842,-1.3532754182815552
1772797621572366600,3.77236669921875,-1.6649291515350342,-0.4085842967033386,-1.4833970069885254
1772797621582392800,3.782392822265625,-1.5598320960998535,-0.43322545289993286,-2.0056843757629395
1772797621592419800,3.792419921875,-1.528877854347229,-0.7347240447998047,-2.815993309020996
1772797621602445800,3.80244580078125,-1.6143808364868164,-1.196213960647583,-3.107644557952881
1772797621612472800,3.812472900390625,-1.8538426160812378,-1.6915498971939087,-2.2488207817077637
1772797621622498800,3.822498779296875,-1.7868058681488037,-1.7940137386322021,-0.1011071726679802
1772797621632524800,3.83252490234375,-1.9320186376571655,-1.9284298419952393,2.0400214195251465
1772797621642552000,3.842552001953125,-1.9461989402770996,-1.9454388618469238,3.061394691467285
1772797621652578000,3.852578125,-1.7862085103988647,-1.719020128250122,3.2583236694335938
1772797621662604000,3.86260400390625,-1.6976903676986694,-1.4267030954360962,3.0839908123016357
1772797621672631000,3.872631103515625,-1.7775764465332031,-1.217286467552185,2.776716947555542
1772797621682657000,3.882656982421875,-1.9382011890411377,-1.1411117315292358,2.387840747833252
1772797621692683000,3.89268310546875,-2.115938663482666,-1.0082623958587646,1.9285203218460083
1772797621702710300,3.902710205078125,-2.2818965911865234,-0.6309438943862915,1.4708971977233887
1772797621712736300,3.912736328125,-2.405029296875,-0.22173133492469788,1.052976369857788
1772797621722763000,3.922762939453125,-2.4537532329559326,0.17652949690818787,0.7236096262931824
1772797621732789000,3.9327890625,-2.4311575889587402,0.6280056238174438,0.5613242983818054
1772797621742815000,3.94281494140625,-2.309976816177368,1.0084693431854248,0.5492812395095825
1772797621752842200,3.95284228515625,-2.1378660202026367,1.3521568775177002,0.6575038433074951
1772797621762868200,3.9628681640625,-1.7988656759262085,1.3011704683303833,0.8674541711807251
1772797621772894200,3.972894287109375,-1.4460663795471191,1.1430319547653198,1.123377799987793
1772797621782921000,3.9829208984375,-1.1707868576049805,1.1199148893356323,1.2387890815734863
1772797621792947000,3.992947021484375,-0.8603538870811462,0.9817975163459778,1.2561677694320679
1772797621802974000,4.002973876953125,-0.6479300260543823,0.619931161403656,1.1997332572937012
1772797621813000000,4.013,-0.5427365303039551,0.11344293504953384,1.0568203926086426
1772797621823026200,4.023026123046875,-0.45998358726501465,-0.3428151309490204,0.8808951377868652
1772797621833053200,4.03305322265625,-0.4215339124202728,-0.6768360137939453,0.6821066737174988
1772797621843079200,4.0430791015625,-0.4226974546909332,-0.8546594977378845,0.5119290947914124
1772797621853105200,4.053105224609375,-0.4462027847766876,-0.9708455204963684,0.3682621717453003
1772797621863132000,4.0631318359375,-0.4760613441467285,-1.0653738975524902,0.23008912801742554
1772797621873158000,4.073157958984375,-0.5208624005317688,-1.1932487487792969,0.06740301102399826
1772797621883184000,4.08318408203125,-0.5615293979644775,-1.1512606143951416,-0.18701915442943573
1772797621893211100,4.093211181640625,-0.5657012462615967,-0.8771507143974304,-0.5532969832420349
1772797621903237000,4.103237060546875,-0.5575857758522034,-0.6489114165306091,-0.9274548888206482
1772797621913264000,4.11326416015625,-0.5545201897621155,-0.47232359647750854,-1.2486661672592163
1772797621923290000,4.1232900390625,-0.5360090732574463,-0.35818397998809814,-1.4958057403564453
1772797621933316000,4.133316162109375,-0.5217611789703369,-0.3249341547489166,-1.6573938131332397
1772797621943343000,4.143343017578125,-0.5002516508102417,-0.3318091034889221,-1.741794466972351
1772797621953369000,4.153369140625,-0.5160449743270874,-0.3597358167171478,-1.7779884338378906
1772797621963395000,4.16339501953125,-0.609765887260437,-0.43884366750717163,-1.7824689149856567
1772797621973422000,4.173422119140625,-0.7166444063186646,-0.5373049974441528,-1.79898202419281
1772797621983448000,4.183447998046875,-0.8118883371353149,-0.6226944327354431,-1.8429487943649292
1772797621993475000,4.19347509765625,-0.9128895401954651,-0.6545045971870422,-1.8559486865997314
1772797622003501000,4.2035009765625,-1.0146158933639526,-0.6291470527648926,-1.8307693004608154
1772797622013527000,4.213527099609375,-1.1147714853286743,-0.5704687833786011,-1.741136908531189
1772797622023554000,4.223553955078125,-1.2155042886734009,-0.4690212905406952,-1.6523921489715576
1772797622033580000,4.233580078125,-1.2891886234283447,-0.3780469000339508,-1.604324460029602
1772797622043606000,4.24360595703125,-1.3581466674804688,-0.3154314458370209,-1.568986415863037
1772797622053633000,4.253633056640625,-1.4452717304229736,-0.3513638973236084,-1.5290008783340454
1772797622063659300,4.2636591796875,-1.513264536857605,-0.5110502243041992,-1.4488376379013062
1772797622073685200,4.273685302734375,-1.5942119359970093,-0.7409835457801819,-1.3158478736877441
1772797622083712000,4.2837119140625,-1.6862534284591675,-0.9267123937606812,-1.2935998439788818
1772797622093738000,4.293738037109375,-1.7293028831481934,-1.0345813035964966,-1.3535034656524658
1772797622103764000,4.303763916015625,-1.8109407424926758,-0.8926199674606323,-1.5005053281784058
1772797622113791000,4.313791015625,-1.9421008825302124,-0.6498616337776184,-1.8034090995788574
1772797622123817000,4.32381689453125,-1.9533135890960693,-0.7579260468482971,-2.399383783340454
1772797622133844200,4.33384423828125,-1.7269505262374878,-1.5402746200561523,-3.1634724140167236
1772797622143870200,4.3438701171875,-1.538667917251587,-2.2233259677886963,-3.380305051803589
1772797622153896200,4.353896240234375,-1.8968393802642822,-1.8565233945846558,-1.8756192922592163
1772797622163923000,4.3639228515625,-2.178593158721924,-0.006075469311326742,0.4473932087421417
1772797622173949000,4.373948974609375,-1.948644757270813,1.8413729667663574,1.7469604015350342
1772797622183975000,4.383974853515625,-1.7542377710342407,2.9374303817749023,2.0527608394622803
1772797622194002200,4.394002197265625,-1.474034309387207,2.921753406524658,2.009582042694092
1772797622204028200,4.404028076171875,-1.1651250123977661,1.6336277723312378,2.3087902069091797
1772797622214055200,4.41405517578125,-1.037591576576233,-0.143401101231575,3.1708858013153076
1772797622224081200,4.4240810546875,-1.068835973739624,-1.4961061477661133,3.871699810028076
1772797622234107100,4.434107177734375,-1.2823866605758667,-1.8123924732208252,3.852999210357666
1772797622244134100,4.444134033203125,-1.633270025253296,-1.263336181640625,3.232964038848877
1772797622254160100,4.45416015625,-2.0047194957733154,-0.41564488410949707,2.484121561050415
1772797622264186000,4.46418603515625,-2.2815208435058594,0.3026999533176422,1.9797334671020508
1772797622274213000,4.474213134765625,-2.445565700531006,0.8690813183784485,1.7679616212844849
1772797622284239000,4.484239013671875,-2.4121627807617188,1.3721942901611328,1.6475392580032349
1772797622294265000,4.49426513671875,-2.2684409618377686,1.8345690965652466,1.6163880825042725
1772797622304291800,4.504291748046875,-1.9821865558624268,2.0419790744781494,1.6125727891921997
1772797622314318000,4.514318115234375,-1.6550835371017456,2.0020639896392822,1.6502066850662231
1772797622324345000,4.524344970703125,-1.3640353679656982,1.808383584022522,1.7041865587234497
1772797622334371000,4.53437109375,-1.123837947845459,1.4570423364639282,1.7354416847229004
1772797622344397000,4.54439697265625,-0.9815234541893005,1.1851991415023804,1.680611491203308
1772797622354424000,4.554424072265625,-0.8728169798851013,1.0311368703842163,1.566817283630371
1772797622364450000,4.564449951171875,-0.8301278352737427,0.9507980346679688,1.409541368484497
1772797622374476300,4.574476318359375,-0.8503254652023315,0.8262798190116882,1.18246591091156
1772797622384503000,4.5845029296875,-0.8741075396537781,0.5273586511611938,0.9037131071090698
1772797622394529000,4.594529052734375,-0.9011716246604919,0.12494779378175735,0.638170063495636
1772797622404555000,4.604554931640625,-0.920893132686615,-0.3381119966506958,0.45248863101005554
1772797622414582000,4.61458203125,-0.95272296667099,-0.7883138060569763,0.35122567415237427
1772797622424608000,4.62460791015625,-0.9881523251533508,-1.1100255250930786,0.25653699040412903
1772797622434634000,4.634634033203125,-0.9998340010643005,-1.2799521684646606,0.11982627213001251
1772797622444661200,4.6446611328125,-1.0133658647537231,-1.322036862373352,-0.07351735979318619
1772797622454687200,4.654687255859375,-1.0142757892608643,-1.2416530847549438,-0.30514606833457947
1772797622464714000,4.6647138671875,-1.0370663404464722,-1.116115927696228,-0.5754843354225159
1772797622474740000,4.674739990234375,-1.0961402654647827,-0.9928179383277893,-0.8456806540489197
1772797622484766000,4.684765869140625,-1.1829580068588257,-0.9523948431015015,-1.0855568647384644
1772797622494793200,4.694793212890625,-1.2821464538574219,-0.9821767210960388,-1.2748559713363647
1772797622504819200,4.704819091796875,-1.3498269319534302,-1.0448845624923706,-1.402898907661438
1772797622514845200,4.71484521484375,-1.3975087404251099,-1.1329047679901123,-1.4648905992507935
1772797622524872200,4.7248720703125,-1.4345303773880005,-1.2405589818954468,-1.4955250024795532
1772797622534898000,4.73489794921875,-1.4261834621429443,-1.3225910663604736,-1.5154062509536743
1772797622544924000,4.744923828125,-1.423148274421692,-1.3481296300888062,-1.4970768690109253
1772797622554951200,4.754951171875,-1.4258050918579102,-1.3670333623886108,-1.4038076400756836
1772797622564977200,4.76497705078125,-1.4523732662200928,-1.3818237781524658,-1.2376556396484375
1772797622575004200,4.775004150390625,-1.5010393857955933,-1.3199305534362793,-1.0790539979934692
1772797622585030100,4.785030029296875,-1.6030378341674805,-1.0613287687301636,-1.0965021848678589
1772797622595056000,4.79505615234375,-1.7691525220870972,-0.6770597100257874,-1.3267143964767456
1772797622605083000,4.805082763671875,-1.9785130023956299,-0.2587040066719055,-1.7210191488265991
1772797622615108900,4.81510888671875,-2.180389404296875,0.006390521302819252,-2.1822009086608887
1772797622625135000,4.825135009765625,-2.2969048023223877,0.12506043910980225,-2.546712636947632
1772797622635162000,4.835162109375,-2.340555429458618,-0.04571955278515816,-2.6982998847961426
1772797622645187600,4.8451875,-2.2282605171203613,-0.6818137168884277,-2.578716993331909
1772797622655213600,4.855213623046875,-1.9726574420928955,-1.4685884714126587,-2.3159868717193604
1772797622665240600,4.865240478515625,-1.571000099182129,-1.9847383499145508,-2.363067388534546
1772797622675266600,4.8752666015625,-1.0452797412872314,-2.0552620887756348,-2.780040740966797
1772797622685293600,4.88529345703125,-0.6846736669540405,-2.39614200592041,-2.502333402633667
1772797622695319600,4.895319580078125,-0.7260410785675049,-2.2623071670532227,-1.4390321969985962
1772797622705345500,4.905345458984375,-0.9000096917152405,-1.3052752017974854,-0.23415817320346832
1772797622715372500,4.91537255859375,-1.1560289859771729,-0.030978422611951828,0.5469387173652649
1772797622725398500,4.9253984375,-1.329973816871643,0.5581711530685425,0.864859402179718
1772797622735424500,4.935424560546875,-1.408589243888855,0.44555243849754333,1.0478774309158325
1772797622745451800,4.94545166015625,-1.3781431913375854,0.14170120656490326,1.172597050666809
1772797622755477800,4.955477783203125,-1.3828035593032837,-0.290089875459671,1.166710615158081
1772797622765503700,4.965503662109375,-1.497023344039917,-0.7042023539543152,1.0158697366714478
1772797622775530500,4.975530517578125,-1.5869544744491577,-0.7996692657470703,0.8678349852561951
1772797622785556500,4.985556396484375,-1.6311086416244507,-0.6606540679931641,0.813673734664917
1772797622795582500,4.99558251953125,-1.6661169528961182,-0.4010659456253052,0.8773168921470642
1772797622805609500,5.005609375,-1.6873010396957397,-0.11720731854438782,1.0442489385604858
1772797622815635700,5.0156357421875,-1.7122524976730347,0.18898670375347137,1.2759071588516235
1772797622825662700,5.025662841796875,-1.7215895652770996,0.5340050458908081,1.5284608602523804
1772797622835688700,5.035688720703125,-1.681498646736145,0.8643797636032104,1.7536065578460693
1772797622845714700,5.045714599609375,-1.5658180713653564,1.0028263330459595,1.9932702779769897
1772797622855741400,5.055741455078125,-1.4454461336135864,0.8466072082519531,2.2171854972839355
1772797622865767400,5.065767333984375,-1.324953317642212,0.49896079301834106,2.3973827362060547
1772797622875793700,5.075793701171875,-1.2353522777557373,0.11362989246845245,2.4805281162261963
1772797622885820700,5.085820556640625,-1.1665452718734741,-0.19818152487277985,2.419699192047119
1772797622895846700,5.0958466796875,-1.077501893043518,-0.3569357693195343,2.239255905151367
1772797622905872600,5.10587255859375,-0.9832299947738647,-0.3668017089366913,2.0276927947998047
1772797622915899400,5.1158994140625,-0.9493338465690613,-0.3406031131744385,1.8839983940124512
1772797622925925400,5.12592529296875,-1.0383907556533813,-0.3913845419883728,1.6244624853134155
1772797622935951400,5.135951416015625,-1.1332746744155884,-0.37695154547691345,1.3184224367141724
1772797622945978600,5.145978515625,-1.196542501449585,-0.2884128987789154,0.9441931247711182
1772797622956004600,5.156004638671875,-1.3003003597259521,-0.16600973904132843,0.5268529057502747
1772797622966031600,5.166031494140625,-1.3974757194519043,-0.07740690559148788,0.1482083797454834
1772797622976057600,5.1760576171875,-1.4685317277908325,-0.01636698842048645,-0.18136553466320038
1772797622986083600,5.18608349609375,-1.4925105571746826,-0.010751447640359402,-0.48960351943969727
1772797622996110600,5.196110595703125,-1.5103161334991455,-0.1274343878030777,-0.7480931282043457
1772797623006136600,5.206136474609375,-1.5849446058273315,-0.3841348886489868,-0.9302035570144653
1772797623016162600,5.21616259765625,-1.5669161081314087,-0.644209086894989,-1.0238674879074097
1772797623026189600,5.226189453125,-1.479690432548523,-0.8846163749694824,-1.0466649532318115
1772797623036215600,5.236215576171875,-1.4255179166793823,-1.1176650524139404,-0.9661021828651428
1772797623046241500,5.246241455078125,-1.3574965000152588,-1.2868596315383911,-0.8404161334037781
1772797623056268800,5.256268798828125,-1.301443099975586,-1.3426568508148193,-0.7004292011260986
1772797623066294800,5.266294677734375,-1.231426477432251,-1.3212027549743652,-0.6224886178970337
1772797623076321500,5.276321533203125,-1.1983487606048584,-1.1970597505569458,-0.6462967395782471
1772797623086347500,5.286347412109375,-1.2225104570388794,-0.9712833166122437,-0.7608895897865295
1772797623096373500,5.29637353515625,-1.349533200263977,-0.6849882006645203,-0.9846071600914001
1772797623106400500,5.306400390625,-1.3965318202972412,-0.3535141348838806,-1.2400397062301636
1772797623116426500,5.316426513671875,-1.4163694381713867,-0.07575734704732895,-1.374722957611084
1772797623126452700,5.32645263671875,-1.3695601224899292,0.06137840449810028,-1.3988701105117798
1772797623136479700,5.336479736328125,-1.315017819404602,0.03238297253847122,-1.3040131330490112
1772797623146505500,5.34650537109375,-1.2624573707580566,-0.1298448145389557,-1.0893518924713135
1772797623156531500,5.356531494140625,-1.1528552770614624,-0.44835835695266724,-0.7908557653427124
1772797623166558500,5.366558349609375,-1.0946412086486816,-0.7956662178039551,-0.5759083032608032
1772797623176584400,5.37658447265625,-1.0255372524261475,-1.0062229633331299,-0.5086520314216614
1772797623186610400,5.3866103515625,-0.9816193580627441,-1.0088735818862915,-0.5396906733512878
1772797623196637700,5.3966376953125,-0.940913736820221,-0.8271016478538513,-0.5962338447570801
1772797623206663700,5.40666357421875,-0.878525972366333,-0.5828405022621155,-0.6655063629150391
1772797623216689700,5.416689697265625,-0.758614718914032,-0.07829853147268295,-0.6959623098373413
1772797623226716400,5.42671630859375,-0.7597953081130981,0.6793643832206726,-0.8136439323425293
1772797623236742400,5.436742431640625,-0.7759303450584412,1.0785740613937378,-1.0773061513900757
1772797623246769700,5.446769775390625,-0.819799542427063,0.5247553586959839,-1.6466045379638672
1772797623256795600,5.456795654296875,-0.8727892637252808,-0.49519428610801697,-2.5009050369262695
1772797623266821600,5.466821533203125,-0.9561440944671631,-1.3383758068084717,-3.022167682647705
1772797623276848600,5.4768486328125,-0.7746552228927612,-1.877487301826477,-2.191419839859009
1772797623286874600,5.48687451171875,-0.5167036056518555,-1.5638587474822998,-0.0711924210190773
1772797623296900600,5.496900634765625,-0.38260409235954285,-0.9272623658180237,2.104357957839966
1772797623306927600,5.506927734375,-0.17277763783931732,-0.5008947849273682,3.214308977127075
1772797623316953600,5.51695361328125,0.22331537306308746,-0.25212597846984863,3.38236141204834
1772797623326979600,5.5269794921875,0.2715577483177185,-0.10077641159296036,2.959693431854248
1772797623337006600,5.537006591796875,0.10065443813800812,-0.024638500064611435,2.4555251598358154
1772797623347032600,5.547032470703125,-0.04827192425727844,0.0616668276488781,2.1572887897491455
1772797623357058600,5.55705859375,-0.11037817597389221,0.05090738832950592,2.0411784648895264
1772797623367085600,5.56708544921875,-0.12637311220169067,-0.07458581775426865,1.966633915901184
1772797623377111600,5.577111572265625,-0.18423375487327576,-0.17675985395908356,1.906023621559143
1772797623387137500,5.587137451171875,-0.30671465396881104,-0.18239377439022064,1.8638029098510742
1772797623397164500,5.59716455078125,-0.4474049210548401,-0.038957517594099045,1.7642656564712524
1772797623407190500,5.6071904296875,-0.5639086365699768,0.2607367932796478,1.5905373096466064
1772797623417217500,5.617217529296875,-0.6494938731193542,0.6148272156715393,1.3844224214553833
1772797623427243500,5.627243408203125,-0.6565778851509094,0.8910529613494873,1.2659671306610107
1772797623437269800,5.637269775390625,-0.5766475796699524,0.9564028978347778,1.2236082553863525
1772797623447296500,5.647296630859375,-0.42971542477607727,0.8114779591560364,1.20554780960083
1772797623457322500,5.657322509765625,-0.16820524632930756,0.589146077632904,1.2529003620147705
1772797623467348500,5.667348388671875,-0.056898169219493866,0.21681992709636688,1.323089361190796
1772797623477375500,5.67737548828125,0.010708037763834,-0.11541980504989624,1.3270372152328491
1772797623487401500,5.6874013671875,0.041550640016794205,-0.3354312479496002,1.1745586395263672
1772797623497427500,5.697427490234375,-0.007451258134096861,-0.43038973212242126,0.9230899810791016
1772797623507454700,5.707454833984375,-0.11363068968057632,-0.42960435152053833,0.6394332051277161
1772797623517480700,5.717480712890625,-0.23958009481430054,-0.35638847947120667,0.3542819023132324
1772797623527506700,5.727506591796875,-0.33842039108276367,-0.2349691092967987,0.0463443286716938
1772797623537533400,5.737533447265625,-0.3805936872959137,-0.11508531123399734,-0.2936209738254547
1772797623547559400,5.747559326171875,-0.43678930401802063,-0.07154582440853119,-0.5806537866592407
1772797623557586700,5.757586669921875,-0.5637765526771545,-0.18423934280872345,-0.8853716254234314
1772797623567612700,5.76761279296875,-0.5520849823951721,-0.1383163332939148,-1.2318499088287354
1772797623577638700,5.777638671875,-0.5670983195304871,-0.1249038502573967,-1.592000126838684
1772797623587665700,5.787665771484375,-0.5793009400367737,-0.15630970895290375,-1.9010459184646606
1772797623597691600,5.797691650390625,-0.5986807346343994,-0.1744956374168396,-2.132319450378418
1772797623607717600,5.807717529296875,-0.6296756863594055,-0.22837617993354797,-2.2704262733459473
1772797623617744600,5.81774462890625,-0.6797460317611694,-0.2621985971927643,-2.3191301822662354
1772797623627770600,5.8277705078125,-0.7408666610717773,-0.29650357365608215,-2.296839475631714
1772797623637796600,5.837796630859375,-0.8006628751754761,-0.3566846251487732,-2.2370846271514893
1772797623647824100,5.84782421875,-0.7737715840339661,-0.4618954658508301,-2.1509881019592285
1772797623657850000,5.85785009765625,-0.5894214510917664,-0.5492604374885559,-1.9722965955734253
1772797623667876000,5.8678759765625,-0.5509606003761292,-0.7161959409713745,-1.8124382495880127
1772797623677902800,5.87790283203125,-0.5661872625350952,-0.7412101626396179,-1.6328420639038086
1772797623687928800,5.8879287109375,-0.5975944399833679,-0.629788339138031,-1.6018221378326416
1772797623697954800,5.897954833984375,-0.5989283919334412,-0.4411054849624634,-1.7301290035247803
1772797623707982000,5.907982177734375,-0.5610867738723755,-0.20606209337711334,-1.9083770513534546
1772797623718008000,5.918008056640625,-0.4850716292858124,0.02652721479535103,-2.0279722213745117
1772797623728034000,5.928033935546875,-0.4236026704311371,0.16675889492034912,-2.012711763381958
1772797623738061000,5.93806103515625,-0.4120354950428009,0.1911768764257431,-1.8012713193893433
1772797623748087000,5.948087158203125,-0.42382797598838806,0.15562129020690918,-1.445633888244629
1772797623758113800,5.95811376953125,-0.3821156620979309,0.06678808480501175,-1.117465615272522
1772797623768139800,5.968139892578125,-0.24485395848751068,-0.20076826214790344,-0.9059882164001465
1772797623778166000,5.978166015625,-0.06087959557771683,-0.6188347339630127,-0.8494908809661865
1772797623788193000,5.988193115234375,0.19598548114299774,-0.9518015384674072,-0.9186134934425354
1772797623798219000,5.998218994140625,0.44114917516708374,-1.0659501552581787,-1.1104953289031982
1772797623808245000,6.008244873046875,0.6834121346473694,-1.3233129978179932,-1.487755537033081
1772797623818272000,6.01827197265625,0.879717230796814,-2.026245594024658,-1.8139938116073608
1772797623828297700,6.028297607421875,0.6961652040481567,-2.085975170135498,-1.4694241285324097
1772797623838324000,6.038323974609375,0.36288392543792725,-1.4138405323028564,-0.5957390069961548
1772797623848351000,6.04835107421875,0.18899548053741455,-0.04604818671941757,0.2497701495885849
1772797623858377000,6.058376953125,0.15222255885601044,1.4966837167739868,0.8462172746658325
1772797623868403000,6.06840283203125,0.5810026526451111,2.318723678588867,1.2522950172424316
1772797623878430000,6.078429931640625,1.0495738983154297,1.9269342422485352,1.5115582942962646
1772797623888456000,6.0884560546875,1.307834506034851,0.7972223162651062,1.751242995262146
1772797623898482000,6.09848193359375,1.3025563955307007,-0.22403736412525177,1.9240111112594604
1772797623908509000,6.108509033203125,1.1878191232681274,-0.7766488790512085,1.94803786277771
1772797623918535000,6.118534912109375,1.1478937864303589,-0.8308167457580566,1.7746047973632812
1772797623928561000,6.128560791015625,1.1863431930541992,-0.5430225133895874,1.5562690496444702
1772797623938588000,6.138587890625,1.1842520236968994,-0.057066481560468674,1.4761155843734741
1772797623948614000,6.14861376953125,1.1719298362731934,0.4066268801689148,1.5230876207351685
1772797623958641200,6.15864111328125,1.1807953119277954,0.7996412515640259,1.624568223953247
1772797623968667100,6.168667236328125,1.226346731185913,1.1303808689117432,1.7076127529144287
1772797623978693000,6.178693115234375,1.2776362895965576,1.377942442893982,1.7296030521392822
1772797623988719900,6.188719970703125,1.307942271232605,1.554181694984436,1.7125790119171143
1772797623998745900,6.198745849609375,1.321143627166748,1.5892651081085205,1.6649891138076782
1772797624008771800,6.208771728515625,1.3347084522247314,1.4973106384277344,1.603058934211731
1772797624018799000,6.218799072265625,1.3544435501098633,1.3144409656524658,1.5486702919006348
1772797624028825000,6.2288251953125,1.376883625984192,1.0457870960235596,1.4908047914505005
1772797624038851000,6.23885107421875,1.4120591878890991,0.7454081177711487,1.4551852941513062
1772797624048878000,6.248878173828125,1.4316195249557495,0.4927639067173004,1.4281939268112183
1772797624058903800,6.25890380859375,1.369278073310852,0.31200554966926575,1.3545920848846436
1772797624068929800,6.2689296875,1.240533471107483,0.28366634249687195,1.2227920293807983
1772797624078956800,6.278956787109375,1.0971211194992065,0.38562706112861633,1.0130702257156372
1772797624088983000,6.288983154296875,0.9735866785049438,0.5036429166793823,0.7657693028450012
1772797624099009000,6.299009033203125,0.8509966135025024,0.6060371994972229,0.4839749336242676
1772797624109036000,6.3090361328125,0.7633626461029053,0.6550095081329346,0.2337658852338791
1772797624119062000,6.31906201171875,0.689420759677887,0.664838969707489,0.057324543595314026
1772797624129088000,6.329087890625,0.6219080090522766,0.6164035201072693,-0.07532857358455658
1772797624139114800,6.33911474609375,0.5538243055343628,0.5523297786712646,-0.20527511835098267
1772797624149141000,6.34914111328125,0.5058264136314392,0.5089548230171204,-0.32387635111808777
1772797624159167000,6.3591669921875,0.4505184292793274,0.4438123404979706,-0.45757874846458435
1772797624169194000,6.369194091796875,0.41545286774635315,0.38639962673187256,-0.6286032199859619
1772797624179220000,6.379219970703125,0.37909671664237976,0.3773379623889923,-0.829449474811554
1772797624189246000,6.389245849609375,0.3762173056602478,0.36299043893814087,-1.0130449533462524
1772797624199273000,6.39927294921875,0.3801707625389099,0.33703503012657166,-1.138710379600525
1772797624209299000,6.409298828125,0.40751343965530396,0.2809048891067505,-1.1903363466262817
1772797624219326000,6.419325927734375,0.4642004370689392,0.17932821810245514,-1.168119192123413
1772797624229352000,6.42935205078125,0.5174330472946167,0.056176185607910156,-1.0950247049331665
1772797624239378000,6.4393779296875,0.5523383021354675,-0.07582445442676544,-1.005828857421875
1772797624249405000,6.449405029296875,0.5923384428024292,-0.14101171493530273,-0.93082195520401
1772797624259431000,6.459430908203125,0.5869617462158203,-0.1510843187570572,-0.93755704164505
1772797624269457000,6.469456787109375,0.5240190029144287,-0.10307259112596512,-1.0313280820846558
1772797624279484200,6.479484130859375,0.41105544567108154,-0.03873487934470177,-1.149518370628357
1772797624289510000,6.489510009765625,0.25551459193229675,-0.08437373489141464,-1.206480622291565
1772797624299536000,6.499535888671875,0.18483616411685944,-0.2750377058982849,-1.2319802045822144
1772797624309563000,6.50956298828125,0.233324334025383,-0.5005390048027039,-1.1645513772964478
1772797624319588900,6.5195888671875,0.3433307409286499,-0.6992211937904358,-0.9852508306503296
1772797624329614800,6.52961474609375,0.5206397175788879,-0.8102436065673828,-0.7582922577857971
1772797624339642000,6.53964208984375,0.6732364892959595,-0.8054459095001221,-0.6128825545310974
1772797624349668000,6.549668212890625,0.8671497702598572,-0.6374603509902954,-0.5648516416549683
1772797624359694000,6.559694091796875,1.0717856884002686,-0.06851781159639359,-0.6315814256668091
1772797624369720800,6.569720947265625,1.3624886274337769,0.5317227244377136,-1.0649964809417725
1772797624379746800,6.579746826171875,1.8287237882614136,0.8988019227981567,-1.9398592710494995
1772797624389772800,6.589772705078125,2.511782646179199,0.9938808083534241,-2.4600281715393066
1772797624399800000,6.599800048828125,2.8284711837768555,0.0908348336815834,-1.9394645690917969
1772797624409826000,6.609825927734375,2.690833330154419,-0.07096951454877853,0.06359149515628815
1772797624419852000,6.61985205078125,2.5575904846191406,0.34489479660987854,2.058906316757202
1772797624429879000,6.629879150390625,2.4649033546447754,1.0942857265472412,2.5296103954315186
1772797624439905000,6.639905029296875,2.5984694957733154,1.6564840078353882,1.8761754035949707
1772797624449931000,6.649930908203125,2.6325130462646484,1.73359215259552,1.019152283668518
1772797624459957800,6.659957763671875,2.597714900970459,1.2784345149993896,0.7221786975860596
1772797624469984000,6.66998388671875,2.5426573753356934,0.5792679190635681,0.9739561080932617
1772797624480010000,6.680010009765625,2.5061519145965576,-0.03134753555059433,1.3359146118164062
1772797624490037000,6.690037109375,2.440027952194214,-0.2890704274177551,1.5333744287490845
1772797624500063000,6.70006298828125,2.340106964111328,-0.12562157213687897,1.5749907493591309
1772797624510089000,6.7100888671875,2.207486152648926,0.3367716372013092,1.5259947776794434
1772797624520116000,6.720115966796875,2.0582008361816406,0.8330245614051819,1.5255299806594849
1772797624530142000,6.730141845703125,1.915396809577942,1.2085670232772827,1.601496696472168
1772797624540168000,6.74016796875,1.8069971799850464,1.3926036357879639,1.7156789302825928
1772797624550195000,6.75019482421875,1.722460150718689,1.3721623420715332,1.787400484085083
1772797624560221000,6.760220947265625,1.6852855682373047,1.2385594844818115,1.7598423957824707
1772797624570248000,6.770248046875,1.663883924484253,1.0395833253860474,1.6423988342285156
1772797624580274000,6.78027392578125,1.6296439170837402,0.8060318231582642,1.4745837450027466
1772797624590300000,6.7902998046875,1.5954012870788574,0.6143015027046204,1.2524082660675049
1772797624600327000,6.800326904296875,1.5431572198867798,0.43511709570884705,1.0180779695510864
1772797624610353000,6.810352783203125,1.484330177307129,0.27268025279045105,0.8092781901359558
1772797624620379000,6.82037890625,1.409489393234253,0.2063012421131134,0.5850616097450256
1772797624630406000,6.830406005859375,1.3478058576583862,0.17564372718334198,0.37339356541633606
1772797624640431900,6.840431884765625,1.2573741674423218,0.22069349884986877,0.22277875244617462
1772797624650457900,6.850457763671875,1.1396443843841553,0.2904057204723358,0.07907670736312866
1772797624660485000,6.860485107421875,1.04977285861969,0.2863510549068451,-0.09359759837388992
1772797624670511000,6.870510986328125,0.9812638163566589,0.3594873249530792,-0.3549319803714752
1772797624680537000,6.880537109375,0.8630860447883606,0.34700748324394226,-0.6515860557556152
1772797624690563800,6.890563720703125,0.7881667613983154,0.3156690001487732,-0.9479878544807434
1772797624700589800,6.90058984375,0.7302678227424622,0.3172570466995239,-1.247259497642517
1772797624710615800,6.91061572265625,0.6808054447174072,0.31928399205207825,-1.4795113801956177
1772797624720643000,6.92064306640625,0.6623246669769287,0.3437160849571228,-1.6442087888717651
1772797624730669000,6.9306689453125,0.6884263157844543,0.35734906792640686,-1.7603713274002075
1772797624740695000,6.940695068359375,0.7381012439727783,0.3189023435115814,-1.804269552230835
1772797624750722000,6.95072216796875,0.7821040749549866,0.2219635546207428,-1.7691634893417358
1772797624760748000,6.960748046875,0.8223202228546143,0.10887987911701202,-1.6853394508361816
1772797624770773800,6.970773681640625,0.8646354675292969,0.005022189114242792,-1.556444764137268
1772797624780801000,6.980801025390625,0.8916140794754028,-0.0847921222448349,-1.4013454914093018
1772797624790827000,6.990826904296875,0.8948513865470886,-0.1443587690591812,-1.247273325920105
1772797624800853000,7.00085302734375,0.8686767816543579,-0.12207424640655518,-1.13459050655365
1772797624810880000,7.0108798828125,0.8273027539253235,-0.0180562324821949,-1.1151150465011597
1772797624820906000,7.020906005859375,0.7801887392997742,0.10987137258052826,-1.1557821035385132
1772797624830932000,7.030931884765625,0.720429003238678,0.22898684442043304,-1.2129806280136108
1772797624840959000,7.040958984375,0.6819223761558533,0.32219481468200684,-1.2698793411254883
1772797624850985000,7.05098486328125,0.6337833404541016,0.3641878068447113,-1.2843434810638428
1772797624861011000,7.061010986328125,0.6141340136528015,0.293605238199234,-1.2523338794708252
1772797624871038000,7.071037841796875,0.6493604183197021,0.11662701517343521,-1.199150562286377
1772797624881064000,7.08106396484375,0.7831478118896484,-0.16769951581954956,-1.0454164743423462
1772797624891090000,7.09108984375,1.015033483505249,-0.5084887742996216,-0.8341981768608093
1772797624901117000,7.101116943359375,1.1760343313217163,-0.7466046810150146,-0.7774648666381836
1772797624911143200,7.11114306640625,1.1786890029907227,-0.5677028298377991,-0.9653370380401611
1772797624921169200,7.121169189453125,1.232009768486023,-0.02713281847536564,-1.6650234460830688
1772797624931196000,7.13119580078125,1.3507765531539917,0.6444506049156189,-2.68739652633667
1772797624941222000,7.141221923828125,1.3904316425323486,1.2160757780075073,-3.1731579303741455
1772797624951248000,7.151247802734375,1.1201367378234863,1.3090134859085083,-2.5271806716918945
1772797624961275000,7.16127490234375,1.2194329500198364,1.2467950582504272,-0.8405069708824158
1772797624971300900,7.17130078125,1.4749534130096436,1.138988733291626,1.1561576128005981
1772797624981327000,7.1813271484375,1.6314029693603516,0.8547753691673279,2.4571480751037598
1772797624991354000,7.19135400390625,1.9036163091659546,0.6328712105751038,2.814290761947632
1772797625001379800,7.2013798828125,2.212597608566284,0.5333976149559021,2.5844945907592773
1772797625011405800,7.21140576171875,2.421294689178467,0.42797183990478516,2.28185772895813
1772797625021432800,7.221432861328125,2.5191328525543213,0.19565898180007935,2.1279842853546143
1772797625031458800,7.231458740234375,2.5108299255371094,-0.06088066101074219,2.1010468006134033
1772797625041485000,7.241485107421875,2.392270088195801,-0.27906492352485657,2.126474380493164
1772797625051512000,7.251511962890625,2.2230732440948486,-0.4369315207004547,2.1206235885620117
1772797625061538000,7.2615380859375,2.0485806465148926,-0.4535627067089081,2.0371012687683105
1772797625071564000,7.27156396484375,1.861958384513855,-0.3138599097728729,1.8540812730789185
1772797625081590800,7.2815908203125,1.6394329071044922,-0.01792920008301735,1.6564384698867798
1772797625091616800,7.29161669921875,1.3935792446136475,0.3234283924102783,1.4623223543167114
1772797625101642800,7.301642822265625,1.225129246711731,0.653178870677948,1.244492530822754
1772797625111670000,7.311669921875,1.115385890007019,0.9698942303657532,1.0279783010482788
1772797625121696000,7.321696044921875,1.0608795881271362,1.1816520690917969,0.8640698194503784
1772797625131722000,7.331721923828125,1.0601907968521118,1.2672220468521118,0.8043955564498901
1772797625141749000,7.3417490234375,1.1274425983428955,1.2681666612625122,0.8173321485519409
1772797625151775000,7.35177490234375,1.0856053829193115,1.1195029020309448,0.864780843257904
1772797625161801000,7.361801025390625,0.9497532844543457,0.9418208003044128,0.8887980580329895
1772797625171828000,7.371827880859375,0.8369172811508179,0.8572779297828674,0.8071335554122925
1772797625181854000,7.38185400390625,0.7721816897392273,0.8524906635284424,0.633757472038269
1772797625191880000,7.3918798828125,0.7002127170562744,0.8309669494628906,0.3924351632595062
1772797625201907000,7.401906982421875,0.6221093535423279,0.8383362293243408,0.13528858125209808
1772797625211933000,7.411932861328125,0.5672367811203003,0.784765362739563,-0.1265222579240799
1772797625221959000,7.421958984375,0.494818776845932,0.6418012976646423,-0.3570638597011566
1772797625231986000,7.43198583984375,0.4182949960231781,0.4691757559776306,-0.5473142266273499
1772797625242012000,7.442011962890625,0.33806753158569336,0.3458263874053955,-0.6801396608352661
1772797625252038000,7.452037841796875,0.2800995707511902,0.2559041976928711,-0.7531736493110657
1772797625262065000,7.46206494140625,0.22840601205825806,0.1313079595565796,-0.8488202691078186
1772797625272091000,7.4720908203125,0.21636691689491272,-0.06562694907188416,-0.941877007484436
1772797625282116900,7.482116943359375,0.2710682451725006,-0.35275113582611084,-1.0040825605392456
1772797625292144000,7.49214404296875,0.3827066421508789,-0.669026255607605,-1.0509028434753418
1772797625302170000,7.502170166015625,0.5325525999069214,-0.9228942394256592,-1.0994349718093872
1772797625312196000,7.512196044921875,0.6377255916595459,-1.0794968605041504,-1.1654040813446045
1772797625322222800,7.522222900390625,0.7017804980278015,-1.1104670763015747,-1.2405587434768677
1772797625332248800,7.532248779296875,0.6879571080207825,-1.0272973775863647,-1.3022977113723755
1772797625342274800,7.54227490234375,0.5864744186401367,-0.7896557450294495,-1.3312969207763672
1772797625352301800,7.5523017578125,0.47208312153816223,-0.5004976987838745,-1.3899234533309937
1772797625362328000,7.562328125,0.363759845495224,-0.1840880811214447,-1.5357621908187866
1772797625372354000,7.57235400390625,0.2990197241306305,0.056665677577257156,-1.7243109941482544
1772797625382381000,7.582381103515625,0.24281850457191467,0.1935308426618576,-1.853352427482605
1772797625392407000,7.592406982421875,0.16719858348369598,0.2806631028652191,-1.871730089187622
1772797625402433000,7.60243310546875,0.10300840437412262,0.2953280508518219,-1.7642579078674316
1772797625412459800,7.612459716796875,0.06279440969228745,0.21935366094112396,-1.5861272811889648
1772797625422486000,7.622486083984375,0.07008054852485657,0.04265877977013588,-1.3938050270080566
1772797625432512000,7.632511962890625,0.12688098847866058,-0.19997569918632507,-1.1933577060699463
1772797625442539000,7.6425390625,0.178630992770195,-0.4450951814651489,-1.0439311265945435
1772797625452565000,7.65256494140625,0.2860570549964905,-0.5982064008712769,-0.97520911693573
1772797625462591000,7.662591064453125,0.47660142183303833,-0.6154136657714844,-1.0595698356628418
1772797625472618000,7.672617919921875,0.6628626585006714,-0.33536842465400696,-1.2576130628585815
1772797625482644000,7.68264404296875,0.9419621825218201,0.19956237077713013,-1.244713306427002
1772797625492670000,7.692669921875,1.237161636352539,0.410278856754303,-0.957581102848053
1772797625502697000,7.702697021484375,1.4164624214172363,0.07888709008693695,-0.6883549690246582
1772797625512723000,7.712722900390625,1.5993340015411377,-0.13237188756465912,-0.13338015973567963
1772797625522749000,7.7227490234375,1.550970196723938,-0.4764123558998108,1.0148848295211792
1772797625532776000,7.73277587890625,1.0958995819091797,-0.5343933701515198,2.4935195446014404
1772797625542802000,7.742802001953125,0.6592618227005005,-0.18564629554748535,3.2999014854431152
1772797625552828000,7.752827880859375,0.5323874950408936,0.37748071551322937,3.0635128021240234
1772797625562855000,7.76285498046875,0.7336859703063965,0.7334891557693481,2.4075660705566406
1772797625572881000,7.772880859375,1.040366768836975,0.6750783324241638,2.0278267860412598
1772797625582907000,7.782906982421875,1.175132393836975,0.21176044642925262,2.243377208709717
1772797625592934000,7.792933837890625,1.129150152206421,-0.521372377872467,2.6058356761932373
1772797625602960000,7.8029599609375,1.0056681632995605,-0.9668270945549011,2.718576669692993
1772797625612985900,7.81298583984375,0.7824276685714722,-0.7120099663734436,2.427828550338745
1772797625623013000,7.82301318359375,0.522565484046936,0.07061558216810226,1.7717094421386719
1772797625633039000,7.8330390625,0.22619664669036865,0.8576188087463379,1.1454352140426636
1772797625643065000,7.843065185546875,0.006107693538069725,1.3879013061523438,0.8616740107536316
1772797625653092400,7.85309228515625,-0.08543314039707184,1.6377332210540771,0.8487331867218018
1772797625663118300,7.863118408203125,-0.03831063583493233,1.5834484100341797,0.982907235622406
1772797625673144300,7.873144287109375,0.039156723767519,1.2900954484939575,1.1404987573623657
1772797625683171300,7.88317138671875,0.11483417451381683,0.9330437779426575,1.2677913904190063
1772797625693197300,7.893197265625,0.1943598985671997,0.6223573088645935,1.3594286441802979
1772797625703223300,7.903223388671875,0.2755487561225891,0.35158172249794006,1.4521384239196777
1772797625713250300,7.913250244140625,0.3810376226902008,0.08679109066724777,1.5330857038497925
1772797625723276300,7.9232763671875,0.4364550709724426,-0.1303958296775818,1.588207483291626
1772797625733302300,7.93330224609375,0.5040122866630554,-0.3221362233161926,1.6032179594039917
1772797625743329300,7.943329345703125,0.5552616119384766,-0.4757119417190552,1.5583713054656982
1772797625753355300,7.953355224609375,0.5566118359565735,-0.5416408777236938,1.377841830253601
1772797625763381200,7.96338134765625,0.5575178265571594,-0.5137163400650024,1.0613751411437988
1772797625773408500,7.973408447265625,0.5340010523796082,-0.36857616901397705,0.674177885055542
1772797625783434500,7.9834345703125,0.48442527651786804,-0.2097550928592682,0.25380536913871765
1772797625793460500,7.99346044921875,0.4189591705799103,-0.05547551065683365,-0.14785631000995636
1772797625803487200,8.0034873046875,0.3454362154006958,0.035708460956811905,-0.4971091151237488
1772797625813513200,8.01351318359375,0.2850506603717804,0.05060778185725212,-0.7492630481719971
1772797625823539200,8.023539306640625,0.2320564091205597,-0.053774282336235046,-0.9297689199447632
1772797625833566500,8.03356640625,0.21241958439350128,-0.20055760443210602,-1.0988013744354248
1772797625843592400,8.043592529296875,0.231026291847229,-0.32980746030807495,-1.2818337678909302
1772797625853618400,8.053618408203125,0.27469733357429504,-0.4256841838359833,-1.417635202407837
1772797625863644400,8.06364453125,0.3404760956764221,-0.46868517994880676,-1.4942703247070312
1772797625873671200,8.073671142578124,0.3838043808937073,-0.47655749320983887,-1.5193229913711548
1772797625883697200,8.083697265625,0.3874664902687073,-0.415651798248291,-1.4645761251449585
1772797625893723100,8.09372314453125,0.34043747186660767,-0.35669180750846863,-1.393849492073059
1772797625903750400,8.10375048828125,0.36394572257995605,-0.2151344120502472,-1.3347209692001343
1772797625913776400,8.1137763671875,0.4039578437805176,-0.08536522835493088,-1.3623390197753906
1772797625923802400,8.12380224609375,0.4312560558319092,0.03175526484847069,-1.4791576862335205
1772797625933829400,8.133829345703125,0.4637133479118347,0.1489814966917038,-1.6705790758132935
1772797625943855400,8.14385546875,0.4896394610404968,0.22611595690250397,-1.9148823022842407
1772797625953881300,8.15388134765625,0.441618412733078,0.26587533950805664,-2.1262104511260986
1772797625963908400,8.163908447265625,0.36014673113822937,0.24537646770477295,-2.2100491523742676
1772797625973934300,8.173934326171874,0.2804367244243622,0.05017475411295891,-2.137897491455078
1772797625983960300,8.183960205078124,0.22726032137870789,-0.2407151460647583,-1.9639712572097778
1772797625993987300,8.1939873046875,0.2562083601951599,-0.4839712083339691,-1.7807854413986206
1772797626004013300,8.204013427734376,0.39385008811950684,-0.6968619227409363,-1.6155991554260254
1772797626014039300,8.214039306640625,0.6250084638595581,-0.7637677192687988,-1.4844294786453247
1772797626024066600,8.224066650390625,0.910125732421875,-0.43860211968421936,-1.6140029430389404
1772797626034092500,8.234092529296875,1.1110150814056396,0.20956680178642273,-2.1552722454071045
1772797626044118500,8.244118408203125,1.1341489553451538,1.02019464969635,-2.7369062900543213
1772797626054145300,8.254145263671875,1.0611735582351685,1.1329891681671143,-2.65380859375
1772797626064171300,8.264171142578125,0.9346816539764404,0.171291321516037,-2.5081076622009277
1772797626074197200,8.274197265625,1.09205961227417,-0.8773653507232666,-2.2110278606414795
1772797626084224300,8.284224365234374,1.4513157606124878,-1.4188458919525146,-1.2608810663223267
1772797626094250500,8.29425048828125,1.417011022567749,-1.048816204071045,0.7787588834762573
1772797626104276500,8.3042763671875,1.3409003019332886,-0.19802972674369812,2.8606181144714355
1772797626114303200,8.31430322265625,1.6022274494171143,0.658937931060791,3.785245656967163
1772797626124329200,8.3243291015625,1.9018200635910034,0.9876785278320312,3.8279213905334473
1772797626134355200,8.334355224609375,2.032503128051758,0.7974298000335693,3.6769089698791504
1772797626144382200,8.34438232421875,2.0850892066955566,0.48231497406959534,3.806835651397705
1772797626154408200,8.354408203125,1.9621694087982178,0.3473403751850128,3.846892833709717
1772797626164434400,8.364434326171875,1.762964129447937,0.5257886648178101,3.575845718383789
1772797626174461400,8.37446142578125,1.5158971548080444,0.8681079745292664,3.1271185874938965
1772797626184487400,8.3844873046875,1.2529419660568237,1.173965334892273,2.708068370819092
1772797626194513400,8.394513427734376,1.053897738456726,1.3672951459884644,2.3740172386169434
1772797626204540200,8.4045400390625,0.9122503995895386,1.429273009300232,2.0516793727874756
1772797626214566100,8.414566162109375,0.844313383102417,1.3612604141235352,1.8023091554641724
1772797626224592400,8.42459228515625,0.8404499292373657,1.233658790588379,1.6365108489990234
1772797626234618400,8.434618408203125,0.9089949131011963,1.095075011253357,1.4193439483642578
1772797626244645400,8.444645263671875,1.015471339225769,0.8669553399085999,1.2307138442993164
1772797626254671400,8.45467138671875,1.1425914764404297,0.5891889929771423,1.1592819690704346
1772797626264697300,8.464697265625,1.2183037996292114,0.313514769077301,1.1245743036270142
1772797626274724400,8.474724365234374,1.1906564235687256,0.059590358287096024,1.019902229309082
1772797626284750300,8.484750244140624,1.077642798423767,-0.0870632603764534,0.8986186981201172
1772797626294776300,8.4947763671875,0.9581696391105652,-0.20720937848091125,0.760554850101471
1772797626304803300,8.50480322265625,0.8520834445953369,-0.2376043051481247,0.510475754737854
1772797626314829300,8.514829345703125,0.8258747458457947,-0.27835866808891296,0.1735808402299881
1772797626324855300,8.524855224609375,0.8007350564002991,-0.2652495205402374,-0.20674891769886017
1772797626334882300,8.53488232421875,0.7767069339752197,-0.1832377314567566,-0.6659311652183533
1772797626344908300,8.544908203125,0.7881428003311157,-0.02395806275308132,-1.1196699142456055
1772797626354934300,8.554934326171875,0.8205319046974182,-0.009794574230909348,-1.4662922620773315
1772797626364961300,8.564961181640625,0.8422572016716003,-0.07436078041791916,-1.6600492000579834
1772797626374987300,8.5749873046875,0.8443610668182373,-0.14774392545223236,-1.6897517442703247
1772797626385013200,8.58501318359375,0.7967972755432129,-0.1791210174560547,-1.5552340745925903
1772797626395040300,8.595040283203126,0.7125942707061768,-0.15018124878406525,-1.365590214729309
1772797626405066200,8.605066162109376,0.7866197228431702,-0.03982144966721535,-1.1526278257369995
1772797626415092200,8.61509228515625,0.889143168926239,-0.03461124002933502,-0.9629611968994141
1772797626425119500,8.625119384765625,0.9132895469665527,-0.10806068778038025,-0.8099372982978821
1772797626435145500,8.6351455078125,0.8970285654067993,-0.15204545855522156,-0.7445769309997559
1772797626445171500,8.64517138671875,0.8164048194885254,-0.05770643800497055,-0.7436158061027527
1772797626455198200,8.6551982421875,0.7442299723625183,0.10774244368076324,-0.7590736150741577
1772797626465224200,8.66522412109375,0.6953087449073792,0.2757013440132141,-0.7504755854606628
1772797626475250200,8.675250244140624,0.5810143947601318,0.3904241919517517,-0.6623507738113403
1772797626485276200,8.685276123046876,0.48874330520629883,0.5042756795883179,-0.5173041224479675
1772797626495303400,8.695303466796876,0.44251376390457153,0.5957467555999756,-0.38651707768440247
1772797626505329400,8.705329345703126,0.4224795997142792,0.624709963798523,-0.24583666026592255
1772797626515355400,8.71535546875,0.4538290202617645,0.5984418392181396,-0.07989323139190674
1772797626525382400,8.72538232421875,0.5177209377288818,0.601253092288971,0.09229876846075058
1772797626535408400,8.735408447265625,0.6176691055297852,0.6163079142570496,0.23382501304149628
1772797626545434000,8.74543408203125,0.7317492961883545,0.5693042278289795,0.34632518887519836
1772797626555461400,8.75546142578125,0.8303408622741699,0.4860937297344208,0.4137135446071625
1772797626565487400,8.7654873046875,0.8410752415657043,0.5075236558914185,0.40962454676628113
1772797626575513300,8.775513427734374,0.793361246585846,0.6324443221092224,0.3182392120361328
1772797626585540400,8.785540283203124,0.7297804355621338,0.8392536640167236,0.14056457579135895
1772797626595566300,8.79556640625,0.6756338477134705,1.043809413909912,-0.009496299549937248
1772797626605592300,8.80559228515625,0.6811423301696777,1.055755853652954,-0.2101481705904007
1772797626615619300,8.815619384765625,0.6756322383880615,0.9978939294815063,-0.44317981600761414
1772797626625645300,8.825645263671875,0.6771867275238037,0.8909733295440674,-0.39963075518608093
1772797626635671300,8.83567138671875,0.7684298157691956,0.7116346955299377,-0.0894760861992836
1772797626645698300,8.8456982421875,0.9377772808074951,0.6076585054397583,0.38314419984817505
1772797626655724300,8.855724365234375,1.0688931941986084,0.6868705153465271,0.7468342781066895
1772797626665750300,8.865750244140624,1.1697380542755127,0.7815093994140625,0.9474786520004272
1772797626675777500,8.875777587890624,1.2536205053329468,0.71915602684021,1.0463684797286987
1772797626685803500,8.885803466796874,1.2916579246520996,0.5147480368614197,1.0607516765594482
1772797626695829500,8.89582958984375,1.2894937992095947,0.38612401485443115,0.9560900330543518
1772797626705855500,8.90585546875,1.2077858448028564,0.3144223690032959,0.7697928547859192
1772797626715882200,8.91588232421875,1.076382040977478,0.3105147182941437,0.5336689949035645
1772797626725908200,8.925908203125,0.9626514911651611,0.3031170070171356,0.3474346697330475
1772797626735934200,8.935934326171875,0.8885676860809326,0.24060195684432983,0.2891324758529663
1772797626745961500,8.94596142578125,0.8519036769866943,0.1789572387933731,0.33332282304763794
1772797626755987500,8.955987548828125,0.8057374954223633,0.1610802263021469,0.33287569880485535
1772797626766013400,8.966013427734374,0.8020820617675781,0.26656296849250793,0.29316556453704834
1772797626776040200,8.976040283203124,0.7764307856559753,0.41573941707611084,0.28694602847099304
1772797626786066200,8.986066162109376,0.7156673073768616,0.5255330204963684,0.35984179377555847
1772797626796092200,8.996092041015626,0.6360414028167725,0.5335259437561035,0.4753026068210602
1772797626806119400,9.006119384765626,0.5406850576400757,0.4898810088634491,0.5936968922615051
1772797626816145400,9.0161455078125,0.46789103746414185,0.34860140085220337,0.6683602333068848
1772797626826171400,9.02617138671875,0.4330875277519226,0.12599575519561768,0.7317394614219666
1772797626836198400,9.036198486328125,0.42583519220352173,-0.12384551018476486,0.7820281982421875
1772797626846224400,9.046224365234375,0.4477919042110443,-0.3515346050262451,0.7709598541259766
1772797626856250400,9.05625048828125,0.5044716596603394,-0.5591378808021545,0.9577198624610901
1772797626866277000,9.066277099609374,0.4900445342063904,-0.6092068552970886,0.8407024145126343
1772797626876303400,9.076303466796874,0.536466658115387,-0.5572965741157532,0.6071152091026306
1772797626886329300,9.086329345703126,0.5531260371208191,-0.39115551114082336,0.39133501052856445
1772797626896355300,9.096355224609376,0.5026953816413879,-0.26019537448883057,0.11235477030277252
1772797626906382300,9.10638232421875,0.4652941823005676,-0.19661052525043488,-0.11330205947160721
1772797626916408300,9.116408203125,0.43922024965286255,-0.12744291126728058,-0.3327087163925171
1772797626926434300,9.126434326171875,0.41725581884384155,-0.10316739976406097,-0.4567401111125946
1772797626936461300,9.13646142578125,0.435346394777298,-0.17987921833992004,-0.46883779764175415
1772797626946487600,9.146487548828125,0.4895004630088806,-0.2660508453845978,-0.3938961625099182
