time,seconds_elapsed,z,y,x
1772819356495497700,0.089497802734375,0.011620733886957169,-0.026931550353765488,0.039656706154346466
1772819356505561600,0.0995615234375,0.01578671671450138,-0.024572256952524185,0.04744884744286537
1772819356515626800,0.109626708984375,0.012062287889420986,-0.02425527758896351,0.054644908756017685
1772819356525691400,0.11969140625,0.011228451505303383,-0.025015875697135925,0.04594755545258522
1772819356535756500,0.129756591796875,0.006991617847234011,-0.019728535786271095,0.03162752091884613
1772819356545820700,0.139820556640625,0.006610785610973835,-0.009068435057997704,0.022581296041607857
1772819356555885600,0.149885498046875,-0.0010884907096624374,-0.006916398648172617,0.009548774920403957
1772819356565950700,0.15995068359375,0.004769664723426104,-0.016266757622361183,0.0016865907236933708
1772819356576015600,0.170015625,-0.0008033583872020245,-0.013227126561105251,0.015710968524217606
1772819356586080500,0.18008056640625,-0.006730223540216684,-0.011322700418531895,0.02283039689064026
1772819356596144600,0.19014453125,0.003679838730022311,-0.009804930537939072,0.017453063279390335
1772819356606209500,0.20020947265625,0.008451424539089203,-0.006989703048020601,0.01341171469539404
1772819356616274700,0.210274658203125,0.007460974156856537,-0.01128931064158678,0.014488793909549713
1772819356626339600,0.220339599609375,0.0034244207199662924,-0.012730613350868225,0.006841261405497789
1772819356636403500,0.230403564453125,-0.0016362345777451992,-0.010897655971348286,0.0012987611116841435
1772819356646468600,0.240468505859375,-0.011957049369812012,-0.0018213363364338875,-0.008413786999881268
1772819356656533500,0.250533447265625,-0.012981291860342026,0.011702889576554298,-0.015595383942127228
1772819356666598700,0.2605986328125,-0.014701161533594131,0.03529290482401848,-0.01988387294113636
1772819356676662500,0.27066259765625,-0.008607283234596252,0.043716780841350555,-0.02277274988591671
1772819356686726400,0.280726318359375,-0.004619465209543705,0.022302305325865746,-0.01652257703244686
1772819356696791300,0.290791259765625,-0.0015285052359104156,0.00894745159894228,-0.007310607470571995
1772819356706856400,0.3008564453125,0.0007421057671308517,0.008983138017356396,-0.003803490661084652
1772819356716921300,0.31092138671875,0.002480381168425083,0.00897864531725645,-0.004113894887268543
1772819356726985500,0.3209853515625,-0.0022752252407372,0.002829405479133129,-0.014640571549534798
1772819356737050600,0.331050537109375,-0.0018827058374881744,0.00365415308624506,-0.019689777866005898
1772819356747115300,0.341115234375,-0.005827912595123053,-0.0028410302475094795,-0.0313781276345253
1772819356757180400,0.351180419921875,-0.0020282515324652195,-0.005179848987609148,-0.031410980969667435
1772819356767245600,0.36124560546875,0.0023891334421932697,0.004947353154420853,-0.01869545318186283
1772819356777309400,0.371309326171875,0.003366227727383375,0.014609100297093391,-0.011487776413559914
1772819356787374600,0.38137451171875,0.003986211493611336,0.015340937301516533,-0.0034660696983337402
1772819356797439200,0.391439208984375,0.0014365189708769321,0.009125648066401482,-0.0025684835854917765
1772819356807504400,0.40150439453125,-0.004974775016307831,0.006856635212898254,0.003719239728525281
1772819356817568500,0.411568603515625,-0.004421743098646402,-0.0006245477125048637,-0.000024828652385622263
1772819356827633400,0.42163330078125,-0.007972003892064095,-0.005630757659673691,-0.005830253474414349
1772819356837698600,0.431698486328125,-0.009785965085029602,-0.010334434919059277,-0.00818463135510683
1772819356847763500,0.441763427734375,-0.012818507850170135,-0.00634022569283843,-0.007353992201387882
1772819356857828400,0.451828369140625,-0.011918839067220688,0.002415149472653866,-0.003592519788071513
1772819356867892500,0.461892578125,-0.013766273856163025,0.005807484500110149,0.0048635490238666534
1772819356877957400,0.471957275390625,-0.018034106120467186,0.011642435565590858,0.013447452336549759
1772819356888022500,0.4820224609375,-0.011934669688344002,0.014324238523840904,0.019629715010523796
1772819356898087400,0.49208740234375,-0.013746703043580055,0.01678181067109108,0.013189824298024178
1772819356908151300,0.5021513671875,-0.017343567684292793,0.008164619095623493,0.00601367000490427
1772819356918216400,0.512216552734375,-0.021083861589431763,0.000234886072576046,0.0016803699545562267
1772819356928281600,0.522281494140625,-0.022298263385891914,0.004531363025307655,0.000052113260608166456
1772819356938346500,0.532346435546875,-0.023211780935525894,0.007999099791049957,-0.001429426483809948
1772819356948410600,0.54241064453125,-0.024478115141391754,-0.0019371546804904938,-0.0076974425464868546
1772819356958475300,0.552475341796875,-0.01968301832675934,-0.005131982266902924,-0.005705738440155983
1772819356968540400,0.56254052734375,-0.019852928817272186,0.00238159392029047,-0.008559049107134342
1772819356978605600,0.57260546875,-0.020221583545207977,0.009052112698554993,-0.009240743704140186
1772819356988670500,0.58267041015625,-0.025432858616113663,0.014122504740953445,-0.006620726548135281
1772819356998734600,0.592734619140625,-0.028249064460396767,0.022786833345890045,-0.0032799132168293
1772819357008799200,0.60279931640625,-0.026476465165615082,0.032417356967926025,-0.0008441861718893051
1772819357018864400,0.612864501953125,-0.019218914210796356,0.026628607884049416,-0.004297336097806692
1772819357028929500,0.622929443359375,-0.016583718359470367,0.009529251605272293,-0.0009505414636805654
1772819357038993400,0.632993408203125,-0.009598315693438053,0.004119076766073704,0.001173205440863967
1772819357049058600,0.64305859375,-0.01111045852303505,0.004665822722017765,0.013254103250801563
1772819357059123500,0.65312353515625,-0.020861346274614334,0.0011127330362796783,0.012682540342211723
1772819357069188400,0.663188232421875,-0.019962262362241745,0.019282950088381767,0.011766413226723671
1772819357079253500,0.67325341796875,-0.01984253153204918,0.03274306282401085,0.0058504678308963776
1772819357089317400,0.6833173828125,-0.02075519599020481,0.020441386848688126,-0.0058053890243172646
1772819357099382500,0.693382568359375,-0.020078785717487335,0.008452335372567177,-0.01662912778556347
1772819357109447400,0.703447509765625,-0.019352007657289505,-0.006127405911684036,-0.025680413469672203
1772819357119512300,0.71351220703125,-0.02569170668721199,0.0019181370735168457,-0.027185970917344093
1772819357129576400,0.723576416015625,-0.02634604461491108,0.006739524193108082,-0.02055416814982891
1772819357139641600,0.7336416015625,-0.021022792905569077,0.00426211953163147,0.004667249042540789
1772819357149706200,0.743706298828125,-0.016091151162981987,0.00028122682124376297,0.02926074154675007
1772819357159771400,0.753771484375,-0.008266601711511612,0.0033571757376194,0.03745301440358162
1772819357169836500,0.76383642578125,-0.0032753045670688152,0.010016676038503647,0.03593234717845917
1772819357179900400,0.773900390625,-0.0043094949796795845,0.01695607602596283,0.02922716550529003
1772819357189965600,0.783965576171875,-0.00708157941699028,0.022535130381584167,0.021126363426446915
1772819357200030200,0.7940302734375,-0.008042051456868649,0.015334339812397957,0.0065733036026358604
1772819357210095400,0.804095458984375,-0.0036987019702792168,0.01812906190752983,0.0030885576270520687
1772819357220159500,0.814159423828125,0.0012212186120450497,0.012981174513697624,0.004442139994353056
1772819357230224400,0.824224365234375,0.0013636979274451733,0.004181291908025742,0.006056281737983227
1772819357240289500,0.83428955078125,0.0033771644812077284,-0.009163610637187958,0.004775183275341988
1772819357250354400,0.8443544921875,0.00213852827437222,-0.012358072213828564,0.002799117472022772
1772819357260419300,0.85441943359375,0.005761741194874048,-0.0015059532597661018,0.0012967276852577925
1772819357270483500,0.8644833984375,0.004410719498991966,0.00223685335367918,0.002360660582780838
1772819357280548400,0.87454833984375,0.0016275648958981037,-0.001274959184229374,-0.003598499344661832
1772819357290613500,0.884613525390625,-0.0007671494968235493,-0.003406553529202938,-0.008431604132056236
1772819357300678400,0.894678466796875,0.0021779160015285015,0.0026945509016513824,-0.009158793836832047
1772819357310743300,0.904743408203125,0.0030117519199848175,0.005018425174057484,-0.012866979464888573
1772819357320807400,0.914807373046875,0.0026340759359300137,-0.002661466598510742,-0.008326095528900623
1772819357330872600,0.92487255859375,0.003843950107693672,0.00707185547798872,-0.001052736770361662
1772819357340937500,0.9349375,0.0038968997541815042,0.019341597333550453,0.01438941527158022
1772819357351002400,0.94500244140625,0.009288469329476357,0.025661280378699303,0.022447073832154274
1772819357361066200,0.955066162109375,0.011026915162801743,0.027483351528644562,0.019571850076317787
1772819357371131400,0.96513134765625,0.022704876959323883,0.03721773996949196,0.011174370534718037
1772819357381196500,0.975196533203125,0.01349384244531393,0.013130112551152706,0.001233128015883267
1772819357391261400,0.985261474609375,0.012024310417473316,0.003674558363854885,0.005907242186367512
1772819357401326300,0.995326416015625,0.005001578945666552,-0.0033959373831748962,0.017934348434209824
1772819357411390500,1.005390380859375,-0.0029239882715046406,-0.007846878841519356,0.01731090247631073
1772819357421455400,1.015455322265625,0.002864761045202613,-0.011222867295145988,0.015592459589242935
1772819357431520500,1.0255205078125,0.012754143215715885,-0.003975074738264084,0.00857795961201191
1772819357441585700,1.035585693359375,0.020807264372706413,-0.0034896787256002426,0.003984588198363781
1772819357451650300,1.045650390625,0.02680470421910286,-0.0054002306424081326,0.001983488677069545
1772819357461714400,1.05571435546875,0.02749791368842125,-0.008683210238814354,0.003088749246671796
1772819357471779300,1.065779296875,0.025422245264053345,-0.009758061729371548,0.006330082658678293
1772819357481844500,1.075844482421875,0.018874991685152054,-0.00506757153198123,0.01385622750967741
1772819357491909400,1.085909423828125,0.019047830253839493,-0.002839304506778717,0.01689436100423336
1772819357501974300,1.095974365234375,0.02134605310857296,-0.0031926073133945465,0.013457361608743668
1772819357512038400,1.106038330078125,0.025600984692573547,-0.0018319981172680855,0.006879886146634817
1772819357522103600,1.116103515625,0.032087791711091995,-0.004803418181836605,0.004107216373085976
1772819357532168400,1.12616845703125,0.027471467852592468,-0.009869283065199852,0.005303774960339069
1772819357542233300,1.1362333984375,0.025334645062685013,-0.010945802554488182,0.012811643071472645
1772819357552297500,1.14629736328125,0.02224777452647686,-0.009113547392189503,0.02195747010409832
1772819357562362400,1.1563623046875,0.019750818610191345,-0.0035888860002160072,0.02629992365837097
1772819357572427500,1.166427490234375,0.012673735618591309,-0.0066770873963832855,0.02870342694222927
1772819357582492400,1.176492431640625,0.0064126355573534966,0.0006490722298622131,0.019160248339176178
1772819357592557300,1.186557373046875,-0.0005097193643450737,0.008794883266091347,0.005504623055458069
1772819357602621400,1.196621337890625,-0.005247596651315689,0.0044686440378427505,0.0074236514046788216
1772819357612686300,1.206686279296875,-0.0037807272747159004,0.005808480083942413,0.005328009836375713
1772819357622751500,1.21675146484375,-0.0017927223816514015,0.008861662819981575,0.005636761896312237
1772819357632816400,1.22681640625,-0.00854942761361599,0.009525856003165245,0.002111801877617836
1772819357642880500,1.236880615234375,-0.011843336746096611,0.002581825479865074,-0.004137828480452299
1772819357652945400,1.2469453125,-0.00955967791378498,0.006623970344662666,-0.0072542596608400345
1772819357663010300,1.25701025390625,-0.016966640949249268,0.007735208608210087,-0.0068239676766097546
1772819357673075500,1.267075439453125,-0.017183689400553703,-0.009532727301120758,-0.017321083694696426
1772819357683140400,1.277140380859375,-0.010156011208891869,-0.0021504098549485207,-0.023462869226932526
1772819357693204200,1.287204345703125,-0.010053479112684727,0.0015974566340446472,-0.02029743604362011
1772819357703269000,1.29726904296875,-0.010401878505945206,0.008584026247262955,-0.0142145324498415
1772819357713334000,1.307333984375,-0.011162476614117622,0.010368876159191132,-0.016369296237826347
1772819357723399200,1.317399169921875,-0.01394533459097147,0.016338150948286057,-0.012904035858809948
1772819357733464300,1.32746435546875,-0.015423388220369816,0.017960282042622566,-0.015804218128323555
1772819357743528200,1.337528076171875,-0.016509655863046646,0.00952901504933834,-0.01571434922516346
1772819357753593000,1.347593017578125,-0.012943416833877563,0.0004633478820323944,-0.01753142476081848
1772819357763658200,1.357658203125,-0.008705468848347664,-0.015033353120088577,-0.0163140706717968
1772819357773723100,1.36772314453125,-0.011777158826589584,-0.014140395447611809,-0.012605086900293827
1772819357783788300,1.377788330078125,-0.014089944772422314,-0.01373133435845375,-0.009571356698870659
1772819357793852200,1.38785205078125,-0.010187880136072636,-0.005972480867058039,-0.0068413494154810905
1772819357803917000,1.3979169921875,-0.008509846404194832,0.009015589021146297,0.00027844263240695
1772819357813982200,1.407982177734375,-0.010153550654649734,0.016833297908306122,0.010867703706026077
1772819357824047000,1.418047119140625,-0.011470871046185493,0.01631944440305233,0.015946298837661743
1772819357834112300,1.4281123046875,-0.00840663816779852,0.011976094916462898,0.016698108986020088
1772819357844176400,1.43817626953125,-0.011740708723664284,0.0041427044197916985,0.013249559327960014
1772819357854241000,1.448240966796875,-0.013363372534513474,-0.013981170952320099,0.002826213836669922
1772819357864306200,1.45830615234375,-0.013200860470533371,-0.015412652865052223,-0.008482610806822777
1772819357874371300,1.468371337890625,-0.012507639825344086,-0.009874875657260418,-0.010748961009085178
1772819357884435200,1.478435302734375,-0.01442495733499527,-0.00986752100288868,-0.010284067131578922
1772819357894500400,1.488500244140625,-0.014239601790904999,-0.007164412178099155,-0.006575881503522396
1772819357904565000,1.49856494140625,-0.016474904492497444,0.0015301750972867012,-0.003018257673829794
1772819357914630100,1.508630126953125,-0.014092972502112389,0.0033925240859389305,-0.008251102641224861
1772819357924695300,1.5186953125,-0.010893875733017921,-0.004965942353010178,-0.010378913953900337
1772819357934759200,1.52875927734375,-0.006168628577142954,-0.003011981025338173,-0.014074848964810371
1772819357944824300,1.53882421875,0.00026741158217191696,-0.002827654592692852,-0.010698090307414532
1772819357954889200,1.54888916015625,0.002935632597655058,-0.009040542878210545,-0.006968333385884762
1772819357964954000,1.5589541015625,0.001794302836060524,-0.003836427815258503,-0.0058518340811133385
1772819357975019300,1.569019287109375,0.0025184163823723793,-0.0036609256640076637,-0.005759422667324543
1772819357985083100,1.579083251953125,0.006622813642024994,0.003887837752699852,-0.013041325844824314
1772819357995148300,1.589148193359375,0.00858929194509983,0.0038361717015504837,-0.021326685324311256
1772819358005213200,1.599213134765625,0.011973969638347626,0.001592160202562809,-0.025056155398488045
1772819358015278000,1.609278076171875,0.006883070804178715,-0.0037496089935302734,-0.02183905616402626
1772819358025343200,1.61934326171875,0.007789776660501957,-0.007742784917354584,-0.013941021636128426
1772819358035407000,1.629406982421875,0.006852876394987106,-0.005986430216580629,-0.00488174706697464
1772819358045472300,1.63947216796875,0.007695573382079601,-0.001570308580994606,0.005999370012432337
1772819358055537200,1.649537109375,0.008788269013166428,-0.004659574944525957,0.010544320568442345
1772819358065602000,1.65960205078125,0.0056512788869440556,0.001988636329770088,0.014358656480908394
1772819358075667200,1.669667236328125,0.007054498419165611,0.005118915811181068,0.018161118030548096
1772819358085731300,1.6797314453125,0.006787983234971762,0.0005302559584379196,0.01884983293712139
1772819358095796200,1.689796142578125,0.005613795481622219,0.0019792821258306503,0.018138770014047623
1772819358105861000,1.699861083984375,0.008726651780307293,0.0002129431813955307,0.01629740558564663
1772819358115926300,1.70992626953125,0.009722141548991203,-0.0016837604343891144,0.013551953248679638
1772819358125991200,1.7199912109375,0.013392582535743713,-0.00833437405526638,0.008395208045840263
1772819358136055300,1.73005517578125,0.013967292383313179,-0.012243361212313175,0.0054257833398878574
1772819358146120200,1.7401201171875,0.015238897874951363,-0.009783267974853516,0.0010954128811135888
1772819358156185000,1.75018505859375,0.012586921453475952,-0.01744970865547657,0.002155084628611803
1772819358166250200,1.760250244140625,0.01253264769911766,-0.01705089956521988,-0.00046219947398640215
1772819358176315100,1.770315185546875,0.011427436023950577,-0.015998419374227524,-0.005101958755403757
1772819358186379300,1.780379150390625,0.02088707685470581,-0.01743476092815399,-0.011532503180205822
1772819358196444200,1.790444091796875,0.024171018972992897,-0.009706799872219563,-0.008620869368314743
1772819358206509000,1.800509033203125,0.026751969009637833,-0.0016670525074005127,-0.0004786347271874547
1772819358216574200,1.81057421875,0.020320435985922813,0.0016805408522486687,0.00038529466837644577
1772819358226639400,1.820639404296875,0.017847171053290367,0.007372881285846233,0.006075888406485319
1772819358236703200,1.830703125,0.010334659367799759,-0.006969305220991373,-0.0025889724493026733
1772819358246768000,1.84076806640625,0.01128961518406868,-0.017854440957307816,-0.013095925562083721
1772819358256833000,1.8508330078125,0.0117404880002141,-0.018649928271770477,-0.004053428769111633
1772819358266898200,1.860898193359375,0.006701253354549408,-0.019139818847179413,0.002613708609715104
1772819358276963300,1.87096337890625,0.005527598317712545,-0.019887901842594147,0.01036936603486538
1772819358287028000,1.881028076171875,0.007668766193091869,-0.013577373698353767,0.017322663217782974
1772819358297092000,1.891092041015625,0.004879637621343136,-0.0034917164593935013,0.014623016119003296
1772819358307157200,1.9011572265625,0.0006972067058086395,0.0025386763736605644,0.007136225234717131
1772819358317222100,1.91122216796875,-0.001051691360771656,-0.0009410092607140541,-0.0058442880399525166
1772819358327287300,1.921287353515625,-0.00541182653978467,0.00031780172139406204,-0.013209609314799309
1772819358337352200,1.931352294921875,-0.011702744290232658,-0.006370993796736002,-0.019333282485604286
1772819358347416000,1.941416015625,-0.011200234293937683,-0.012522028759121895,-0.011598032899200916
1772819358357481200,1.951481201171875,-0.0073793972842395306,-0.011487923562526703,-0.0034783214796334505
1772819358367546000,1.961546142578125,-0.0020986017771065235,-0.015423709526658058,0.0028506319504231215
1772819358377611300,1.971611328125,0.0006093005649745464,-0.016805890947580338,-0.001158490777015686
1772819358387676200,1.98167626953125,0.006572608835995197,-0.011226334609091282,0.0021708738058805466
1772819358397740000,1.991739990234375,0.0054785823449492455,-0.00659989146515727,0.0025184163823723793
1772819358407805200,2.00180517578125,0.009584112092852592,-0.001082886941730976,0.0007098636124283075
1772819358417870300,2.011870361328125,0.0043989368714392185,-0.008154644630849361,-0.0034199003130197525
1772819358427935200,2.021935302734375,0.00427788682281971,-0.012850763276219368,-0.004944734275341034
1772819358438000000,2.032000244140625,0.00495725916698575,-0.00520536070689559,-0.005688022822141647
1772819358448064000,2.04206396484375,0.0038488362915813923,-0.0053740739822387695,-0.002848911564797163
1772819358458129200,2.052129150390625,0.007980464026331902,-0.008500891737639904,0.0044553400948643684
1772819358468194300,2.0621943359375,0.008122778497636318,-0.012106377631425858,0.008027361705899239
1772819358478259200,2.07225927734375,0.003823637729510665,-0.016856923699378967,0.004716519266366959
1772819358488324000,2.082323974609375,0.005133969243615866,-0.012742206454277039,0.0008289070101454854
1772819358498388200,2.09238818359375,0.001847894862294197,-0.00790990050882101,0.001541835255920887
1772819358508453000,2.102453125,-0.0015214807353913784,-0.003737660124897957,0.004099605139344931
1772819358518518300,2.112518310546875,-0.0020352043211460114,-0.0019291071221232414,0.007518038619309664
1772819358528583200,2.122583251953125,0.0016864934004843235,-0.003929373808205128,0.0031000995077192783
1772819358538648000,2.13264794921875,0.001389550743624568,-0.005451636854559183,0.0049158427864313126
1772819358548713200,2.142713134765625,0.004510114435106516,-0.007707400247454643,0.0060682352632284164
1772819358558777000,2.152777099609375,0.0027010291814804077,-0.009236587211489677,0.003959012217819691
1772819358568842200,2.16284228515625,0.002095987321808934,-0.006318130064755678,0.004750803578644991
1772819358578907100,2.1729072265625,-0.00171259930357337,-0.004617701750248671,-0.0011752621503546834
1772819358588972000,2.182971923828125,0.0000043692998588085175,-0.0044409348629415035,-0.003589782165363431
1772819358599037200,2.193037109375,0.00034365616738796234,-0.009207461029291153,-0.004512034822255373
1772819358609101300,2.203101318359375,0.0053787026554346085,-0.006926963571459055,-0.004638695623725653
1772819358619166200,2.213166259765625,0.0018140615429729223,-0.005836132448166609,0.0008420897647738457
1772819358629231000,2.223231201171875,0.00431885477155447,-0.0021992530673742294,0.004003233276307583
1772819358639296300,2.233296142578125,0.005387581419199705,0.012906196527183056,0.005135343410074711
1772819358649361200,2.243361083984375,-0.00046084122732281685,0.011071278713643551,-0.0036915773525834084
1772819358659425300,2.25342529296875,-0.0044076466001570225,0.010026787407696247,-0.01636209897696972
1772819358669490200,2.263490234375,-0.0054948762990534306,-0.005281193647533655,-0.02742677740752697
1772819358679555300,2.273555419921875,-0.007537254597991705,-0.016756221652030945,-0.037025872617959976
1772819358689620200,2.2836201171875,-0.004300012718886137,-0.02616320550441742,-0.036769866943359375
1772819358699685400,2.293685302734375,0.00016024988144636154,-0.025171179324388504,-0.026825889945030212
1772819358709750500,2.30375048828125,0.0033128857612609863,-0.012697299011051655,-0.006943479645997286
1772819358719814400,2.313814453125,0.007643451914191246,0.008482553996145725,0.007467950228601694
1772819358729879300,2.32387939453125,0.006213529501110315,0.025578750297427177,0.017229745164513588
1772819358739944400,2.3339443359375,0.006265461444854736,0.03792303055524826,0.013830221258103848
1772819358750009300,2.34400927734375,0.0061814989894628525,0.03276105970144272,0.006864968687295914
1772819358760074500,2.354074462890625,0.006442222744226456,0.01832752674818039,0.0039450787007808685
1772819358770138400,2.364138427734375,0.009094464592635632,-0.0014056973159313202,0.003638814901933074
1772819358780203300,2.374203369140625,0.008252905681729317,-0.016957227140665054,0.007247664034366608
1772819358790268400,2.384268310546875,0.009512847289443016,-0.029950521886348724,0.008393889293074608
1772819358800333300,2.394333251953125,0.013582956045866013,-0.03492344543337822,0.007242337800562382
1772819358810398500,2.4043984375,0.011630931869149208,-0.02688578888773918,0.005225813947618008
1772819358820463400,2.41446337890625,0.011226929724216461,-0.009114515967667103,0.01110154576599598
1772819358830527200,2.42452734375,0.011468475684523582,0.003981643356382847,0.010968739166855812
1772819358840592400,2.43459228515625,0.009316375479102135,0.012694175355136395,0.013697147369384766
1772819358850657500,2.444657470703125,0.015667574480175972,0.010608986020088196,0.016029516234993935
1772819358860722200,2.45472216796875,0.018677745014429092,0.0014786049723625183,0.0190692488104105
1772819358870787300,2.464787353515625,0.02396736852824688,-0.013971122913062572,0.018837537616491318
1772819358880851200,2.474851318359375,0.026841718703508377,-0.01939651370048523,0.02768935263156891
1772819358890916400,2.484916259765625,0.02194138988852501,-0.017876116558909416,0.03154440596699715
1772819358900981500,2.4949814453125,0.016141822561621666,-0.005701208952814341,0.03373751789331436
1772819358911046100,2.505046142578125,0.005625518038868904,0.00466424785554409,0.03332877159118652
1772819358921111300,2.515111328125,0.0007237037643790245,0.017741166055202484,0.02368306927382946
1772819358931176400,2.525176513671875,-0.002569235395640135,0.00987172406166792,0.012846021912992
1772819358941240300,2.535240234375,0.0015040694270282984,0.0010401494801044464,0.0002322258660569787
1772819358951305500,2.545305419921875,0.002858491614460945,-0.006679422687739134,-0.009329923428595066
1772819358961370000,2.5553701171875,-0.0019735475070774555,-0.01554428692907095,-0.017428861930966377
1772819358971435300,2.565435302734375,-0.0051894295029342175,-0.010686746798455715,-0.012866559438407421
1772819358981500400,2.57550048828125,-0.009028907865285873,-0.0015148203819990158,-0.010934969410300255
1772819358991564300,2.585564208984375,-0.008191508240997791,0.012138573452830315,-0.004788204561918974
1772819359001629400,2.59562939453125,-0.00538613460958004,0.021814903244376183,-0.004337597638368607
1772819359011694300,2.6056943359375,-0.004058802966028452,0.02323879487812519,-0.001917547546327114
1772819359021759200,2.61575927734375,-0.0006560818292200565,0.014785388484597206,0.0013315088581293821
1772819359031824400,2.625824462890625,0.0007301548030227423,0.008952400647103786,0.004276502411812544
1772819359041889500,2.6358896484375,0.003047104924917221,0.004275091923773289,-0.0020556957460939884
1772819359051953400,2.645953369140625,-0.0005514179356396198,0.0030085593461990356,0.0014627182390540838
1772819359062018300,2.656018310546875,-0.003615650814026594,0.006109278649091721,-0.005987475160509348
1772819359072083200,2.666083251953125,-0.0034997286275029182,0.0037592360749840736,-0.017763033509254456
1772819359082148400,2.6761484375,-0.008613530546426773,0.005928914062678814,-0.020958557724952698
1772819359092213500,2.686213623046875,-0.008256602101027966,0.00002748146653175354,-0.02562434785068035
1772819359102277400,2.69627734375,-0.003103652037680149,-0.002101716585457325,-0.02837406098842621
1772819359112342300,2.70634228515625,0.0006835486274212599,-0.005181627348065376,-0.021371299400925636
1772819359122407400,2.716407470703125,0.0028191376477479935,-0.012147657573223114,-0.013059573248028755
1772819359132472300,2.726472412109375,0.007830125279724598,-0.01855475641787052,0.0020058557856827974
1772819359142537500,2.736537353515625,0.005594667978584766,-0.016457783058285713,0.01230057142674923
1772819359152602400,2.746602294921875,0.004291538614779711,-0.011461927555501461,0.011986816301941872
1772819359162666200,2.756666259765625,0.001076304353773594,-0.0061952597461640835,0.005781118292361498
1772819359172731400,2.7667314453125,-0.006270809099078178,-0.009398143738508224,-0.013020581565797329
1772819359182796300,2.77679638671875,-0.005559478886425495,-0.01682170480489731,-0.02028461918234825
1772819359192861400,2.786861328125,-0.005138504318892956,-0.011548412032425404,-0.01824820600450039
1772819359202926300,2.79692626953125,-0.0022899876348674297,0.0027993684634566307,-0.0022708377800881863
1772819359212990200,2.806990234375,-0.0008397633209824562,0.01430731825530529,0.00910795945674181
1772819359223055400,2.817055419921875,0.00014161178842186928,0.019444556906819344,0.01536825206130743
1772819359233120500,2.82712060546875,-0.004523181356489658,0.013104268349707127,0.016348332166671753
1772819359243185400,2.837185302734375,-0.00516340509057045,0.010466140694916248,0.011144516058266163
1772819359253250300,2.847250244140625,-0.009513070806860924,0.006142566911876202,0.0036157434806227684
1772819359263315500,2.8573154296875,-0.01033226028084755,0.002523597329854965,0.005511115305125713
1772819359273379300,2.86737939453125,-0.012760521844029427,0.010286344215273857,0.01304975152015686
1772819359283444500,2.877444580078125,-0.009617190808057785,0.01072017289698124,0.011050782166421413
1772819359293509000,2.887509033203125,-0.006495518609881401,0.005780410021543503,0.011082427576184273
1772819359303574300,2.89757421875,-0.0065144263207912445,0.002357182092964649,0.006535612978041172
1772819359313639400,2.907639404296875,-0.012561043724417686,-0.00017674732953310013,0.0036085043102502823
1772819359323704300,2.917704345703125,-0.019786201417446136,-0.004460708703845739,-0.005006022751331329
1772819359333768400,2.9277685546875,-0.02369873970746994,-0.00047572236508131027,-0.010480884462594986
1772819359343833300,2.937833251953125,-0.022955451160669327,0.011096778325736523,-0.010291267186403275
1772819359353898200,2.947898193359375,-0.024619128555059433,0.013997758738696575,-0.014045258983969688
1772819359363963400,2.95796337890625,-0.024733377620577812,0.007232797332108021,-0.010603123344480991
1772819359374028500,2.968028564453125,-0.0234551839530468,-0.0011941436678171158,-0.009262132458388805
1772819359384093200,2.97809326171875,-0.0183578934520483,0.0012208111584186554,0.00140782305970788
1772819359394157300,2.9881572265625,-0.020230958238244057,0.012236044742166996,0.006204373203217983
1772819359404222200,2.99822216796875,-0.01935131661593914,0.01745663955807686,0.009348766878247261
1772819359414287400,3.008287353515625,-0.019331155344843864,0.016673270612955093,0.006861583329737186
1772819359424352500,3.0183525390625,-0.018802784383296967,0.018649335950613022,0.0037803060840815306
1772819359434417200,3.028417236328125,-0.021003104746341705,0.016839785501360893,0.002207529731094837
1772819359444482300,3.038482421875,-0.01838947832584381,0.007454805076122284,0.00012786721345037222
1772819359454546400,3.04854638671875,-0.013227306306362152,0.005010755732655525,-0.002439124509692192
1772819359464611300,3.058611328125,-0.00429186737164855,0.011069979518651962,-0.0037499323952943087
1772819359474676500,3.068676513671875,-0.002216632943600416,0.010458950884640217,0.0008407582063227892
1772819359484741400,3.078741455078125,-0.005111222621053457,0.011277074925601482,-0.000006127054803073406
1772819359494806300,3.08880615234375,-0.011836852878332138,0.015910908579826355,-0.0003390048223081976
1772819359504871400,3.098871337890625,-0.018434034660458565,0.015584669075906277,-0.008981228806078434
1772819359514935300,3.108935302734375,-0.024837741628289223,0.0031671496108174324,-0.01599159464240074
1772819359525000400,3.11900048828125,-0.02307366393506527,-0.0013525011017918587,-0.025214653462171555
1772819359535065300,3.1290654296875,-0.018175125122070312,-0.0032867221161723137,-0.02049049362540245
1772819359545130200,3.139130126953125,-0.017651814967393875,-0.006707286462187767,-0.01844491995871067
1772819359555195400,3.1491953125,-0.009622396901249886,-0.007962966337800026,-0.010289776138961315
1772819359565259500,3.159259521484375,-0.009710281156003475,-0.009150203317403793,0.0002086711465381086
1772819359575324400,3.169324462890625,-0.011827901937067509,0.007100836373865604,0.006195900030434132
1772819359585389300,3.179389404296875,-0.009957296773791313,0.017984379082918167,0.011079604737460613
1772819359595454500,3.189454345703125,-0.011129187420010567,0.028759725391864777,0.016820866614580154
1772819359605519400,3.199519287109375,-0.007988788187503815,0.020697005093097687,0.007781298831105232
1772819359615584300,3.209584228515625,-0.004041614476591349,0.017173178493976593,0.003335387911647558
1772819359625648400,3.2196484375,-0.0021840594708919525,0.006997507065534592,-0.00274594034999609
1772819359635713300,3.22971337890625,-0.0017263302579522133,0.0042239585891366005,-0.006866984535008669
1772819359645778400,3.2397783203125,0.0006673191674053669,-0.002429417334496975,-0.006303726229816675
1772819359655843300,3.24984326171875,-0.00012884708121418953,0.002944475971162319,-0.00008825352415442467
1772819359665908200,3.259908203125,-0.0023792185820639133,0.00856880471110344,-0.002302405657246709
1772819359675973400,3.269973388671875,-0.00496744504198432,0.005856175906956196,-0.004520848393440247
1772819359686036700,3.28003662109375,-0.005432699341326952,0.007101736031472683,-0.014539393596351147
1772819359696102000,3.290101806640625,-0.0033103940077126026,0.007802348583936691,-0.014799949713051319
1772819359706167000,3.3001669921875,-0.0028326227329671383,0.013045579195022583,-0.01225157082080841
1772819359716232000,3.31023193359375,-0.005382386967539787,0.00103096105158329,-0.003274981863796711
1772819359726296800,3.320296875,-0.0026523806154727936,-0.0036687199026346207,0.005060712341219187
1772819359736362000,3.330362060546875,-0.0011710124090313911,-0.0008051227778196335,0.011434120126068592
1772819359746425900,3.34042578125,-0.0016945898532867432,0.004665276035666466,0.01548239216208458
1772819359756491000,3.350490966796875,-0.0010031131096184254,0.012617641128599644,0.015721453353762627
1772819359766556000,3.360555908203125,-0.0018393457867205143,0.016225159168243408,0.013399709947407246
1772819359776620800,3.370620849609375,-0.003962501417845488,0.0242567528039217,0.006959900725632906
1772819359786686000,3.38068603515625,0.004307146184146404,0.029274681583046913,0.004401402082294226
1772819359796751000,3.390751220703125,0.004483293276280165,0.01620512083172798,0.0006622354849241674
1772819359806815000,3.40081494140625,0.0020571534987539053,-0.00024016574025154114,-0.00749875558540225
1772819359816879900,3.4108798828125,0.001419662032276392,-0.018647003918886185,-0.00851308461278677
1772819359826944800,3.42094482421875,0.0017807867843657732,-0.020883791148662567,-0.008433988317847252
1772819359837010000,3.431010009765625,-0.0007287622429430485,-0.0084157045930624,-0.00637148879468441
1772819359847075000,3.441074951171875,0.004057471174746752,-0.0040039122104644775,-0.0041357651352882385
1772819359857139700,3.4511396484375,0.003538291435688734,0.005193313583731651,-0.006906113587319851
1772819359867203800,3.461203857421875,0.007615058682858944,0.01102270744740963,-0.016292424872517586
1772819359877269000,3.47126904296875,0.006142812315374613,0.010177920572459698,-0.020313916727900505
1772819359887334000,3.481333984375,0.006627507507801056,0.006007143296301365,-0.01600172556936741
1772819359897399000,3.49139892578125,0.005509461276233196,-0.006274855230003595,-0.011729334481060505
1772819359907464000,3.5014638671875,0.009090347215533257,-0.0054511395283043385,0.0027673160657286644
1772819359917528800,3.51152880859375,0.006904877256602049,-0.0004696641117334366,0.014173358678817749
1772819359927593000,3.521593017578125,0.006275039631873369,0.0024441005662083626,0.01917344331741333
1772819359937657900,3.531657958984375,0.005537956953048706,0.0036491472274065018,0.016993656754493713
1772819359947723000,3.541722900390625,0.0024763871915638447,0.005272079259157181,0.009021217003464699
1772819359957788000,3.551787841796875,0.002146458253264427,0.005006594583392143,0.007796805817633867
1772819359967852800,3.561852783203125,-0.0009193727746605873,0.006547765806317329,0.0021652851719409227
1772819359977918000,3.57191796875,-0.0023303870111703873,0.0016899267211556435,0.002053953940048814
1772819359987982000,3.581982177734375,0.0009599484037607908,-0.00486065074801445,0.003307770472019911
1772819359998047000,3.592046875,0.0045300694182515144,-0.004089832305908203,0.010283743031322956
1772819360008111900,3.60211181640625,0.005516504403203726,-0.0024972623214125633,0.006874363869428635
1772819360018177000,3.612177001953125,0.008692489936947823,-0.002611212432384491,0.0005197673453949392
1772819360028242000,3.622241943359375,0.00535475043579936,-0.0014950810000300407,-0.0034922847989946604
1772819360038307000,3.63230712890625,0.002726559992879629,-0.008608251810073853,-0.010592994280159473
1772819360048371000,3.642370849609375,0.0020562424324452877,-0.011706041172146797,-0.011014838702976704
1772819360058435800,3.652435791015625,0.0018731462769210339,-0.009642357006669044,-0.010544129647314548
1772819360068501000,3.6625009765625,-0.0005591185763478279,-0.007059623021632433,-0.011800342239439487
1772819360078566000,3.67256591796875,0.0017819874919950962,-0.009194646030664444,-0.009878615848720074
1772819360088631000,3.682631103515625,-0.002647381741553545,-0.004649163223803043,-0.010031481273472309
1772819360098696000,3.692696044921875,-0.002280049491673708,0.0003024199977517128,-0.009190434589982033
1772819360108760800,3.7027607421875,-0.004602858331054449,0.00019935518503189087,-0.014567356556653976
1772819360118825000,3.712824951171875,-0.0020613730885088444,-0.0008217664435505867,-0.016978956758975983
1772819360128890000,3.72289013671875,-0.0027846875600516796,-0.001330430619418621,-0.016219157725572586
1772819360138954800,3.732954833984375,-0.004936771001666784,0.002076118253171444,-0.009339729323983192
1772819360149020000,3.74302001953125,-0.008455872535705566,0.003999986685812473,-0.00526535976678133
1772819360159085000,3.7530849609375,-0.008471387438476086,0.001221110112965107,-0.0042145452462136745
1772819360169150000,3.76314990234375,-0.010443191975355148,0.0002224249765276909,-0.0015117028960958123
1772819360179214000,3.773214111328125,-0.011018842458724976,0.00020671263337135315,-0.0004380537720862776
1772819360189278700,3.78327880859375,-0.007538357749581337,-0.005196575075387955,-0.0007909226114861667
1772819360199343900,3.79334375,-0.00397858303040266,-0.010083707980811596,0.0025241696275770664
1772819360209409000,3.803408935546875,0.0000593024305999279,-0.013923720456659794,0.009489667601883411
1772819360219474000,3.813473876953125,0.004795948509126902,-0.013515757396817207,0.014151944778859615
1772819360229538800,3.823538818359375,0.006042574066668749,-0.007606735918670893,0.017449472099542618
1772819360239603000,3.83360302734375,0.0027375458739697933,-0.010583650320768356,0.013765677809715271
1772819360249667800,3.843667724609375,0.0007937047630548477,-0.008769771084189415,0.011337674222886562
1772819360259733000,3.85373291015625,-0.00039588427171111107,0.0007033916190266609,0.003364544827491045
1772819360269798100,3.863798095703125,-0.00416239257901907,0.000820305198431015,-0.004465414676815271
1772819360279862800,3.87386279296875,-0.0021886383183300495,-0.007919157855212688,-0.006762361619621515
1772819360289928000,3.883927978515625,-0.0027548265643417835,-0.012903530150651932,-0.005953559651970863
1772819360299991800,3.89399169921875,0.0009965370409190655,-0.010147757828235626,-0.00427640974521637
1772819360310057000,3.904056884765625,-0.00006659701466560364,-0.00023280829191207886,0.005704851821064949
1772819360320122000,3.9141220703125,-0.003641723655164242,0.0024947337806224823,0.013378257863223553
1772819360330186800,3.924186767578125,-0.004600195679813623,0.010418969206511974,0.009425859898328781
1772819360340252000,3.934251953125,-0.008971958421170712,0.009160325862467289,0.0008275879081338644
1772819360350317000,3.944317138671875,-0.008683538064360619,0.01127647329121828,-0.018732264637947083
1772819360360382000,3.9543818359375,-0.010181652382016182,-0.0023066792637109756,-0.03370271250605583
1772819360370446000,3.964446044921875,-0.003169282805174589,-0.008672699332237244,-0.036000486463308334
1772819360380511000,3.974510986328125,-0.0014767404645681381,-0.014883922412991524,-0.030299220234155655
1772819360390575900,3.984575927734375,0.0034607599955052137,-0.019027801230549812,-0.02117815986275673
1772819360400641000,3.99464111328125,0.0017366872634738684,-0.010001150891184807,-0.012244794517755508
1772819360410706000,4.004705810546875,0.0003087001387029886,0.007181564345955849,-0.013113783672451973
1772819360420770800,4.014770751953125,-0.0010966742411255836,0.015276309102773666,-0.022493861615657806
1772819360430835000,4.0248349609375,-0.0001256857067346573,0.020619409158825874,-0.036442168056964874
1772819360440899800,4.03489990234375,-0.0007366258651018143,0.0197560116648674,-0.03716149926185608
1772819360450965000,4.044965087890625,-0.0022791288793087006,0.012548166327178478,-0.03465333208441734
1772819360461030000,4.05502978515625,-0.002055017277598381,0.015135261230170727,-0.01813233084976673
1772819360471094800,4.0650947265625,-0.010856231674551964,0.00582937803119421,-0.009863216429948807
1772819360481160000,4.075159912109375,-0.003085873555392027,-0.01728159934282303,-0.019331110641360283
1772819360491223800,4.085223876953125,-0.0036986670456826687,-0.009519284591078758,-0.025169026106595993
1772819360501289000,4.0952890625,-0.009278209879994392,-0.007050035055726767,-0.02917441725730896
1772819360511353900,4.105353759765625,-0.0127855921164155,0.006509182974696159,-0.026123499497771263
1772819360521418800,4.115418701171875,-0.014054369181394577,0.02205462008714676,-0.024276867508888245
1772819360531484000,4.12548388671875,-0.011959526687860489,0.03041987493634224,-0.013051111251115799
1772819360541549000,4.135549072265625,-0.0024688723497092724,0.023339394479990005,-0.010179334320127964
1772819360551614000,4.145614013671875,0.0007498241029679775,0.012743477709591389,-0.008724981918931007
1772819360561677800,4.155677734375,0.005160109605640173,0.005882342346012592,-0.0015245740069076419
1772819360571743000,4.165742919921875,0.007713548373430967,0.007690894417464733,0.008541909046471119
1772819360581807900,4.175807861328125,0.009537244215607643,0.011504340916872025,0.017892898991703987
1772819360591873000,4.185873046875,0.008661065250635147,0.018168635666370392,0.018778666853904724
1772819360601938000,4.19593798828125,0.009779255837202072,0.019719427451491356,0.011575070209801197
1772819360612002800,4.2060029296875,0.011681018397212029,0.017137225717306137,0.00023320020409300923
1772819360622067000,4.21606689453125,0.013851528987288475,0.0011305976659059525,-0.005196342710405588
1772819360632131800,4.2261318359375,0.011408878490328789,-0.019255634397268295,-0.012216967530548573
1772819360642197000,4.236197021484375,0.00988917425274849,-0.030689284205436707,-0.01195269450545311
1772819360652262000,4.246261962890625,0.006791118532419205,-0.027972593903541565,-0.012712494470179081
1772819360662326800,4.256326904296875,0.0020613200031220913,-0.011584832333028316,-0.007870608940720558
1772819360672392000,4.266391845703125,0.0010618355590850115,0.005291353911161423,-0.008685269393026829
1772819360682457000,4.27645703125,0.004910267423838377,0.018891051411628723,-0.00361073762178421
1772819360692521200,4.286521240234375,0.003821034450083971,0.0236879363656044,0.003327596001327038
1772819360702586400,4.29658642578125,0.0072872219607234,0.01796577125787735,0.004605818074196577
1772819360712651300,4.3066513671875,0.011839630082249641,0.014628562144935131,0.01571626029908657
1772819360722716400,4.31671630859375,0.007043390069156885,0.0011175135150551796,0.022476453334093094
1772819360732781300,4.32678125,0.004820715636014938,-0.006577424239367247,0.023735595867037773
1772819360742846200,4.33684619140625,0.004788947757333517,-0.0038988497108221054,0.021139953285455704
1772819360752910300,4.346910400390625,0.0017849020659923553,-0.00448394613340497,0.016863714903593063
1772819360762975200,4.356975341796875,0.002205625642091036,-0.00435508182272315,0.006320943124592304
1772819360773040400,4.367040283203125,0.004599540960043669,0.0003770887851715088,0.005531315691769123
1772819360783105300,4.377105224609375,0.0014016081113368273,0.009294750168919563,0.003937786445021629
1772819360793170200,4.387170166015625,0.0026628810446709394,0.011002102866768837,0.0018754343036562204
1772819360803235300,4.3972353515625,0.009175533428788185,0.0028058914467692375,0.0004442820209078491
1772819360813300500,4.407300537109375,0.012346291914582253,-0.0008394438773393631,-0.0030058431439101696
1772819360823364400,4.4173642578125,0.014537045732140541,-0.007143212947994471,-0.005167097318917513
1772819360833429200,4.42742919921875,0.013675779104232788,-0.009878013283014297,-0.010111521929502487
1772819360843494400,4.437494384765625,0.01049608364701271,-0.014821371994912624,-0.018663601949810982
1772819360853559300,4.447559326171875,0.007410545367747545,-0.01747041754424572,-0.019687321037054062
1772819360863624400,4.45762451171875,0.005364852026104927,-0.012598165310919285,-0.016602978110313416
1772819360873689300,4.467689453125,0.005326236132532358,-0.011406134814023972,-0.012679608538746834
1772819360883754200,4.477754150390625,0.005978002212941647,-0.005924850236624479,-0.008720002137124538
1772819360893818400,4.487818359375,0.0018357213120907545,-0.006546698044985533,-0.004435508046299219
1772819360903883300,4.49788330078125,0.0037011229433119297,0.003715693950653076,0.0029530865140259266
1772819360913948400,4.507948486328125,0.003924029413610697,0.006473662331700325,0.00571265397593379
1772819360924013300,4.518013427734375,-0.000454828143119812,0.008426591753959656,0.009172347374260426
1772819360934078200,4.528078125,-0.0009232782758772373,0.002592405304312706,0.006633022800087929
1772819360944143400,4.538143310546875,-0.0041344501078128815,0.005496815778315067,0.0066514103673398495
1772819360954207500,4.54820751953125,-0.006063111126422882,0.004298659972846508,0.0048234169371426105
1772819360964272400,4.5582724609375,-0.007732969708740711,-0.0008644433692097664,0.005960735026746988
1772819360974337300,4.568337158203125,-0.008437641896307468,-0.0024423664435744286,0.0032645510509610176
1772819360984402400,4.57840234375,-0.0020051435567438602,-0.010706055909395218,0.002095244126394391
1772819360994467300,4.58846728515625,0.001978679094463587,-0.02106868103146553,-0.00017776398453861475
1772819361004532200,4.5985322265625,0.0032142442651093006,-0.027597520500421524,-0.007571045309305191
1772819361014597400,4.608597412109375,0.004680048208683729,-0.025930382311344147,-0.009715156629681587
1772819361024661200,4.6186611328125,0.00040950789116322994,-0.019941430538892746,-0.006049612537026405
1772819361034726400,4.628726318359375,-0.0014605638571083546,-0.012959686107933521,-0.0009382074349559844
1772819361044791300,4.638791259765625,-0.0008888007141649723,-0.005811198148876429,0.00015954062109813094
1772819361054856200,4.648856201171875,0.004721947014331818,-0.007622147910296917,0.0024493264500051737
1772819361064921300,4.65892138671875,0.007485506124794483,-0.006311471574008465,0.010071882978081703
1772819361074986200,4.668986328125,0.009773693978786469,-0.004991342779248953,0.01858813874423504
1772819361085051400,4.679051513671875,0.010737687349319458,-0.007052364759147167,0.020163539797067642
1772819361095115300,4.689115234375,0.013105770573019981,-0.007211355492472649,0.02129085548222065
1772819361105180200,4.69918017578125,0.009690340608358383,-0.008912716060876846,0.020119400694966316
1772819361115245300,4.709245361328125,0.011866675689816475,-0.010474659502506256,0.01292353868484497
1772819361125310500,4.719310546875,0.010105929337441921,-0.006805854849517345,0.01213441975414753
1772819361135375400,4.729375244140625,0.009936552494764328,0.0035253455862402916,0.012344542890787125
1772819361145440300,4.739440185546875,0.013719175010919571,0.01172618381679058,0.012204647064208984
1772819361155505400,4.74950537109375,0.00956011563539505,0.007558336481451988,0.00617205398157239
1772819361165569300,4.7595693359375,0.00497570913285017,-0.005070241633802652,-0.009844524785876274
1772819361175634400,4.769634521484375,0.0046630543656647205,-0.01774422451853752,-0.02167348749935627
1772819361185699300,4.77969921875,-0.0007923324592411518,-0.02785235084593296,-0.030168792232871056
1772819361195764200,4.78976416015625,-0.005247801076620817,-0.031233767047524452,-0.022539369761943817
1772819361205829400,4.799829345703125,-0.0025875354185700417,-0.026341602206230164,-0.013508563861250877
1772819361215894300,4.809894287109375,0.004863722715526819,-0.00617694528773427,0.0008219050359912217
1772819361225958400,4.81995849609375,0.011755332350730896,0.0077216895297169685,0.007815436460077763
1772819361236023300,4.830023193359375,0.014084799215197563,0.012712719850242138,0.01375721488147974
1772819361246088200,4.840088134765625,0.015966007485985756,0.0165567584335804,0.01712050847709179
1772819361256153300,4.8501533203125,0.014565717428922653,0.013522885739803314,0.013263185508549213
1772819361266218200,4.86021826171875,0.014578025788068771,0.0017892969772219658,0.0061531951650977135
1772819361276283400,4.870283447265625,0.009914563968777657,-0.020305085927248,0.0023243683390319347
1772819361286348300,4.880348388671875,0.004948470741510391,-0.024341605603694916,-0.0006996694719418883
1772819361296412200,4.890412109375,0.005551942624151707,-0.02316448837518692,-0.006542378570884466
1772819361306477300,4.900477294921875,0.0020107184536755085,-0.020122192800045013,-0.009615883231163025
1772819361316542500,4.91054248046875,0.002916459459811449,-0.018498729914426804,-0.01496830489486456
1772819361326607000,4.920607177734375,0.0038579837419092655,-0.004232209641486406,-0.010618545114994049
1772819361336672300,4.93067236328125,0.0036561163142323494,0.004351424053311348,-0.004297532141208649
1772819361346737400,4.9407373046875,0.003246351145207882,-0.0016396557912230492,0.0019491967977955937
1772819361356802300,4.95080224609375,0.007520192302763462,0.008330419659614563,0.016054095700383186
1772819361366866400,4.960866455078125,0.0003963685594499111,0.0041554830968379974,0.02079513669013977
1772819361376931000,4.97093115234375,0.012751571834087372,-0.004985018167644739,0.010150216519832611
1772819361386996200,4.980996337890625,0.014408687129616737,-0.0033053960651159286,0.005251349415630102
1772819361397061400,4.991061279296875,0.014394572004675865,-0.00738988583907485,0.014292781241238117
1772819361407126300,5.001126220703125,0.01303109060972929,-0.0030134813860058784,0.01177994068711996
1772819361417191200,5.011191162109375,0.00918229017406702,0.002927497960627079,0.01270219311118126
1772819361427256300,5.02125634765625,0.008561618626117706,0.007217118516564369,0.010640076361596584
1772819361437320200,5.0313203125,0.007816466502845287,-0.001941491849720478,0.004257544409483671
1772819361447385300,5.04138525390625,0.006011446472257376,-0.012203715741634369,-0.005043686833232641
1772819361457450500,5.051450439453125,0.0041871811263263226,-0.016494600102305412,-0.002441778313368559
1772819361467515100,5.06151513671875,-0.0005100946873426437,-0.015879612416028976,-0.0025460703764110804
1772819361477580300,5.071580322265625,-0.0006837327964603901,-0.00855565257370472,-0.004183115437626839
1772819361487645400,5.0816455078125,0.004284505732357502,0.002082078717648983,0.000006433867383748293
1772819361497710300,5.09171044921875,0.009257959201931953,0.010778364725410938,0.003955635242164135
1772819361507774500,5.1017744140625,0.00785563513636589,0.01350460946559906,0.006592183373868465
1772819361517839000,5.111839111328125,0.007749641314148903,0.007943661883473396,0.011617034673690796
1772819361527904300,5.121904296875,0.0029891442973166704,0.0049441782757639885,0.011901442892849445
1772819361537969400,5.131969482421875,0.0006476931739598513,0.002096193842589855,0.01742483861744404
1772819361548034300,5.142034423828125,-0.003998191095888615,-0.003807768225669861,0.016242660582065582
1772819361558099200,5.15209912109375,0.0014274667482823133,-0.002916141413152218,0.016672762110829353
1772819361568164400,5.162164306640625,0.0023891727905720472,-0.00234282948076725,0.015463853254914284
1772819361578228200,5.172228271484375,-0.0014905203133821487,-0.00560786435380578,0.01108215469866991
1772819361588293400,5.18229345703125,-0.0022572996094822884,-0.0040110014379024506,0.006965428125113249
1772819361598358300,5.192358154296875,-0.0007225200533866882,-0.00087752565741539,0.007906323298811913
1772819361608423200,5.202423095703125,-0.004331314470618963,0.003680707886815071,0.003322768956422806
1772819361618488300,5.21248828125,-0.007066647056490183,0.003561132587492466,0.006445059087127447
1772819361628553500,5.222553466796875,-0.006146089639514685,0.005375309847295284,0.0037845429033041
1772819361638618000,5.2326181640625,-0.006324255373328924,0.000592273660004139,-0.006076609715819359
1772819361648682200,5.24268212890625,-0.005169183015823364,-0.006384375970810652,-0.012412152253091335
1772819361658747100,5.2527470703125,-0.004761187359690666,-0.007838195189833641,-0.013571159914135933
1772819361668812300,5.262812255859375,-0.010152734816074371,-0.008174920454621315,-0.014101340435445309
1772819361678877400,5.27287744140625,-0.005160374101251364,-0.00793443713337183,-0.008208297193050385
1772819361688942000,5.282942138671875,-0.004140111617743969,-0.006378648802638054,-0.007354213390499353
1772819361699007200,5.29300732421875,-0.005604850128293037,-0.0009857472032308578,-0.0026369562838226557
1772819361709072100,5.303072021484375,-0.00632148701697588,0.002497234381735325,-0.0078085982240736485
1772819361719136300,5.31313623046875,-0.006209101527929306,0.007780413143336773,-0.006261834409087896
1772819361729201200,5.323201171875,-0.005443422123789787,0.010437814518809319,-0.009076046757400036
1772819361739266000,5.33326611328125,-0.003591992426663637,0.006500864401459694,-0.011524290777742863
1772819361749331200,5.343331298828125,0.0023132339119911194,0.0005331849679350853,-0.009323684498667717
1772819361759396000,5.35339599609375,0.003668782999739051,-0.000787210650742054,-0.0057747564278542995
1772819361769461200,5.363461181640625,0.005954781547188759,0.010798039846122265,0.01235992182046175
1772819361779526100,5.373526123046875,-0.002339633647352457,0.006535383872687817,0.022062616422772408
1772819361789590000,5.383590087890625,0.0036381566897034645,-0.0012071914970874786,0.00919220969080925
1772819361799655200,5.3936552734375,0.010006573051214218,0.001595253124833107,-0.00041114981286227703
1772819361809720300,5.40372021484375,0.009111817926168442,0.006167436018586159,-0.003327613463625312
1772819361819785200,5.41378515625,0.010375222191214561,0.005410831421613693,-0.000048729474656283855
1772819361829850000,5.42385009765625,0.008429249748587608,0.008550433441996574,0.0037044635973870754
1772819361839915300,5.433915283203125,0.0047974977642297745,0.0006672097370028496,0.004278374370187521
1772819361849980200,5.443980224609375,0.012876010499894619,-0.004091992974281311,0.0022632284089922905
1772819361860044300,5.454044189453125,0.006480429321527481,-0.008051048964262009,-0.0010633263736963272
1772819361870109200,5.464109130859375,0.005538548808544874,-0.004086799919605255,-0.003277943469583988
1772819361880174000,5.474174072265625,0.0037193435709923506,-0.0002193571999669075,-0.006039908155798912
1772819361890239200,5.4842392578125,0.0011305075604468584,0.004191800951957703,-0.0008205896592698991
1772819361900304100,5.49430419921875,0.007605451159179211,0.017755813896656036,0.0054378388449549675
1772819361910369300,5.504369384765625,0.004353794734925032,0.02361343801021576,0.016958000138401985
1772819361920434200,5.51443408203125,0.003515165066346526,0.02108157053589821,0.013934513553977013
1772819361930499000,5.5244990234375,0.0021493732929229736,0.01084937434643507,0.007287295535206795
1772819361940563200,5.534563232421875,-0.0012024813331663609,0.014141307212412357,0.0017894660122692585
1772819361950628400,5.54462841796875,-0.003242140170186758,0.016128290444612503,-0.008432541973888874
1772819361960693200,5.554693359375,-0.007726637180894613,0.00918702781200409,-0.019370676949620247
1772819361970758100,5.564758056640625,-0.00284254876896739,-0.007797217462211847,-0.03373526781797409
1772819361980823300,5.5748232421875,-0.00038658175617456436,-0.011302470229566097,-0.03059939481317997
1772819361990888200,5.58488818359375,0.001042807474732399,-0.0028652409091591835,-0.02810111828148365
1772819362000953000,5.594953125,0.0014886206481605768,0.0030738748610019684,-0.02299024537205696
1772819362011017000,5.605016845703125,0.003042474389076233,0.010541943833231926,-0.022947654128074646
1772819362021082000,5.61508203125,0.0013873199932277203,0.01218964159488678,-0.028526976704597473
1772819362031147300,5.625147216796875,0.00047544483095407486,0.01781526766717434,-0.023758167400956154
1772819362041212200,5.635212158203125,-0.0010902276262640953,0.008650798350572586,-0.015981469303369522
1772819362051277000,5.645277099609375,0.0034481037873774767,0.008780959993600845,-0.008735907264053822
1772819362061342200,5.65534228515625,0.006736308801919222,0.0028679436072707176,-0.003924373537302017
1772819362071407000,5.665406982421875,0.008181761018931866,-0.0030221985653042793,-0.00476845121011138
1772819362081471200,5.67547119140625,0.0004298316780477762,-0.006629184354096651,-0.011833017691969872
1772819362091536400,5.685536376953125,-0.003277728334069252,-0.004701657686382532,-0.023033037781715393
1772819362101601000,5.69560107421875,-0.009303929284214973,-0.0021916283294558525,-0.028982805088162422
1772819362111666200,5.705666259765625,-0.011658281087875366,-0.0001724855974316597,-0.030788930132985115
1772819362121731300,5.7157314453125,-0.009703520685434341,0.004115202464163303,-0.027041062712669373
1772819362131796200,5.725796142578125,-0.007995489053428173,0.012009547092020512,-0.01744832471013069
1772819362141861000,5.735861083984375,-0.001066210214048624,0.013520623557269573,-0.008459890261292458
1772819362151925000,5.745925048828125,0.004144501406699419,0.014865385368466377,-0.003740832209587097
1772819362161990100,5.755990234375,0.012073265388607979,0.012074925005435944,0.003000160912051797
1772819362172055300,5.76605517578125,0.011525501497089863,0.010806961916387081,0.007324615493416786
1772819362182120200,5.7761201171875,0.006938472855836153,0.01080216746777296,0.009175778366625309
1772819362192185000,5.78618505859375,0.004089848138391972,0.018496839329600334,0.006497306749224663
1772819362202250200,5.796250244140625,-0.0008244826458394527,0.012377692386507988,-0.0011962993303313851
1772819362212315100,5.806315185546875,-0.002776860259473324,0.00474048126488924,-0.007791721262037754
1772819362222380300,5.81638037109375,-0.000599992461502552,-0.004474055487662554,-0.016774030402302742
1772819362232444200,5.826444091796875,0.003951194696128368,-0.011858969926834106,-0.018191242590546608
1772819362242509000,5.836509033203125,-0.00010053860023617744,-0.013835035264492035,-0.01832839474081993
1772819362252574200,5.84657421875,0.0036955501418560743,-0.012422927655279636,-0.01333102397620678
1772819362262639400,5.856639404296875,0.0036124596372246742,-0.0010549584403634071,-0.0069434321485459805
1772819362272704000,5.8667041015625,-0.0003291941247880459,0.0012203473597764969,-0.00964263267815113
1772819362282769200,5.87676904296875,-0.001073281280696392,0.009701716713607311,-0.010963027365505695
1772819362292834300,5.886834228515625,0.000776390777900815,0.014978237450122833,-0.015890009701251984
1772819362302898200,5.896898193359375,-0.004302790388464928,0.013840002939105034,-0.0220794640481472
1772819362312963300,5.90696337890625,-0.0020368127152323723,0.01523150410503149,-0.016298137605190277
1772819362323028000,5.917028076171875,-0.0037010223604738712,0.022610854357481003,-0.004583424888551235
1772819362333093000,5.927093017578125,-0.00028698937967419624,0.017991971224546432,-0.003124463837593794
1772819362343158300,5.937158203125,-0.003964548464864492,0.0062277233228087425,-0.001390479737892747
1772819362353223200,5.94722314453125,-0.007130414247512817,-0.006994372233748436,-0.008320805616676807
1772819362363288000,5.9572880859375,-0.01833326742053032,-0.005434292368590832,-0.011056937277317047
1772819362373353200,5.967353271484375,-0.024489324539899826,0.0009042974561452866,-0.016861699521541595
1772819362383417000,5.9774169921875,-0.022845357656478882,0.007812537252902985,-0.02242797240614891
1772819362393482200,5.987482177734375,-0.018804913386702538,0.008766747079789639,-0.021644599735736847
1772819362403547400,5.99754736328125,-0.017152687534689903,0.00973507296293974,-0.015361937694251537
1772819362413612000,6.007612060546875,-0.013788178563117981,0.01314548123627901,-0.009981528855860233
1772819362423677200,6.01767724609375,-0.007685279939323664,0.0131404222920537,-0.003467170987278223
1772819362433742300,6.027742431640625,-0.007872765883803368,0.010169865563511848,0.0007319963769987226
1772819362443807200,6.03780712890625,-0.009798498824238777,0.0013470789417624474,-0.009849009104073048
1772819362453871400,6.047871337890625,-0.012300841510295868,-0.0009337803348898888,-0.010080642998218536
1772819362463936000,6.05793603515625,-0.014628443866968155,0.004067635163664818,-0.012803991325199604
1772819362474001200,6.068001220703125,-0.011897592805325985,0.008082780987024307,-0.0028953824657946825
1772819362484066300,6.07806640625,-0.014184183441102505,0.015176111832261086,0.0031031216494739056
1772819362494131200,6.088131103515625,-0.009537363424897194,0.015191261656582355,0.006491608452051878
1772819362504196000,6.098196044921875,-0.00370637234300375,0.018487457185983658,0.005612498614937067
1772819362514261200,6.10826123046875,-0.005603211931884289,0.013970231637358665,0.0016695419326424599
1772819362524325000,6.1183251953125,-0.00684291310608387,0.005673419684171677,-0.0036325454711914062
1772819362534390300,6.128390380859375,-0.011713262647390366,0.00910513661801815,-0.01375600416213274
1772819362544455200,6.138455078125,-0.017241718247532845,0.011037793010473251,-0.017539823427796364
1772819362554520000,6.14852001953125,-0.013807658106088638,0.00655023381114006,-0.023549048230051994
1772819362564585200,6.158585205078125,-0.01891986094415188,0.01239081285893917,-0.020222492516040802
1772819362574650400,6.168650390625,-0.017594728618860245,0.007050041109323502,-0.021726347506046295
1772819362584715000,6.178715087890625,-0.01654011756181717,-0.00010986719280481339,-0.015174170024693012
1772819362594780200,6.1887802734375,-0.013202316127717495,-0.00020703952759504318,-0.005644730292260647
1772819362604844000,6.198843994140625,-0.006248270161449909,0.00935104675590992,0.005006316117942333
1772819362614909200,6.2089091796875,-0.006562612950801849,0.0038243578746914864,0.0033144569024443626
1772819362624974300,6.218974365234375,-0.003968959674239159,-0.0007269848138093948,-0.0016052003484219313
1772819362635039000,6.2290390625,-0.006683983840048313,-0.0021792100742459297,-0.008434608578681946
1772819362645104000,6.239104248046875,-0.004410176537930965,-0.0038546044379472733,-0.01375320740044117
1772819362655169300,6.249169189453125,-0.002981964498758316,0.006555492058396339,-0.015069774352014065
1772819362665234200,6.259234130859375,-0.0054749492555856705,0.01112813875079155,-0.0017619587015360594
1772819362675298300,6.26929833984375,-0.007553792558610439,0.016780000180006027,0.0015786607982590795
1772819362685364000,6.279364013671875,0.0004029336851090193,0.018093205988407135,0.013724539428949356
1772819362695429000,6.28942919921875,0.006738286465406418,0.014907864853739738,0.01555769145488739
1772819362705494300,6.299494384765625,0.013402314856648445,0.003118583932518959,0.018956419080495834
1772819362715559000,6.309558837890625,0.011809227988123894,0.0002980949357151985,0.017758099362254143
1772819362725624000,6.3196240234375,0.0028668656013906,0.0026613837108016014,0.007788822054862976
1772819362735689200,6.329689208984375,-0.001857088878750801,0.0002992264926433563,0.0015603206120431423
1772819362745754000,6.339754150390625,-0.009590109810233116,0.011202474124729633,-0.008214013651013374
1772819362755818200,6.349818359375,-0.009838055819272995,0.01567106321454048,-0.018185723572969437
1772819362765883100,6.359883056640625,-0.012663936242461205,0.009950593113899231,-0.02633419819176197
1772819362775948000,6.369947998046875,-0.008373226970434189,-0.006825893186032772,-0.03142887353897095
1772819362786013200,6.38001318359375,-0.007370280101895332,-0.019151268526911736,-0.03091488406062126
1772819362796078000,6.390078125,0.0013465324882417917,-0.021198872476816177,-0.025777162984013557
1772819362806143000,6.40014306640625,-0.0009291386231780052,-0.011469281278550625,-0.01718580536544323
1772819362816208100,6.4102080078125,0.0018565237987786531,-0.00004055630415678024,-0.006449423264712095
1772819362826273300,6.420273193359375,0.006786301266402006,0.015484606847167015,0.0006950388778932393
1772819362836337200,6.430337158203125,0.004989900626242161,0.018183719366788864,-0.001165843801572919
1772819362846402000,6.440402099609375,-0.0034840116277337074,0.014860094524919987,-0.006043955683708191
1772819362856467000,6.450467041015625,-0.0046513997949659824,0.003916568122804165,-0.012167861685156822
1772819362866532000,6.460531982421875,-0.006116671022027731,-0.0033986028283834457,-0.016934389248490334
1772819362876597200,6.47059716796875,-0.002971496433019638,-0.001883932389318943,-0.015047603286802769
1772819362886662000,6.480661865234375,-0.0009171338751912117,-0.007796948775649071,-0.011333292350172997
1772819362896727000,6.49072705078125,-0.001852522138506174,-0.0055992091074585915,-0.004877704195678234
1772819362906792200,6.500792236328125,-0.005564169492572546,0.0038235867395997047,0.002958380850031972
1772819362916856000,6.51085595703125,-0.0007262518629431725,0.014010544866323471,0.0064870198257267475
1772819362926921200,6.520921142578125,0.0016953607555478811,0.02272254228591919,0.00540471076965332
1772819362936986000,6.530986083984375,-0.003232246730476618,0.014959361404180527,0.00007349584484472871
1772819362947051000,6.541051025390625,0.000940926605835557,0.0030254703015089035,-0.0016743367305025458
1772819362957116200,6.5511162109375,-0.00013690954074263573,-0.0029863473027944565,-0.005287451203912497
1772819362967181300,6.561181396484375,0.0017411515582352877,-0.013798515312373638,-0.0005294477450661361
1772819362977246000,6.571245849609375,-0.0008419114165008068,-0.019759802147746086,-0.0012620477937161922
1772819362987310000,6.58131005859375,-0.003508534748107195,-0.012856355868279934,-0.005361185409128666
1772819362997375000,6.591375,-0.0037961341440677643,-0.0026318132877349854,-0.01238361094146967
1772819363007440100,6.601440185546875,-0.003036067821085453,0.006329457275569439,-0.01981782540678978
1772819363017505300,6.61150537109375,-0.006012399215251207,0.0067194076254963875,-0.025260956957936287
1772819363027570000,6.62156982421875,-0.006714408751577139,0.0062506916001439095,-0.028562212362885475
1772819363037635000,6.631635009765625,-0.008234250359237194,0.0060516223311424255,-0.022804927080869675
1772819363047700200,6.6417001953125,-0.006237146444618702,-0.005657231900840998,-0.022909589111804962
1772819363057765000,6.65176513671875,-0.003393180202692747,-0.007380964700132608,-0.018824629485607147
1772819363067829200,6.661829345703125,-0.0028107468970119953,0.007256834767758846,-0.0031777587719261646
1772819363077894100,6.67189404296875,-0.006982769817113876,-0.007167210802435875,-0.007205342408269644
1772819363087959000,6.681958984375,0.002214190550148487,-0.00016389600932598114,-0.013617701828479767
1772819363098024200,6.692024169921875,0.00021519558504223824,0.006890417076647282,-0.00864537712186575
1772819363108089000,6.702089111328125,0.0026653038803488016,0.02345634624361992,-0.0054735527373850346
1772819363118154000,6.712154052734375,0.006792019121348858,0.021416563540697098,0.0002677215961739421
1772819363128219100,6.72221923828125,0.005626886151731014,0.016228990629315376,0.008750689215958118
1772819363138283000,6.732282958984375,0.009947353042662144,0.0035630976781249046,0.01708926260471344
1772819363148348200,6.74234814453125,0.012313571758568287,0.00380757637321949,0.019414203241467476
1772819363158413000,6.7524130859375,0.004723562393337488,-0.004307608585804701,0.013796796090900898
1772819363168478000,6.76247802734375,0.00447801873087883,-0.014410044066607952,0.00857460405677557
1772819363178543000,6.772543212890625,0.0035910382866859436,-0.01155799999833107,0.006370007526129484
1772819363188608300,6.782608154296875,0.0006506422068923712,-0.004441234283149242,0.006264812778681517
1772819363198673000,6.7926728515625,0.00046018650755286217,-0.005339717958122492,0.007161332294344902
1772819363208737000,6.802737060546875,-0.004509271588176489,-0.002809980884194374,0.012090044096112251
1772819363218802200,6.81280224609375,-0.005264090374112129,-0.0011139456182718277,0.014846081845462322
1772819363228867000,6.8228671875,-0.0028051938861608505,0.009619658812880516,0.015403215773403645
1772819363238932200,6.83293212890625,-0.004355930723249912,0.008725504390895367,0.012734525837004185
1772819363248997000,6.8429970703125,-0.0007936861366033554,0.004699870012700558,0.009999193251132965
1772819363259062000,6.85306201171875,0.0012078830040991306,0.0025160089135169983,0.00484867487102747
1772819363269127200,6.863127197265625,0.00138445058837533,0.003102703019976616,0.0020981619600206614
1772819363279192300,6.8731923828125,0.0025248159654438496,0.0016049770638346672,0.00007693649968132377
1772819363289256200,6.883256103515625,0.0005362336523830891,-0.0050689042545855045,0.000845258473418653
1772819363299321000,6.893321044921875,-0.00006250478327274323,-0.003737392835319042,-0.0021270604338496923
1772819363309386000,6.903385986328125,0.000025645829737186432,-0.00438400823622942,-0.002548372372984886
1772819363319451100,6.913451171875,0.0026848227716982365,-0.005068907514214516,-0.004560819361358881
1772819363329516300,6.923516357421875,-0.0007999236695468426,-0.006079843733459711,-0.012293573468923569
1772819363339581000,6.933580810546875,-0.0016258475370705128,-0.009851278737187386,-0.01818002760410309
1772819363349646000,6.94364599609375,-0.004361978732049465,-0.001520378515124321,-0.01915101520717144
1772819363359710000,6.9537099609375,-0.0019786194898188114,0.0012649865821003914,-0.01573549211025238
1772819363369775000,6.963775146484375,-0.002898475155234337,-0.0016980459913611412,-0.011724772863090038
1772819363379840300,6.97384033203125,-0.00320390984416008,-0.0021067066118121147,-0.009950244799256325
1772819363389905200,6.9839052734375,-0.0033509163185954094,-0.005474273581057787,-0.008755817078053951
1772819363399970000,6.993969970703125,-0.0022985232062637806,-0.0027252594009041786,-0.007307504769414663
1772819363410035200,7.00403515625,-0.0005261898040771484,0.00046467501670122147,-0.010853770188987255
1772819363420100000,7.01410009765625,0.00178159074857831,0.0016841059550642967,-0.011957238428294659
1772819363430164200,7.024164306640625,0.005545436404645443,0.008063442073762417,-0.005485224537551403
1772819363440229000,7.03422900390625,0.004369976464658976,0.007229935377836227,0.002866823226213455
1772819363450294000,7.0442939453125,0.005790240131318569,0.007692260667681694,0.0011948905885219574
1772819363460359200,7.054359130859375,0.009255601093173027,0.0013030385598540306,0.005181655287742615
1772819363470424000,7.064424072265625,0.007130132056772709,-0.005897083785384893,0.008238431997597218
1772819363480489000,7.074489013671875,0.007192319259047508,-0.010861583054065704,0.013060269877314568
1772819363490554000,7.08455419921875,0.006167002022266388,-0.010222157463431358,0.008211452513933182
1772819363500618000,7.094617919921875,0.004754188936203718,-0.01569262146949768,0.006545275449752808
1772819363510683100,7.10468310546875,0.002465201774612069,-0.014884086325764656,0.003025907790288329
1772819363520748000,7.114748046875,-0.002991744317114353,-0.006006806157529354,0.0003687907592393458
1772819363530813000,7.12481298828125,-0.005026399623602629,0.00469723716378212,-0.0022629450540989637
1772819363540878000,7.134878173828125,-0.007916669361293316,-0.0021920623257756233,-0.004699353128671646
1772819363550943200,7.144943115234375,-0.005107834003865719,-0.005388122051954269,-0.008297816850244999
1772819363561007900,7.1550078125,-0.005781829357147217,-0.005248604342341423,0.0007638685638085008
1772819363571072000,7.165072021484375,-0.00012740585952997208,-0.002002476714551449,0.005236913915723562
1772819363581137200,7.17513720703125,0.0012825361918658018,0.0024445680901408195,0.007855023257434368
1772819363591202000,7.1852021484375,0.0003179393243044615,0.007786870002746582,0.008624143898487091
1772819363601267200,7.19526708984375,-0.0025090635754168034,0.011104602366685867,0.005259388592094183
1772819363611332000,7.20533203125,-0.005365303717553616,0.013134462758898735,-0.00511096091940999
1772819363621397000,7.21539697265625,-0.006327581591904163,0.002968844026327133,-0.017972128465771675
1772819363631462100,7.225462158203125,0.0002858459483832121,-0.011635132133960724,-0.033128976821899414
1772819363641526000,7.235526123046875,0.0009275746997445822,-0.026299795135855675,-0.027145670726895332
1772819363651591200,7.245591064453125,0.002963827457278967,-0.030742214992642403,-0.019866187125444412
1772819363661656000,7.255656005859375,0.008656049147248268,-0.02302021160721779,-0.008816414512693882
1772819363671721000,7.265720947265625,0.010437704622745514,-0.0065107448026537895,-0.003861337434500456
1772819363681785000,7.27578515625,0.011132561601698399,0.008985122665762901,-0.0046197897754609585
1772819363691850200,7.285850341796875,0.009863298386335373,0.01988251321017742,-0.005077587440609932
1772819363701915100,7.2959150390625,0.006555632688105106,0.016849806532263756,-0.00878104381263256
1772819363711979300,7.305979248046875,0.002571543911471963,0.0076504480093717575,-0.00554610276594758
1772819363722044000,7.3160439453125,0.0018777453806251287,-0.0068434071727097034,-0.006089182570576668
1772819363732109000,7.326109130859375,-0.0038704215548932552,-0.011530304327607155,-0.007431948557496071
1772819363742174200,7.33617431640625,-0.007563419174402952,-0.018837817013263702,-0.010475514456629753
1772819363752239000,7.346239013671875,-0.008373819291591644,-0.01580634154379368,-0.009052321314811707
1772819363762304000,7.356303955078125,-0.005639285314828157,-0.019515059888362885,-0.005213108379393816
1772819363772369200,7.366369140625,-0.004699988756328821,-0.007982772774994373,0.004197171423584223
1772819363782433000,7.37643310546875,-0.00284363329410553,0.0021410686895251274,0.005834030453115702
1772819363792498200,7.386498291015625,-0.006514002103358507,0.004427658393979073,0.008798928000032902
1772819363802563000,7.39656298828125,-0.006589311640709639,0.007406436838209629,0.0050730169750750065
1772819363812628000,7.4066279296875,-0.0031831287778913975,0.005029032938182354,0.0023081230465322733
1772819363822693000,7.416693115234375,-0.003669321071356535,0.010631290264427662,0.002461121417582035
1772819363832758300,7.42675830078125,0.0023262533359229565,0.0031257038936018944,0.0031322380527853966
1772819363842822100,7.436822265625,0.00325147551484406,-0.005064815748482943,-0.0008607962517999113
1772819363852887000,7.446886962890625,0.004386248532682657,-0.0012423805892467499,0.0009743880364112556
1772819363862952000,7.456951904296875,0.005079039838165045,0.0042154015973210335,0.005872120149433613
1772819363873017000,7.46701708984375,0.00981653667986393,0.009700714610517025,0.0021428954787552357
1772819363883082200,7.477082275390625,0.007550012320280075,-0.0014736754819750786,-0.002525873016566038
1772819363893147000,7.48714697265625,0.007800615392625332,-0.010005644522607327,-0.012853877618908882
1772819363903212000,7.4972119140625,0.003249200526624918,-0.016867145895957947,-0.0201728455722332
1772819363913276200,7.507276123046875,0.00031492975540459156,-0.02002112753689289,-0.019960857927799225
1772819363923341000,7.517341064453125,-0.0021297531202435493,-0.020587414503097534,-0.01214190386235714
1772819363933406200,7.52740625,-0.0019001886248588562,-0.007266816217452288,-0.005774818826466799
1772819363943471000,7.53747119140625,-0.0035021244548261166,0.00085489172488451,-0.00029302938492037356
1772819363953536000,7.547535888671875,-0.000758269801735878,0.006762050092220306,-0.006449192296713591
1772819363963601200,7.55760107421875,0.00034669414162635803,0.006346430629491806,-0.007953661493957043
1772819363973666300,7.567666259765625,-0.0010575908236205578,0.006809288635849953,-0.009455684572458267
1772819363983730200,7.577730224609375,-0.0007419167086482048,0.005650779232382774,-0.0065514883026480675
1772819363993795000,7.587795166015625,-0.00123886251822114,-0.005059122573584318,-0.0018616615561768413
1772819364003860000,7.59785986328125,-0.0038905725814402103,-0.010586513206362724,0.00100363336969167
1772819364013925000,7.607925048828125,-0.0013278122060000896,-0.004764843266457319,-0.0005761537468060851
1772819364023990300,7.617990234375,-0.005592793691903353,-0.003087184391915798,-0.006755417678505182
1772819364034055000,7.628054931640625,-0.005805580411106348,-0.005156727507710457,-0.00913681648671627
1772819364044119000,7.638119140625,-0.007094463799148798,-0.01115499809384346,-0.014693749137222767
1772819364054184200,7.64818408203125,-0.00980209931731224,-0.00791020318865776,-0.015213331207633018
1772819364064249000,7.6582490234375,-0.00678653409704566,-0.004816808272153139,-0.013323483057320118
1772819364074314200,7.668314208984375,-0.005543903913348913,-0.004920405335724354,-0.004602429922670126
1772819364084379100,7.678379150390625,-0.0024108318611979485,-0.0018436554819345474,-0.001644860953092575
1772819364094444000,7.688444091796875,-0.000672320369631052,-0.0038364985957741737,0.009471173398196697
1772819364104508200,7.698508056640625,-0.002845529932528734,-0.004171124659478664,0.012690866366028786
1772819364114573000,7.708572998046875,-0.0012873145751655102,-0.0005793198943138123,0.021251332014799118
1772819364124638200,7.71863818359375,-0.0032074954360723495,-0.0054460144601762295,0.022204367443919182
1772819364134703000,7.728703125,-0.0006785579025745392,-0.00940320547670126,0.019536146894097328
1772819364144768000,7.73876806640625,-0.0026632300578057766,-0.01352920662611723,0.015295043587684631
1772819364154833200,7.748833251953125,-0.002822220791131258,-0.0068622492253780365,0.014112865552306175
1772819364164898000,7.75889794921875,-0.004381978884339333,-0.004618403036147356,0.012138191610574722
1772819364174962000,7.7689619140625,-0.010819371789693832,-0.0071753039956092834,0.006232632324099541
1772819364185027000,7.779027099609375,-0.014541205018758774,-0.01576579362154007,-0.0016555588226765394
1772819364195092200,7.78909228515625,-0.017691459506750107,-0.017022274434566498,-0.0060052997432649136
1772819364205157000,7.7991572265625,-0.019893934950232506,-0.011502474546432495,-0.0039041272830218077
1772819364215222000,7.809221923828125,-0.01925983652472496,-0.014380818232893944,-0.012404139153659344
1772819364225287200,7.819287109375,-0.009898772463202477,-0.012452756986021996,-0.011119520291686058
1772819364235351000,7.82935107421875,-0.005822804290801287,-0.008387175388634205,-0.01846345327794552
1772819364245416200,7.839416259765625,-0.0055849505588412285,-0.00397971086204052,-0.018375933170318604
1772819364255481000,7.849481201171875,-0.0017334865406155586,-0.0019546430557966232,-0.014080255292356014
1772819364265546000,7.8595458984375,0.0025700824335217476,0.006974603980779648,-0.006684883497655392
1772819364275611100,7.869611083984375,0.0033109739888459444,0.007367687299847603,0.0076463851146399975
1772819364285676000,7.879676025390625,0.011173952370882034,0.011224476620554924,0.016908317804336548
1772819364295740200,7.889740234375,0.017737578600645065,0.008867045864462852,0.018950162455439568
1772819364305805300,7.899805419921875,0.01946181245148182,0.00637093186378479,0.016539184376597404
1772819364315870000,7.909869873046875,0.021433349698781967,0.0001359395682811737,0.01263072807341814
1772819364325935000,7.91993505859375,0.020735979080200195,-0.001832236535847187,0.014156906865537167
1772819364336000300,7.930000244140625,0.017122069373726845,-0.0009880149737000465,0.014408842660486698
1772819364346065200,7.940065185546875,0.014923720620572567,-0.01012109313160181,0.012500696815550327
1772819364356130000,7.950130126953125,0.014436362311244011,-0.01493315864354372,0.007999688386917114
1772819364366194000,7.96019384765625,0.011751564219594002,-0.014677096158266068,0.004161204677075148
1772819364376259000,7.970259033203125,0.009704925119876862,-0.013686133548617363,0.003295943606644869
1772819364386324200,7.98032421875,0.008213886991143227,-0.013707838021218777,0.006362643092870712
1772819364396389000,7.99038916015625,0.012933008372783661,-0.017327873036265373,0.011337161995470524
1772819364406454000,8.0004541015625,0.01475850585848093,-0.01699051819741726,0.019917896017432213
1772819364416519200,8.010519287109375,0.014914567582309246,-0.013478606939315796,0.017840096727013588
1772819364426583000,8.0205830078125,0.014785850420594215,-0.00800338014960289,0.012165957130491734
1772819364436648200,8.030648193359376,0.006922067608684301,-0.009218581020832062,0.006042551249265671
1772819364446713000,8.040713134765625,0.005366108845919371,-0.01363303605467081,-0.0008519675466232002
1772819364456778000,8.050778076171875,0.008954718708992004,-0.013438625261187553,-0.0037974235601723194
1772819364466843100,8.060843017578126,0.010988384485244751,-0.013462627306580544,-0.001254350645467639
1772819364476908300,8.070908203125,0.009288223460316658,-0.014203252270817757,0.007260041311383247
1772819364486972200,8.08097216796875,0.012600366026163101,-0.0015078959986567497,0.011198954656720161
1772819364497037000,8.091037109375,0.008638381026685238,0.008464044891297817,0.01360378973186016
1772819364507102000,8.10110205078125,0.010382981970906258,0.0034127915278077126,0.010304801166057587
1772819364517167000,8.1111669921875,0.005918991286307573,-0.006254216656088829,-0.004890129901468754
1772819364527232300,8.121232177734376,0.002714336384087801,-0.023104701191186905,-0.02206731028854847
1772819364537297000,8.131296875,0.0060874964110553265,-0.028651267290115356,-0.03504862263798714
1772819364547361000,8.141361083984375,0.0022279315162450075,-0.03277427330613136,-0.03582034260034561
1772819364557426200,8.15142626953125,0.002472942229360342,-0.0178227536380291,-0.013231406919658184
1772819364567491000,8.161490966796874,0.002154596848413348,0.00024832412600517273,0.006642471998929977
1772819364577556200,8.17155615234375,0.003498960519209504,0.015255236066877842,0.021859508007764816
1772819364587621000,8.18162109375,0.0030227622482925653,0.020397167652845383,0.025307297706604004
1772819364597686000,8.19168603515625,0.00292395893484354,0.015735572203993797,0.02323056384921074
1772819364607750100,8.201750244140625,-0.00033537670969963074,0.0042403694242239,0.017078621312975883
1772819364617815000,8.21181494140625,-0.003215585369616747,-0.008616305887699127,0.007975404150784016
1772819364627880200,8.221880126953126,-0.00819018017500639,-0.013420249335467815,0.0036607589572668076
1772819364637945000,8.231945068359375,-0.009706051088869572,-0.015531603246927261,-0.0012104290071874857
1772819364648010000,8.242010009765625,-0.012189721688628197,-0.014639278873801231,-0.007051235996186733
1772819364658075100,8.2520751953125,-0.011072525754570961,-0.011170512065291405,-0.01066993921995163
1772819364668139000,8.262138916015624,-0.008250074461102486,-0.008177450858056545,-0.014372363686561584
1772819364678204200,8.2722041015625,-0.006804510485380888,-0.004161670804023743,-0.020874738693237305
1772819364688269300,8.282269287109376,-0.0019876626320183277,-0.0004963614046573639,-0.016649620607495308
1772819364698334500,8.29233447265625,0.002801766386255622,-0.0016135573387145996,-0.009566678665578365
1772819364708399600,8.302399658203125,0.004984205588698387,0.003917095251381397,0.0016051027923822403
1772819364718463500,8.31246337890625,0.011296429671347141,0.002771402709186077,0.011177835054695606
1772819364728528400,8.3225283203125,0.01330389641225338,-0.0033169491216540337,0.01170946191996336
1772819364738593300,8.33259326171875,0.009905168786644936,0.005830476060509682,0.01444719173014164
1772819364748658400,8.342658447265626,0.005004185251891613,0.01260469388216734,0.016718504950404167
1772819364758723600,8.3527236328125,0.0069746579974889755,0.020143836736679077,0.013318180106580257
1772819364768788200,8.362788330078125,0.0025795334950089455,0.01913725957274437,0.012541414238512516
1772819364778852400,8.372852294921875,0.0009076010901480913,0.012439143843948841,0.004791881423443556
1772819364788917500,8.38291748046875,-0.004701080732047558,-0.003676309250295162,0.000022356805857270956
1772819364798982400,8.392982421875,-0.004496017470955849,-0.007190882693976164,-0.004330580122768879
1772819364809047600,8.403047607421875,-0.007058837451040745,-0.010048286989331245,-0.003986691124737263
1772819364819112400,8.413112548828124,-0.01091083325445652,-0.018228186294436455,-0.0169909056276083
1772819364829177300,8.42317724609375,-0.011075872927904129,-0.016187474131584167,-0.01615186780691147
1772819364839241500,8.433241455078125,-0.013667129911482334,-0.006115398835390806,-0.02520102448761463
1772819364849306400,8.443306396484376,-0.010663720779120922,0.001588728278875351,-0.025049535557627678
1772819364859371500,8.45337158203125,-0.0044510988518595695,0.007302006706595421,-0.015751106664538383
1772819364869436400,8.4634365234375,0.0002231365069746971,0.011761968955397606,-0.003771947231143713
1772819364879501300,8.473501220703126,0.0035395710729062557,0.022813288494944572,0.013480542227625847
1772819364889566500,8.48356640625,0.004579486791044474,0.012552095577120781,0.014809075742959976
1772819364899630600,8.493630615234375,0.010094894096255302,0.005469685420393944,0.009025488048791885
1772819364909695500,8.503695556640626,0.009441251866519451,0.00015122070908546448,0.0030237440951168537
1772819364919760400,8.513760498046874,0.008648695424199104,0.0022628409788012505,-0.0046687969006598
1772819364929825500,8.523825439453125,0.005441669374704361,0.006264004856348038,-0.003899454139173031
1772819364939890400,8.533890380859376,0.0028378968127071857,0.007990799844264984,0.001256425748579204
1772819364949955600,8.54395556640625,0.004386377986520529,0.007407833822071552,0.0050835381262004375
1772819364960019500,8.55401953125,0.0033448156900703907,0.005546283908188343,-0.0012965966016054153
1772819364970084400,8.56408447265625,0.003002297133207321,0.0035201171413064003,-0.005449127405881882
1772819364980149500,8.5741494140625,0.0017018758226186037,-0.002006741240620613,-0.007036637980490923
1772819364990214400,8.58421435546875,0.005438813008368015,-0.005237953271716833,-0.0035505485720932484
1772819365000279600,8.594279541015625,0.0004925241228193045,-0.00748805794864893,-0.0018051129300147295
1772819365010344400,8.604344482421874,0.003332611173391342,-0.0018463516607880592,0.0003546822117641568
1772819365020408300,8.614408203125,0.0018593505956232548,0.010122427716851234,0.005181395448744297
1772819365030473500,8.624473388671875,0.0007171044126152992,0.01596919819712639,0.004894393030554056
1772819365040538400,8.634538330078126,-0.0017577712424099445,0.011990701779723167,-0.003651424776762724
1772819365050603300,8.644603271484375,-0.003156995866447687,0.004639843478798866,-0.004798980429768562
1772819365060668400,8.65466845703125,-0.008789848536252975,-0.00012987758964300156,-0.01413682196289301
1772819365070733600,8.664733642578126,-0.0048103006556630135,0.009049505926668644,-0.004340638872236013
1772819365080797400,8.67479736328125,-0.010584034025669098,0.0047841863706707954,-0.0035635284148156643
1772819365090862600,8.684862548828125,0.004070449620485306,-0.006702359300106764,-0.0069899228401482105
1772819365100927200,8.69492724609375,0.004594293422996998,0.006640342995524406,0.0017343265935778618
1772819365110992400,8.704992431640624,-0.0015955385752022266,0.007601945661008358,0.004076884128153324
1772819365121057500,8.7150576171875,-0.006037957035005093,0.0023621758446097374,-0.00867486372590065
1772819365131122400,8.725122314453126,-0.005522324237972498,0.010031047277152538,-0.012706770561635494
1772819365141186600,8.7351865234375,-0.006013944279402494,0.014947243966162205,-0.013108108192682266
1772819365151251200,8.745251220703125,-0.007112476974725723,0.01862320303916931,-0.0134916165843606
1772819365161316400,8.75531640625,0.0013779469300061464,0.014174926094710827,-0.00895438902080059
1772819365171381500,8.765381591796874,0.002886416856199503,0.0076859015971422195,-0.007328954059630632
1772819365181446400,8.7754462890625,0.003706936724483967,-0.0022394340485334396,-0.00943951029330492
1772819365191511300,8.78551123046875,-0.0020215939730405807,-0.008288671262562275,-0.013382378034293652
1772819365201575400,8.795575439453126,-0.005266123451292515,-0.005465720780193806,-0.002321470994502306
1772819365211640300,8.805640380859375,-0.010409519076347351,0.00866747461259365,0.008882545866072178
1772819365221705500,8.81570556640625,-0.0055870660580694675,0.021078072488307953,0.00988469272851944
1772819365231770600,8.8257705078125,-0.002668654080480337,0.023105438798666,0.013350442051887512
1772819365241835300,8.835835205078125,0.00043046637438237667,0.0157599039375782,0.00789069477468729
1772819365251900400,8.845900390625,-0.0005813860334455967,0.008013936690986156,-0.00227770721539855
1772819365261964300,8.85596435546875,0.00007588230073451996,0.0030828267335891724,-0.0042692190036177635
1772819365272029400,8.866029541015624,-0.004180047661066055,-0.0001802109181880951,-0.006077703088521957
1772819365282094600,8.876094482421875,-0.0028535271994769573,0.0028717713430523872,-0.0012965297792106867
1772819365292159200,8.8861591796875,-0.0024464186280965805,0.009508236311376095,-0.0008411754388362169
1772819365302224400,8.896224365234374,0.0019869457464665174,0.00983660388737917,-0.006328086368739605
1772819365312288500,8.90628857421875,-0.0003430834040045738,0.0022120401263237,-0.008695005439221859
1772819365322353400,8.916353515625,-0.0037410110235214233,-0.004818172659724951,-0.010832458734512329
1772819365332418600,8.92641845703125,-0.006114200223237276,0.00973756704479456,0.0001582882832735777
1772819365342483500,8.9364833984375,-0.006390369962900877,0.023207835853099823,0.0032044118270277977
1772819365352548400,8.94654833984375,-0.0056397803127765656,0.019164957106113434,0.004369770176708698
1772819365362613500,8.956613525390624,-0.006017949432134628,0.01721872016787529,-0.00022791093215346336
1772819365372677400,8.966677490234375,-0.005857158452272415,0.02598251774907112,-0.0014309301041066647
1772819365382742500,8.976742431640625,-0.009671604260802269,0.022348899394273758,-0.004080508835613728
1772819365392807400,8.986807373046876,-0.012701451778411865,0.0038281455636024475,-0.005232957191765308
1772819365402872300,8.996872314453125,-0.010477444157004356,-0.007278833072632551,-0.007083055097609758
1772819365412937500,9.0069375,-0.0034282756969332695,-0.010566473007202148,-0.0032043089158833027
1772819365423002400,9.01700244140625,0.006523691117763519,-0.007781605701893568,0.0014578208792954683
1772819365433066500,9.02706640625,0.007224473170936108,0.0000377679243683815,0.003004011930897832
1772819365443131400,9.03713134765625,0.010065799579024315,0.010033676400780678,-0.002955343574285507
1772819365453196500,9.047196533203126,0.007343772333115339,0.017230071127414703,-0.0010612920159474015
1772819365463261400,9.057261474609374,0.00391788175329566,0.014137607999145985,-0.003091419581323862
1772819365473326300,9.067326416015625,-0.0005223453044891357,0.009045244194567204,-0.006217368878424168
1772819365483391500,9.0773916015625,-0.0003923829644918442,-0.0015743765980005264,-0.010818244889378548
1772819365493455400,9.087455322265624,-0.0015071691013872623,-0.011314621195197105,-0.0217239111661911
1772819365503520500,9.0975205078125,0.0035046336706727743,-0.0193437859416008,-0.021935898810625076
1772819365513585400,9.10758544921875,-0.0008189231157302856,-0.020658887922763824,-0.016339512541890144
1772819365523650300,9.117650390625,-0.0034996611066162586,-0.008384112268686295,-0.008059212937951088
1772819365533715500,9.127715576171875,-0.012491908855736256,0.0033788373693823814,-0.004769695922732353
1772819365543780400,9.1377802734375,-0.015812337398529053,0.013192320242524147,-0.012392728589475155
1772819365553844500,9.147844482421876,-0.01800856739282608,0.026567481458187103,-0.014949598349630833
1772819365563909600,9.15790966796875,-0.017743047326803207,0.027779750525951385,-0.02073984406888485
1772819365573974300,9.167974365234375,-0.009599365293979645,0.01986243948340416,-0.018555795773863792
1772819365584039400,9.178039306640626,-0.0012530181556940079,0.005767391994595528,-0.005083130672574043
1772819365594104600,9.1881044921875,0.010336441919207573,0.0033681849017739296,0.0021750391460955143
1772819365604169500,9.19816943359375,0.014460613951086998,-0.006343830842524767,0.014308934099972248
1772819365614233600,9.208233642578126,0.01980147697031498,-0.014048689045011997,0.011907069012522697
1772819365624298200,9.21829833984375,0.02058364637196064,-0.012362375855445862,0.011027959175407887
1772819365634363400,9.22836328125,0.020197276026010513,-0.0038242479786276817,0.006234101019799709
1772819365644428500,9.238428466796876,0.012348939664661884,0.0008834218606352806,0.0006638334016315639
1772819365654493400,9.248493408203124,0.005821289028972387,0.003495916724205017,-0.0035909099970012903
1772819365664558300,9.258558349609375,0.001438791397958994,-0.004062666557729244,-0.01329573430120945
1772819365674622500,9.26862255859375,0.0011527216993272305,-0.01437605731189251,-0.013960578478872776
1772819365684688400,9.2786884765625,0.0019564637914299965,-0.019585467875003815,-0.011020182631909847
1772819365694753500,9.28875341796875,0.003466834081336856,-0.017009425908327103,-0.006126892287284136
1772819365704818400,9.298818359375,0.0038308880757540464,-0.007452938240021467,0.00039092812221497297
1772819365714883300,9.30888330078125,0.00482280133292079,0.0003105420619249344,0.009173322468996048
1772819365724948500,9.318948486328125,0.003856073599308729,0.006805459037423134,0.01331400591880083
1772819365735012600,9.3290126953125,0.004816376604139805,0.01784432865679264,0.016680074855685234
1772819365745077200,9.3390771484375,0.004071490373462439,0.02404123730957508,0.018806075677275658
1772819365755142400,9.349142333984375,0.0023612864315509796,0.021690698340535164,0.02063940465450287
1772819365765207600,9.35920751953125,0.005268659442663193,0.027346188202500343,0.020927825942635536
1772819365775272400,9.3692724609375,0.01132901944220066,0.01736755669116974,0.015463829040527344
1772819365785337300,9.37933740234375,0.01295541226863861,0.006573231890797615,0.00824826117604971
1772819365795401200,9.389401123046875,0.009845994412899017,-0.006517303641885519,0.0018050279468297958
1772819365805466400,9.39946630859375,0.008887790143489838,-0.00978606753051281,-0.007432678714394569
1772819365815531500,9.409531494140625,0.007469117175787687,-0.008040731772780418,-0.014135264791548252
1772819365825596400,9.419596435546875,0.004274921957403421,-0.0025716647505760193,-0.025785528123378754
1772819365835661300,9.429661376953124,0.006731804460287094,0.0032469769939780235,-0.02915716916322708
1772819365845726500,9.4397265625,0.0024254729505628347,-0.0007637431845068932,-0.02619440294802189
1772819365855790300,9.449790283203125,0.0017507483717054129,0.0027822554111480713,-0.019661283120512962
1772819365865855500,9.45985546875,0.0051316311582922935,0.0021854406222701073,-0.01742928847670555
1772819365875920600,9.469920654296875,0.005244510713964701,-0.01018284447491169,-0.011505194939672947
1772819365885985300,9.4799853515625,0.005752908065915108,-0.010259011760354042,-0.010575485415756702
1772819365896050400,9.490050537109376,0.00362971518188715,-0.004507015459239483,-0.007967372424900532
1772819365906115600,9.500115478515625,-0.0003748801536858082,-0.0005274536088109016,-0.006081588566303253
1772819365916179500,9.510179443359375,-0.0005944017320871353,0.00927913561463356,-0.0004194520879536867
1772819365926244600,9.52024462890625,-0.0012719100341200829,0.017354639247059822,0.004815257154405117
1772819365936309200,9.530309326171874,-0.004321471322327852,0.019082698971033096,0.010349464602768421
1772819365946374400,9.54037451171875,0.0008181629236787558,0.014667177572846413,0.009838669560849667
1772819365956439600,9.550439453125,0.0013031954877078533,0.0032095927745103836,0.011815071105957031
1772819365966504400,9.56050439453125,0.0010701688006520271,-0.008814578875899315,0.006343872752040625
1772819365976568600,9.570568603515625,-0.0008189743384718895,-0.010618537664413452,0.0003677093191072345
1772819365986633500,9.580633544921875,-0.0014125928282737732,-0.009494151920080185,-0.003950606100261211
1772819365996698400,9.590698486328124,-0.0035650664940476418,-0.00907733291387558,-0.004900316707789898
1772819366006763500,9.600763427734375,-0.0019711642526090145,-0.003953676670789719,-0.006727511528879404
1772819366016828400,9.610828369140625,-0.0014772331342101097,0.006535647436976433,-0.006170606706291437
1772819366026893300,9.620893310546874,0.0018692950252443552,-0.0013957787305116653,-0.003538871183991432
1772819366036958500,9.63095849609375,0.000120572280138731,0.0033736107870936394,0.00003752671182155609
1772819366047022300,9.641022216796875,0.0026082308031618595,0.003484930843114853,0.0014780305791646242
1772819366057087500,9.65108740234375,0.0018004942685365677,0.0059616705402731895,0.003799774218350649
1772819366067152400,9.66115234375,0.0023967758752405643,0.007113753817975521,-0.002037075813859701
1772819366077217300,9.67121728515625,-0.0021237777546048164,0.006110208109021187,-0.008914393372833729
1772819366087282400,9.681282470703126,0.00024270685389637947,0.00529128685593605,-0.011158105917274952
1772819366097347600,9.69134765625,-0.00036490242928266525,0.0033048344776034355,-0.007093194406479597
1772819366107411500,9.701411376953125,-0.0006578504107892513,0.006879596039652824,0.009084178134799004
1772819366117476400,9.711476318359376,0.005920653231441975,0.01235874928534031,0.015550489537417889
1772819366127541500,9.72154150390625,0.0035861264914274216,0.016829663887619972,0.01865999773144722
1772819366137606400,9.7316064453125,-0.00043057557195425034,0.01474850345402956,0.013438149355351925
1772819366147671600,9.741671630859376,-0.004401082638651133,0.010066932998597622,-0.0012172260321676731
1772819366157736400,9.751736328125,-0.006569167599081993,0.006211043335497379,-0.005593122914433479
1772819366167800300,9.76180029296875,-0.0062415990978479385,0.0003440985456109047,-0.006948671769350767
1772819366177865500,9.771865478515625,-0.005492254626005888,0.00007771607488393784,-0.005186412017792463
1772819366187930400,9.781930419921874,-0.0024101785384118557,0.0011429805308580399,-0.0033128780778497458
1772819366197995500,9.79199560546875,-0.004728731699287891,0.004188770428299904,0.002903890563175082
1772819366208060400,9.802060302734375,-0.005443790927529335,0.0037536099553108215,0.003996851854026318
1772819366218125300,9.812125244140624,-0.004161185119301081,0.008390172384679317,0.004533219616860151
1772819366228190500,9.8221904296875,-0.006703970488160849,0.006168563850224018,0.003556105773895979
1772819366238254600,9.832254638671875,-0.012333130463957787,0.0023432672023773193,-0.006245293188840151
1772819366248319500,9.842319580078126,-0.00991524662822485,-0.0059969546273350716,-0.016423095017671585
1772819366258384400,9.85238427734375,-0.011264100670814514,-0.0002959929406642914,-0.007223837543278933
1772819366268449500,9.862449462890625,-0.00683446554467082,-0.001726643182337284,-0.0031113841105252504
1772819366278514400,9.872514404296876,-0.0036094863899052143,0.0012272698804736137,0.002241866197437048
1772819366288579600,9.88257958984375,-0.0043053701519966125,0.005490458570420742,0.008550096303224564
1772819366298643500,9.8926435546875,-0.0010337992571294308,0.008464941754937172,0.009373681619763374
1772819366308708400,9.902708251953126,-0.0019232952035963535,0.014324428513646126,0.0047014327719807625
1772819366318773500,9.9127734375,-0.003194263204932213,0.01857263594865799,-0.0005090117338113487
1772819366328838400,9.92283837890625,-0.008219381794333458,0.01593477465212345,-0.008694769814610481
1772819366338903600,9.932903564453126,-0.005149609874933958,0.005271346308290958,-0.02014988660812378
1772819366348968400,9.942968505859374,-0.004285946022719145,-0.011904445476830006,-0.023428235203027725
1772819366359033300,9.953033447265625,-0.0034769834019243717,-0.02747468277812004,-0.014833919703960419
1772819366369097500,9.963097412109375,0.0016501345671713352,-0.02746216580271721,-0.008851394057273865
1772819366379162400,9.973162353515624,0.0026009685825556517,-0.019205501303076744,-0.002181012649089098
1772819366389227300,9.983227294921875,-0.0017181457951664925,-0.005184757523238659,0.0013149187434464693
1772819366399292400,9.99329248046875,-0.002685847692191601,0.005219647660851479,0.00037697242805734277
1772819366409357600,10.003357666015624,0.003001066856086254,0.018130386248230934,-0.008974983356893063
1772819366419422500,10.01342236328125,0.0028567116241902113,0.01852276921272278,-0.008494073525071144
1772819366429486600,10.023486572265625,-0.00047410372644662857,0.0073747793212533,-0.007634671404957771
1772819366439551200,10.03355126953125,0.0031357728876173496,-0.00427275663241744,-0.003344752360135317
1772819366449616400,10.043616455078125,-0.0013457946479320526,-0.007498377468436956,0.0034399167634546757
1772819366459681500,10.053681640625,-0.006803260184824467,-0.013499811291694641,0.0017558701802045107
1772819366469746400,10.063746337890626,-0.005024268291890621,-0.013654274865984917,0.0005760896601714194
1772819366479811300,10.073811279296875,-0.005178045481443405,-0.007736530154943466,0.00409149331972003
1772819366489876500,10.08387646484375,-0.0021971692331135273,0.005284463055431843,0.007512323558330536
1772819366499940400,10.0939404296875,-0.0012294743210077286,0.005772986449301243,0.007354485336691141
1772819366510005500,10.104005615234374,0.0008611073717474937,0.00972618255764246,0.009927896782755852
1772819366520070400,10.1140703125,0.0022514762822538614,0.013597385957837105,0.009346251375973225
1772819366530135300,10.12413525390625,0.007525334134697914,0.013254104182124138,0.005086525343358517
1772819366540200400,10.134200439453124,0.006713973358273506,0.006142298690974712,0.008207130245864391
1772819366550265300,10.144265380859375,0.006356044672429562,0.004339073784649372,0.011288140900433064
1772819366560329500,10.15432958984375,0.004983451217412949,-0.006139134056866169,0.008625246584415436
1772819366570394600,10.16439453125,0.0023652976378798485,-0.008657419122755527,0.01291719637811184
1772819366580459300,10.174459228515625,0.0026456357445567846,-0.004523094743490219,0.008137336932122707
1772819366590524400,10.1845244140625,0.0038653635419905186,-0.00045964308083057404,0.002411540364846587
1772819366600589600,10.194589599609374,0.000590034294873476,-0.005545249208807945,-0.00379839981906116
1772819366610654500,10.204654541015625,-0.00149255758151412,-0.010773567482829094,-0.013027851469814777
1772819366620719400,10.21471923828125,-0.0022063180804252625,-0.013229567557573318,-0.015066610649228096
1772819366630783200,10.224783203125,-0.004457221832126379,-0.016334813088178635,-0.019588390365242958
1772819366640848400,10.234848388671875,-0.006742214318364859,-0.015812832862138748,-0.013420511037111282
1772819366650913500,10.24491357421875,-0.007657542359083891,-0.015087388455867767,-0.00714770145714283
1772819366660978400,10.254978515625,-0.0035049347206950188,-0.01577255316078663,-0.00777798006311059
1772819366671043300,10.265043212890625,-0.0012231385335326195,-0.010303751565515995,-0.0027278277557343245
1772819366681108500,10.2751083984375,0.00005021272227168083,-0.00435038935393095,0.0024827229790389538
1772819366691171800,10.285171875,0.0000651264563202858,0.005806640721857548,0.0068558999337255955
1772819366701237000,10.295237060546874,0.0011735938023775816,0.0076951561495661736,0.013016545213758945
1772819366711302100,10.30530224609375,0.0013837171718478203,0.0028641829267144203,0.018988950178027153
1772819366721366800,10.31536669921875,0.0022220145910978317,-0.0008962992578744888,0.016892554238438606
1772819366731432000,10.325431884765624,0.002624684479087591,-0.007664723787456751,0.01375801395624876
1772819366741497000,10.3354970703125,0.003200582694262266,-0.008296560496091843,0.011299189180135727
1772819366751562000,10.34556201171875,0.004318844061344862,-0.0051028975285589695,0.009173188358545303
1772819366761626000,10.355626220703124,0.0020699375309050083,-0.007664491422474384,0.008626788854598999
1772819366771690800,10.365690673828125,-0.002051570452749729,-0.007943324744701385,0.012162401340901852
1772819366781756000,10.375755859375,0.0005535243544727564,-0.01267129834741354,0.008941469714045525
1772819366791821000,10.385821044921874,0.002480054972693324,-0.012895536608994007,0.010912475176155567
1772819366801886000,10.395885986328125,-0.00015254830941557884,-0.011048702523112297,0.008061598055064678
1772819366811950800,10.405950927734375,0.0029867859557271004,-0.007862230762839317,0.0012843855656683445
1772819366822016000,10.41601611328125,0.0017199786379933357,-0.007402004208415747,0.0028608280699700117
1772819366832080000,10.426079833984375,0.000997729366645217,-0.008433979004621506,-0.004025573842227459
1772819366842145000,10.43614501953125,0.007198631763458252,-0.016744572669267654,-0.0038872503209859133
1772819366852210000,10.4462099609375,0.010238897055387497,-0.016395166516304016,-0.0011409986764192581
1772819366862274800,10.45627490234375,0.01007397286593914,-0.01085619069635868,0.0021908138878643513
1772819366872340000,10.466340087890625,0.011446565389633179,-0.009750446304678917,0.009899599477648735
1772819366882405000,10.476405029296876,0.011826498433947563,-0.009182158857584,0.019527869299054146
1772819366892469800,10.4864697265625,0.015287009999155998,-0.003313884139060974,0.025885900482535362
1772819366902534000,10.496533935546875,0.012389744631946087,0.005272112786769867,0.03402147814631462
1772819366912598800,10.506598876953126,0.011439528316259384,0.004140535369515419,0.03355089947581291
1772819366922664000,10.516663818359374,0.011117244139313698,0.007584667764604092,0.02616802230477333
1772819366932729000,10.52672900390625,0.005834863521158695,-0.003365185111761093,0.021750902757048607
1772819366942793700,10.536793701171876,-0.000013208482414484024,-0.008059471845626831,0.016516558825969696
1772819366952859000,10.54685888671875,-0.0009421189315617085,-0.0025275545194745064,0.014598550274968147
1772819366962924000,10.556924072265625,0.00042298040352761745,-0.00402158685028553,0.008166210725903511
1772819366972988000,10.56698779296875,0.0010730582289397717,-0.0016612270846962929,0.00504365423694253
1772819366983053000,10.577052978515624,0.00017125532031059265,-0.006628789007663727,0.0008339827763848007
1772819366993118000,10.587117919921875,-0.0010354230180382729,-0.01194712147116661,-0.0030406503938138485
1772819367003182800,10.597182861328125,-0.0021168566308915615,-0.01574072614312172,-0.006344871129840612
1772819367013248000,10.607248046875,-0.010928457602858543,-0.016753260046243668,-0.005954451858997345
1772819367023313200,10.617313232421875,-0.002841513603925705,-0.01446114294230938,-0.007666968274861574
1772819367033377800,10.627377685546875,-0.002332317177206278,-0.008702856488525867,-0.014715024270117283
1772819367043442000,10.63744189453125,0.0009620932396501303,-0.006909351330250502,-0.016698746010661125
1772819367053506800,10.6475068359375,0.005354977212846279,-0.010775994509458542,-0.01786654256284237
1772819367063572000,10.657572021484375,0.006321312393993139,-0.0029551247134804726,-0.00953321997076273
1772819367073637000,10.66763720703125,0.0016325509641319513,0.00220528244972229,0.002133289584890008
1772819367083701800,10.67770166015625,0.00023012887686491013,0.0001133037731051445,0.004907665774226189
1772819367093767000,10.687766845703125,-0.001332081388682127,-0.0004305131733417511,0.005389165598899126
1772819367103832000,10.69783203125,0.005147296469658613,0.004249825142323971,0.004477119073271751
1772819367113896000,10.70789599609375,0.006705778650939465,0.00912234466522932,0.0015276679769158363
1772819367123961000,10.717961181640625,0.007760937325656414,-0.002062365412712097,0.0015765161952003837
1772819367134025700,10.728025634765626,0.008561749942600727,-0.011051067151129246,0.006029321346431971
1772819367144091000,10.7380908203125,0.005681144073605537,-0.011326205916702747,0.012583917938172817
1772819367154156000,10.748156005859375,0.0037817773409187794,-0.01187827903777361,0.017826350405812263
1772819367164221000,10.758220947265626,0.0008968340698629618,-0.011977114714682102,0.014321376569569111
1772819367174285800,10.768285888671874,0.0016667540185153484,-0.00829609390348196,0.013952262699604034
1772819367184350000,10.778349853515625,0.0046489425003528595,-0.006953693926334381,0.014875363558530807
1772819367194414800,10.788414794921875,0.0036848783493041992,-0.01206350140273571,0.01440504938364029
1772819367204480000,10.79847998046875,0.005670322570949793,-0.0062255519442260265,0.02162845991551876
1772819367214545000,10.808544921875,0.00550121208652854,-0.007386956363916397,0.0249350406229496
1772819367224609800,10.81860986328125,0.0022994824685156345,-0.012782921083271503,0.018511159345507622
1772819367234675000,10.828675048828124,-0.0057621728628873825,-0.009959970600903034,0.017334308475255966
1772819367244740000,10.838739990234375,-0.00958926696330309,-0.020337078720331192,0.008561510592699051
1772819367254804000,10.848803955078125,-0.004561485722661018,-0.02358373813331127,0.0003997202147729695
1772819367264868900,10.858868896484376,0.00009921751916408539,-0.021785270422697067,-0.0036246010567992926
1772819367274933800,10.868933837890625,0.005226335022598505,-0.007059854455292225,0.001464966218918562
1772819367284999000,10.8789990234375,0.0040783965960145,0.006814882159233093,0.0047422838397324085
1772819367295064000,10.88906396484375,0.00044185039587318897,0.012519638985395432,0.007211033720523119
1772819367305128700,10.899128662109375,-0.004951415583491325,0.005859107710421085,-0.0000021559535525739193
1772819367315193900,10.90919384765625,-0.005572731606662273,0.00625085923820734,-0.010673441924154758
1772819367325258000,10.919258056640626,-0.000759670976549387,-0.005013048183172941,-0.017498288303613663
1772819367335323000,10.929322998046874,0.0042015318758785725,-0.02439580112695694,-0.02205362543463707
1772819367345388000,10.939387939453125,0.004131509456783533,-0.03859620913863182,-0.01628020964562893
1772819367355453000,10.949452880859376,0.003669983707368374,-0.03848116099834442,-0.006696024443954229
1772819367365517800,10.959517822265624,0.002620035782456398,-0.019944092258810997,0.003841765457764268
1772819367375583000,10.9695830078125,0.00425495021045208,0.0038935961201786995,0.010413913987576962
1772819367385648000,10.979648193359376,-0.00031634513288736343,0.019424451515078545,0.006291823927313089
1772819367395712800,10.989712646484374,0.0022530725691467524,0.022487355396151543,0.0037439775187522173
1772819367405777000,10.99977685546875,0.004187300335615873,0.023066457360982895,-0.00011846842244267464
1772819367415841800,11.009841796875,0.004807018209248781,0.010138940997421741,0.001990755321457982
1772819367425907000,11.019906982421874,0.006739841774106026,-0.005107089877128601,0.0046661486849188805
1772819367435972000,11.02997216796875,0.007300171069800854,-0.022748135030269623,0.0052075693383812904
1772819367446036700,11.04003662109375,0.005244806408882141,-0.03238951042294502,0.0013765767216682434
1772819367456102000,11.050101806640624,0.0036778023932129145,-0.031978584825992584,-0.0028866117354482412
1772819367466167000,11.0601669921875,0.0047075627371668816,-0.021733304485678673,-0.0017072786577045918
1772819367476231000,11.07023095703125,0.0026526679284870625,-0.005653404630720615,0.000490361824631691
1772819367486296000,11.080296142578124,0.010000083595514297,0.0006607845425605774,-0.004283670336008072
1772819367496361000,11.09036083984375,0.01706331968307495,0.0027439091354608536,-0.0006766850128769875
1772819367506425900,11.10042578125,0.02884305641055107,-0.012517900206148624,0.011032449081540108
1772819367516491000,11.110490966796876,0.020204294472932816,-0.027893394231796265,0.012970964424312115
1772819367526556000,11.120555908203125,0.018431345000863075,-0.021837230771780014,-0.007142360787838697
1772819367536620800,11.130620849609375,0.01141604594886303,-0.00516344653442502,-0.01945521868765354
1772819367546685000,11.140684814453126,0.009250669740140438,0.01746852695941925,-0.008534075692296028
1772819367556749800,11.150749755859374,0.009451205842196941,0.006957562640309334,-0.010508011095225811
1772819367566815000,11.16081494140625,0.01634293422102928,0.013721192255616188,-0.012682481668889523
1772819367576879900,11.1708798828125,0.013523711822926998,0.04160981625318527,-0.01756804995238781
1772819367586944800,11.18094482421875,0.0001010531559586525,0.07032957673072815,0.0012790232431143522
1772819367597010000,11.191010009765625,-0.0059701548889279366,0.00886621791869402,0.01715865358710289
1772819367607075000,11.201074951171876,0.007957378402352333,-0.04246967285871506,0.018079575151205063
1772819367617139700,11.2111396484375,0.008472966030240059,-0.03621790185570717,0.025922585278749466
1772819367627203800,11.221203857421875,0.008504914119839668,-0.026799138635396957,0.021967144683003426
1772819367637269000,11.23126904296875,0.006964808329939842,-0.014712115749716759,0.010889725759625435
1772819367647334000,11.241333984375,0.009154342114925385,0.012105586007237434,0.0040496946312487125
1772819367657399000,11.25139892578125,0.0032666255719959736,0.03836541995406151,-0.000379142293240875
1772819367667464000,11.2614638671875,-0.0060568917542696,0.04894908890128136,-0.008287935517728329
1772819367677528800,11.27152880859375,-0.01003086008131504,0.04155349358916283,-0.009406463243067265
1772819367687593200,11.28159326171875,-0.004239532630890608,0.023683741688728333,-0.009188779629766941
1772819367697657300,11.2916572265625,-0.0021758493967354298,0.00031024497002363205,0.0033930581994354725
1772819367707722200,11.30172216796875,0.012272888794541359,-0.017480336129665375,0.03603575378656387
1772819367717787400,11.311787353515625,0.01447692047804594,-0.054837826639413834,0.05816555768251419
1772819367727852300,11.321852294921875,0.020135490223765373,-0.09127788990736008,0.0572342723608017
