time,seconds_elapsed,z,y,x
1772819356481658600,0.07565869140625,-0.000532365869730711,0.005124720744788647,0.02238147146999836
1772819356491723500,0.0857236328125,0.005810484755784273,-0.013532053679227829,0.03573056682944298
1772819356501787600,0.09578759765625,0.008437693119049072,-0.016768060624599457,0.043775442987680435
1772819356511852500,0.1058525390625,0.011356517672538757,-0.013036173768341541,0.05421716719865799
1772819356521917700,0.115917724609375,0.006459763273596764,-0.013205284252762794,0.052390504628419876
1772819356531982600,0.125982666015625,0.0021406488958746195,-0.009958624839782715,0.037103425711393356
1772819356542046500,0.13604638671875,0.001284708851017058,-0.0012974920682609081,0.025769278407096863
1772819356552111600,0.146111572265625,-0.0017662084428593516,0.006925550289452076,0.017406953498721123
1772819356562176800,0.1561767578125,-0.004391286056488752,-0.0004444815858732909,0.004120176658034325
1772819356572241700,0.16624169921875,-0.0008756473544053733,-0.006895456463098526,0.00959909800440073
1772819356582306600,0.176306640625,-0.010124007239937782,0.005584915168583393,0.02028582990169525
1772819356592370400,0.186370361328125,-0.003938548732548952,0.0012745888670906425,0.016458336263895035
1772819356602435600,0.196435546875,0.001912948559038341,0.0054855793714523315,0.01739683374762535
1772819356612500700,0.206500732421875,0.0036218990571796894,0.0026162895374000072,0.014765097759664059
1772819356622565600,0.216565673828125,-0.0001257012045243755,-0.002749181119725108,0.012705142609775066
1772819356632629800,0.226629638671875,-0.004986502695828676,-0.0007494135061278939,0.003932157531380653
1772819356642694700,0.236694580078125,-0.0117940753698349,0.007694671396166086,-0.005354018881917
1772819356652759600,0.246759521484375,-0.016287093982100487,0.01641732268035412,-0.01503807120025158
1772819356662824700,0.25682470703125,-0.02045014686882496,0.03892449662089348,-0.018678346648812294
1772819356672888600,0.266888671875,-0.016629843041300774,0.054178815335035324,-0.02172287181019783
1772819356682952400,0.276952392578125,-0.009071791544556618,0.04253893718123436,-0.01477335300296545
1772819356693017600,0.287017578125,-0.007405984681099653,0.024265125393867493,-0.007894141599535942
1772819356703082200,0.297082275390625,-0.004490888677537441,0.020016850903630257,-0.006325273774564266
1772819356713147400,0.3071474609375,-0.004707403481006622,0.018728680908679962,-0.0035838158801198006
1772819356723211500,0.31721142578125,-0.00814980547875166,0.01756487973034382,-0.009329053573310375
1772819356733276400,0.3272763671875,-0.005350823048502207,0.01708098314702511,-0.015663115307688713
1772819356743341600,0.337341552734375,-0.008124771527945995,0.013302222825586796,-0.02707475982606411
1772819356753406500,0.347406494140625,-0.006219546310603619,0.005138036794960499,-0.03039306029677391
1772819356763471400,0.357471435546875,-0.0013491574209183455,0.01230220589786768,-0.022650450468063354
1772819356773535500,0.367535400390625,-0.002546780975535512,0.023964988067746162,-0.010604707524180412
1772819356783600400,0.377600341796875,0.0005512743373401463,0.02725612185895443,-0.007893343456089497
1772819356793665500,0.38766552734375,-0.001865011639893055,0.021744975820183754,-0.0028972530271857977
1772819356803730400,0.39773046875,-0.00487278588116169,0.02231808938086033,0.0009752495680004358
1772819356813794300,0.407794189453125,-0.009060606360435486,0.017188308760523796,-0.001139033935032785
1772819356823859500,0.417859375,-0.007084807381033897,0.0070616379380226135,-0.008111456409096718
1772819356833924600,0.427924560546875,-0.011357849463820457,0.0026410568971186876,-0.006866960786283016
1772819356843989200,0.4379892578125,-0.013455620966851711,0.002561161993071437,-0.0051878378726542
1772819356854054400,0.448054443359375,-0.017663681879639626,0.00902651809155941,-0.007298126816749573
1772819356864118300,0.4581181640625,-0.017883125692605972,0.02002670429646969,0.0031281490810215473
1772819356874183400,0.468183349609375,-0.02263633720576763,0.021566279232501984,0.011898204684257507
1772819356884248600,0.47824853515625,-0.01782134175300598,0.027954936027526855,0.01685008592903614
1772819356894313200,0.488313232421875,-0.016644490882754326,0.028141623362898827,0.017113473266363144
1772819356904377300,0.49837744140625,-0.017721472308039665,0.025799373164772987,0.005824067164212465
1772819356914442500,0.5084423828125,-0.021262144669890404,0.012647352181375027,0.001294029993005097
1772819356924507400,0.51850732421875,-0.02755439653992653,0.01449904777109623,0.0009392969077453017
1772819356934572500,0.528572509765625,-0.027712587267160416,0.021164674311876297,-0.0013401026371866465
1772819356944636400,0.538636474609375,-0.0273879487067461,0.01817021518945694,-0.0073407371528446674
1772819356954701300,0.548701416015625,-0.023268837481737137,0.006626477465033531,-0.006488792132586241
1772819356964766500,0.558766357421875,-0.02473437413573265,0.009121326729655266,-0.008222776465117931
1772819356974831400,0.568831298828125,-0.02629285678267479,0.01998808979988098,-0.009031311608850956
1772819356984896500,0.578896484375,-0.029046831652522087,0.02238360233604908,-0.005693838465958834
1772819356994960600,0.588960693359375,-0.029405292123556137,0.030949126929044724,-0.0018402442801743746
1772819357005025300,0.599025390625,-0.028894498944282532,0.04434509575366974,0.0010005496442317963
1772819357015090400,0.60909033203125,-0.026138659566640854,0.040824130177497864,-0.0012247877893969417
1772819357025155600,0.619155517578125,-0.0213625468313694,0.024394555017352104,-0.002201635157689452
1772819357035219500,0.629219482421875,-0.018336929380893707,0.013748835772275925,-0.0032091091852635145
1772819357045284600,0.63928466796875,-0.014928349293768406,0.019571570679545403,0.009622800163924694
1772819357055349200,0.649349365234375,-0.020862404257059097,0.014697719365358353,0.013639379292726517
1772819357065414400,0.659414306640625,-0.021809691563248634,0.024339428171515465,0.010937602259218693
1772819357075479600,0.6694794921875,-0.024705080315470695,0.04095914959907532,0.010597516782581806
1772819357085543400,0.67954345703125,-0.023732492700219154,0.0416899211704731,0.0011648666113615036
1772819357095608600,0.689608642578125,-0.02327682636678219,0.02370905689895153,-0.013248427771031857
1772819357105673200,0.699673095703125,-0.02407258003950119,0.011326157487928867,-0.025289377197623253
1772819357115738400,0.70973828125,-0.03115951642394066,0.010469418950378895,-0.02642654813826084
1772819357125802500,0.719802490234375,-0.029692115262150764,0.01870870590209961,-0.021348165348172188
1772819357135867400,0.729867431640625,-0.024206003174185753,0.018627213314175606,-0.008194812573492527
1772819357145932500,0.7399326171875,-0.02022510953247547,0.011267301626503468,0.017916683107614517
1772819357155997400,0.74999755859375,-0.015112107619643211,0.01666845940053463,0.036496225744485855
1772819357166062300,0.760062255859375,-0.010844924487173557,0.018505508080124855,0.0415213443338871
1772819357176126500,0.77012646484375,-0.0061535001732409,0.026585804298520088,0.03331587836146355
1772819357186191400,0.78019140625,-0.009033708833158016,0.033845581114292145,0.026387399062514305
1772819357196256500,0.790256591796875,-0.013711817562580109,0.030058300122618675,0.010301639325916767
1772819357206321400,0.8003212890625,-0.009592173621058464,0.027877170592546463,0.005390770733356476
1772819357216385300,0.81038525390625,-0.004296477884054184,0.03111371025443077,0.007674431428313255
1772819357226450400,0.820450439453125,-0.007412909064441919,0.02051246538758278,0.00497984467074275
1772819357236515600,0.830515625,-0.0027441212441772223,0.0030599720776081085,0.006450442597270012
1772819357246580500,0.84058056640625,-0.0036341496743261814,-0.000898550555575639,0.0033936661202460527
1772819357256645400,0.850645263671875,0.0011345066595822573,0.006259227637201548,0.0021427792962640524
1772819357266709200,0.860709228515625,0.0013483584625646472,0.01191098801791668,0.0019028285751119256
1772819357276774400,0.8707744140625,-0.0015097459545359015,0.010834804736077785,-0.002882871776819229
1772819357286839600,0.880839599609375,-0.0018045579781755805,0.009018261916935444,-0.005642172880470753
1772819357296904400,0.890904541015625,-0.000871652620844543,0.009243565611541271,-0.008521316573023796
1772819357306969300,0.90096923828125,-0.0025683525018393993,0.015966715291142464,-0.008039018139243126
1772819357317033500,0.911033447265625,-0.0013632721966132522,0.014042316004633904,-0.01113441027700901
1772819357327098400,0.921098388671875,0.0006532734259963036,0.016171513125300407,-0.0030365362763404846
1772819357337163500,0.93116357421875,-0.00063383235828951,0.027419639751315117,0.009490174241364002
1772819357347228400,0.941228515625,-0.0005432848702184856,0.03461869806051254,0.02202700451016426
1772819357357292300,0.951292236328125,0.0024437166284769773,0.03674896061420441,0.020898889750242233
1772819357367357400,0.961357421875,0.01708897203207016,0.051540687680244446,0.011974104680120945
1772819357377422300,0.97142236328125,0.016880180686712265,0.028143221512436867,0.0030423952266573906
1772819357387487500,0.981487548828125,0.008702944032847881,0.02636502869427204,0.005745237227529287
1772819357397552400,0.991552490234375,0.00512711750343442,0.006271477788686752,0.013639645650982857
1772819357407616300,1.0016162109375,-0.006992661859840155,0.006170544307678938,0.019298063591122627
1772819357417681400,1.011681396484375,-0.0041340249590575695,0.002100168727338314,0.01744157448410988
1772819357427746600,1.02174658203125,0.001332912128418684,0.003985154442489147,0.011449728161096573
1772819357437811500,1.0318115234375,0.01293177716434002,0.010333864018321037,0.006347378250211477
1772819357447876400,1.04187646484375,0.021341508254408836,0.008611598052084446,0.0017872473690658808
1772819357457940200,1.051940185546875,0.02587607130408287,0.00196434766985476,0.00433003343641758
1772819357468005400,1.06200537109375,0.021614480763673782,0.0014255901332944632,0.006642988882958889
1772819357478070500,1.072070556640625,0.018326543271541595,0.0024564997293055058,0.008361260406672955
1772819357488135400,1.082135498046875,0.015182148665189743,0.010235860012471676,0.015019962564110756
1772819357498200300,1.092200439453125,0.014738732017576694,0.010949586518108845,0.01882721669971943
1772819357508264400,1.102264404296875,0.01985919289290905,0.009661681950092316,0.00818069837987423
1772819357518329300,1.112329345703125,0.022285064682364464,0.009153816848993301,0.006917028222233057
1772819357528394500,1.12239453125,0.02389574609696865,0.005667739547789097,0.007978830486536026
1772819357538459600,1.132459716796875,0.022001439705491066,-0.00024154871061909944,0.01001907791942358
1772819357548523500,1.1425234375,0.019228022545576096,0.0022948458790779114,0.01841416023671627
1772819357558588400,1.15258837890625,0.015977900475263596,0.006542321294546127,0.023790018633008003
1772819357568653300,1.1626533203125,0.010523747652769089,0.004085022956132889,0.028272118419408798
1772819357578718500,1.172718505859375,0.001663410454057157,0.008988700807094574,0.02239159122109413
1772819357588783600,1.18278369140625,0.0013310478534549475,0.01727033406496048,0.010554639622569084
1772819357598847500,1.192847412109375,-0.006340720225125551,0.021031782031059265,0.008714661933481693
1772819357608912400,1.202912353515625,-0.006173740141093731,0.01714463159441948,0.007202252745628357
1772819357618977500,1.2129775390625,-0.007676029112190008,0.021215805783867836,0.006961769424378872
1772819357629042400,1.22304248046875,-0.012897688895463943,0.022532472386956215,0.0063066319562494755
1772819357639106600,1.2331064453125,-0.014964834786951542,0.01655074767768383,-0.0018045579781755805
1772819357649171500,1.24317138671875,-0.018664231523871422,0.013549097813665867,-0.006654706783592701
1772819357659236400,1.253236328125,-0.020050140097737312,0.019837886095046997,-0.0038152446504682302
1772819357669301500,1.263301513671875,-0.025139441713690758,0.007794273551553488,-0.013405287638306618
1772819357679366100,1.2733662109375,-0.01492435485124588,0.00675164582207799,-0.023120498284697533
1772819357689430300,1.28343017578125,-0.011462245136499405,0.011723501607775688,-0.020308200269937515
1772819357699495200,1.2934951171875,-0.01363165583461523,0.018879681825637817,-0.015271364711225033
1772819357709560000,1.30356005859375,-0.015626097097992897,0.02183445915579796,-0.0123631926253438
1772819357719625200,1.313625244140625,-0.016414126381278038,0.026762105524539948,-0.012372246943414211
1772819357729690000,1.323690185546875,-0.01792760193347931,0.028418324887752533,-0.013175190426409245
1772819357739754200,1.333754150390625,-0.01798805594444275,0.02683374471962452,-0.017284447327256203
1772819357749819400,1.3438193359375,-0.01709083653986454,0.016717195510864258,-0.0160673838108778
1772819357759884000,1.353884033203125,-0.014521950855851173,0.001928128651343286,-0.018489794805645943
1772819357769949200,1.36394921875,-0.011743741109967232,0.0008503473363816738,-0.012572783045470715
1772819357780014300,1.374014404296875,-0.015429556369781494,-0.004744421225041151,-0.00902784988284111
1772819357790078200,1.384078125,-0.018257834017276764,0.0032463932875543833,-0.005063201766461134
1772819357800143400,1.394143310546875,-0.015293735079467297,0.016979249194264412,-0.0017867147689685225
1772819357810208000,1.4042080078125,-0.01321194227784872,0.02779674343764782,0.007352455053478479
1772819357820273200,1.414273193359375,-0.01575632579624653,0.027238279581069946,0.012613529339432716
1772819357830338300,1.42433837890625,-0.014670821838080883,0.028552815318107605,0.019399797543883324
1772819357840402200,1.434402099609375,-0.018003767356276512,0.020867731422185898,0.015194931998848915
1772819357850467300,1.44446728515625,-0.019114039838314056,0.003950266633182764,0.007969509810209274
1772819357860532200,1.4545322265625,-0.016409333795309067,-0.00293320557102561,-0.0034463966730982065
1772819357870597000,1.46459716796875,-0.01967410184442997,-0.0022453111596405506,-0.009736250154674053
1772819357880661200,1.4746611328125,-0.01914360001683235,0.000028762138754245825,-0.008216651156544685
1772819357890726100,1.48472607421875,-0.019589679315686226,0.003224022686481476,-0.007917577400803566
1772819357900791300,1.494791259765625,-0.020924989134073257,0.008941829204559326,-0.0036999296862632036
1772819357910856200,1.504856201171875,-0.01961151883006096,0.015234879218041897,-0.00387383415363729
1772819357920921000,1.514921142578125,-0.0179305300116539,0.01312272623181343,-0.010875551030039787
1772819357930985200,1.524985107421875,-0.014314224012196064,0.005143363028764725,-0.012767460197210312
1772819357941050400,1.53505029296875,-0.007143929600715637,0.008741825819015503,-0.00833649281412363
1772819357951115000,1.545114990234375,-0.003439738880842924,0.005167597904801369,-0.007441138383001089
1772819357961180200,1.55518017578125,-0.0020727382507175207,0.005238703917711973,-0.0048861014656722546
1772819357971245300,1.565245361328125,0.000586161739192903,0.008509865030646324,-0.005033374298363924
1772819357981309200,1.57530908203125,0.00007057376933516935,0.01432168111205101,-0.00865980051457882
1772819357991374300,1.585374267578125,0.0014737932942807674,0.016801616176962852,-0.015501195564866066
1772819358001439000,1.59543896484375,0.005288771353662014,0.017360081896185875,-0.02238227054476738
1772819358011504000,1.605504150390625,0.00503870053216815,0.00999244675040245,-0.0247237216681242
1772819358021569300,1.6155693359375,0.0020037624053657055,0.003861317178234458,-0.017127055674791336
1772819358031633200,1.625633056640625,0.006165750324726105,0.004089816473424435,-0.009414540603756905
1772819358041698300,1.6356982421875,0.0025843314360827208,0.009414806962013245,0.005317001137882471
1772819358051763200,1.64576318359375,0.0026847326662391424,0.009240902960300446,0.011786884628236294
1772819358061828000,1.655828125,0.0014977618120610714,0.011993013322353363,0.012808206491172314
1772819358071893200,1.665893310546875,0.0009153284481726587,0.018154768273234367,0.015949672088027
1772819358081957000,1.67595703125,0.0029142971616238356,0.013012205250561237,0.017540911212563515
1772819358092022300,1.686022216796875,0.002121740486472845,0.011321363970637321,0.015895608812570572
1772819358102087200,1.696087158203125,0.0020242687314748764,0.012438826262950897,0.018025072291493416
1772819358112152000,1.706152099609375,0.006364955101162195,0.011800200678408146,0.016234897077083588
1772819358122217200,1.71621728515625,0.00649651512503624,0.003995007835328579,0.011465175077319145
1772819358132281000,1.726281005859375,0.009700031951069832,0.0020189424976706505,0.004893292207270861
1772819358142346200,1.73634619140625,0.01173069141805172,0.0017427726415917277,0.006720487028360367
1772819358152411100,1.7464111328125,0.008172974921762943,-0.0015638081822544336,0.005259742960333824
1772819358162476000,1.75647607421875,0.006984139792621136,-0.005654689855873585,-0.0010330402292311192
1772819358172541200,1.766541259765625,0.009039301425218582,-0.006139385048300028,-0.00478303711861372
1772819358182605300,1.776605224609375,0.014448714442551136,-0.0057311225682497025,-0.009794041514396667
1772819358192670200,1.786670166015625,0.019590212032198906,-0.003165433183312416,-0.007272027432918549
1772819358202735000,1.796735107421875,0.02197347581386566,0.008191350847482681,-0.005813680589199066
1772819358212800300,1.80680029296875,0.01697365753352642,0.012590359896421432,-0.0015520902816206217
1772819358222865200,1.816865234375,0.016949955374002457,0.01931404322385788,0.006666424684226513
1772819358232929300,1.82692919921875,0.00697987899184227,0.008577242493629456,0.00196434766985476
1772819358242994200,1.836994140625,0.009504023008048534,-0.0019382486352697015,-0.007150587625801563
1772819358253059000,1.84705908203125,0.012890231795608997,-0.004415520932525396,-0.007506918627768755
1772819358263124200,1.857124267578125,0.005765743553638458,-0.006834470201283693,0.0004713795206043869
1772819358273189000,1.867189208984375,0.003754790872335434,-0.008577508851885796,0.009845972992479801
1772819358283254300,1.877254150390625,0.007186806295067072,-0.003468500915914774,0.013907826505601406
1772819358293318100,1.887318115234375,0.00040506679215468466,0.007054447196424007,0.01595073752105236
1772819358303383000,1.897383056640625,-0.0013427657540887594,0.012956278398633003,0.010576211847364902
1772819358313448200,1.9074482421875,-0.004318848252296448,0.011925102211534977,-0.00321922916918993
1772819358323513300,1.917513427734375,-0.008189752697944641,0.013727796263992786,-0.01113121397793293
1772819358333578000,1.927577880859375,-0.013030314818024635,0.011288074776530266,-0.016161393374204636
1772819358343642000,1.93764208984375,-0.012995959259569645,0.000833036785479635,-0.01583116129040718
1772819358353707000,1.94770703125,-0.01347586140036583,-0.0033744913525879383,-0.009471000172197819
1772819358363772200,1.957772216796875,-0.008836101740598679,-0.003421362955123186,0.001591505017131567
1772819358373837300,1.96783740234375,-0.003891411004588008,-0.006068012677133083,0.00207699928432703
1772819358383902000,1.97790185546875,0.0006761765689589083,-0.0029816750902682543,0.00327275856398046
1772819358393966000,1.987966064453125,0.002683401107788086,0.004144411068409681,0.0016612798208370805
1772819358404031200,1.99803125,0.0023726101499050856,0.011839881539344788,0.005356681998819113
1772819358414096100,2.00809619140625,-0.00013502225920092314,0.007275755982846022,-0.003197657410055399
1772819358424161300,2.018161376953125,-0.0007976167253218591,-0.0015219965716823936,-0.005083708092570305
1772819358434226200,2.02822607421875,-0.0009542105835862458,0.004339088220149279,-0.004584099166095257
1772819358444290000,2.0382900390625,-0.0000900148443179205,0.005530586466193199,-0.002030926523730159
1772819358454355200,2.048355224609375,0.0030655646696686745,0.006075469311326742,0.0016109461430460215
1772819358464420000,2.058420166015625,0.0027923244051635265,0.0005001416429877281,0.0063154203817248344
1772819358474485200,2.0684853515625,0.001894839107990265,-0.0038394792936742306,0.007830225862562656
1772819358484550100,2.078550048828125,0.0031473238486796618,-0.0011893677292391658,0.00478410255163908
1772819358494614000,2.088614013671875,-0.0010064085945487022,0.001710548298433423,0.0051897019147872925
1772819358504679200,2.09867919921875,-0.002508165081962943,0.007213171571493149,0.003498328384011984
1772819358514744300,2.108744384765625,-0.007138603366911411,0.011157579720020294,0.0054094125516712666
1772819358524809200,2.118809326171875,-0.003746002446860075,0.007444334216415882,0.005365470424294472
1772819358534874000,2.1288740234375,-0.0032405343372374773,0.008410529233515263,0.004715925548225641
1772819358544939300,2.138939208984375,-0.0030959248542785645,0.006991596892476082,0.0046416232362389565
1772819358555003100,2.149003173828125,-0.0004090615548193455,0.002793655963614583,0.00515907583758235
1772819358565068300,2.159068359375,-0.00042051312630064785,0.006449110805988312,0.005871205125004053
1772819358575133200,2.16913330078125,-0.0033571808598935604,0.00535428524017334,0.0006122607155703008
1772819358585198000,2.179197998046875,-0.004811000544577837,0.00833889003843069,-0.004396612755954266
1772819358595263200,2.18926318359375,-0.004244545940309763,0.004196343012154102,-0.006000634748488665
1772819358605327000,2.1993271484375,-0.0052107409574091434,0.0018908443162217736,-0.008205732330679893
1772819358615392300,2.209392333984375,-0.0031787490006536245,0.007762582041323185,-0.0007352987886406481
1772819358625457400,2.21945751953125,-0.00035473305615596473,0.008258196525275707,0.0032618397381156683
1772819358635522000,2.22952197265625,0.002275404753163457,0.019091136753559113,0.005626726895570755
1772819358645587200,2.239587158203125,-0.00464694993570447,0.027162112295627594,0.001955292886123061
1772819358655651000,2.249651123046875,-0.005568403284996748,0.022767895832657814,-0.0068176924251019955
1772819358665716200,2.25971630859375,-0.007562312297523022,0.016573384404182434,-0.020615795627236366
1772819358675781400,2.269781494140625,-0.012560798786580563,-0.0002442118711769581,-0.03337926045060158
1772819358685846300,2.27984619140625,-0.011319765821099281,-0.014128868468105793,-0.03864007070660591
1772819358695911400,2.289911376953125,-0.003525492735207081,-0.015511315315961838,-0.03003806062042713
1772819358705976300,2.299976318359375,-0.0029640982393175364,-0.007380684372037649,-0.013289174064993858
1772819358716040400,2.31004052734375,0.0001280980504816398,0.013160277158021927,0.0013164004776626825
1772819358726105300,2.320105224609375,0.004522047471255064,0.03382294625043869,0.015779495239257812
1772819358736170200,2.330170166015625,0.0016160061350092292,0.04561648517847061,0.015335014089941978
1772819358746235400,2.3402353515625,0.002846386516466737,0.04914624243974686,0.013226056471467018
1772819358756300500,2.350300537109375,0.0022807312197983265,0.036143623292446136,0.005780657287687063
1772819358766364400,2.360364501953125,0.005292499903589487,0.018025605008006096,0.0037673076149076223
1772819358776429300,2.37042919921875,0.005831523798406124,0.001237571006640792,0.006678675301373005
1772819358786494200,2.380494140625,0.007783621083945036,-0.012381834909319878,0.0037531929556280375
1772819358796559400,2.390559326171875,0.009257148019969463,-0.02149011194705963,0.008671252056956291
1772819358806624500,2.40062451171875,0.008641424588859081,-0.01750868558883667,0.006548712961375713
1772819358816689200,2.410689208984375,0.008840896189212799,-0.00538357999175787,0.008157528936862946
1772819358826753300,2.420753173828125,0.00869016069918871,0.012109393253922462,0.010499512776732445
1772819358836818400,2.430818359375,0.008206264115869999,0.02442038804292679,0.014303837902843952
1772819358846883300,2.44088330078125,0.010690727271139622,0.025845978409051895,0.014810371212661266
1772819358856948500,2.450948486328125,0.013670272193849087,0.016631707549095154,0.019515644758939743
1772819358867013400,2.461013427734375,0.019818978384137154,0.004050135146826506,0.019774237647652626
1772819358877077200,2.4710771484375,0.022518092766404152,-0.0059905145317316055,0.025436118245124817
1772819358887142400,2.481142333984375,0.01811854913830757,-0.004825914278626442,0.032520923763513565
1772819358897207300,2.491207275390625,0.013786652125418186,0.0007739146240055561,0.03352919965982437
1772819358907272400,2.5012724609375,0.003385410411283374,0.012537362985312939,0.031089741736650467
1772819358917337300,2.51133740234375,0.0008756473544053733,0.024294687435030937,0.029701968654990196
1772819358927402200,2.52140234375,-0.0041555967181921005,0.027638552710413933,0.019302325323224068
1772819358937466400,2.53146630859375,-0.002814695006236434,0.01378132589161396,0.004020041786134243
1772819358947531500,2.541531494140625,-0.0030977888964116573,0.007524761371314526,-0.006595318205654621
1772819358957596400,2.551596435546875,-0.0035569178871810436,-0.00008388957212446257,-0.009812682867050171
1772819358967661300,2.561661376953125,-0.007202785462141037,-0.0008325041271746159,-0.01696540042757988
1772819358977726500,2.5717265625,-0.011581022292375565,0.006099437829107046,-0.013284645974636078
1772819358987790300,2.581790283203125,-0.012488894164562225,0.018978750333189964,-0.006337524391710758
1772819358997855500,2.59185546875,-0.00941933412104845,0.0336274690926075,-0.0027473168447613716
1772819359007920400,2.60192041015625,-0.006657902617007494,0.03586665540933609,0.0006226470577530563
1772819359017985300,2.6119853515625,-0.00350418733432889,0.029282521456480026,0.0006585997180081904
1772819359028050400,2.622050537109375,-0.004283428192138672,0.022129537537693977,0.005800897255539894
1772819359038115300,2.632115234375,-0.0007536745979450643,0.0183505117893219,0.00287434970960021
1772819359048179500,2.642179443359375,-0.002620816696435213,0.012351741082966328,0.0032730249222368
1772819359058244400,2.652244384765625,-0.006311159115284681,0.01450197771191597,0.00045540055725723505
1772819359068309200,2.662309326171875,-0.008587363176047802,0.017493240535259247,-0.011181281879544258
1772819359078374400,2.67237451171875,-0.00860494002699852,0.018322015181183815,-0.01907835341989994
1772819359088439600,2.682439453125,-0.012495817616581917,0.013902499340474606,-0.02136307954788208
1772819359098503400,2.69250341796875,-0.01019484642893076,0.010625213384628296,-0.02678287774324417
1772819359108568300,2.702568359375,-0.00392842898145318,0.007686415687203407,-0.026199912652373314
1772819359118633200,2.71263330078125,-0.00010945591930067167,0.0011121360585093498,-0.015276424586772919
1772819359128698400,2.722698486328125,0.002499643014743924,-0.0035358788445591927,-0.0020213392563164234
1772819359138763500,2.732763427734375,0.0011004181578755379,-0.007388674188405275,0.0101402522996068
1772819359148828200,2.742828125,-0.0020516992080956697,0.00025592977181077003,0.011981561779975891
1772819359158892300,2.752892333984375,0.0019297265680506825,0.003996073268353939,0.008531436324119568
1772819359168957200,2.762957275390625,-0.008302670903503895,0.002724680118262768,-0.0039036613889038563
1772819359179022300,2.773022216796875,-0.009561014361679554,-0.0036605149507522583,-0.019085543230175972
1772819359189087500,2.78308740234375,-0.009998838417232037,-0.0010873686987906694,-0.018909242004156113
1772819359199152000,2.793152099609375,-0.004281297791749239,0.009454754181206226,-0.011122958734631538
1772819359209216300,2.80321630859375,-0.004289020784199238,0.022658973932266235,0.006222475785762072
1772819359219281400,2.813281494140625,-0.005792907904833555,0.02809262089431286,0.016587233170866966
1772819359229346300,2.82334619140625,-0.006766825914382935,0.029738720506429672,0.019705528393387794
1772819359239411500,2.833411376953125,-0.010188455693423748,0.019883427768945694,0.014063088223338127
1772819359249476400,2.843476318359375,-0.009381517767906189,0.020956413820385933,0.008624114096164703
1772819359259541200,2.853541259765625,-0.01595473103225231,0.014602644369006157,0.006892526987940073
1772819359269605400,2.86360546875,-0.016872189939022064,0.020081300288438797,0.01245374046266079
1772819359279670300,2.873670166015625,-0.016464460641145706,0.020506607368588448,0.01290408056229353
1772819359289735400,2.8837353515625,-0.009383114986121655,0.020786238834261894,0.011894210241734982
1772819359299800300,2.89380029296875,-0.011854528449475765,0.012651346623897552,0.010541324503719807
1772819359309865200,2.903865234375,-0.014151238836348057,0.014093714766204357,0.0054727960377931595
1772819359319930400,2.913930419921875,-0.021291173994541168,0.010273143649101257,-0.0003182477375958115
1772819359329994500,2.923994384765625,-0.026607641950249672,0.008923454210162163,-0.00866113230586052
1772819359340059400,2.934059326171875,-0.028845496475696564,0.01918780989944935,-0.009168198332190514
1772819359350124300,2.944124267578125,-0.03268098086118698,0.023783626034855843,-0.013361877761781216
1772819359360189400,2.954189453125,-0.03254915401339531,0.020955881103873253,-0.013274259865283966
1772819359370254300,2.96425439453125,-0.026810042560100555,0.01483753602951765,-0.008251538500189781
1772819359380319200,2.9743193359375,-0.02604571543633938,0.009170595556497574,-0.0035081820096820593
1772819359390383400,2.98438330078125,-0.023071231320500374,0.021373465657234192,0.009011604823172092
1772819359400448300,2.9944482421875,-0.024041153490543365,0.027834028005599976,0.008547681383788586
1772819359410513400,3.004513427734375,-0.02251329831779003,0.032040756195783615,0.003201385959982872
1772819359420578300,3.014578369140625,-0.023366043344140053,0.031047398224473,0.0054698665626347065
1772819359430643200,3.024643310546875,-0.02479482814669609,0.029448436573147774,0.003689010627567768
1772819359440708400,3.034708251953125,-0.022108230739831924,0.024877386167645454,-0.0014692660188302398
1772819359450772200,3.044772216796875,-0.019231485202908516,0.012466522864997387,-0.002508431440219283
1772819359460837400,3.05483740234375,-0.010092315264046192,0.019171563908457756,-0.0005536712124012411
1772819359470902500,3.064902587890625,-0.007761516608297825,0.021763885393738747,-0.00036378781078383327
1772819359480967200,3.07496728515625,-0.007131146267056465,0.02153804898262024,0.004544950556010008
1772819359491032300,3.0850322265625,-0.013937653042376041,0.024819329380989075,0.0024173513520509005
1772819359501097500,3.095097412109375,-0.01998143084347248,0.027716848999261856,-0.005970807280391455
1772819359511161300,3.105161376953125,-0.027115240693092346,0.01690574735403061,-0.011797803454101086
1772819359521226500,3.1152265625,-0.029137378558516502,0.011444934643805027,-0.020293287932872772
1772819359531291100,3.125291015625,-0.025678731501102448,0.011867045424878597,-0.023549268022179604
1772819359541356300,3.135356201171875,-0.022778550162911415,0.004910869058221579,-0.01684928685426712
1772819359551421400,3.14542138671875,-0.014998923055827618,0.0036855486687272787,-0.012260926887392998
1772819359561485300,3.1554853515625,-0.01278716791421175,0.004458930809050798,-0.000147272803587839
1772819359571550500,3.165550537109375,-0.01432034932076931,0.01188302505761385,0.0017526262672618032
1772819359581615400,3.175615478515625,-0.013896108604967594,0.027188744395971298,0.010464625433087349
1772819359591680300,3.18568017578125,-0.012595420703291893,0.037626203149557114,0.013627927750349045
1772819359601745400,3.195745361328125,-0.013379720970988274,0.03623523563146591,0.013391172513365746
1772819359611810600,3.205810546875,-0.005135640036314726,0.03087322786450386,0.008646219037473202
1772819359621874400,3.21587451171875,-0.006476541515439749,0.022431805729866028,-0.0034762241411954165
1772819359631939300,3.225939208984375,-0.0038895467296242714,0.014002101495862007,-0.003692739177495241
1772819359642004200,3.236004150390625,-0.005501824431121349,0.009719206020236015,-0.005916744936257601
1772819359652069400,3.2460693359375,-0.0021550299134105444,0.012950153090059757,-0.0018053569365292788
1772819359662134500,3.256134521484375,-0.003994208760559559,0.016206666827201843,0.0006556702428497374
1772819359672199200,3.26619921875,-0.0071066454984247684,0.01938221976161003,-0.007739146240055561
1772819359682262800,3.2762626953125,-0.012348811142146587,0.017910823225975037,-0.009585515595972538
1772819359692328000,3.286327880859375,-0.007770571392029524,0.020726051181554794,-0.01447215024381876
1772819359702392800,3.296392822265625,-0.00714765815064311,0.023303991183638573,-0.013967214152216911
1772819359712458000,3.3064580078125,-0.006636597216129303,0.014955779537558556,-0.010640393942594528
1772819359722523000,3.31652294921875,-0.0049193911254405975,0.007384679280221462,0.002671949565410614
1772819359732587800,3.326587890625,-0.005360410548746586,0.007699198555201292,0.00808881875127554
1772819359742652000,3.33665185546875,-0.006100769154727459,0.016055399551987648,0.015223161317408085
1772819359752717000,3.346717041015625,-0.0035273567773401737,0.01998063176870346,0.017121195793151855
1772819359762782000,3.356781982421875,-0.002894856035709381,0.02700791507959366,0.013585583306849003
1772819359772846800,3.366846923828125,-0.005787315312772989,0.03506291285157204,0.008876049891114235
1772819359782912000,3.376912109375,-0.004532167688012123,0.039313316345214844,0.0034000577870756388
1772819359792977000,3.386976806640625,-0.0003102582704741508,0.03551831468939781,0.0018303906545042992
1772819359803041000,3.397041015625,-0.0013281183782964945,0.019412314519286156,-0.0029089709278196096
1772819359813106000,3.40710595703125,-0.0006293049664236605,0.00036991306114941835,-0.010245979763567448
1772819359823170800,3.4171708984375,-0.0034104441292583942,-0.007442203816026449,-0.011170629411935806
1772819359833236000,3.427236083984375,-0.005278917960822582,-0.0010029464028775692,-0.0020996362436562777
1772819359843300900,3.43730078125,-0.004625111818313599,0.005998503882437944,-0.002582201035693288
1772819359853366000,3.447365966796875,0.0020911141764372587,0.01619255170226097,-0.0030951257795095444
1772819359863430100,3.45743017578125,-0.0015851134667173028,0.020787304267287254,-0.010070477612316608
1772819359873494800,3.467494873046875,0.0005904228310100734,0.023249397054314613,-0.01613449491560459
1772819359883560000,3.477559814453125,0.0054757255129516125,0.019174493849277496,-0.018519887700676918
1772819359893625000,3.487625,0.002517752582207322,0.008428905159235,-0.014516091905534267
1772819359903690000,3.49768994140625,0.0036674391012638807,0.005139101762324572,-0.003177151083946228
1772819359913755000,3.5077548828125,0.0041057956404984,0.011472897604107857,0.013459083624184132
1772819359923818800,3.51781884765625,0.002834135899320245,0.015907060354948044,0.017979798838496208
1772819359933884000,3.5278837890625,0.005507417023181915,0.016939835622906685,0.01973135955631733
1772819359943949000,3.537948974609375,-0.0005262406193651259,0.018430672585964203,0.014824486337602139
1772819359954014000,3.548013916015625,-0.004346811678260565,0.015913186594843864,0.008866728283464909
1772819359964078800,3.558078857421875,-0.005347361322492361,0.020375579595565796,0.002965429797768593
1772819359974144000,3.56814404296875,-0.005018993280827999,0.016173910349607468,0.0037609159480780363
1772819359984208000,3.578207763671875,-0.004674380179494619,0.011871573515236378,0.005914880894124508
1772819359994273000,3.58827294921875,-0.0003062635369133204,0.007542338687926531,0.005228584166616201
1772819360004338000,3.598337890625,0.004258661065250635,0.010133061558008194,0.009770605713129044
1772819360014402800,3.60840283203125,0.0009116000146605074,0.013013004325330257,0.005344165489077568
1772819360024468000,3.618468017578125,0.0004575310740619898,0.008764197118580341,-0.00279099284671247
1772819360034533000,3.628533203125,-0.0010434264549985528,0.006076268386095762,-0.011018030345439911
1772819360044597000,3.638596923828125,-0.001973136095330119,0.004160656593739986,-0.011384746991097927
1772819360054662000,3.648661865234375,-0.004132959526032209,0.004686897154897451,-0.00854608416557312
1772819360064726800,3.658726806640625,-0.005723665934056044,0.0038432078436017036,-0.012404471635818481
1772819360074792000,3.6687919921875,-0.004451207350939512,0.0031398669816553593,-0.011091000400483608
1772819360084857000,3.678857177734375,-0.005898102652281523,0.0017813884187489748,-0.012211392633616924
1772819360094921700,3.688921630859375,-0.005432049743831158,0.011325358413159847,-0.009279252029955387
1772819360104987000,3.69898681640625,-0.00774766830727458,0.014883075840771198,-0.012979714199900627
1772819360115051000,3.709051025390625,-0.007155114784836769,0.010733870789408684,-0.012827647849917412
1772819360125116000,3.719115966796875,-0.00911360327154398,0.009044894017279148,-0.012827647849917412
1772819360135181000,3.72918115234375,-0.009135441854596138,0.0095096156001091,-0.01210113801062107
1772819360145246000,3.739245849609375,-0.007363373879343271,0.01739949733018875,-0.006506102625280619
1772819360155310800,3.749310791015625,-0.016016516834497452,0.01053120382130146,-0.006560697220265865
1772819360165376000,3.7593759765625,-0.013845241628587246,0.011137872003018856,0.0002687129599507898
1772819360175440000,3.76943994140625,-0.012493954040110111,0.01549613568931818,-0.000553404854144901
1772819360185505000,3.779505126953125,-0.013025786727666855,0.006071474403142929,0.0029816750902682543
1772819360195570000,3.78956982421875,-0.010037720203399658,0.0009020126308314502,0.004018709994852543
1772819360205634800,3.799634765625,-0.004118045791983604,0.0013187973527237773,0.007084541022777557
1772819360215700000,3.809699951171875,0.0004239752306602895,-0.00224957219325006,0.01468626782298088
1772819360225764900,3.819764892578125,0.0031489215325564146,0.0018658105982467532,0.01960992068052292
1772819360235829000,3.8298291015625,-0.00036485306918621063,0.0030069751664996147,0.016574449837207794
1772819360245894000,3.839893798828125,-0.0037835529074072838,0.003157177474349737,0.014191718772053719
1772819360255959000,3.849958984375,-0.004396612755954266,0.01239222101867199,0.0065314024686813354
1772819360266024000,3.86002392578125,-0.007817443460226059,0.013861486688256264,-0.001511876587755978
1772819360276088800,3.8700888671875,-0.0076091839000582695,0.007463508751243353,-0.005857090000063181
1772819360286154000,3.880154052734375,-0.007647533435374498,-0.000862864195369184,-0.003974235150963068
1772819360296217900,3.8902177734375,-0.005346029531210661,0.0008769789128564298,-0.0035420041531324387
1772819360306283000,3.900282958984375,-0.0035840822383761406,0.008249141275882721,0.003403786104172468
1772819360316348000,3.910347900390625,-0.007150054909288883,0.013466806150972843,0.012654541991651058
1772819360326412800,3.920412841796875,-0.009860353544354439,0.019882895052433014,0.01661599427461624
1772819360336478000,3.93047802734375,-0.011515508405864239,0.024386299774050713,0.00561048137024045
1772819360346542800,3.94054296875,-0.013619937933981419,0.023493075743317604,-0.011842012405395508
1772819360356608000,3.95060791015625,-0.015679361298680305,0.017110543325543404,-0.027362382039427757
1772819360366672100,3.960672119140625,-0.007228884380310774,0.003852795111015439,-0.03524453938007355
1772819360376736800,3.97073681640625,-0.003578489413484931,0.0023995081428438425,-0.030459638684988022
1772819360386802000,3.980802001953125,-0.002377670258283615,-0.00833569373935461,-0.024585770443081856
1772819360396867000,3.9908671875,-0.0006146575906313956,-0.0025063008069992065,-0.013923272490501404
1772819360406931000,4.000930908203125,-0.0026932547334581614,0.013078250922262669,-0.010520018637180328
1772819360416996000,4.01099609375,-0.00498064374551177,0.027052389457821846,-0.017288176342844963
1772819360427060700,4.021060791015625,-0.005028847139328718,0.02972034551203251,-0.029648439958691597
1772819360437126000,4.0311259765625,-0.004543352872133255,0.03569754213094711,-0.03722966089844704
1772819360447191000,4.04119091796875,-0.005873868241906166,0.02713814377784729,-0.0345555804669857
1772819360457256000,4.051255859375,-0.007021424360573292,0.023311980068683624,-0.02437644638121128
1772819360467320000,4.061320068359375,-0.009333847090601921,0.025107750669121742,-0.008411328308284283
1772819360477385000,4.071385009765625,-0.01309289876371622,-0.0010868359822779894,-0.014941665343940258
1772819360487449900,4.081449951171875,-0.005085838492959738,0.00033635724685154855,-0.025666480883955956
1772819360497515000,4.091514892578125,-0.01191152073442936,0.004895688965916634,-0.03259336203336716
1772819360507580200,4.101580078125,-0.014067082665860653,0.01296480093151331,-0.027280623093247414
1772819360517644800,4.111644775390625,-0.017944645136594772,0.025364745408296585,-0.021923674270510674
1772819360527710000,4.1217099609375,-0.015845542773604393,0.038119953125715256,-0.01667618192732334
1772819360537773800,4.13177392578125,-0.012458800338208675,0.03988589718937874,-0.011485947296023369
1772819360547839000,4.1418388671875,-0.004229898564517498,0.028539765626192093,-0.007713845930993557
1772819360557904100,4.151904052734375,0.0018676748732104897,0.021639781072735786,-0.0026314693968743086
1772819360567968800,4.16196875,0.0025363946333527565,0.020082898437976837,0.00526799913495779
1772819360578034000,4.172033935546875,0.006068544927984476,0.021515678614377975,0.015722770243883133
1772819360588099000,4.18209912109375,0.0075964005663990974,0.02720072865486145,0.02046719193458557
1772819360598163000,4.192162841796875,0.006621683482080698,0.034446392208337784,0.014463894069194794
1772819360608228000,4.20222802734375,0.007539675105363131,0.029345106333494186,0.004727110732346773
1772819360618293000,4.21229296875,0.006816094275563955,0.02190343476831913,-0.0019417107105255127
1772819360628358000,4.22235791015625,0.005586779210716486,0.001350755337625742,-0.006201436743140221
1772819360638423000,4.232423095703125,0.007816378027200699,-0.01690920814871788,-0.01221485435962677
1772819360648488000,4.242488037109375,0.004127100575715303,-0.02267361991107464,-0.01438186876475811
1772819360658552800,4.252552734375,-0.0012863067677244544,-0.003914846573024988,-0.00794314406812191
1772819360668617000,4.262616943359375,-0.0006431533838622272,0.01161644235253334,-0.00842677429318428
1772819360678682400,4.272682373046875,-0.000251402409048751,0.027283819392323494,-0.004324707202613354
1772819360688747500,4.28274755859375,0.0023097596131265163,0.033540382981300354,-0.0029473204631358385
1772819360698812200,4.292812255859375,0.0006202502408996224,0.03313238546252251,0.00207726564258337
1772819360708877300,4.302877197265625,0.00427357479929924,0.02901407517492771,0.008156463503837585
1772819360718942500,4.3129423828125,0.005689577199518681,0.019164107739925385,0.01745675504207611
1772819360729006300,4.32300634765625,0.0024948492646217346,0.009881659410893917,0.023610521107912064
1772819360739071500,4.333071533203125,0.00030546457855962217,0.004202201962471008,0.023062175139784813
1772819360749136100,4.34313623046875,0.000035952674807049334,0.009836385026574135,0.02057904377579689
1772819360759201300,4.353201171875,-0.0012040151050314307,0.00882038939744234,0.010362359695136547
1772819360769266400,4.363266357421875,-0.001844505313783884,0.009534915909171104,0.003148122690618038
1772819360779331300,4.373331298828125,-0.00012223910016473383,0.019109511747956276,0.005146558862179518
1772819360789396200,4.383396240234375,-0.002276203827932477,0.021324196830391884,0.005337773822247982
1772819360799460400,4.39346044921875,0.004535097163170576,0.016697220504283905,0.0026818031910806894
1772819360809525200,4.403525146484375,0.009265403263270855,0.011779693886637688,0.0001960086519829929
1772819360819590400,4.41359033203125,0.010627077892422676,0.009095493704080582,-0.0030450583435595036
1772819360829655300,4.4236552734375,0.009927998296916485,0.00412390474230051,-0.007699731271713972
1772819360839720200,4.43372021484375,0.006629406940191984,-0.004039216320961714,-0.015222362242639065
1772819360849785300,4.443785400390625,0.0015219965716823936,-0.004485561978071928,-0.019410982728004456
1772819360859850500,4.4538505859375,0.0015385081060230732,-0.003906324505805969,-0.0187209565192461
1772819360869914400,4.463914306640625,-0.0009683253592811525,0.0003195793251506984,-0.012645221315324306
1772819360879979300,4.473979248046875,0.0037468012887984514,0.0014178669080138206,-0.008863532915711403
1772819360890044200,4.484044189453125,-0.002475142013281584,0.0049247173592448235,-0.005838980432599783
1772819360900109300,4.494109375,-0.0019949739798903465,0.010658503510057926,0.0014911039033904672
1772819360910174500,4.504174560546875,-0.0018309232546016574,0.017843179404735565,0.005305815953761339
1772819360920239000,4.514239013671875,-0.003686081152409315,0.021403824910521507,0.006428604479879141
1772819360930303200,4.52430322265625,-0.0075577846728265285,0.019540145993232727,0.007275755982846022
1772819360940368400,4.534368408203125,-0.007046990562230349,0.015051387250423431,0.005034173373132944
1772819360950433300,4.544433349609375,-0.012173575349152088,0.016439693048596382,0.007517837453633547
1772819360960498400,4.55449853515625,-0.009280051104724407,0.01264016143977642,0.00242107966914773
1772819360970563300,4.564563232421875,-0.01161644235253334,0.011153851635754108,0.004195810295641422
1772819360980628200,4.574628173828125,-0.00720571493729949,0.004954544827342033,-0.00021225394448265433
1772819360990692400,4.5846923828125,-0.0052229915745556355,-0.005629922728985548,0.0024554345291107893
1772819361000757200,4.59475732421875,-0.0008823052630759776,-0.015181083232164383,-0.002725212834775448
1772819361010822400,4.604822509765625,-0.00253453035838902,-0.016097476705908775,-0.005284510552883148
1772819361020887300,4.61488720703125,-0.002409095410257578,-0.01056369487196207,-0.0051276502199471
1772819361030952200,4.6249521484375,-0.006654440425336361,-0.004379302263259888,-0.000672448193654418
1772819361041017300,4.635017333984375,-0.004984638653695583,0.002712962217628956,0.001353418454527855
1772819361051082500,4.64508251953125,-0.004770520608872175,0.004781173076480627,0.0014961638953536749
1772819361061147100,4.655147216796875,0.0019350528018549085,0.0037824877072125673,0.0039116512052714825
1772819361071212300,4.66521240234375,0.003861849894747138,0.008959672413766384,0.014650048688054085
1772819361081277400,4.67527734375,0.004537227563560009,0.00947978813201189,0.019397400319576263
1772819361091341300,4.68534130859375,0.006358030717819929,0.005336708389222622,0.023138342425227165
1772819361101406200,4.69540625,0.005049353465437889,0.0026106967125087976,0.018630675971508026
1772819361111471400,4.705471435546875,0.0064951833337545395,0.0006231797160580754,0.010640127584338188
1772819361121536300,4.715536376953125,0.00583738274872303,0.0007661914569325745,0.009317335672676563
1772819361131601400,4.725601318359375,0.007851265370845795,0.012857741676270962,0.012345349416136742
1772819361141666300,4.735666259765625,0.006163353566080332,0.023730363696813583,0.012403938919305801
1772819361151731200,4.745731201171875,0.008581770583987236,0.021674135699868202,0.00746084563434124
1772819361161795300,4.75579541015625,0.004375840071588755,0.015195198357105255,-0.0024461133871227503
1772819361171860200,4.765860107421875,0.0005142564186826348,-0.0009914948605000973,-0.013874003663659096
1772819361181925400,4.77592529296875,-0.002670884132385254,-0.012776249088346958,-0.02534264139831066
1772819361191990300,4.785990234375,-0.00878923013806343,-0.018124409019947052,-0.02359294332563877
1772819361202055200,4.79605517578125,-0.005271993577480316,-0.01763305626809597,-0.016459133476018906
1772819361212120300,4.806120361328125,-0.0020535634830594063,-0.000005592638444795739,-0.0007363640470430255
1772819361222184400,4.816184326171875,0.006308229640126228,0.012251872569322586,0.009125853888690472
1772819361232249300,4.826249267578125,0.007890679873526096,0.02394101954996586,0.012113654054701328
1772819361242314200,4.836314208984375,0.010934406891465187,0.027819912880659103,0.011129883117973804
1772819361252379400,4.84637939453125,0.012330702506005764,0.02714347094297409,0.015629826113581657
1772819361262444300,4.8564443359375,0.005531918257474899,0.017341705039143562,0.0073042516596615314
1772819361272509400,4.866509521484375,0.007135141175240278,0.0006002765148878098,0.0029435919132083654
1772819361282574300,4.87657421875,0.003492469433695078,-0.011515242047607899,0.002310824813321233
1772819361292638200,4.88663818359375,-0.0003121224872302264,-0.014489194378256798,-0.004968126770108938
1772819361302703400,4.896703369140625,0.0025803367607295513,-0.008014250546693802,-0.006213687360286713
1772819361312768300,4.906768310546875,-0.004664260428398848,-0.009687514975667,-0.011739480309188366
1772819361322833400,4.91683349609375,-0.0012500877492129803,-0.0002985403698403388,-0.0107107013463974
1772819361332898300,4.926898193359375,0.002701510675251484,0.012533102184534073,-0.004947886802256107
1772819361342963200,4.936963134765625,-0.0005336974863894284,0.015196263790130615,0.0029052423778921366
1772819361353028400,4.9470283203125,0.0021435783710330725,0.014072143472731113,0.009558618068695068
1772819361363092500,4.957092529296875,-0.002621882129460573,0.021735921502113342,0.021152157336473465
1772819361373157400,4.967157470703125,0.004620584659278393,0.006106628105044365,0.014065219089388847
1772819361383222300,4.97722216796875,0.011141334660351276,0.008326639421284199,0.009082444943487644
1772819361393287400,4.987287353515625,0.00936101097613573,0.0068030450493097305,0.009733054786920547
1772819361403352300,4.997352294921875,0.0073226275853812695,0.006435795221477747,0.012582637369632721
1772819361413417200,5.007417236328125,0.007710650097578764,0.013259346596896648,0.01372326910495758
1772819361423482400,5.017482421875,0.004261590540409088,0.01937476359307766,0.012355735525488853
1772819361433546200,5.027546142578125,0.002755572786554694,0.012314190156757832,0.00845473725348711
1772819361443611400,5.037611328125,0.003976366017013788,0.0017797905020415783,-0.0003842941368930042
1772819361453676300,5.04767626953125,0.0007321029552258551,-0.004098338540643454,-0.0009976201690733433
1772819361463741200,5.0577412109375,-0.0009408948244526982,-0.0052022188901901245,-0.002740392694249749
1772819361473806300,5.067806396484375,-0.004583033733069897,0.002576342085376382,-0.005120193585753441
1772819361483871200,5.077871337890625,-0.004808337427675724,0.0070680296048521996,-0.0013632721966132522
1772819361493936400,5.087936279296875,0.003216033335775137,0.020368920639157295,0.005375856999307871
1772819361504000300,5.098000244140625,0.003228283952921629,0.02309732884168625,0.006127667147666216
1772819361514065200,5.108065185546875,0.0033566481433808804,0.023383619263768196,0.00941906776279211
1772819361524130300,5.11813037109375,-0.0030056436080485582,0.01865570992231369,0.013682789169251919
1772819361534195500,5.128195556640625,-0.0033217607997357845,0.012656939215958118,0.016506005078554153
1772819361544260400,5.13826025390625,-0.006585997529327869,0.008322644978761673,0.01654914952814579
1772819361554325200,5.1483251953125,-0.003528155852109194,0.010029997676610947,0.017139572650194168
1772819361564390400,5.158390380859375,-0.002636529505252838,0.010718690231442451,0.018665563315153122
1772819361574454300,5.168454345703125,-0.004065315239131451,0.007196926511824131,0.013818077743053436
1772819361584519400,5.17851953125,-0.005626194179058075,0.00680144689977169,0.011118963360786438
1772819361594584300,5.188584228515625,-0.004328169394284487,0.00999404489994049,0.009124522097408772
1772819361604649200,5.198649169921875,-0.007796670310199261,0.013394368812441826,0.0049406965263187885
1772819361614714400,5.20871435546875,-0.009103749878704548,0.01750549115240574,0.007727161981165409
1772819361624779300,5.218779296875,-0.010372745804488659,0.0162948165088892,0.008971656672656536
1772819361634844400,5.228844482421875,-0.011229218915104866,0.015367770567536354,-0.0011267834343016148
1772819361644908300,5.238908203125,-0.01088913343846798,0.008882973343133926,-0.01215759664773941
1772819361654973200,5.24897314453125,-0.012079033069312572,0.004249073565006256,-0.011716044507920742
1772819361665038300,5.259038330078125,-0.013175190426409245,0.004751345608383417,-0.012627111747860909
1772819361675103200,5.269103271484375,-0.01047208160161972,0.004881041590124369,-0.010389523580670357
1772819361685168400,5.27916845703125,-0.010922955349087715,0.0026581010315567255,-0.0051710596308112144
1772819361695233000,5.28923291015625,-0.010320281609892845,0.00818203017115593,-0.0051990230567753315
1772819361705298200,5.299298095703125,-0.010612962767481804,0.01414351537823677,-0.005584915168583393
1772819361715362000,5.309362060546875,-0.008168181404471397,0.01745595596730709,-0.005303418729454279
1772819361725427200,5.31942724609375,-0.007879494689404964,0.019193135201931,-0.007029147353023291
1772819361735492400,5.329492431640625,-0.008014516904950142,0.01926557347178459,-0.008680307306349277
1772819361745557000,5.339556884765625,-0.004590224474668503,0.013394368812441826,-0.01017034612596035
1772819361755622100,5.3496220703125,-0.002170742489397526,0.011626295745372772,-0.007929561659693718
1772819361765687300,5.359687255859375,0.0013701963471248746,0.014890532940626144,0.006475476082414389
1772819361775752200,5.369752197265625,-0.0031158984638750553,0.020078903064131737,0.020599018782377243
1772819361785816300,5.37981640625,-0.0019595539197325706,0.013480388559401035,0.01276000402867794
1772819361795881200,5.389881103515625,0.004335093777626753,0.016646621748805046,0.0040442761965096
1772819361805946000,5.399946044921875,0.0026487798895686865,0.015810122713446617,-0.001427720650099218
1772819361816011300,5.41001123046875,0.0033273533917963505,0.017541974782943726,-0.0008575378451496363
1772819361826076200,5.420076171875,0.002810700098052621,0.01836116425693035,0.004809668753296137
1772819361836141000,5.43014111328125,0.0005291700945235789,0.016204269602894783,0.004089550115168095
1772819361846206200,5.440206298828125,0.003334810258820653,0.00663499953225255,0.0033041839487850666
1772819361856270000,5.45027001953125,0.002942526713013649,0.006835535634309053,0.0028698223177343607
1772819361866335200,5.460335205078125,0.0029979203827679157,0.00440939562395215,-0.002639192622154951
1772819361876400000,5.470400146484375,0.0024716798216104507,0.009021458216011524,-0.0028751487843692303
1772819361886465000,5.480465087890625,-0.0015566176734864712,0.010371946729719639,-0.0028210864402353764
1772819361896530200,5.4905302734375,0.0007590008899569511,0.022216888144612312,0.004659200087189674
1772819361906595300,5.50059521484375,0.0038426751270890236,0.03592311218380928,0.014576545916497707
1772819361916660000,5.510659912109375,-0.0008945558220148087,0.03418593481183052,0.016621587797999382
1772819361926725000,5.52072509765625,-0.004711398389190435,0.027425233274698257,0.012195945717394352
1772819361936789200,5.530789306640625,-0.0026016421616077423,0.023380955681204796,0.0022956449538469315
1772819361946854100,5.540854248046875,-0.006485063582658768,0.028681712225079536,-0.0017901768442243338
1772819361956919300,5.550919189453125,-0.012410863302648067,0.02389388158917427,-0.012665195390582085
1772819361966984200,5.560984130859375,-0.008327704854309559,0.012623650021851063,-0.025833727791905403
1772819361977049000,5.571049072265625,-0.0065375277772545815,0.0013880395563319325,-0.0348205640912056
1772819361987114200,5.5811142578125,-0.0017843178939074278,0.005632319487631321,-0.02851659618318081
1772819361997179400,5.591179443359375,-0.0038064562249928713,0.014187990687787533,-0.024507207795977592
1772819362007243300,5.6012431640625,-0.002865028567612171,0.01913134939968586,-0.023549268022179604
1772819362017308200,5.61130810546875,-0.002428004052489996,0.025123462080955505,-0.026285134255886078
1772819362027373000,5.621373046875,-0.0049585397355258465,0.02828223817050457,-0.025228124111890793
1772819362037438200,5.631438232421875,-0.005628857295960188,0.02478231117129326,-0.022036060690879822
1772819362047503400,5.64150341796875,-0.002578738844022155,0.019752932712435722,-0.013194898143410683
1772819362057568000,5.651568115234375,0.0014652712270617485,0.019391007721424103,-0.004792624618858099
1772819362067633200,5.661633056640625,0.00250523560680449,0.00872345082461834,-0.0012383698485791683
1772819362077697300,5.671697265625,-0.0016250609187409282,0.007322361227124929,-0.010247843340039253
1772819362087762200,5.68176220703125,-0.003612311789765954,0.006299441214650869,-0.020376378670334816
1772819362097827000,5.6918271484375,-0.014021010138094425,0.006120210513472557,-0.02785133756697178
1772819362107892200,5.701892333984375,-0.01654062792658806,0.007111971732228994,-0.03404345363378525
1772819362117957000,5.71195703125,-0.016156066209077835,0.016271380707621574,-0.028110463172197342
1772819362128022300,5.722022216796875,-0.013816745951771736,0.022177208214998245,-0.01942482963204384
1772819362138087200,5.732087158203125,-0.01022733747959137,0.025135446339845657,-0.012350142933428288
1772819362148151000,5.742151123046875,-0.0028668928425759077,0.02720418944954872,-0.004581968765705824
1772819362158216200,5.75221630859375,0.0027864654548466206,0.025021463632583618,0.003948935307562351
1772819362168281000,5.762281005859375,0.0030858046375215054,0.02544650435447693,0.005707953125238419
1772819362178346200,5.77234619140625,0.0019531622529029846,0.021708490327000618,0.010064885020256042
1772819362188411100,5.7824111328125,-0.0002623213513288647,0.027106452733278275,0.009102684445679188
1772819362198476000,5.79247607421875,-0.002290318487212062,0.026556244120001793,0.003367567202076316
1772819362208541200,5.802541259765625,-0.0091732582077384,0.02142166905105114,-0.005707953125238419
1772819362218606300,5.8126064453125,-0.007836617529392242,0.012345349416136742,-0.013159478083252907
1772819362228670200,5.822670166015625,-0.002225070958957076,0.0005017395596951246,-0.018129203468561172
1772819362238735000,5.832735107421875,-0.004758269991725683,-0.0011491540353745222,-0.013712350279092789
1772819362248800300,5.84280029296875,-0.0013755226973444223,-0.0007848335662856698,-0.012750149704515934
1772819362258865200,5.852865234375,-0.001330249011516571,0.006779076531529427,-0.008067513816058636
1772819362268930300,5.862930419921875,-0.0010847054654732347,0.011833223514258862,-0.003980094101279974
1772819362278995200,5.8729951171875,-0.00586667750030756,0.018315890803933144,-0.011034275405108929
1772819362289060000,5.88306005859375,-0.005648031830787659,0.02719540148973465,-0.01338957529515028
1772819362299124200,5.893124267578125,-0.00869229156523943,0.02689819224178791,-0.017952369526028633
1772819362309189000,5.903189208984375,-0.006203301250934601,0.023624369874596596,-0.018266888335347176
1772819362319254300,5.913254150390625,-0.0075607141479849815,0.032454878091812134,-0.007380684372037649
1772819362329319200,5.923319091796875,-0.004479969386011362,0.033484455198049545,-0.004701544530689716
1772819362339384000,5.933384033203125,-0.0046424223110079765,0.022672556340694427,0.0008548747282475233
1772819362349449200,5.94344921875,-0.011347996070981026,0.008084557950496674,-0.005310609471052885
1772819362359514000,5.95351416015625,-0.018691129982471466,0.004904477391391993,-0.01218449417501688
1772819362369579000,5.9635791015625,-0.023388946428894997,0.01065237820148468,-0.018640263006091118
1772819362379643100,5.97364306640625,-0.025594042614102364,0.016578443348407745,-0.017907893285155296
1772819362389708300,5.983708251953125,-0.025556758046150208,0.020656010136008263,-0.020964670926332474
1772819362399773200,5.993773193359375,-0.02268640324473381,0.021630726754665375,-0.017102021723985672
1772819362409838000,6.003838134765625,-0.017226124182343483,0.023750336840748787,-0.008851548656821251
1772819362419903200,6.0139033203125,-0.014811969362199306,0.028132036328315735,-0.00478463526815176
1772819362429968100,6.023968017578125,-0.010066482238471508,0.024837706238031387,-0.0008250473183579743
1772819362440033300,6.034033203125,-0.013055347837507725,0.021210214123129845,-0.003753991797566414
1772819362450097200,6.04409716796875,-0.01564527302980423,0.008084025233983994,-0.009619337506592274
1772819362460162000,6.054162109375,-0.01630973070859909,0.012851616367697716,-0.010872621089220047
1772819362470227200,6.064227294921875,-0.01938568241894245,0.018544655293226242,-0.005558816250413656
1772819362480292000,6.0742919921875,-0.01847914233803749,0.025905100628733635,-0.0004980111261829734
1772819362490357200,6.084357177734375,-0.015326225198805332,0.026439862325787544,0.006331665441393852
1772819362500422100,6.094422119140625,-0.010559167712926865,0.030586138367652893,0.007509848102927208
1772819362510487000,6.104487060546875,-0.009269132278859615,0.02917972393333912,0.005300489254295826
1772819362520551200,6.11455126953125,-0.009800166822969913,0.019406720995903015,-0.000958205375354737
1772819362530616300,6.1246162109375,-0.013287043198943138,0.02010233886539936,-0.010122941806912422
1772819362540681200,6.13468115234375,-0.018251175060868263,0.02165842428803444,-0.016504142433404922
1772819362550746000,6.14474609375,-0.01768312230706215,0.019846942275762558,-0.021040037274360657
1772819362560811300,6.154811279296875,-0.020295152440667152,0.021508486941456795,-0.020266655832529068
1772819362570876200,6.164876220703125,-0.020484501495957375,0.025003619492053986,-0.017941981554031372
1772819362580941300,6.17494140625,-0.021979866549372673,0.014194648712873459,-0.017316406592726707
1772819362591006200,6.185006103515625,-0.019713783636689186,0.009343700483441353,-0.005845372099429369
1772819362601070000,6.195070068359375,-0.01575872302055359,0.017368070781230927,0.004405667539685965
1772819362611135200,6.20513525390625,-0.01101723127067089,0.020924456417560577,0.011082212440669537
1772819362621200100,6.2152001953125,-0.009608152322471142,0.012436961755156517,0.002305232221260667
1772819362631265300,6.225265380859375,-0.008332232013344765,0.008829444646835327,-0.0060270000249147415
1772819362641330200,6.235330078125,-0.009154615923762321,0.006533532869070768,-0.011392736807465553
1772819362651395000,6.24539501953125,-0.010100571438670158,0.014846590347588062,-0.013070528395473957
1772819362661460200,6.255460205078125,-0.010386328212916851,0.022877085953950882,-0.005614209920167923
1772819362671524400,6.2655244140625,-0.013488911092281342,0.024653414264321327,0.0018487664638087153
1772819362681590000,6.275590087890625,-0.005218996666371822,0.029774140566587448,0.007156978826969862
1772819362691655200,6.2856552734375,0.0011102718999609351,0.02816239558160305,0.016289491206407547
1772819362701720000,6.295719970703125,0.005505552981048822,0.021689848974347115,0.0161797683686018
1772819362711785000,6.305784912109375,0.006792392116039991,0.01236479077488184,0.019711652770638466
1772819362721850000,6.31585009765625,0.0010615360224619508,0.013883325271308422,0.014842329546809196
1772819362731915000,6.3259150390625,-0.008022773079574108,0.009610815905034542,0.008609999902546406
1772819362741980200,6.335980224609375,-0.010961304418742657,0.01816888339817524,-0.0015592807903885841
1772819362752044300,6.346044189453125,-0.01492089219391346,0.02810860052704811,-0.012044412083923817
1772819362762109000,6.35610888671875,-0.013950436376035213,0.024921061471104622,-0.026018550619482994
1772819362772174000,6.366174072265625,-0.016344085335731506,0.014358699321746826,-0.028444424271583557
1772819362782239200,6.3762392578125,-0.010506702587008476,-0.004714327864348888,-0.0276233721524477
1772819362792304000,6.38630419921875,-0.005596366710960865,-0.01085903961211443,-0.028371453285217285
1772819362802369000,6.396369140625,-0.004332696553319693,-0.001977929612621665,-0.01871243491768837
1772819362812434200,6.40643408203125,-0.002728408435359597,0.006930610164999962,-0.008872587233781815
1772819362822499000,6.4164990234375,0.004652009811252356,0.020899688825011253,-0.0022714100778102875
1772819362832563200,6.426563232421875,0.0010431602131575346,0.030132602900266647,-0.0025033713318407536
1772819362842628000,6.436628173828125,-0.002784601179882884,0.026805248111486435,-0.0041100564412772655
1772819362852693000,6.44669287109375,-0.0073255570605397224,0.01979873888194561,-0.00899589154869318
1772819362862758100,6.456758056640625,-0.006132461130619049,0.011789281852543354,-0.015931028872728348
1772819362872823000,6.466822998046875,-0.007707720622420311,0.010566357523202896,-0.013525130227208138
1772819362882888200,6.47688818359375,-0.006885336712002754,0.005321528296917677,-0.013132579624652863
1772819362892953000,6.486953125,-0.0049135321751236916,0.005209675524383783,-0.008470184169709682
1772819362903018000,6.49701806640625,-0.006444317288696766,0.01167583093047142,0.0025121597573161125
1772819362913082000,6.50708203125,-0.007236873731017113,0.02142592892050743,0.00691942498087883
1772819362923147300,6.517147216796875,-0.0046173888258636,0.03417927399277687,0.005893575493246317
1772819362933212200,6.527212158203125,-0.007305583450943232,0.02887985110282898,0.005143096670508385
1772819362943277000,6.537277099609375,-0.0017235978739336133,0.014403972774744034,0.0006657902849838138
1772819362953342200,6.54734228515625,-0.003912982530891895,0.010361294262111187,-0.0032589102629572153
1772819362963407000,6.557406982421875,-0.0017190704820677638,0.003970507066696882,0.001071123406291008
1772819362973472000,6.567471923828125,-0.005629656370729208,-0.002835467690601945,0.00005619269722956233
1772819362983536000,6.5775361328125,-0.009559416212141514,-0.003868241561576724,-0.0026735474821180105
1772819362993601000,6.58760107421875,-0.00794127956032753,0.009004680439829826,-0.007955394685268402
1772819363003666200,6.597666259765625,-0.005903162993490696,0.015224759466946125,-0.015540876425802708
1772819363013731000,6.60773095703125,-0.008191617205739021,0.019293537363409996,-0.020983844995498657
1772819363023796000,6.6177958984375,-0.01101723127067089,0.018282068893313408,-0.0249069482088089
1772819363033861000,6.627861083984375,-0.011700598523020744,0.016944628208875656,-0.027105653658509254
1772819363043926000,6.637926025390625,-0.012985573150217533,0.013895309530198574,-0.023323964327573776
1772819363053991200,6.6479912109375,-0.01131177693605423,0.00032890037982724607,-0.017004016786813736
1772819363064055300,6.65805517578125,-0.004473844077438116,0.013350159861147404,-0.004194744862616062
1772819363074120000,6.668119873046875,-0.01158634852617979,0.012316853739321232,-0.0044014062732458115
1772819363084185000,6.67818505859375,-0.0012937636347487569,0.004291151650249958,-0.01188089419156313
1772819363094250200,6.688250244140625,-0.005301288329064846,0.01623755879700184,-0.012227904051542282
1772819363104315100,6.698315185546875,-0.0025718146935105324,0.028017519041895866,-0.00703793577849865
1772819363114380000,6.708380126953125,0.00022264027211349458,0.03760676458477974,-0.003849865635856986
1772819363124445200,6.718445068359375,-0.0007488809060305357,0.03175606578588486,0.007679757662117481
1772819363134509000,6.728509033203125,0.005817142780870199,0.021809957921504974,0.014142450876533985
1772819363144574200,6.73857421875,0.006827812176197767,0.015172561630606651,0.018917765468358994
1772819363154639000,6.74863916015625,0.006037386134266853,0.012343484908342361,0.0169715266674757
1772819363164704000,6.7587041015625,-0.00133877107873559,0.0012934972764924169,0.008767392486333847
1772819363174769200,6.76876904296875,0.0013398362789303064,-0.00196354859508574,0.005225654691457748
1772819363184834000,6.778833984375,-0.00035233621019870043,0.0058080879971385,0.009468336589634418
1772819363194899200,6.788899169921875,-0.0025545042008161545,0.005205947440117598,0.010636664927005768
1772819363204963300,6.79896337890625,-0.00754899624735117,0.007059507537633181,0.013411412946879864
1772819363215028000,6.809028076171875,-0.008333297446370125,0.012707805261015892,0.01435310672968626
1772819363225093000,6.819093017578125,-0.006986802909523249,0.016565926373004913,0.013747503980994225
1772819363235158300,6.829158203125,-0.007634750101715326,0.023986026644706726,0.01636832021176815
1772819363245223200,6.83922314453125,-0.006677077617496252,0.016566991806030273,0.009802296757698059
1772819363255288000,6.8492880859375,-0.004265851341187954,0.015103052370250225,0.005687180440872908
1772819363265353200,6.859353271484375,-0.0010852381819859147,0.014562164433300495,0.00666482700034976
1772819363275418000,6.869418212890625,-0.0017214673571288586,0.01525565143674612,0.0010436928132548928
1772819363285482200,6.879482177734375,-0.0032621060963720083,0.011893677525222301,-0.002454369328916073
1772819363295547100,6.889547119140625,-0.004071174189448357,0.008165251463651657,-0.0012961605098098516
1772819363305612000,6.899612060546875,-0.004232029430568218,0.010025469586253166,-0.00012250541476532817
1772819363315677200,6.90967724609375,-0.0010873686987906694,0.007285343483090401,-0.002171807922422886
1772819363325742000,6.9197421875,-0.00472657848149538,0.0065010422840714455,-0.007703459821641445
1772819363335807000,6.929806884765625,-0.008012119680643082,0.006404635962098837,-0.011485947296023369
1772819363345872100,6.9398720703125,-0.008263256400823593,0.005359877832233906,-0.015923839062452316
1772819363355936000,6.94993603515625,-0.007034739945083857,0.012211925350129604,-0.015683354809880257
1772819363366001200,6.960001220703125,-0.0075668394565582275,0.012507801875472069,-0.012374910525977612
1772819363376066300,6.97006640625,-0.008158594369888306,0.009811352007091045,-0.011721637099981308
1772819363386131000,6.980130859375,-0.006800381932407618,0.008594552986323833,-0.005559881217777729
1772819363396196000,6.990196044921875,-0.002764361212030053,0.006411826703697443,-0.008265919052064419
1772819363406261200,7.00026123046875,-0.00558198569342494,0.011835088022053242,-0.007459514308720827
1772819363416326100,7.010326171875,-0.005632852204144001,0.01781894452869892,-0.010580739006400108
1772819363426390300,7.020390380859375,0.0001680454588495195,0.01835237629711628,-0.005644835997372866
1772819363436455000,7.030454833984375,-0.001832787413150072,0.019471436738967896,-0.0006559365428984165
1772819363446520000,7.04052001953125,0.0010282464791089296,0.021193435415625572,0.0023273364640772343
1772819363456585200,7.050585205078125,0.0033537186682224274,0.01714862696826458,0.005361209623515606
1772819363466650000,7.060650146484375,0.002442385070025921,0.0062128882855176926,0.010832141153514385
1772819363476715000,7.070715087890625,0.0033569145016372204,0.005615541245788336,0.01010829396545887
1772819363486780200,7.0807802734375,0.003907656297087669,0.0018271948210895061,0.0104739461094141
1772819363496844000,7.090843994140625,0.0038011297583580017,-0.0029087045695632696,0.011181548237800598
1772819363506909200,7.1009091796875,0.00043995422311127186,-0.006624347064644098,0.005636846646666527
1772819363516974300,7.110974365234375,-0.006323676090687513,0.0044322991743683815,0.005329251755028963
1772819363527039000,7.1210390625,-0.007838482037186623,0.011748534627258778,-0.00367170013487339
1772819363537104100,7.131104248046875,-0.012497415766119957,0.01296506728976965,-0.006806773599237204
1772819363547169300,7.141169189453125,-0.01031575445085764,0.008130097761750221,-0.00947845634073019
1772819363557234200,7.151234130859375,-0.008787899278104305,0.0031941954512149096,-0.003996872343122959
1772819363567298000,7.161298095703125,-0.007903729565441608,0.010047041811048985,0.0017536915838718414
1772819363577363000,7.171363037109375,-0.0015728629659861326,0.013472133316099644,0.006773750297725201
1772819363587428000,7.181427978515625,-0.003810983384028077,0.018207766115665436,0.012259862385690212
1772819363597493200,7.1914931640625,-0.0073564499616622925,0.0212408397346735,0.007920240983366966
1772819363607558000,7.201557861328125,-0.012449212372303009,0.02592534013092518,-0.0012687299167737365
1772819363617623000,7.211623046875,-0.01101616583764553,0.020126573741436005,-0.012051070109009743
1772819363627688200,7.221688232421875,-0.008748217485845089,0.004850947763770819,-0.026378344744443893
1772819363637752000,7.231751953125,-0.0039854203350842,-0.011200456880033016,-0.030549919232726097
1772819363647817200,7.241817138671875,-0.0016764599131420255,-0.018793661147356033,-0.025195101276040077
1772819363657882000,7.251882080078125,0.0017214673571288586,-0.013913152739405632,-0.01404631044715643
1772819363667947000,7.261947021484375,0.0075780246406793594,-0.0018972359830513597,-0.0027893949300050735
1772819363678011100,7.27201123046875,0.005934854503720999,0.015264173969626427,-0.0033369408920407295
1772819363688076000,7.282075927734375,0.0038836877793073654,0.028206070885062218,-0.003838147735223174
1772819363698141200,7.29214111328125,0.004745220299810171,0.03231799229979515,-0.008185491897165775
1772819363708205000,7.302205078125,-0.0009661948424763978,0.024046214297413826,-0.00558251840993762
1772819363718270000,7.31227001953125,0.0009827064350247383,0.011579424142837524,-0.007513576187193394
1772819363728335000,7.322335205078125,-0.004110322799533606,0.0046240463852882385,-0.004484497010707855
1772819363738400000,7.33239990234375,-0.011865181848406792,-0.007278419099748135,-0.008934639394283295
1772819363748465200,7.342465087890625,-0.015032478608191013,-0.005152151454240084,-0.007504255045205355
1772819363758530000,7.352530029296875,-0.013148026540875435,-0.004745753016322851,-0.002837598090991378
1772819363768595000,7.362594970703125,-0.008772186003625393,0.002148372121155262,0.0024714134633541107
1772819363778659000,7.3726591796875,-0.010000170208513737,0.00902944803237915,0.004369714763015509
1772819363788724200,7.38272412109375,-0.011885421350598335,0.019089005887508392,0.008466455154120922
1772819363798789000,7.3927890625,-0.012967197224497795,0.017792845144867897,0.008374043740332127
1772819363808854000,7.40285400390625,-0.007310110609978437,0.021169466897845268,0.005074386950582266
1772819363818919200,7.412919189453125,-0.006970291491597891,0.02069808728992939,0.00281975488178432
1772819363828984000,7.422984130859375,-0.005824865773320198,0.020601680502295494,0.0022242721170186996
1772819363839048200,7.433048095703125,-0.0017915084026753902,0.010588462464511395,0.0015052186790853739
1772819363849113000,7.443113037109375,-0.000022903184799361043,0.009442237205803394,0.00048363005043938756
1772819363859178000,7.453177978515625,0.002609365154057741,0.015872972086071968,0.0031824775505810976
1772819363869243100,7.4632431640625,0.005314870737493038,0.019115105271339417,0.00561181316152215
1772819363879308000,7.47330810546875,0.003882888937368989,0.019166503101587296,-0.00034727618913166225
1772819363889373200,7.483373291015625,0.003942809998989105,0.0041302964091300964,-0.007846205495297909
1772819363899438000,7.49343798828125,0.0024434502702206373,-0.003023220458999276,-0.016581906005740166
1772819363909502000,7.503501953125,-0.0016732640797272325,-0.00580888707190752,-0.021397966891527176
1772819363919567000,7.513567138671875,-0.005899700801819563,-0.01095491275191307,-0.015231151133775711
1772819363929632300,7.52363232421875,-0.005959355738013983,-0.0016799219883978367,-0.008768990635871887
1772819363939697200,7.533697265625,-0.009040633216500282,0.011608452536165714,-0.002980876248329878
1772819363949762000,7.543761962890625,-0.00523604080080986,0.01678031124174595,-0.004116448108106852
1772819363959827200,7.5538271484375,-0.004030161537230015,0.018623219802975655,-0.004541222471743822
1772819363969892000,7.56389208984375,-0.0052363071590662,0.01799311488866806,-0.008356466889381409
1772819363979956200,7.573956298828125,-0.005757754202932119,0.0173861812800169,-0.007872037589550018
1772819363990020900,7.584020751953125,-0.0040855552069842815,0.016570987179875374,-0.0017861821688711643
1772819364000086000,7.5940859375,-0.009015599265694618,0.005458681378513575,0.00040559942135587335
1772819364010151200,7.604151123046875,-0.007711182814091444,0.00538544449955225,0.000589091214351356
1772819364020216000,7.614216064453125,-0.0070374030619859695,0.008622516877949238,-0.004758003633469343
1772819364030281000,7.624281005859375,-0.00960016343742609,0.00361790438182652,-0.011350658722221851
1772819364040345000,7.634344970703125,-0.010575146414339542,0.005061337724328041,-0.01170326117426157
1772819364050410000,7.644409912109375,-0.011275025084614754,0.004004861693829298,-0.015032744966447353
1772819364060475100,7.65447509765625,-0.010134926065802574,0.004686364438384771,-0.01116184052079916
1772819364070540300,7.664540283203125,-0.010047308169305325,0.008596950210630894,-0.00657614367082715
1772819364080605000,7.67460498046875,-0.009592173621058464,0.010788465850055218,-0.00013502225920092314
1772819364090670000,7.684670166015625,-0.008773251436650753,0.0062368568032979965,0.006170011591166258
1772819364100734000,7.69473388671875,-0.007643005810678005,0.0073141055181622505,0.01152616087347269
1772819364110799000,7.704799072265625,-0.00609251344576478,0.009273393079638481,0.016292953863739967
1772819364120864300,7.7148642578125,-0.005935653578490019,0.010728011839091778,0.022707177326083183
1772819364130929000,7.724928955078125,-0.0076422072015702724,0.0033806166611611843,0.021807827055454254
1772819364140994000,7.734994140625,-0.007595601491630077,-0.0008037420338951051,0.016766728833317757
1772819364151059200,7.74505908203125,-0.007220895029604435,0.0031973912846297026,0.01483700331300497
1772819364161124000,7.7551240234375,-0.009461412206292152,0.003593403147533536,0.012436696328222752
1772819364171188200,7.765188232421875,-0.009769273921847343,0.008364723064005375,0.009070727042853832
1772819364181253000,7.775253173828125,-0.01648709736764431,0.0010644654976204038,0.0018034926615655422
1772819364191318000,7.785318115234375,-0.021132981404662132,-0.008921056985855103,0.0001131843455368653
1772819364201383200,7.795383056640625,-0.0219724103808403,-0.0054943677969276905,-0.006907440721988678
1772819364211448300,7.8054482421875,-0.022427277639508247,-0.003988616168498993,-0.012042813934385777
1772819364221513000,7.815512939453125,-0.016174709424376488,0.00014274542627390474,-0.009947705082595348
1772819364231577000,7.8255771484375,-0.011602593585848808,0.003055711043998599,-0.016293220221996307
1772819364241642000,7.83564208984375,-0.0076059880666434765,0.003989947959780693,-0.018396317958831787
1772819364251707100,7.84570703125,-0.007422229740768671,0.009737315587699413,-0.01537602674216032
1772819364261772000,7.85577197265625,-0.0033992587123066187,0.014132063835859299,-0.0059748017229139805
1772819364271837000,7.8658369140625,0.0019499665359035134,0.021436316892504692,0.0021904499735683203
1772819364281902000,7.875902099609375,0.004033890087157488,0.020007530227303505,0.015989884734153748
1772819364291966200,7.88596630859375,0.013009541667997837,0.020554011687636375,0.01900511607527733
1772819364302031000,7.896031005859375,0.014850052073597908,0.016830911859869957,0.017489245161414146
1772819364312096000,7.906095947265625,0.014479872770607471,0.015362444333732128,0.01495498139411211
1772819364322161200,7.9161611328125,0.014727014116942883,0.01013945322483778,0.012266519479453564
1772819364332226000,7.92622607421875,0.013453757390379906,0.009272860363125801,0.013774667866528034
1772819364342291200,7.936291259765625,0.01290381420403719,0.007890946231782436,0.012615660205483437
1772819364352356000,7.946356201171875,0.010684335604310036,-0.0002692455891519785,0.011710984632372856
1772819364362420000,7.956419921875,0.009276056662201881,-0.003180613275617361,0.005277319811284542
1772819364372485000,7.966485107421875,0.006749781779944897,-0.001916410750709474,-0.00037230990710668266
1772819364382550000,7.976550048828125,0.006750847212970257,-0.0033593112602829933,0.005715409759432077
1772819364392615200,7.986615234375,0.008375375531613827,-0.005374791566282511,0.010490457527339458
1772819364402680000,7.99668017578125,0.013982927426695824,-0.0057284594513475895,0.017709488049149513
1772819364412744000,8.006743896484375,0.01164280716329813,0.000761664065066725,0.019158247858285904
1772819364422809000,8.01680908203125,0.01092588435858488,0.003721767570823431,0.01828552968800068
1772819364432874200,8.026874267578124,0.007967911660671234,0.004056260455399752,0.01239541731774807
1772819364442939100,8.036939208984375,-0.0003115898580290377,0.0014793860027566552,-0.000054328484111465514
1772819364453004000,8.047004150390626,0.0028482507914304733,-0.0022325278259813786,-0.001835716888308525
1772819364463068000,8.05706787109375,0.007858721539378166,-0.00024740767548792064,-0.003623230615630746
1772819364473133000,8.067133056640625,0.002772616920992732,0.0001483380765421316,0.005785451270639896
1772819364483198200,8.0771982421875,0.007663512136787176,0.005042961798608303,0.011965849436819553
1772819364493263000,8.08726318359375,0.005049619823694229,0.017112141475081444,0.017014669254422188
1772819364503328000,8.097327880859375,0.005311408545821905,0.014913968741893768,0.014998923055827618
1772819364513393200,8.10739306640625,0.007798268459737301,0.0060080913826823235,0.0003515372518450022
1772819364523457000,8.11745703125,0.002409894485026598,-0.004455734975636005,-0.016934242099523544
1772819364533522200,8.127522216796875,-0.00018748654110822827,-0.013512879610061646,-0.03532443568110466
1772819364543587300,8.13758740234375,-0.001442900625988841,-0.019628828391432762,-0.03627598285675049
1772819364553652000,8.14765185546875,-0.003964914008975029,-0.014698252081871033,-0.021348431706428528
1772819364563717000,8.157717041015625,-0.006910636555403471,0.008932508528232574,0.0011664645280689
1772819364573782300,8.1677822265625,-0.0017201356822624803,0.023725302889943123,0.0182903241366148
1772819364583846100,8.17784619140625,0.00011265171633567661,0.03394252061843872,0.02328934334218502
1772819364593911300,8.187911376953124,0.00011185276525793597,0.03424079343676567,0.024594558402895927
1772819364603976000,8.197975830078125,-0.0037286917213350534,0.019863186404109,0.020922591909766197
1772819364614041000,8.208041015625,-0.006490123458206654,0.00552259711548686,0.009503756649792194
1772819364624106200,8.218106201171874,-0.010573814623057842,0.0018333201296627522,0.005565207917243242
1772819364634171100,8.228171142578125,-0.013155216351151466,-0.004712196998298168,0.0015715312911197543
1772819364644235000,8.238235107421875,-0.0126406941562891,-0.00421205535531044,-0.005446430761367083
1772819364654300200,8.248300048828124,-0.01673290692269802,0.000013848437447450124,-0.009258479811251163
1772819364664365000,8.258364990234375,-0.012659869156777859,0.004299673717468977,-0.011411379091441631
1772819364674430200,8.26843017578125,-0.01206971239298582,0.003900199430063367,-0.017429590225219727
1772819364684495400,8.278495361328124,-0.010239055380225182,0.010520284995436668,-0.019523900002241135
1772819364694560500,8.288560546875,-0.005608084611594677,0.011616175994277,-0.01327079813927412
1772819364704624400,8.298624267578125,0.0013523531379178166,0.013590376824140549,0.0015614113071933389
1772819364714689500,8.308689453125,0.006412891671061516,0.016520919278264046,0.007407050114125013
1772819364724754400,8.31875439453125,0.008316786028444767,0.010881942696869373,0.01095411367714405
1772819364734819300,8.3288193359375,0.007512244861572981,0.014124341309070587,0.013784521259367466
1772819364744884500,8.338884521484376,0.0028301412239670753,0.02106587029993534,0.015994945541024208
1772819364754948400,8.3489482421875,-0.0002996056282427162,0.02870168536901474,0.01948794722557068
1772819364765013500,8.359013427734375,0.00012916330888401717,0.034457843750715256,0.014154168777167797
1772819364775078700,8.36907861328125,-0.002499376656487584,0.027474502101540565,0.007645668927580118
1772819364785143300,8.379143310546874,-0.00609251344576478,0.016410132870078087,0.0011800467036664486
1772819364795208400,8.38920849609375,-0.009840913116931915,0.00564164062961936,-0.0005728459218516946
1772819364805273600,8.399273681640626,-0.009709885343909264,0.004507400095462799,-0.0065324679017066956
1772819364815337500,8.40933740234375,-0.012563728727400303,-0.0017773937433958054,-0.009711217135190964
1772819364825402600,8.419402587890625,-0.013788250274956226,-0.010015349835157394,-0.01709243468940258
1772819364835467300,8.42946728515625,-0.015467905439436436,0.0029204224701970816,-0.022427277639508247
1772819364845532400,8.439532470703124,-0.013036706484854221,0.010579140856862068,-0.025051556527614594
1772819364855597600,8.44959765625,-0.009999104775488377,0.016585102304816246,-0.019822174683213234
1772819364865662500,8.459662353515625,-0.007262706756591797,0.02171514928340912,-0.00884755328297615
1772819364875726300,8.469726318359376,-0.0016080166678875685,0.02809262089431286,0.007005178835242987
1772819364885791500,8.47979150390625,0.00038269624928943813,0.029397036880254745,0.013056413270533085
1772819364895856400,8.4898564453125,0.006225671619176865,0.01853719912469387,0.012024438939988613
1772819364905921500,8.499921630859374,0.004541488364338875,0.01420610025525093,0.0031222901307046413
1772819364915986400,8.509986328125,0.0030775489285588264,0.013103551231324673,-0.0041465419344604015
1772819364926051300,8.52005126953125,0.0008183894096873701,0.01570838876068592,-0.004084756597876549
1772819364936115500,8.530115478515626,-0.0024173513520509005,0.0179331935942173,0.0008407599525526166
1772819364946180400,8.540180419921874,0.0012471582740545273,0.019635753706097603,0.000993625377304852
1772819364956245500,8.55024560546875,-0.0033846113365143538,0.01986877992749214,0.0013065468519926071
1772819364966310400,8.560310302734376,-0.0007115966291166842,0.015780294314026833,-0.001948634977452457
1772819364976375300,8.570375244140624,0.0008165251929312944,0.01290328148752451,-0.005859220866113901
1772819364986440400,8.5804404296875,0.00031132352887652814,0.009357282891869545,-0.005428054835647345
1772819364996504600,8.590504638671876,-0.002689792774617672,0.0037888791412115097,-0.0025278725661337376
1772819365006569500,8.600569580078124,-0.0016503608785569668,0.00845526996999979,0.0006165218073874712
1772819365016634400,8.61063427734375,-0.0013915016315877438,0.0161797683686018,0.0034498588647693396
1772819365026699500,8.620699462890625,-0.0032088428270071745,0.027456391602754593,0.005944175645709038
1772819365036764400,8.630764404296874,-0.004822452086955309,0.026504045352339745,-0.00008868326403899118
1772819365046829600,8.64082958984375,-0.00917379092425108,0.020309798419475555,-0.0038458709605038166
1772819365056893400,8.6508935546875,-0.01059325598180294,0.013681457377970219,-0.010962902568280697
1772819365066958300,8.660958251953126,-0.010003898292779922,0.017222663387656212,-0.00996288564056158
1772819365077023500,8.6710234375,-0.01330035924911499,0.02305365353822708,0.0007430219557136297
1772819365087088400,8.68108837890625,-0.006221144460141659,0.00729519734159112,-0.006423544604331255
1772819365097153500,8.691153564453124,0.0010050770360976458,0.012440424412488937,-0.0036394759081304073
1772819365107217400,8.701217529296875,-0.001957423286512494,0.0212421715259552,0.004511927254498005
1772819365117282300,8.7112822265625,-0.010875018313527107,0.016689231619238853,0.00030839405371807516
1772819365127347500,8.721347412109376,-0.012220446951687336,0.017426926642656326,-0.012584500946104527
1772819365137412600,8.73141259765625,-0.011546667665243149,0.02624198980629444,-0.009924801997840405
1772819365147477500,8.7414775390625,-0.009710151702165604,0.030764304101467133,-0.012351208366453648
1772819365157542400,8.75154248046875,-0.004117247182875872,0.029105154797434807,-0.006844324059784412
1772819365167606300,8.761606201171874,-0.003082342678681016,0.02129357121884823,-0.00854288786649704
1772819365177671400,8.77167138671875,-0.0018865832826122642,0.013770673424005508,-0.00896659679710865
1772819365187736600,8.781736572265626,-0.005020325072109699,0.003421895671635866,-0.012005530297756195
1772819365197801500,8.791801513671874,-0.007925567217171192,0.004628574009984732,-0.0073468624614179134
1772819365207866400,8.801866455078125,-0.015446600504219532,0.01474485732614994,0.003742806613445282
1772819365217931500,8.811931640625,-0.013726730830967426,0.028867334127426147,0.010298976674675941
1772819365227995400,8.821995361328124,-0.010032926686108112,0.03431509807705879,0.014518222771584988
1772819365238060500,8.832060546875,-0.00446958327665925,0.02959810569882393,0.008554073050618172
1772819365248125400,8.84212548828125,-0.004911401774734259,0.022582273930311203,0.0011382350930944085
1772819365258190300,8.8521904296875,-0.004058124963194132,0.0161837637424469,-0.001689775730483234
1772819365268255500,8.86225537109375,-0.0075750951655209064,0.013575996272265911,-0.007871771231293678
1772819365278320400,8.8723203125,-0.006658968050032854,0.014081730507314205,-0.0032599754631519318
1772819365288384500,8.882384521484376,-0.004033357370644808,0.019570238888263702,-0.0011566109023988247
1772819365298449400,8.892449462890625,-0.003629888640716672,0.019205918535590172,-0.004823251161724329
1772819365308514300,8.902514404296875,-0.0015707324491813779,0.020594490692019463,-0.008350874297320843
1772819365318579500,8.912579345703126,-0.00980602577328682,0.006629939656704664,-0.011470767669379711
1772819365328644600,8.92264453125,-0.01127875316888094,0.015250591561198235,-0.002763562137261033
1772819365338709200,8.932709228515625,-0.01125185564160347,0.03212571144104004,0.002573146251961589
1772819365348773400,8.9427734375,-0.013562680222094059,0.03509007766842842,0.005364405456930399
1772819365358838300,8.95283837890625,-0.008686965331435204,0.028174646198749542,-0.0005928196478635073
1772819365368903400,8.9629033203125,-0.008772985078394413,0.035227227956056595,-0.0006378270918503404
1772819365378968600,8.972968505859376,-0.013190636411309242,0.0351334847509861,-0.0044043357484042645
1772819365389033200,8.983033203125,-0.014675348997116089,0.021914353594183922,-0.0033720945939421654
1772819365399098400,8.993098388671875,-0.016867663711309433,0.00848589651286602,-0.005940447095781565
1772819365409162500,9.00316259765625,-0.009127452038228512,0.0010729875648394227,-0.0039116512052714825
1772819365419227400,9.013227294921874,-0.0016522251535207033,0.0029353362042456865,-0.0008583368035033345
1772819365429292500,9.02329248046875,0.005664810072630644,0.010065683163702488,0.0007603325066156685
1772819365439357400,9.033357421875,0.00566880451515317,0.018869295716285706,-0.002266616327688098
1772819365449422300,9.04342236328125,0.0081527354195714,0.027757328003644943,0.0009206547983922064
1772819365459487500,9.053487548828125,-0.0006186523241922259,0.032163262367248535,0.0007283745799213648
1772819365469551400,9.06355126953125,-0.0027915253303945065,0.020139357075095177,-0.0022711437195539474
1772819365479616500,9.073616455078126,-0.003513508476316929,0.015263907611370087,-0.009018261916935444
1772819365489681400,9.083681396484375,-0.0023060310631990433,0.005946039687842131,-0.015004515647888184
1772819365499746300,9.093746337890625,-0.00487251952290535,-0.0038549257442355156,-0.02201981469988823
1772819365509811500,9.1038115234375,-0.0049281795509159565,-0.00959616806358099,-0.019951071590185165
1772819365519876600,9.113876708984375,-0.00507092522457242,-0.00031851406674832106,-0.01158768031746149
1772819365529940500,9.1239404296875,-0.01372113823890686,0.014171745628118515,-0.004428037907928228
1772819365540005400,9.13400537109375,-0.021409684792160988,0.020025106146931648,-0.010221212171018124
1772819365550070500,9.144070556640624,-0.021160412579774857,0.03245195001363754,-0.014959774911403656
1772819365560135400,9.154135498046875,-0.020167319104075432,0.042693134397268295,-0.014111824333667755
1772819365570200300,9.164200439453126,-0.0174437053501606,0.0351976677775383,-0.018450912088155746
1772819365580265500,9.174265380859374,-0.008012119680643082,0.021699436008930206,-0.009426524862647057
1772819365590329300,9.184329345703125,0.0004814995336346328,0.01461835764348507,-0.0008516788948327303
1772819365600394500,9.19439453125,0.009224390611052513,0.010300574824213982,0.010957842692732811
1772819365610459400,9.20445947265625,0.013093964196741581,-0.00024394555657636374,0.014023407362401485
1772819365620524300,9.214524169921875,0.01817740499973297,-0.0009062737226486206,0.015539278276264668
1772819365630589400,9.22458935546875,0.01528601162135601,0.007148190401494503,0.00675351032987237
1772819365640654300,9.234654296875,0.01179221086204052,0.010757572948932648,0.0033190976828336716
1772819365650718500,9.244718505859375,0.00452790642157197,0.017225058749318123,-0.005578257143497467
1772819365660783600,9.25478369140625,0.0032735576387494802,0.007754858583211899,-0.008961803279817104
1772819365670848300,9.26484814453125,-0.0016074840677902102,0.0024197481106966734,-0.012041483074426651
1772819365680913400,9.274913330078125,-0.0018500980222597718,-0.0060264673084020615,-0.010850783437490463
1772819365690979600,9.2849794921875,-0.002222940558567643,-0.006245112512260675,-0.009882458485662937
1772819365701043500,9.29504345703125,-0.0022184131667017937,-0.0005728459218516946,0.002638659905642271
1772819365711108400,9.3051083984375,-0.0009723200928419828,0.010300308465957642,0.008093879558146
1772819365721173500,9.315173583984375,0.0011030812747776508,0.01594114862382412,0.014461496844887733
1772819365731238400,9.32523828125,0.002415753435343504,0.02347070537507534,0.016026103869080544
1772819365741303600,9.335303466796875,-0.00044022052315995097,0.03296034783124924,0.015927301719784737
1772819365751368400,9.345368408203125,-0.0014879080699756742,0.03698571398854256,0.022008895874023438
1772819365761433300,9.355433349609376,-0.0005826996639370918,0.03453267738223076,0.02141634188592434
1772819365771497500,9.36549755859375,0.004717257339507341,0.03322453051805496,0.017950238659977913
1772819365781562400,9.375562255859375,0.007652326952666044,0.022489329800009727,0.012941631488502026
1772819365791627500,9.38562744140625,0.00752103328704834,0.0117352195084095,0.006222209427505732
1772819365801692400,9.3956923828125,0.004995024763047695,0.0004924184759147465,-0.0008346347021870315
1772819365811757300,9.40575732421875,0.0057404437102377415,0.002439189236611128,-0.009622800163924694
1772819365821822500,9.415822509765626,0.0007334345718845725,0.009967945516109467,-0.023322366178035736
1772819365831886600,9.425886474609374,0.004261856433004141,0.012431102804839611,-0.027761323377490044
1772819365841951500,9.435951416015625,0.0019489012192934752,0.012634835205972195,-0.02780526503920555
1772819365852016400,9.446016357421875,-0.0006194512825459242,0.013461213558912277,-0.025419605895876884
1772819365862081500,9.45608154296875,-0.00003062635369133204,0.015156315639615059,-0.016318252310156822
1772819365872146400,9.466146484375,0.0011688614031299949,0.0038517299108207226,-0.013629525899887085
1772819365882211300,9.47621142578125,-0.0002402171230642125,0.0008010788587853312,-0.012166650965809822
1772819365892275500,9.486275390625,0.0020823257509618998,0.00577879324555397,-0.0076097166165709496
1772819365902340400,9.49634033203125,-0.0007555388147011399,0.009369000792503357,-0.004051200579851866
1772819365912405500,9.506405517578125,-0.0067902617156505585,0.0171414352953434,-0.003638144349679351
1772819365922470400,9.516470458984376,-0.004037085920572281,0.02911554090678692,0.004538292996585369
1772819365932535300,9.526535400390625,-0.006741526070982218,0.030772559344768524,0.00818016566336155
1772819365942600400,9.536600341796875,-0.004807005636394024,0.029647374525666237,0.00884835235774517
1772819365952664300,9.546664306640626,-0.004688494838774204,0.02154870145022869,0.014518755488097668
1772819365962729500,9.5567294921875,-0.004677043296396732,0.007053382229059935,0.00806218758225441
1772819365972794600,9.566794677734375,-0.0038722362369298935,0.0014154701493680477,0.0036669063847512007
1772819365982859300,9.576859375,-0.0037406759802252054,-0.0006207828409969807,-0.0015933692920953035
1772819365992924400,9.58692431640625,-0.007472563534975052,0.001323857344686985,-0.006075469311326742
1772819366002989600,9.596989501953125,-0.0075668394565582275,0.00600462919101119,-0.004603806417435408
1772819366013053400,9.607053466796875,-0.00808908510953188,0.013382384553551674,-0.005155880004167557
1772819366023118600,9.61711865234375,-0.004338555503636599,0.014786402694880962,-0.006469350773841143
1772819366033183200,9.627183349609375,-0.0031587753910571337,0.013216735795140266,-0.004457865376025438
1772819366043248400,9.637248291015625,-0.0028099012561142445,0.015459916554391384,0.0024700819049030542
1772819366053313500,9.6473134765625,-0.0046940878964960575,0.01474379189312458,0.005244829226285219
1772819366063378400,9.65737841796875,-0.0034847462084144354,0.020497817546129227,0.0019430422689765692
1772819366073443300,9.667443359375,-0.004160123877227306,0.0181739442050457,-0.004760933108627796
1772819366083507500,9.677507568359376,-0.0030746194534003735,0.013971475884318352,-0.007593204732984304
1772819366093572400,9.687572265625,-0.00544430036097765,0.012795424088835716,-0.011347463354468346
1772819366103637500,9.697637451171875,-0.0019973707385361195,0.016687633469700813,0.001454884884878993
1772819366113702700,9.70770263671875,-0.0013733921805396676,0.020925521850585938,0.015232215635478497
1772819366123767300,9.717767333984375,0.0028458540327847004,0.029440179467201233,0.01660880446434021
1772819366133832400,9.72783251953125,-0.002784601179882884,0.02749074622988701,0.014108095318078995
1772819366143896300,9.737896240234376,-0.007063501980155706,0.024082167074084282,0.005258677992969751
1772819366153961500,9.74796142578125,-0.010645986534655094,0.018144914880394936,-0.0019736685790121555
1772819366164026600,9.758026611328125,-0.009066198952496052,0.013383183628320694,-0.006588394287973642
1772819366174091300,9.76809130859375,-0.01062175165861845,0.014335796236991882,-0.000990695902146399
1772819366184156400,9.778156494140624,-0.008159658871591091,0.010399111546576023,-0.0034946000669151545
1772819366194221600,9.7882216796875,-0.007899735122919083,0.01587883196771145,0.0029739518649876118
1772819366204285400,9.798285400390625,-0.009613212198019028,0.015162707306444645,0.0006551376427523792
1772819366214350300,9.808350341796874,-0.008975918404757977,0.014705975539982319,0.005169994663447142
1772819366224415500,9.81841552734375,-0.010022540576756,0.018935341387987137,0.005086104851216078
1772819366234480400,9.82848046875,-0.012553342618048191,0.01829325407743454,-0.0023060310631990433
1772819366244545500,9.838545654296874,-0.0135656101629138,0.007159109693020582,-0.010671818628907204
1772819366254610400,9.8486103515625,-0.015180017799139023,0.008986837230622768,-0.0076150428503751755
1772819366264674300,9.85867431640625,-0.014608236961066723,0.011796738021075726,-0.003737214021384716
1772819366274739500,9.868739501953126,-0.011877964250743389,0.014896657317876816,0.0013009541435167193
1772819366284804400,9.878804443359375,-0.006603041663765907,0.018155034631490707,0.0065319351851940155
1772819366294869500,9.888869384765625,-0.005490106530487537,0.021983329206705093,0.010676879435777664
1772819366304934400,9.898934326171876,-0.005550027824938297,0.02183685638010502,0.007992679253220558
1772819366314999300,9.908999267578125,-0.007014233618974686,0.0324905663728714,0.0029196233954280615
1772819366325064400,9.919064453125,-0.010464891791343689,0.02761325240135193,-0.00446905056014657
1772819366335128600,9.929128662109376,-0.012168781831860542,0.02292049489915371,-0.01841575838625431
1772819366345193500,9.939193359375,-0.008228901773691177,0.004066114313900471,-0.021689049899578094
1772819366355258400,9.94925830078125,-0.005348692648112774,-0.009276323020458221,-0.02137133479118347
1772819366365323500,9.959323486328126,-0.0041465419344604015,-0.014001569710671902,-0.00987233780324459
1772819366375388400,9.969388427734375,-0.0009150621481239796,-0.011226821690797806,-0.0027385284192860126
1772819366385453600,9.97945361328125,-0.0020783308427780867,-0.0021968416403979063,0.002258893335238099
1772819366395517400,9.989517333984375,-0.0075937374494969845,0.01170592475682497,0.0021789984311908484
1772819366405582300,9.999582275390624,-0.002576075727120042,0.02641882374882698,-0.005251220893114805
1772819366415647500,10.0096474609375,-0.0008719189208932221,0.033256225287914276,-0.00863530021160841
1772819366425712400,10.01971240234375,-0.0019371833186596632,0.02365925721824169,-0.009846239350736141
1772819366435777500,10.029777587890624,0.0002271676348755136,0.009363674558699131,-0.004006725735962391
1772819366445842400,10.039842529296875,-0.0029731530230492353,0.002868490759283304,0.002287921728566289
1772819366455907300,10.0499072265625,-0.007989482954144478,0.0007107976707629859,0.004613660275936127
1772819366465971500,10.059971435546874,-0.009937318973243237,-0.005732986610382795,0.0009289105655625463
1772819366476036400,10.070036376953125,-0.00920335203409195,-0.00048416267964057624,0.003297259798273444
1772819366486101500,10.0801015625,-0.005304484162479639,0.013206616044044495,0.00452710734680295
1772819366496166400,10.09016650390625,-0.004281297791749239,0.018910307437181473,0.0070528495125472546
1772819366506231600,10.1002314453125,-0.004292749334126711,0.01721706986427307,0.00965928565710783
1772819366516296400,10.11029638671875,-0.0015965650090947747,0.02546008676290512,0.009958092123270035
1772819366526360600,10.120360595703126,-0.0005139900604262948,0.0256920475512743,0.010627876967191696
1772819366536425500,10.130425537109375,0.004957740660756826,0.023014770820736885,0.010118946433067322
1772819366546490400,10.140490478515625,0.0029265477787703276,0.014153636060655117,0.009560481645166874
1772819366556555500,10.150555419921876,0.0017994979862123728,0.009875800460577011,0.011898471042513847
1772819366566620400,10.160620361328125,0.0011741877533495426,0.005531385540962219,0.008172175846993923
1772819366576685300,10.170685302734375,-0.0018884475575760007,0.004884237423539162,0.00774607015773654
1772819366586750500,10.18075048828125,-0.0017451694002375007,0.009150088764727116,0.00529542937874794
1772819366596814300,10.190814453125,-0.0018820558907464147,0.007470699492841959,-0.00044607947347685695
1772819366606879500,10.20087939453125,-0.0018490327056497335,0.0030988543294370174,-0.010546650737524033
1772819366616944400,10.2109443359375,-0.0059779975563287735,0.002508165081962943,-0.012261725962162018
1772819366627009300,10.22100927734375,-0.010995925404131413,-0.005575594026595354,-0.018813900649547577
1772819366637074400,10.231074462890625,-0.009582852013409138,-0.006729808170348406,-0.011737349443137646
1772819366647139300,10.241139404296876,-0.008264055475592613,-0.0033212280832231045,-0.0057098171673715115
1772819366657203500,10.251203369140624,-0.009147957898676395,-0.0029177593532949686,-0.006596916355192661
1772819366667268600,10.2612685546875,-0.004957740660756826,-0.0007214503129944205,-0.004007524810731411
1772819366677333200,10.271333251953125,-0.0033068470656871796,0.005242432467639446,-0.00020985709852539003
1772819366687398000,10.28139794921875,-0.0029963224660605192,0.01744477078318596,0.008313589729368687
1772819366697463000,10.291463134765625,-0.0038362834602594376,0.02075108513236046,0.012892096303403378
1772819366707528000,10.30152783203125,-0.004840561654418707,0.020495422184467316,0.01732492819428444
1772819366717592800,10.3115927734375,-0.0030093719251453876,0.012140019796788692,0.017888452857732773
1772819366727657000,10.321656982421874,0.0003765709698200226,0.007782022934406996,0.015022358857095242
1772819366737721900,10.331721923828125,0.000046871635277057067,0.0035209653433412313,0.011856659315526485
1772819366747787000,10.341787109375,-0.000708134553860873,0.004491420928388834,0.011899270117282867
1772819366757852000,10.351851806640624,-0.0024224112275987864,0.004860002547502518,0.009268599562346935
1772819366767916800,10.361916748046875,-0.0006655239267274737,0.0028796761762350798,0.011737882159650326
1772819366777982000,10.37198193359375,-0.0027651600539684296,-0.00028096348978579044,0.014914234168827534
1772819366788046800,10.382046875,-0.004484230652451515,0.00023861923546064645,0.0116135124117136
1772819366798111000,10.392111083984375,-0.003707120195031166,0.0034946000669151545,0.01121909823268652
1772819366808176000,10.402176025390625,-0.004000067710876465,0.0031132353469729424,0.0054427022114396095
1772819366818240800,10.41224072265625,-0.0031795480754226446,0.007558317389339209,0.00003834952076431364
1772819366828306000,10.422305908203125,-0.006623015273362398,0.006162022240459919,-0.000016777914424892515
1772819366838371000,10.43237109375,-0.0009568737586960196,-0.0020181434229016304,-0.0023616913240402937
1772819366848436000,10.44243603515625,0.0046360306441783905,-0.0028655612841248512,-0.00022770027862861753
1772819366858500900,10.4525009765625,0.0067838700488209724,-0.00046605319948866963,0.0034439999144524336
1772819366868564700,10.462564697265625,0.007367102429270744,-0.002180063631385565,0.009177252650260925
1772819366878630000,10.4726298828125,0.008526642806828022,0.0009379653492942452,0.01587883196771145
1772819366888695000,10.482695068359375,0.009443302638828754,0.0037795582320541143,0.024114657193422318
1772819366898760000,10.492760009765625,0.010872621089220047,0.01130911335349083,0.031987760215997696
1772819366908824800,10.502824951171876,0.011951201595366001,0.017114538699388504,0.03387727215886116
1772819366918890000,10.512889892578125,0.005775064695626497,0.019477028399705887,0.027115773409605026
1772819366928955000,10.522954833984375,-0.0012173309223726392,0.013470002450048923,0.021346567198634148
1772819366939019000,10.53301904296875,-0.0026314693968743086,0.005056543741375208,0.016933709383010864
1772819366949084200,10.543084228515625,-0.004778243601322174,0.006399576086550951,0.015356851741671562
1772819366959148800,10.553148681640625,-0.001645567244850099,0.010496316477656364,0.00954077485948801
1772819366969214000,10.5632138671875,-0.0029949909076094627,0.00765925133600831,0.005392102058976889
1772819366979279000,10.573279052734375,-0.006185990758240223,0.007919708266854286,0.002062085550278425
1772819366989344000,10.583343994140625,-0.005976666230708361,0.001353418454527855,0.0019827233627438545
1772819366999409000,10.593408935546876,-0.0068302094005048275,-0.00567040266469121,-0.0037207023706287146
1772819367009472800,10.60347265625,-0.009646502323448658,-0.005920207127928734,-0.006326072849333286
1772819367019538000,10.613537841796875,-0.011577294208109379,-0.0021377194207161665,-0.00532605592161417
1772819367029603000,10.62360302734375,-0.0059540290385484695,0.0016383767360821366,-0.010321879759430885
1772819367039668000,10.63366796875,-0.005640575196594,0.0058094197884202,-0.01450091227889061
1772819367049732900,10.64373291015625,-0.0011709919199347496,0.002377670258283615,-0.018496984615921974
1772819367059798000,10.653798095703126,0.0012889700010418892,0.003209375310689211,-0.010625746101140976
1772819367069863000,10.66386279296875,-0.002688727341592312,0.011603392660617828,-0.004147873260080814
1772819367079927000,10.673927001953125,-0.004505802411586046,0.014170147478580475,0.0006679208017885685
1772819367089992000,10.683991943359375,-0.005107942968606949,0.008804410696029663,0.006779609248042107
1772819367100056800,10.694056884765626,0.0003376888344064355,0.017367538064718246,0.0049034119583666325
1772819367110122000,10.7041220703125,0.0018695390317589045,0.019996611401438713,0.005754292011260986
1772819367120187100,10.714187255859375,0.0028879318851977587,0.015366972424089909,0.0025598304346203804
1772819367130251800,10.724251708984376,0.005160140804946423,0.005375856999307871,0.0024703482631593943
1772819367140317000,10.73431689453125,0.003683151677250862,-0.003263437654823065,0.010065416805446148
1772819367150380800,10.744380859375,-0.0011382350930944085,0.001139566651545465,0.01848100684583187
1772819367160446000,10.754446044921876,-0.003020557342097163,-0.0028192223981022835,0.01793692260980606
1772819367170511000,10.764510986328125,-0.004042412154376507,-0.00138031633105129,0.012707805261015892
1772819367180575700,10.77457568359375,0.00005912217602599412,0.0037649108562618494,0.016713200137019157
1772819367190641000,10.784640869140626,0.0001960086519829929,0.0010410296963527799,0.012488627806305885
1772819367200706000,10.7947060546875,0.0009901633020490408,0.0008671252289786935,0.018799787387251854
1772819367210771000,10.80477099609375,0.0008053398923948407,0.005066663958132267,0.025108549743890762
1772819367220835000,10.8148349609375,-0.0004748416249640286,0.0019827233627438545,0.02293194644153118
1772819367230899700,10.824899658203124,-0.008058459497988224,0.00029640982393175364,0.019947608932852745
1772819367240964900,10.83496484375,-0.011427091434597969,-0.005595034919679165,0.014425544999539852
1772819367251030000,10.845030029296876,-0.010658503510057926,-0.010407899506390095,0.004023237619549036
1772819367261095200,10.85509521484375,-0.004855741746723652,-0.010012952610850334,-0.002927879337221384
1772819367271159800,10.865159912109375,0.00039468047907575965,-0.005608617328107357,-0.0015984292840585113
1772819367281225000,10.875224853515626,0.0033571808598935604,0.012744557112455368,0.005630987696349621
1772819367291288800,10.885288818359374,-0.0003038666909560561,0.021796908229589462,0.00666535971686244
1772819367301354000,10.89535400390625,-0.008183361031115055,0.018608305603265762,0.0005946838646195829
1772819367311419100,10.905419189453125,-0.008523181080818176,0.015614645555615425,-0.004760400392115116
1772819367321483800,10.91548388671875,-0.005757487844675779,0.01284336019307375,-0.011921906843781471
1772819367331549000,10.925548828125,-0.0030338731594383717,-0.0017350494163110852,-0.018850918859243393
1772819367341614000,10.935614013671875,-0.0035095135681331158,-0.020490095019340515,-0.019773438572883606
1772819367351679000,10.945678955078124,-0.0010570086305961013,-0.02683640830218792,-0.01092615071684122
1772819367361742800,10.955742919921875,-0.0014018879737704992,-0.01661546155810356,-0.0005113269435241818
1772819367371807700,10.965807861328125,-0.0012719257501885295,0.0062581622041761875,0.00959829892963171
1772819367381873000,10.975872802734376,-0.004561196081340313,0.028251610696315765,0.008265919052064419
1772819367391938000,10.98593798828125,-0.0020687435753643513,0.03440724313259125,0.005659483373165131
1772819367402002700,10.996002685546875,-0.00018881811411119998,0.03497716039419174,0.0023675502743571997
1772819367412067800,11.00606787109375,0.0005305017111822963,0.02989824488759041,0.005081311333924532
1772819367422133000,11.016133056640625,0.0017736653098836541,0.012922190129756927,0.00350445369258523
1772819367432198100,11.0261982421875,0.0007667240570299327,-0.0062219430692493916,0.003952397499233484
1772819367442262000,11.036261962890626,0.0016234630020335317,-0.01734010875225067,0.003309244057163596
1772819367452327000,11.046326904296874,0.0003001382574439049,-0.02322143316268921,-0.0003736414946615696
1772819367462391800,11.056391845703125,0.0016793893883004785,-0.01552596315741539,-0.0021811288315802813
1772819367472457000,11.06645703125,-0.0008966863388195634,0.0012665993999689817,-0.00035899411886930466
1772819367482522000,11.076522216796874,0.003674097126349807,0.01203881949186325,-0.0014761901693418622
1772819367492586800,11.086586669921875,0.010989800095558167,0.017249826341867447,-0.0008221178431995213
1772819367502652000,11.09665185546875,0.0217116866260767,0.006366819143295288,0.005742307752370834
1772819367512715800,11.1067158203125,0.02155189774930477,-0.013190370053052902,0.01401541754603386
1772819367522781000,11.116781005859375,0.012956278398633003,-0.011122159659862518,0.004204598721116781
1772819367532846000,11.12684619140625,0.008265119977295399,-0.0029848709236830473,-0.017134245485067368
1772819367542910700,11.13691064453125,0.010718690231442451,0.02221076376736164,-0.010115484707057476
1772819367552976000,11.146975830078125,0.002671416848897934,0.026275012642145157,-0.0034498588647693396
1772819367563041000,11.157041015625,0.013469203375279903,0.01744903065264225,-0.013822871260344982
1772819367573106000,11.16710595703125,0.012990366667509079,0.04578639566898346,-0.016149142757058144
1772819367583170000,11.177170166015625,-0.00008681904728291556,0.07737228274345398,-0.011384746991097927
1772819367593235000,11.18723486328125,-0.010012952610850334,0.05239503085613251,0.016686834394931793
1772819367603299800,11.1972998046875,-0.0015089471125975251,-0.017539579421281815,0.01835024543106556
1772819367613365000,11.207364990234375,0.004805141594260931,-0.032227445393800735,0.024469390511512756
1772819367623430000,11.217429931640625,0.004483964294195175,-0.019888753071427345,0.025605494156479836
1772819367633494800,11.227494873046876,0.005519401282072067,-0.009542638435959816,0.012746421620249748
1772819367643560000,11.237559814453125,0.0028967203106731176,0.015896407887339592,0.003025883575901389
1772819367653625000,11.247625,0.0013789847726002336,0.045271340757608414,0.0008114652009680867
1772819367663689000,11.25768896484375,-0.007937817834317684,0.05675995349884033,-0.003838147735223174
1772819367673753900,11.26775390625,-0.012263856828212738,0.058765310794115067,-0.002938798163086176
1772819367683818800,11.27781884765625,-0.010718690231442451,0.045766424387693405,-0.007741542998701334
1772819367693883400,11.28788330078125,-0.0052352421917021275,0.021191570907831192,-0.0017297230660915375
1772819367703948300,11.2979482421875,0.0007084008539095521,0.0027076357509940863,0.02239159122109413
1772819367714013400,11.308013427734375,0.009126652963459492,-0.023497335612773895,0.053467750549316406
1772819367724078300,11.318078369140625,0.012339224107563496,-0.06923553347587585,0.0587778277695179
1772819367734142200,11.32814208984375,0.017668209969997406,-0.07691875100135803,0.05242672190070152
