time,seconds_elapsed,z,y,x
1772867434447472000,0.08847216796875,-0.5923813710153103,-0.6216206172421574,-0.3901452727511525
1772867434457538000,0.0985380859375,-0.7013847665697336,-0.681885408590734,-0.39400384787544607
1772867434467605000,0.10860498046875,-0.6900660846978426,-0.7464192555606365,-0.5037294202245771
1772867434477671200,0.118671142578125,-0.6285352189362049,-0.777571349671483,-0.5438737990863621
1772867434487736800,0.12873681640625,-0.5392155980169773,-0.7670256979987025,-0.5036263982415199
1772867434497804000,0.138803955078125,-0.6528519140690565,-0.8179130046710371,-0.38317455695569513
1772867434507870000,0.148869873046875,-0.8383832535088062,-0.8679442790359259,-0.3235854729115963
1772867434517935900,0.158935791015625,-0.789565154325962,-0.8482903150171041,-0.29176220154091714
1772867434528003000,0.169003173828125,-0.6987327907562255,-0.7768398205265402,-0.3338794879108667
1772867434538069000,0.179069091796875,-0.8275660914182662,-0.7298503980755806,-0.39759909588843584
1772867434548135200,0.18913525390625,-0.9734434658616781,-0.672248688456416,-0.43989100817292925
1772867434558202000,0.1992021484375,-0.9831570506244898,-0.59043286729604,-0.4737001926638186
1772867434568268000,0.20926806640625,-0.9805226104676723,-0.5164177830144763,-0.4652893610626459
1772867434578334200,0.219334228515625,-1.0563374376475811,-0.48038463886380195,-0.4331539550028741
1772867434588401200,0.229401123046875,-1.128270454958081,-0.3903530702829361,-0.49872313636988397
1772867434598467000,0.239467041015625,-1.088279220831394,-0.2291609300687909,-0.5381579056575894
1772867434608533200,0.249533203125,-1.0359200880408286,-0.08380144201964139,-0.6939139922976494
1772867434618600200,0.25960009765625,-0.8809270947277545,0.04854980363547802,-0.6976638463504612
1772867434628665900,0.269665771484375,-0.6744172646671533,0.20845453438758849,-0.7839236413076519
1772867434638732000,0.27973193359375,-0.3782780170857906,0.36499300357699394,-0.7753308772683143
1772867434648799000,0.289799072265625,-0.18246493760645388,0.4809487024873495,-0.7447884394884109
1772867434658865000,0.299864990234375,-0.04030395333766937,0.6437576302483677,-0.6881117357596754
1772867434668931000,0.30993115234375,0.1858013885527849,0.7689449756234884,-0.5814940662980079
1772867434678998000,0.319998046875,0.4020972840905189,0.8152218658909202,-0.4835843116879463
1772867434689064000,0.33006396484375,0.6114677642792463,0.9489061137154697,-0.41534342689365145
1772867434699130000,0.340130126953125,0.8101298034489154,1.0325514883905649,-0.25631869384646416
1772867434709197000,0.350197021484375,0.6804869399696588,1.0694912259921432,-0.024859862098842857
1772867434719263000,0.360262939453125,0.6651321344494819,1.0946817813500762,0.11320450050607322
1772867434729329200,0.3703291015625,0.6875310132622718,1.0995920574843883,0.2584330556519329
1772867434739396000,0.38039599609375,0.7502782690763473,1.15085754981935,0.3132420658126473
1772867434749462000,0.3904619140625,0.9224158739358186,1.0951455994695425,0.3404803474806249
1772867434759528000,0.40052783203125,0.8724521118491888,1.0129378563821314,0.36665304574370383
1772867434769595100,0.41059521484375,0.5790951884627342,0.8927326833337544,0.44889863662347196
1772867434779661000,0.4206611328125,0.45787528541386124,0.8021537100031971,0.5411471506014466
1772867434789727000,0.43072705078125,0.5902496196836233,0.7184124737381935,0.6270094706736504
1772867434799794000,0.4407939453125,0.5303250200748443,0.684350921921432,0.6883917217448353
1772867434809860000,0.450860107421875,0.3813876735389232,0.6349857102498412,0.7630227459676563
1772867434819926000,0.460926025390625,0.2808990083515644,0.5991559797167778,0.8486192547105252
1772867434829993000,0.470992919921875,0.26379063716232776,0.6019225218206644,0.9173600518509745
1772867434840059100,0.48105908203125,0.23406769907176495,0.5884563065260648,0.95945234991014
1772867434850126000,0.4911259765625,0.09498480707406998,0.5618894943788647,0.9908027430720626
1772867434860192000,0.50119189453125,-0.07619535093009472,0.5594900320217013,1.0313562872566282
1772867434870258200,0.511258056640625,-0.24789865602552888,0.5172726462781428,1.046831650416553
1772867434880324000,0.521323974609375,-0.4016670759797096,0.5393491612687706,1.0091795267619192
1772867434890391000,0.53139111328125,-0.5656155291646718,0.6041553954392671,0.9437724040888249
1772867434900457200,0.541457275390625,-0.7661994763076305,0.643307840654254,0.8367568213507532
1772867434910524200,0.551524169921875,-0.9145032011151313,0.6565487227603792,0.7392934953339397
1772867434920589800,0.56158984375,-0.9579033669024706,0.6993614440485835,0.6258028713628649
1772867434930656000,0.571656005859375,-0.9572668225646018,0.7027581007495523,0.539468842125684
1772867434940723000,0.581722900390625,-0.9352981518626212,0.6434124700725078,0.5340849571302533
1772867434950788900,0.591788818359375,-0.7888496995329857,0.5884516303509474,0.5335891364373266
1772867434960855000,0.60185498046875,-0.5273498036563397,0.4999336812034249,0.5063200212396681
1772867434970922000,0.611921875,-0.35933132455348965,0.36505847002863884,0.5380208352744579
1772867434980988000,0.62198779296875,-0.2857306662917137,0.2529968559473753,0.6396230146616697
1772867434991054000,0.63205419921875,-0.16897300334870816,0.1278726389363408,0.6881153890214861
1772867435001121000,0.64212109375,-0.0011187748968601225,0.0425596233099699,0.7130461243994534
1772867435011187200,0.652187255859375,0.08866670996844768,-0.042240474358201024,0.7680528490893542
1772867435021253000,0.662253173828125,0.11487024176120757,-0.09504968900382518,0.8064791719868779
1772867435031320000,0.672320068359375,0.2295160271167755,-0.1555830681607127,0.8251378413580358
1772867435041386200,0.68238623046875,0.25699323210716246,-0.11512187843471765,0.8230937683098017
1772867435051452000,0.692451904296875,0.2536094348877668,-0.03525368421077728,0.7472323255091905
1772867435061519000,0.70251904296875,0.30426351732611656,-0.00039542905837297435,0.6767251032181084
1772867435071585000,0.7125849609375,0.2671124750614166,0.053446635766327376,0.6370454192586242
1772867435081651000,0.72265087890625,0.2357774255990982,0.05715805750489235,0.6145300744593143
1772867435091718000,0.7327177734375,0.1908212625414133,0.06276625277549028,0.5930909805893898
1772867435101784000,0.7427841796875,0.12732406514286995,0.09872983882129192,0.5619276344321668
1772867435111850000,0.75285009765625,0.10991758778989315,0.12588701807707547,0.48244040234982966
1772867435121917000,0.7629169921875,0.11410977878272532,0.13756868804246186,0.41803573471754785
1772867435131983000,0.772983154296875,0.16132102729082107,0.16101736816912887,0.34958486043438314
1772867435142049000,0.783049072265625,0.15800971078574658,0.050663434788584705,0.35718437565267086
1772867435152116000,0.793115966796875,0.149385090303421,-0.019637305144965648,0.4345649908445775
1772867435162182100,0.80318212890625,0.19900047734379767,-0.1354430741906166,0.4620920263260603
1772867435172248000,0.813248046875,0.2975783404737711,-0.16854308749884367,0.44131826449707146
1772867435182315000,0.82331494140625,0.42118601544201373,-0.1776826717659831,0.44108781674206254
1772867435192381200,0.833381103515625,0.46755730599462986,-0.23303280306607482,0.4593770682789385
1772867435202446800,0.84344677734375,0.45300504902899263,-0.334757439789176,0.505916555005312
1772867435212514000,0.85351416015625,0.4401566733717918,-0.4698220360562205,0.6126616502389312
1772867435222580000,0.863580078125,0.4842524202078581,-0.4942480367824435,0.6438127214364707
1772867435232646000,0.87364599609375,0.5395850158512592,-0.6191159409448505,0.7328814363345504
1772867435242713000,0.883713134765625,0.3820002524793148,-0.6547545328199863,0.7620451331071555
1772867435252779000,0.893779052734375,0.36875264837145805,-0.6971566274806856,0.8207887062378227
1772867435262845000,0.903844970703125,0.3813789057105779,-0.7446198049232363,0.8419647652573883
1772867435272912100,0.913912109375,0.2803419589906931,-0.7584104298666119,0.916872268334031
1772867435282978000,0.92397802734375,0.2148451122075319,-0.725832394605875,0.9969130426459014
1772867435293044000,0.9340439453125,0.051067923936247824,-0.7178951718658209,0.9854552445642649
1772867435303111200,0.944111083984375,-0.193043030244112,-0.7204720366165042,0.9925563087411224
1772867435313177000,0.954177001953125,-0.29078736515939235,-0.7012406819239259,0.9767775787204503
1772867435323243300,0.9642431640625,-0.38467151751518247,-0.6854413475066423,0.9312895007431506
1772867435333310200,0.974310302734375,-0.4914093062251806,-0.6846364608645439,0.91087346631065
1772867435343376000,0.9843759765625,-0.6306786607056856,-0.6805670194685459,0.9405746309608221
1772867435353442000,0.994442138671875,-0.796141025584936,-0.7071247715264558,1.0082390310414135
1772867435363509000,1.004509033203125,-0.9123720343053341,-0.7551359382405877,1.1057429813295603
1772867435373578800,1.014578857421875,-1.0612713869184256,-0.8609776548936963,1.2052562256135047
1772867435383645000,1.02464501953125,-1.1960440145015716,-0.88312694285959,1.2811778741687536
1772867435393711900,1.0347119140625,-1.5128098705261945,-0.8198346203833818,1.1992941023387014
1772867435403777800,1.04477783203125,-1.7541899384379387,-0.6499649604558945,1.065296696911752
1772867435413844700,1.0548447265625,-1.8748492849946021,-0.4864423314675688,0.9066995416268706
1772867435423911000,1.064910888671875,-2.11775203242898,-0.32728871134370563,0.6621497576378286
1772867435433976800,1.074976806640625,-2.07349437302947,-0.12906009515523909,0.4785808043122291
1772867435444043800,1.085043701171875,-1.8454519255965947,0.021823709273338317,0.26847777206525203
1772867435454110000,1.09510986328125,-1.4510294139176607,0.19631606056541204,0.14242577268481255
1772867435464175900,1.10517578125,-1.1041484056144952,0.39068507871627806,0.02231412313878536
1772867435474242800,1.115242919921875,-0.8543389475315809,0.541168777911365,-0.07311506670191883
1772867435484309000,1.12530908203125,-0.7557873878866433,0.7103314586132764,-0.11164587288722395
1772867435494374700,1.135374755859375,-0.7828115884125232,0.8470005674675106,-0.1316093412466347
1772867435504441900,1.14544189453125,-0.7036936280339956,0.969439490917325,-0.2627031341865659
1772867435514507800,1.1555078125,-0.39381343986988065,1.2034089903116225,-0.3836887900881469
1772867435524573700,1.16557373046875,-0.13845277740061282,1.331513392177224,-0.5499180476866662
1772867435534641000,1.175640869140625,-0.014992401948571205,1.459523686018586,-0.7220538989804685
1772867435544706800,1.185706787109375,0.06884089651405811,1.5632725220456718,-0.8909439002208411
1772867435554772700,1.195772705078125,0.20220716443061829,1.6088590919613837,-1.01328111686185
1772867435564840000,1.20583984375,0.30527707828283307,1.63361476303339,-1.1861563883461057
1772867435574905900,1.21590576171875,0.3625286592900753,1.6277145990788935,-1.4065335618481039
1772867435584972000,1.225971923828125,0.45365795997977254,1.5492562716528773,-1.5844517959356308
1772867435595039000,1.2360390625,0.5323404515504837,1.4462442254677415,-1.7147184904016552
1772867435605105000,1.24610498046875,0.5847451770484448,1.4437559157833457,-1.758504879027605
1772867435615171000,1.256171142578125,0.49659226182103156,1.225111411292851,-1.945184219458699
1772867435625238000,1.266238037109375,0.4341097944229841,1.0890855687782168,-1.8725372086599468
1772867435635304000,1.276303955078125,0.4413590348988771,1.0593535705983639,-1.7892640282981096
1772867435645369900,1.286369873046875,0.529842789515853,0.8823378383085131,-1.8134606041826307
1772867435655436800,1.296436767578125,0.5414116467565298,0.7588724944204092,-1.7627958542197941
1772867435665502700,1.306502685546875,0.4979974524438381,0.5880331126779318,-1.6736381458640097
1772867435675569000,1.31656884765625,0.4530231692075729,0.4129153229638934,-1.6320546741098165
1772867435685635800,1.3266357421875,0.4141635694593191,0.2451362055748701,-1.5706734459519385
1772867435695701800,1.33670166015625,0.35599370456337925,0.0643988224133849,-1.497278831656277
1772867435705768000,1.346767822265625,0.30278175433576104,-0.13359978441148995,-1.4268810610890388
1772867435715835000,1.3568349609375,0.27075813808739185,-0.3526578381389379,-1.351331022325158
1772867435725900800,1.36690087890625,0.16661504204571245,-0.6107862117558718,-1.1942461712993682
1772867435735968000,1.376968017578125,0.02359948677420616,-0.9008604602098464,-1.0309535516746342
1772867435746034000,1.387033935546875,-0.0773328305274248,-1.0989756791517138,-0.8755171985082327
1772867435756099800,1.397099853515625,-0.19329495917856693,-1.0850067750319838,-0.7592555023886263
1772867435766166000,1.407166015625,-0.26106325802505015,-1.1881807337805628,-0.7904981973923743
1772867435776233000,1.41723291015625,-0.1921288380086422,-1.1438517627105116,-0.7445648598656058
1772867435786298600,1.427298583984375,-0.17464169663488863,-1.0670385721430182,-0.651523003552854
1772867435796366000,1.437365966796875,-0.24987609357833862,-0.9876488090857863,-0.5533792940564454
1772867435806431700,1.447431640625,-0.30663375358879563,-0.9451789098858833,-0.4562433002978563
1772867435816498000,1.457497802734375,-0.28027298540771006,-0.8649380829572677,-0.376401117298007
1772867435826564900,1.46756494140625,-0.30529227585196494,-0.7148842996120452,-0.2924599745467305
1772867435836630800,1.477630859375,-0.3819762870818376,-0.5752709539994597,-0.19185937341749668
1772867435846697000,1.487697021484375,-0.3834621417254209,-0.38884617285132406,-0.13548603654950855
1772867435856764000,1.497763916015625,-0.35613106720745563,-0.16437749225199222,-0.15284341406375168
1772867435866829800,1.507829833984375,-0.26510405784845353,-0.002377250525355339,-0.2302653841793537
1772867435876896000,1.51789599609375,-0.17434534403681753,0.1605517964839935,-0.28210984544605017
1772867435886963000,1.527962890625,-0.09867547828555107,0.26825083144158124,-0.24797654356732962
1772867435897028900,1.53802880859375,0.014746902754902839,0.3279115194171667,-0.21049568482637404
1772867435907095000,1.548094970703125,0.07953121735453605,0.3283075329974294,-0.12604220863878726
1772867435917162000,1.558161865234375,0.1209907704681158,0.25370208160728214,-0.04285977530032396
1772867435927228000,1.568227783203125,0.19548516269922256,0.20531682088375092,0.013896861796826124
1772867435937293800,1.5782939453125,0.25062720420658585,0.06956891852766275,0.012732055801153183
1772867435947360800,1.58836083984375,0.22642039918899534,-0.10281944622248411,0.02870031704455614
1772867435957426700,1.5984267578125,0.19150281506478786,-0.2651598796889186,0.031555706475675106
1772867435967492900,1.608492919921875,0.19489187298119068,-0.41722149572521444,0.0795727184087038
1772867435977559800,1.618559814453125,0.1931827309757471,-0.5885147587150334,0.11057006034925579
1772867435987625700,1.628625732421875,0.21632512163221834,-0.6986372214272618,0.14682546894848345
1772867435997693000,1.63869287109375,0.2299211007863283,-0.7595520011171698,0.17159648372009395
1772867436007758800,1.6487587890625,0.17300737343132494,-0.8246522497981786,0.1769232317008078
1772867436017824800,1.65882470703125,0.0897504135519266,-0.853141554440558,0.21701222711354493
1772867436027892000,1.66889208984375,0.019005729243159294,-0.8493512222468852,0.21567367198616266
1772867436037958000,1.6789580078125,-0.025413258197903632,-0.807732094657421,0.16120295386910438
1772867436048024000,1.689024169921875,-0.12117723295092582,-0.7791326076388359,0.1083119061589241
1772867436058091000,1.699091064453125,-0.18680267454981803,-0.7304638537988066,0.047489042536169285
1772867436068157000,1.709156982421875,-0.2393243044257164,-0.6825348124101758,-0.02876680640950799
1772867436078222800,1.719222900390625,-0.3525239826261997,-0.6530714020386338,-0.087098583868891
1772867436088290000,1.7292900390625,-0.4194873948305845,-0.6047554071590304,-0.15169132141917943
1772867436098355700,1.739355712890625,-0.4504886822938919,-0.5228907784208655,-0.20656448285728693
1772867436108422000,1.749421875,-0.5160416431784629,-0.4242378042280674,-0.27729323894456026
1772867436118488800,1.75948876953125,-0.5805804585844277,-0.3323468715161085,-0.352701531150192
1772867436128554800,1.7695546875,-0.657737348023057,-0.2999108750745654,-0.3967039006143808
1772867436138621000,1.779620849609375,-0.7406032627582549,-0.33381489824205635,-0.398592783100903
1772867436148688000,1.78968798828125,-0.8115127822399139,-0.5083116334483028,-0.3877262289106846
1772867436158753800,1.79975390625,-0.8602180686980485,-0.7155313653439282,-0.38334260699898004
1772867436168820000,1.809820068359375,-0.9488304181307554,-0.9447147995054721,-0.365958925999701
1772867436178887000,1.819886962890625,-0.9686036246150731,-1.207142039360106,-0.2964306317433715
1772867436188952800,1.829952880859375,-1.1072264978855848,-1.452310101377964,-0.25698358749598266
1772867436199020000,1.84002001953125,-1.3241016546159983,-1.614884343600273,-0.2388175239473581
1772867436209086000,1.8500859375,-1.5220008927196262,-1.7233146154418586,-0.22025193968713283
1772867436219152000,1.86015185546875,-1.742338757124543,-1.798141892889142,-0.26908786678761243
1772867436229219000,1.870218994140625,-1.907114308783412,-1.7493071348324416,-0.3016102263383567
1772867436239284700,1.88028466796875,-2.1435656881213188,-1.6151184446170925,-0.44497488730847834
1772867436249351000,1.890350830078125,-2.3403075728833675,-1.6620929617598652,-0.6394378673531115
1772867436259417900,1.90041796875,-2.463638768997788,-1.4651231134608387,-0.7449852772347628
1772867436269483800,1.91048388671875,-2.5329145497977734,-1.2326163800954817,-0.9152601569622755
1772867436279550000,1.920550048828125,-2.5232623398333787,-0.8996963848665356,-1.1374303513608872
1772867436289617000,1.930616943359375,-2.387211947399378,-0.45231852806955575,-1.311435795918852
1772867436299682800,1.940682861328125,-1.9496055430322885,-0.1618734004765749,-1.5043803342245519
1772867436309749000,1.9507490234375,-1.5261708718806504,0.2804477574527263,-1.6242551062747834
1772867436319816000,1.96081591796875,-1.0700175879538059,0.7573682273373007,-1.656914097817242
1772867436329881900,1.9708818359375,-0.7332429631233215,1.145891159583628,-1.568546370795369
1772867436339948000,1.980947998046875,-0.5531260499477386,1.4343866144135593,-1.4505818162806332
1772867436350015000,1.991014892578125,-0.297507613325119,1.7058260127633809,-1.3924866240561007
1772867436360081000,2.001080810546875,0.27517887713909145,1.968101861448586,-1.295965547325462
1772867436370143700,2.011143798828125,0.8996241964131593,2.1722928931728003,-1.18995768032521
1772867436380209700,2.021209716796875,1.2734586780935526,2.302834751318395,-1.0694064703181385
1772867436390275800,2.03127587890625,1.5507482637763021,2.286803653971851,-0.9014508273184298
1772867436400342800,2.0413427734375,1.771384234344959,2.2331252552762626,-0.6181266376465558
1772867436410408700,2.05140869140625,1.891363781943917,2.1281401554524897,-0.36973786001652476
1772867436420475000,2.061474853515625,2.072396640920639,2.0824355121150613,-0.1803863777667284
1772867436430541800,2.071541748046875,2.2407249166250227,2.054218886934221,-0.08264408867806196
1772867436440607700,2.081607666015625,2.2755250118494033,1.963131379559636,0.06769172647893429
1772867436450674000,2.091673828125,2.221454983487725,1.8346403164640068,0.24471593433618544
1772867436460740900,2.101740966796875,2.089181771504879,1.7655498291030525,0.5140151057869196
1772867436470806800,2.111806884765625,1.8724954153448343,1.5823299814760685,0.7938038148090243
1772867436480872700,2.121872802734375,1.5263924056768416,1.4942086304306983,1.1403998686909675
1772867436490940000,2.13193994140625,1.2997604095637798,1.3509104588255285,1.2934148399293421
1772867436501005600,2.142005615234375,1.1020832897782324,1.3513152402341364,1.385776020501554
1772867436511072500,2.152072509765625,0.8358721474707126,1.4453057755738496,1.3373624104663728
1772867436521138700,2.162138671875,0.5561041889756918,1.6145894523069262,1.2298337636396288
1772867436531204600,2.17220458984375,0.20275427691936493,1.7874346209138632,1.1700383433684707
1772867436541271800,2.182271728515625,-0.24577099634706973,1.8992413834512232,1.1853338199168444
1772867436551337700,2.192337646484375,-0.6492191105246543,1.9553350265949963,1.147495379909873
1772867436561403600,2.202403564453125,-0.8899550353139638,2.0112585738688704,1.105635137040913
1772867436571470800,2.212470947265625,-1.0360901839107275,2.008177558988333,0.9872332140222191
1772867436581536800,2.222536865234375,-1.136344455820322,1.9809417615383862,0.8374038870826364
1772867436591602700,2.232602783203125,-1.1051473535239695,1.8744462571516631,0.7040905183970928
1772867436601670000,2.242669921875,-1.066720299974084,1.7188427307248115,0.545680117855966
1772867436611735800,2.25273583984375,-0.9538929622173309,1.5330194226011633,0.38701647320613264
1772867436621801700,2.2628017578125,-0.849775000616908,1.2162737325817345,0.3724816057667136
1772867436631869000,2.272868896484375,-0.8391437164872885,0.8671575125724077,0.4359773418605327
1772867436641934600,2.2829345703125,-0.7992267166405915,0.5064139831334352,0.4831213703513145
1772867436652001800,2.293001708984375,-0.6634522185385227,0.21746055540293455,0.47725101701319217
1772867436662067700,2.303067626953125,-0.4815425767272711,0.04236205491125583,0.3645651335537433
1772867436672133600,2.313133544921875,-0.43052959784865374,-0.20733751305639742,0.31723814971148967
1772867436682200600,2.32320068359375,-0.43023558333814144,-0.38560324540734287,0.2626400058224797
1772867436692266800,2.333266845703125,-0.397775913760066,-0.5278559996128082,0.19065262797623872
1772867436702332700,2.343332763671875,-0.36452947771847244,-0.620672230476141,0.08247633089572191
1772867436712399600,2.353399658203125,-0.29926117899417876,-0.5898503912329673,-0.02596446233987808
1772867436722465800,2.3634658203125,-0.23960370588898658,-0.6416331854403019,-0.24629531248211858
1772867436732531700,2.37353173828125,-0.2701642638474703,-0.7668687538713216,-0.46801118724197144
1772867436742598700,2.3835986328125,-0.21714579036533832,-0.5476031948730349,-0.452424326531589
1772867436752664800,2.393664794921875,-0.1590618501871824,-0.5794660676017404,-0.6104921972453594
1772867436762730800,2.403730712890625,-0.13325813136696815,-0.5413453035220503,-0.7230246437087655
1772867436772797700,2.413797607421875,-0.14586626852750778,-0.5620835556462407,-0.8036892490074038
1772867436782864000,2.42386376953125,-0.14341361467838287,-0.5885545062035322,-0.8277662901654839
1772867436792930800,2.433930908203125,-0.18518413343727588,-0.6414139897316694,-0.9159922706291079
1772867436802996700,2.443996826171875,-0.07546294500231743,-0.658065557064116,-0.8774845530584454
1772867436813062700,2.454062744140625,0.007511690804362297,-0.6876493789449334,-0.8559867147386073
1772867436823129600,2.464129638671875,0.018978256714344024,-0.7672825953692197,-0.8538309980094433
1772867436833195800,2.47419580078125,0.12524667434692383,-0.827779149647057,-0.8099836729764938
1772867436843261700,2.48426171875,0.23750468778312206,-0.8803849506750703,-0.7744713378295301
1772867436853328600,2.49432861328125,0.3488099305391311,-0.9327551893815398,-0.6660708766043186
1772867436863394800,2.504394775390625,0.4297095136374235,-1.0342997933626175,-0.5286325369432568
1772867436873460700,2.514460693359375,0.5044312848836183,-1.1043486043617128,-0.3274833571329713
1772867436883527700,2.524527587890625,0.5298655858695507,-1.1781228656247258,-0.12834493262320756
1772867436893593900,2.53459375,0.47176995525360105,-1.240255204410851,0.06750614077895879
1772867436903659800,2.54465966796875,0.48319326654374595,-1.2386030532896517,0.27315467783510683
1772867436913726700,2.554726806640625,0.4858925886303186,-1.1640367648661136,0.45264965972006316
1772867436923793000,2.56479296875,0.4284036917358637,-1.06474140111655,0.5762818846076727
1772867436933859800,2.57485986328125,0.3767734577417373,-0.964381330744922,0.6879394479326904
1772867436943925800,2.58492578125,0.2730342663258314,-0.8816346584752202,0.8312890574641525
1772867436953991700,2.59499169921875,0.1786602846264839,-0.8221101640999317,0.9765395321808755
1772867436964058600,2.60505859375,0.15049275928437708,-0.7600432917654514,1.0907722066909074
1772867436974124500,2.61512451171875,0.08495674953460693,-0.715048842523992,1.2186980371192098
1772867436984190700,2.625190673828125,-0.11086743586063384,-0.6527312102988362,1.3434575124710797
1772867436994257700,2.635257568359375,-0.36898470356166363,-0.6206225461155176,1.4509893741682172
1772867437004323800,2.64532373046875,-0.583638677111268,-0.6552639436468481,1.5562668810673057
1772867437014389800,2.6553896484375,-0.7085510049372911,-0.7240934419840573,1.695810084053129
1772867437024456700,2.665456787109375,-0.8926730621010065,-0.7900535223647952,1.836596418967843
1772867437034523000,2.67552294921875,-1.1791805579841137,-0.8186968485251068,1.927961720370501
1772867437044588800,2.6855888671875,-1.4419699091494083,-0.8311170618981123,1.964111476638168
1772867437054655700,2.69565576171875,-1.7332541179150343,-0.9068038787841797,1.9577973250553011
1772867437064722000,2.705721923828125,-2.0027245542794465,-0.9006099925801158,1.8102596161842346
1772867437074787800,2.715787841796875,-2.0533593474954364,-0.816799782732129,1.640325512718409
1772867437084854800,2.725854736328125,-2.1177859346985817,-0.7177431961745023,1.4374242285437882
1772867437094920700,2.735920654296875,-2.122517054873705,-0.5763076035708189,1.234622751481831
1772867437104988000,2.74598779296875,-1.9601216763496399,-0.41219139260351656,0.9808189630657433
1772867437115053600,2.756053466796875,-1.7203461210250854,-0.2300263147264719,0.7860011782340705
1772867437125119700,2.76611962890625,-1.3952169258028269,-0.029182839864492414,0.7267766897186636
1772867437135186700,2.776186767578125,-1.1455419077545403,0.14520663557499647,0.796400553303957
1772867437145252600,2.786252685546875,-1.1227537373632193,0.3507861990481615,0.8153200655683874
1772867437155318800,2.79631884765625,-1.0070797780036926,0.5801435284718871,0.7496922858819365
1772867437165385700,2.8063857421875,-0.7893354372233152,0.8061495016410947,0.6681377460062503
1772867437175451600,2.81645166015625,-0.6343237392097711,1.0636229184806347,0.4998167768254876
1772867437185517800,2.826517822265625,-0.35775194640755653,1.3604396269321442,0.2933765048697591
1772867437195584800,2.836584716796875,-0.16074235062003134,1.5957447588443756,0.08155015596151352
1772867437205650700,2.846650634765625,-0.06429097812473773,1.7974270226180553,-0.10771803191900253
1772867437215718000,2.8567177734375,0.07801321400702,1.9545099739477036,-0.3250654823362827
1772867437225783800,2.86678369140625,0.2790297073483467,2.064271202132106,-0.48274026207923887
1772867437235850000,2.87685009765625,0.4249766398966312,2.1926085359707472,-0.7371858555302023
1772867437245917000,2.8869169921875,0.6365279712557792,2.287142092145979,-0.9850216754525899
1772867437255982600,2.896982666015625,0.8320628183156251,2.350451950278878,-1.2122387779772281
1772867437266048800,2.907048828125,0.9396277054995298,2.391914426001906,-1.378709443116188
1772867437276115700,2.91711572265625,1.0424316618919371,2.439830023387074,-1.483674084673822
1772867437286181600,2.927181640625,1.1405161885470152,2.4726611566260455,-1.5617936816647648
1772867437296247800,2.937247802734375,1.2437076829522848,2.4922590065434576,-1.5816396611243486
1772867437306314800,2.947314697265625,1.364604345396161,2.4464488570049405,-1.5754700325787065
1772867437316380700,2.957380615234375,1.4731547364860773,2.414802549636364,-1.5530346211478112
1772867437326446800,2.96744677734375,1.6719401097744702,2.4027365565285086,-1.5388848075032233
1772867437336513800,2.977513671875,1.8757827664524316,2.3219123767539855,-1.5288140798658132
1772867437346579700,2.987579833984375,1.9136796586483715,2.12225548132807,-1.4783029130294918
1772867437356646700,2.997646728515625,1.7978274201124906,1.8163398128807544,-1.3734493306308984
1772867437366712800,3.007712890625,1.6944786893188952,1.498508081190288,-1.1980600304991007
1772867437376778800,3.01777880859375,1.5564005904495715,1.1421119333058596,-1.0634832177489995
1772867437386846000,3.027845947265625,1.371682320958376,0.7813897389158606,-0.9811769827231764
1772867437396911900,3.037911865234375,1.1228799940913914,0.48212388374656434,-0.9304676629662513
1772867437406977800,3.047977783203125,0.8551257139950991,0.15290245077461004,-0.937510567215085
1772867437417045000,3.058044921875,0.5852414361327887,-0.1393558637201786,-1.0402215846270322
1772867437427111000,3.06811083984375,0.5289724364221096,-0.3065200640812516,-1.0632859416112304
1772867437437176800,3.0781767578125,0.293546308478713,-0.6366428298071026,-1.0261141488194465
1772867437447244000,3.088244140625,0.019876082336902617,-0.9525035536855458,-0.9520116785153746
1772867437457310000,3.09831005859375,-0.16703882041573523,-1.0462041661679744,-0.7742027500212192
1772867437467375900,3.1083759765625,-0.2864385223001242,-1.208652736184001,-0.6672180008128284
1772867437477443000,3.118443115234375,-0.46799160575866694,-1.432973532745242,-0.6422926722623408
1772867437487508700,3.1285087890625,-0.5752075333744288,-1.4881725651368498,-0.6165786775521934
1772867437497575000,3.138574951171875,-0.5445721566140651,-1.5141235834732651,-0.5697989523291588
1772867437507641900,3.148641845703125,-0.6117863287091255,-1.567365636578202,-0.4731044187277555
1772867437517707800,3.158707763671875,-0.7345920396447181,-1.6320535050660372,-0.3175847711920738
1772867437527774700,3.168774658203125,-0.7896276981681585,-1.7016358675971626,-0.16920038236379623
1772867437537841000,3.1788408203125,-0.635952217194438,-1.6708577213652431,-0.09113105425536631
1772867437547906800,3.18890673828125,-0.477118915066123,-1.6387955266721546,-0.020715017379075287
1772867437557973800,3.198973876953125,-0.49492345182597636,-1.5792011819310485,0.05107815306931734
1772867437568040000,3.2090400390625,-0.5083312149316073,-1.4724654390476644,0.10348404761105776
1772867437578105900,3.21910595703125,-0.48029754510223865,-1.362831636635214,0.13244360011368989
1772867437588172800,3.2291728515625,-0.46940673325359816,-1.2058955464303494,0.14188991224244235
1772867437598239000,3.239239013671875,-0.3992658600568771,-1.0201152006655931,0.14652093304395675
1772867437608305000,3.249304931640625,-0.4261486062854528,-0.8943691984944045,0.2298103338882327
1772867437618371800,3.259371826171875,-0.582417026361823,-0.7986500857964157,0.31670345831289887
1772867437628437800,3.269437744140625,-0.6865215439587831,-0.6794305627845227,0.3679739190839231
1772867437638503700,3.279503662109375,-0.7343868724614382,-0.5159197703644633,0.39423356497809287
1772867437648571000,3.28957080078125,-0.7182131517738104,-0.4590582115881145,0.45212212871462104
1772867437658636800,3.29963671875,-0.7244517539024352,-0.4072667956829071,0.48995136250182986
1772867437668703700,3.309703857421875,-0.6539940698415041,-0.4016358040586114,0.5254679354324937
1772867437678770000,3.31977001953125,-0.6046966627091169,-0.4195717121131718,0.566818182952702
1772867437688835800,3.3298359375,-0.6332131476193666,-0.45712812030836936,0.5916932426206767
1772867437698902800,3.33990283203125,-0.5846861403375864,-0.48941915532127017,0.5986068214014172
1772867437708969000,3.349968994140625,-0.548196192330122,-0.5005743171945214,0.6106549865916371
1772867437719035000,3.360034912109375,-0.5657534763306379,-0.5386328296929598,0.6354864993788302
1772867437729101800,3.370101806640625,-0.5896931548446417,-0.5110382819332182,0.6186664436116814
1772867437739168000,3.38016796875,-0.6136930391132831,-0.46128246350884433,0.6031928340174257
1772867437749234000,3.39023388671875,-0.6328390536099672,-0.4460312644936144,0.5957764202810824
1772867437759300900,3.40030078125,-0.6683849987655878,-0.417007852974534,0.5618453629761934
1772867437769367000,3.410366943359375,-0.664095192617178,-0.3195066791653633,0.48490781537666916
1772867437779432700,3.4204326171875,-0.6730822166711091,-0.1955510675422847,0.42186069983318447
1772867437789499600,3.430499755859375,-0.7607049705445766,-0.06179316995963454,0.3926047947324812
1772867437799565800,3.44056591796875,-0.809793118840456,0.057806146150082345,0.36831381856277584
1772867437809632800,3.4506328125,-0.8124129459500312,0.1643092493213713,0.3218346837215125
1772867437819698700,3.46069873046875,-0.8032271844536065,0.24899405004680156,0.28925036485046146
1772867437829764900,3.470764892578125,-0.7222118660211563,0.27134397515133024,0.23152663628682493
1772867437839831800,3.480831787109375,-0.6196031399399041,0.2660242414332926,0.13883929250016808
1772867437849898000,3.49089794921875,-0.543171642166376,0.24555399259552357,0.09718772394582628
1772867437859964000,3.5009638671875,-0.5412795448094606,0.14644348389357328,0.09380407285690306
1772867437870030800,3.51103076171875,-0.5773398692280054,0.04694733687490225,0.12543299069926142
1772867437880097000,3.521096923828125,-0.6464420470267533,-0.025824615477770565,0.17725071008950471
1772867437890163000,3.531162841796875,-0.646412820932269,-0.09392667632326483,0.23261662348061798
1772867437900230000,3.54122998046875,-0.6550415330678224,-0.16201704673096537,0.17732406758666036
1772867437910296000,3.551296142578125,-0.65519526232481,-0.3251907161511481,0.16597762092500923
1772867437920361700,3.56136181640625,-0.651097763878107,-0.48519262366741894,0.2806989557348192
1772867437930429000,3.571428955078125,-0.7986842803269624,-0.6485933798417448,0.4143760431662202
1772867437940494800,3.581494873046875,-0.9931336702376603,-0.8039864783883094,0.5088151990562677
1772867437950561800,3.591561767578125,-1.1914730533242226,-0.9384903720326722,0.5624854144454002
1772867437960627700,3.601627685546875,-1.4740490549772978,-1.0192322803512215,0.6527116288155317
1772867437970694000,3.61169384765625,-1.8661545218855142,-1.0781602701380848,0.7029255662709474
1772867437980760800,3.6217607421875,-2.338250055831671,-1.179130435232073,0.8272780682571231
1772867437990826800,3.63182666015625,-2.723935718825459,-1.1991450492568314,0.9153836372114718
1772867438000893000,3.641892822265625,-2.962587823078036,-1.1527217362560331,0.7693550177291035
1772867438010960000,3.6519599609375,-3.0369898608505723,-0.998178240276128,0.5804207379780709
1772867438021025800,3.66202587890625,-3.0210324132621285,-0.6938780442014336,0.33761882056966425
1772867438031092000,3.672092041015625,-2.724153160968423,-0.3920958222970366,-0.023145751657336948
1772867438041159000,3.682158935546875,-2.459453592267632,-0.01531067411750555,-0.36898558034449813
1772867438051224800,3.692224853515625,-2.4606319883972403,0.32905805910378694,-0.6310819808095693
1772867438061291000,3.702291015625,-2.5323247672110796,0.631949995815754,-0.751228117147088
1772867438071358000,3.71235791015625,-2.4509154810249805,0.968008873592317,-0.781406543920189
1772867438081424000,3.722423828125,-2.2254665572166443,1.3114946864992378,-0.7569963252849876
1772867438091491000,3.732490966796875,-1.995994953763485,1.5965321098297833,-0.7639489209018647
1772867438101556700,3.742556640625,-1.8136206170499323,1.7608049726635218,-0.7504151933290064
1772867438111623000,3.752622802734375,-1.6355097829997538,1.8612094666987657,-0.7957328831754624
1772867438121689900,3.76268994140625,-1.2138812844872473,2.0509107852995396,-1.0113388967528938
1772867438131755800,3.772755859375,-0.6231804139047861,2.242402786709368,-1.1847142267137765
1772867438141822000,3.782822021484375,-0.33627836574614045,2.422779227603972,-1.1867330191902816
1772867438151889000,3.792888916015625,-0.025645897909998893,2.4909891327381133,-1.0575051662527024
1772867438161954800,3.802954833984375,0.30298984412848945,2.545890058965981,-0.9502230415329337
1772867438172021000,3.81302099609375,0.5715431656479835,2.589469088451564,-0.9507710308045149
1772867438182088000,3.823087890625,0.8940162934035062,2.569702019447088,-0.7983877815984189
1772867438192153900,3.83315380859375,1.0411065507680177,2.4573349926784633,-0.6036141281694174
1772867438202220000,3.843219970703125,1.2984744614064692,2.2957445007964967,-0.4828076282270252
1772867438212287000,3.853286865234375,1.4301111290514468,2.2049065842688083,-0.3426015774182975
1772867438222353000,3.863352783203125,1.6330179661840198,2.041223504021764,-0.39839813731163737
1772867438232419800,3.873419921875,1.8197709563732145,1.8859125308007,-0.3410017410062253
1772867438242485800,3.88348583984375,1.6390122381627559,1.8768477653354405,-0.31505715241059656
1772867438252551700,3.8935517578125,1.5671546241760252,1.7718851696044207,-0.21614567341208457
1772867438262619000,3.903618896484375,1.4583856218993663,1.637255165362358,-0.10441855198219419
1772867438272684800,3.913684814453125,1.2790800251066683,1.5279121625900267,-0.021261399215459824
1772867438282750700,3.923750732421875,1.1546762313246726,1.4935609801769256,0.020792904920876026
1772867438292818000,3.93381787109375,1.0922580613344908,1.5282184520602224,-0.07136530042514204
1772867438302883800,3.9438837890625,1.1103215412914753,1.6082774926811456,-0.18014979253187774
1772867438312950000,3.953949951171875,0.9993559057533741,1.644106930953264,-0.30163550691008567
1772867438323017000,3.964016845703125,1.0462842456668615,1.7047621829241513,-0.3658696402810514
1772867438333083000,3.974082763671875,1.1462269674092531,1.5533815348893403,-0.35390550011247396
1772867438343149800,3.98414990234375,1.0261071345567703,1.3096598722875117,-0.24897695278152823
1772867438353216000,3.994216064453125,0.8147808441251516,1.1537135237723588,-0.17358531944975256
1772867438363282000,4.004281982421875,0.8228244498491287,1.1415139674127102,-0.17263254876956344
1772867438373347600,4.01434765625,0.7928057436823844,0.9913596463024615,-0.1417984345667064
1772867438383413500,4.02441357421875,0.7801578590333461,0.912832637554407,-0.13715470041409134
1772867438393480400,4.03448046875,0.7261515435576439,0.8594920925110578,-0.2278559849500656
1772867438403546600,4.044546630859375,0.7787731266766786,0.764680303916335,-0.3027032822720706
1772867438413613600,4.054613525390625,0.7815297319084406,0.7094429853409528,-0.2645700971022248
1772867438423679500,4.064679443359375,0.7025093866854906,0.6621645168155431,-0.18344708051159977
1772867438433745400,4.074745361328125,0.6669909140586853,0.5840531031310559,-0.168535927105695
1772867438443812600,4.0848125,0.6661363430559635,0.5403209289103746,-0.1659118622124195
1772867438453878500,4.09487841796875,0.5610276168525219,0.43983869346380233,-0.14532719321474433
1772867438463944400,4.1049443359375,0.3951613473474979,0.3489583990991115,-0.08919964780136942
1772867438474011400,4.115011474609375,0.332312384724617,0.23212328700572252,-0.06914645533189177
1772867438484077600,4.12507763671875,0.2883884873241186,0.12857786459624768,-0.1244796354971826
1772867438494143500,4.1351435546875,0.19550386739969253,0.010464403130114078,-0.162874686473608
1772867438504210400,4.14521044921875,0.07375380299687385,-0.12175737092643975,-0.11320464663654566
1772867438514276600,4.155276611328125,-0.08101707199811935,-0.2535971599280834,-0.08884455075338482
1772867438524342500,4.165342529296875,-0.18808277748823166,-0.3535027645304799,-0.14245236843079329
1772867438534409500,4.175409423828125,-0.25840368342697617,-0.4647162373498082,-0.1610579924404621
1772867438544475600,4.1854755859375,-0.24204525382220743,-0.5864470125302672,-0.2251259754642844
1772867438554542600,4.19554248046875,-0.251678759086132,-0.7608537313655018,-0.2135756767936051
1772867438564608500,4.2056083984375,-0.428707058596611,-0.9680167646378278,-0.1402003517203033
1772867438574674700,4.2156748046875,-0.6271095700472593,-1.2213514742374418,-0.05186228918433189
1772867438584741600,4.22574169921875,-0.7370113757461308,-1.4592472071647644,0.07381035548970102
1772867438594807300,4.235807373046875,-0.7512772169858217,-1.5974825424224137,0.15301614028215407
1772867438604873500,4.24587353515625,-0.7488631415814161,-1.6741250525981186,0.11984130817204713
1772867438614940400,4.2559404296875,-0.7723007157921791,-1.7396563861727714,0.059642129405587906
1772867438625006300,4.26600634765625,-0.8148720295399426,-1.8146686647981405,0.10956862822175026
1772867438635072500,4.276072509765625,-0.7792378215789795,-1.7727686744406819,0.10452142783477902
1772867438645139500,4.286139404296875,-0.7862877400904893,-1.7284040475353597,0.0968631681665778
1772867438655205400,4.296205322265625,-0.8538900347203016,-1.6749588730737566,0.17868425002396104
1772867438665272600,4.3062724609375,-0.9326444224834441,-1.544196942436695,0.21760975461527704
1772867438675338500,4.31633837890625,-0.8225695983052254,-1.3422963597372173,0.2433176118455827
1772867438685404400,4.326404296875,-0.7475929755151272,-1.1889423658028244,0.3124823334865272
1772867438695471600,4.3364716796875,-0.7547966232836246,-1.020555637909472,0.35650486895591016
1772867438705537500,4.34653759765625,-0.71961249717772,-0.8772083664655685,0.419187096709758
1772867438715603700,4.356603759765625,-0.7148299390763044,-0.8148018869131803,0.5362064793288708
1772867438725670700,4.366670654296875,-0.7657388730585575,-0.7673726117402314,0.6656110040076076
1772867438735736600,4.376736572265625,-0.7317571084797382,-0.6099459615394472,0.6693444914475083
1772867438745802500,4.386802490234375,-0.6615466771781444,-0.499178186661005,0.6273861950315535
1772867438755869400,4.396869384765625,-0.7312772160083055,-0.40875528067499395,0.6372644688367843
1772867438765935400,4.406935302734375,-0.8130629342913627,-0.3303121508181095,0.6715658207587898
1772867438776002300,4.417002197265625,-0.8141764484912156,-0.2802387908771634,0.6513111143678426
1772867438786068500,4.427068359375,-0.9130880736202001,-0.27419249645024535,0.6320780061095953
1772867438796134400,4.437134521484375,-0.952352162516117,-0.27881401877105233,0.5497022129788994
1772867438806201300,4.447201416015625,-0.7879735012203455,-0.26019641206264493,0.45955432454198597
1772867438816267500,4.457267578125,-0.7630027260929345,-0.27470161501616236,0.36145182383880015
1772867438826333400,4.46733349609375,-0.8049825036883353,-0.3588683832168579,0.285604263433069
1772867438836400400,4.477400390625,-0.7156424245029688,-0.3993009313702583,0.16895955934524534
1772867438846466600,4.487466552734375,-0.5512415513753891,-0.4134659425839782,0.07884805739596486
1772867438856532500,4.497532470703125,-0.5570879393160343,-0.4225806846708059,0.0017542963214218616
1772867438866599700,4.507599609375,-0.529827591946721,-0.3923094650477171,-0.012876140446960926
1772867438876665600,4.51766552734375,-0.4126905742973089,-0.3149702047795057,-0.0903518865764141
1772867438886732500,4.527732666015625,-0.24963410151600837,-0.19112287583649157,-0.16946692434549332
1772867438896798700,4.537798828125,-0.15781272690892217,-0.06256137785315513,-0.208516055316478
1772867438906864400,4.547864501953125,-0.09971943438053131,0.08211889576017856,-0.21400281616449354
1772867438916931300,4.557931396484375,0.02366144609451294,0.2048798907712102,-0.13329407946318386
1772867438926997500,4.56799755859375,0.11780161903798579,0.4000958811402321,-0.0663962798409164
1772867438937063400,4.5780634765625,0.12204583247900008,0.6392354766488075,-0.06945435223728418
1772867438947130400,4.58813037109375,0.05710194340348244,0.8688719152748584,-0.08659910991415382
1772867438957196500,4.598196533203125,0.0038619361251592634,1.1075327873557805,-0.16280337480306625
1772867438967263500,4.608263427734375,0.07477320917248725,1.3663953204661607,-0.26159955685883757
1772867438977329400,4.618329345703125,0.1507967106670141,1.5994389371871947,-0.37004414948672054
1772867438987395600,4.6283955078125,0.21719079855084417,1.7497528327733278,-0.45349867776483294
1772867438997462500,4.638462646484375,0.3562976559460163,2.0161288102537394,-0.4997808287292719
1772867439007528400,4.648528564453125,0.3853519009947777,2.1080080525279046,-0.5559682876363397
1772867439017595600,4.658595703125,0.40099312224090095,2.1897066770493985,-0.6471744529545307
1772867439027661600,4.66866162109375,0.3976291987657547,2.211162722054124,-0.7368719672754407
1772867439037727500,4.6787275390625,0.40050738455057144,2.220246776741743,-0.8748822616055607
1772867439047794700,4.688794677734375,0.4171165740460157,2.2130641717612742,-0.9481769226580857
1772867439057860400,4.6988603515625,0.37923078776597974,2.1673212422400714,-0.9613558454439043
1772867439067927600,4.708927490234375,0.42451837473511694,2.081674756875634,-1.0018398315235972
1772867439077993500,4.718993408203125,0.5340794041723013,1.970035752120614,-1.035534888115525
1772867439088059400,4.729059326171875,0.5637421365082264,1.7817501455366611,-1.0162053337454795
1772867439098126300,4.739126220703125,0.5964589957177638,1.4523516024321317,-0.8741676835954189
1772867439108192500,4.749192626953125,0.6554261484712361,1.131211769106984,-0.7161562192440033
1772867439118258400,4.759258544921875,0.7546598451614379,0.892209536242485,-0.6001195640519261
1772867439128325400,4.769325439453125,0.7179384264856576,0.6106786597281694,-0.5248676314517855
1772867439138391600,4.7793916015625,0.7497726576417684,0.3776718678861856,-0.40345162130892276
1772867439148458500,4.78945849609375,0.8131459363996982,0.19225567925870418,-0.2957137156456709
1772867439158524400,4.7995244140625,0.8597966284155845,-0.015412965448200701,-0.19711480972766876
1772867439168590600,4.809590576171875,0.814686736100912,-0.22792232818454503,-0.07104980473518371
1772867439178657500,4.819657470703125,0.7007353627502918,-0.43247225634902714,0.03294540726840496
1772867439188723500,4.829723388671875,0.5956207913279533,-0.5628077782675623,0.013823358169198035
1772867439198789600,4.83978955078125,0.5033884978324175,-0.6207116857036948,-0.022514906407892703
1772867439208856600,4.849856689453125,0.42131987095475193,-0.6730988755449653,-0.03858779706954956
1772867439218922500,4.859922607421875,0.30875965970158575,-0.7087690316021442,0.022204525284469128
1772867439228989700,4.86998974609375,0.18677578654289245,-0.7943944741785526,0.09798048175871371
1772867439239055400,4.880055419921875,0.05657353561520576,-0.8443924307957291,0.12623802347183227
1772867439249121500,4.89012158203125,-0.09485621225833893,-0.845336141386628,0.11672522197812794
1772867439259188500,4.9001884765625,-0.29568156694173814,-0.8727052098274231,0.16165420476794243
1772867439269254400,4.91025439453125,-0.5415092619121075,-0.8973217646896838,0.19281857383847237
1772867439279320600,4.920320556640625,-0.6842232038885354,-0.8139797568753361,0.14524842889010905
1772867439289387500,4.930387451171875,-0.7524959451258182,-0.7610662050724029,0.08928133473545312
1772867439299453400,4.940453369140625,-0.8453869947910309,-0.6526660361081361,0.002348316691815853
1772867439309519600,4.95051953125,-0.9221867413550615,-0.5256429997384547,-0.054964346852898596
1772867439319586600,4.960586669921875,-0.9768108964681624,-0.46535278168767685,-0.1058045995131135
1772867439329652500,4.970652587890625,-1.0102993245720864,-0.39483576865494246,-0.12583558015078306
1772867439339719400,4.980719482421875,-0.9469237077265977,-0.3244073106884956,-0.08681962079703807
1772867439349785600,4.99078564453125,-0.8399211306005716,-0.24349691393524406,-0.09477671728134154
1772867439359851500,5.0008515625,-0.7485451616734266,-0.1616521589413285,-0.0978439958974719
1772867439369919000,5.0109189453125,-0.7602560577332973,-0.1760375349074602,-0.0850935276567936
1772867439379985200,5.020985107421875,-0.7774012538015842,-0.24294044909626245,-0.03000175503194332
1772867439390052000,5.031052001953125,-0.7236930444896221,-0.28394407513588665,0.019750702391564845
1772867439400118000,5.041117919921875,-0.5309247395336628,-0.31277181795239445,0.01343216689452529
1772867439410184200,5.05118408203125,-0.29008535436987876,-0.35587621566355226,-0.01632628090083599
1772867439420251100,5.061251220703125,-0.1520914266526699,-0.4605024190470576,0.013714052575826644
1772867439430316800,5.07131689453125,-0.017646715849637985,-0.5557444157525897,0.0715755821749568
1772867439440383000,5.081383056640625,0.14821604652404785,-0.6318254926532506,0.12421060929745435
1772867439450450000,5.091449951171875,0.26575579975545405,-0.6544368451729417,0.1563797714963555
1772867439460516000,5.10151611328125,0.2688736395150423,-0.6620449820891022,0.17307430118769407
1772867439470583000,5.1115830078125,0.2262128939181566,-0.6711971335768699,0.21318010160475967
1772867439480649000,5.12164892578125,0.1950906104236841,-0.647964726549387,0.2390130465194583
1772867439490715100,5.131715087890625,0.18878771088719368,-0.6377449458301067,0.2473842767626047
1772867439500782000,5.141781982421875,0.15740882228314876,-0.6359723831996321,0.23273791177272796
1772867439510848000,5.151847900390625,0.10186112258434295,-0.5842234912618994,0.24618688367158173
1772867439520914200,5.1619140625,-0.013982348123192786,-0.5461053575307131,0.23308467938378452
1772867439530981000,5.171981201171875,-0.12152677704095839,-0.45876054381579157,0.18981281615123152
1772867439541047000,5.182047119140625,-0.2377852582901716,-0.3586094400197267,0.11101999607384204
1772867439551114000,5.192114013671875,-0.3330997357100248,-0.26750644281506536,0.02398907061368227
1772867439561180200,5.20218017578125,-0.4061345767825842,-0.21753011350780724,-0.0322476342625916
1772867439571246000,5.21224609375,-0.4972603703409433,-0.22826456575095652,-0.08181435985565184
1772867439581313000,5.22231298828125,-0.5778764603227377,-0.2061573633611202,-0.08825330686196685
1772867439591379000,5.23237890625,-0.592255114287138,-0.18606033174991607,-0.12585779198259114
1772867439601444900,5.24244482421875,-0.6078197631657123,-0.204542621640861,-0.20585662684887646
1772867439611512000,5.252511962890625,-0.49574528960287567,-0.23692864146083592,-0.21192571762949228
1772867439621578000,5.262577880859375,-0.34566695633828637,-0.24843700068593025,-0.1552522287711501
1772867439631645000,5.27264501953125,-0.2992617635160684,-0.311735752902925,-0.06405746162980795
1772867439641711000,5.282711181640625,-0.2915904982358217,-0.38846243423074484,0.010216565848886966
1772867439651777000,5.292777099609375,-0.20494389591813086,-0.44685178709626194,0.008250526472926139
1772867439661844000,5.302843994140625,-0.2019569890618324,-0.5122641704663634,0.015181494779884815
1772867439671910100,5.31291015625,-0.2910404631376266,-0.5406690116956829,0.0021627309918403623
1772867439681976000,5.32297607421875,-0.3164695034265518,-0.5577969643682241,-0.042592064274847505
1772867439692043000,5.33304296875,-0.3735591718703508,-0.5435021892949938,-0.12237842543423175
1772867439702109200,5.343109130859375,-0.5485118341505527,-0.49591596999466414,-0.18858868118375538
1772867439712176000,5.353176025390625,-0.631599282681942,-0.4290682931244373,-0.3075219346001744
1772867439722242000,5.363241943359375,-0.6449392412483692,-0.29421324795484544,-0.4431438724890351
1772867439732308200,5.37330810546875,-0.6742232033997774,-0.12858254077136516,-0.5627317904219031
1772867439742375200,5.383375244140625,-0.7206658056229353,-0.034947687001526354,-0.6555690640732645
1772867439752440800,5.39344091796875,-0.7350356917589902,0.07034867072850465,-0.7743900892868637
1772867439762508000,5.403508056640625,-0.6697171241521835,0.20996260086297988,-0.8397650632560253
1772867439772574000,5.413573974609375,-0.608280950936675,0.3257426509454846,-0.8976713087797165
1772867439782639900,5.423639892578125,-0.5259288309425115,0.3740168525099754,-0.9253653713911771
1772867439792707000,5.43370703125,-0.40775136432945724,0.41715076857656236,-0.9377370694473385
1772867439802773000,5.44377294921875,-0.3408773839741945,0.40928105811476706,-0.9283052242353558
1772867439812839000,5.4538388671875,-0.29875615208148953,0.38631606985181566,-0.9382608010604977
1772867439822906000,5.463906005859375,-0.1433288590043783,0.4237418374046683,-1.0200324908182024
1772867439832972000,5.473971923828125,0.03673895433247089,0.37356472482830283,-1.04513098397851
1772867439843039000,5.4840390625,0.07609013698995112,0.29504122321158643,-0.9530728780061006
1772867439853105200,5.494105224609375,0.08253858247697353,0.20869243479669092,-0.9033502311989664
1772867439863171000,5.504171142578125,0.2388970189243555,0.2223296227440238,-0.8518143974900245
1772867439873238000,5.514238037109375,0.26244214516282083,0.21684213124364612,-0.7836283116228878
1772867439883304200,5.52430419921875,0.19829495942294598,0.25771687020659445,-0.8229638583198189
1772867439893371100,5.53437109375,0.2995470101982355,0.32507045077234503,-0.8471398298077285
1772867439903437000,5.54443701171875,0.36301790411174295,0.3703010468572378,-0.8535450206749141
1772867439913503000,5.5545029296875,0.3392354619860649,0.4290013653680682,-0.7872520550779998
1772867439923570000,5.56456982421875,0.3297966025114059,0.4743377599149942,-0.6553361321002245
1772867439933635800,5.5746357421875,0.3145353204935789,0.5394798019111157,-0.5313100855894386
1772867439943702000,5.584701904296875,0.344101022195816,0.6605971213683486,-0.49234731772765516
1772867439953769000,5.59476904296875,0.5624608645260334,0.7894929658725858,-0.4740304475314915
1772867439963835000,5.6048349609375,0.4161842616319656,0.78676207960397,-0.28659795064553617
1772867439973902000,5.614902099609375,0.34212241559922696,0.7877174806326628,-0.11180457058027386
1772867439983968000,5.624968017578125,0.30141514215767384,0.7278302904248237,0.09382102399170399
1772867439994034200,5.6350341796875,0.20347090075612068,0.6758703860849141,0.2218922542400658
1772867440004101000,5.64510107421875,0.14213701887130736,0.644943332901597,0.29297537672296164
1772867440014167000,5.6551669921875,0.10732874034047127,0.623296149238944,0.3193029732868075
1772867440024234000,5.66523388671875,0.021456629526615142,0.5953332065582275,0.3960213251776993
1772867440034300200,5.675300048828125,-0.12973638698160647,0.6010322949826717,0.37567631015479563
1772867440044366000,5.685365966796875,-0.22720365852117538,0.7051783136337995,0.33693566061109304
1772867440054433000,5.69543310546875,-0.36869887235760684,0.8388540858909487,0.3019097938068211
1772867440064499200,5.705499267578125,-0.6161112061709165,1.0217521542176604,0.28820056353658435
1772867440074564900,5.71556494140625,-0.9632061494857073,1.1606669961720704,0.24828502499461172
1772867440084631800,5.7256318359375,-1.1609387988507747,1.2992781790047883,0.1354977269873023
1772867440094698000,5.735697998046875,-1.2768547502726315,1.498380947679281,0.062034431369602676
1772867440104765000,5.745764892578125,-1.31376613856256,1.6099340277165173,0.0022591771036386487
1772867440114830800,5.755830810546875,-1.3716951804399489,1.624160998250544,-0.012803951993584632
1772867440124897000,5.76589697265625,-1.2456816133737563,1.6420418151170015,-0.0803058549888432
1772867440134964000,5.7759638671875,-1.0355097536742686,1.7214833083614707,-0.1288501056663692
1772867440145030100,5.786030029296875,-0.8958359100461005,1.7066434666261077,-0.03623597324639559
1772867440155097000,5.79609716796875,-0.7090466794997453,1.5734078393518924,0.15689780402109027
1772867440165163000,5.8061630859375,-0.46091246115267276,1.5101134710490702,0.32582784501090645
1772867440175229200,5.816229248046875,-0.2618669756233692,1.399670105819404,0.42708968652784823
1772867440185296100,5.826296142578125,-0.06550619913339614,1.3325421507030724,0.48310661117359993
1772867440195362000,5.836362060546875,0.13703648086190223,1.2587228812545537,0.6720376760542393
1772867440205428200,5.84642822265625,0.15129004714190958,1.130851703622937,0.858606687978655
1772867440215495200,5.8564951171875,0.19546938060820102,1.063251162558794,1.0189639848038554
1772867440225561000,5.86656103515625,0.23573650906682014,1.0477122326433659,1.1329311402454971
1772867440235628000,5.8766279296875,0.24370646503269672,1.096705396132171,1.2071755032382905
1772867440245694000,5.88669384765625,0.24926000750660895,1.197498012702167,1.2186309632323682
1772867440255760000,5.896759765625,0.2448620648086071,1.2876856486275792,1.1951339139193295
1772867440265826800,5.906826904296875,0.24743863729834556,1.3935980924293399,1.17185766775012
1772867440275893000,5.91689306640625,0.17253975591957568,1.4489724813878535,1.187211742617935
1772867440285960000,5.9269599609375,0.061821957662701606,1.4360948796361683,1.2691342390231788
1772867440296026000,5.937026123046875,-0.09914543388485908,1.4126342168107628,1.3061165005922317
1772867440306092000,5.947092041015625,-0.19287234985232352,1.4151383085861802,1.2981095736168324
1772867440316159000,5.957158935546875,-0.1760334432542324,1.4095160847902297,1.2338579045891762
1772867440326225200,5.96722509765625,-0.2500724929332733,1.4175702119082212,1.1811619410596788
1772867440336292000,5.9772919921875,-0.3182312524020672,1.4175026996299624,1.1898377072073518
1772867440346358000,5.98735791015625,-0.3672533497244119,1.387605574016273,1.1850886129841207
1772867440356424200,5.997424072265625,-0.45527007135152814,1.3730056785166262,1.2145780345797539
1772867440366491100,6.0074912109375,-0.5066524680644273,1.3626903284683822,1.2815540140047668
1772867440376556500,6.017556640625,-0.6130693542569875,1.365176592326164,1.2608077247045932
1772867440386623700,6.027623779296875,-0.7098311078757047,1.407292271260917,1.1595395995773374
1772867440396689700,6.037689697265625,-0.8328624442607164,1.4137147055238484,1.1442683806873857
1772867440406755300,6.04775537109375,-0.9639332947164774,1.4206430434823036,1.1302201277211308
1772867440416822500,6.057822509765625,-1.0328823277801276,1.4605337398439644,1.068811865425855
1772867440426888400,6.067888427734375,-1.1360305675655602,1.4844772177502512,0.994916315870732
1772867440436954600,6.07795458984375,-1.2225929987311364,1.5086594728484748,0.9319653541781008
1772867440447021600,6.088021484375,-1.29233698156476,1.5732783677533269,0.8532688340820371
1772867440457087500,6.09808740234375,-1.3655027555406092,1.613599564486742,0.7437531050913035
1772867440467154400,6.108154541015625,-1.3861995066106318,1.6018468751117587,0.6249968156769872
1772867440477220600,6.118220703125,-1.4417898764073849,1.5973764516994355,0.5202579456992447
1772867440487286500,6.12828662109375,-1.5250567731589078,1.5525363162368535,0.37262495976015925
1772867440497353500,6.138353515625,-1.5668676239281891,1.4808254172444342,0.21788447990342974
1772867440507419600,6.148419677734375,-1.6138409720271825,1.4799714307636023,0.01996405288130045
1772867440517486600,6.158486572265625,-1.6692635840415955,1.4485080787464975,-0.1265656479910016
1772867440527552500,6.168552490234375,-1.7646400207817554,1.4079691476091742,-0.2564407127909362
1772867440537618700,6.17861865234375,-1.773532936811447,1.3866995650872587,-0.38017581353113056
1772867440547685600,6.188685546875,-1.8196575591266153,1.3063736902236938,-0.5337234303414822
1772867440557751300,6.198751220703125,-1.7095681219011545,1.3049924649983644,-0.6949651087857782
1772867440567818800,6.20881884765625,-1.708274574959278,1.2155085934281349,-0.780152598336339
1772867440577884400,6.218884521484375,-1.630447823435068,1.1898489592537282,-0.9072295568503439
1772867440587950600,6.22895068359375,-1.3767203151255845,1.2685010556861758,-1.0240727061197161
1772867440598017500,6.239017578125,-1.2259557531625032,1.2268822203576564,-1.1665991627000272
1772867440608083500,6.24908349609375,-1.123390281701088,1.120764317111671,-1.2336718804977833
1772867440618150400,6.259150390625,-1.0404647457331417,1.064241342639923,-1.2351954368032514
1772867440628216600,6.269216552734375,-0.9337275415450333,1.0128341037467121,-1.2728677264630794
1772867440638282500,6.279282470703125,-0.8877806138843297,0.9147533764839172,-1.3092496840514243
1772867440648349400,6.289349365234375,-0.8319546817660332,0.8146390975669026,-1.4074680662192403
1772867440658415600,6.29941552734375,-0.7187076572924852,0.7194748422726989,-1.4866624528348444
1772867440668482600,6.309482666015625,-0.6231219617158175,0.623648615938425,-1.4749270068556068
1772867440678548500,6.319548583984375,-0.3970949457585811,0.5642851573437452,-1.4769075131483376
1772867440688614700,6.32961474609375,-0.06670680709481239,0.5114493469521403,-1.5946337288625538
1772867440698681600,6.339681640625,0.14438859719038008,0.5056763165086507,-1.6895057232119142
1772867440708747500,6.34974755859375,0.19092823004722595,0.3985948289275169,-1.7471552174955605
1772867440718814700,6.359814697265625,0.2750947059869766,0.25290099435746666,-1.7701530851148068
1772867440728880600,6.369880615234375,0.4092746283739805,0.09984130719453096,-1.7793034830369054
1772867440738946600,6.379946533203125,0.653141836926341,-0.021250293299555776,-1.7588506237253545
1772867440749013500,6.390013427734375,0.8251461707949638,-0.11866700369566678,-1.6884280109778045
1772867440759079400,6.400079345703125,0.9397253206551074,-0.21194471459090708,-1.6596109356857836
1772867440769145600,6.4101455078125,1.087002040502429,-0.33344021971076726,-1.5830965819343923
1772867440779212500,6.420212646484375,1.0112333905518054,-0.4865492989733815,-1.5240928965628147
1772867440789278500,6.430278564453125,0.8965385053575038,-0.5767857424765825,-1.5249873611845075
1772867440799345400,6.440345458984375,0.8802800289958715,-0.6870894069746136,-1.5041680066481231
1772867440809411600,6.45041162109375,0.8421002282053232,-0.772741153036058,-1.4363608370959757
1772867440819477500,6.4604775390625,0.7393617382645606,-0.8351464635446667,-1.3264366734348236
1772867440829544400,6.47054443359375,0.5932511395871639,-0.7920362206146121,-1.2944903602063655
1772867440839610600,6.480610595703125,0.43826399149298667,-0.794565154570341,-1.1228886157892644
1772867440849677600,6.490677490234375,0.19143208791613578,-0.6656193334445357,-1.023969391875714
1772867440859743500,6.500743408203125,0.08543488844037056,-0.5332715949207544,-1.017382853092253
1772867440869810700,6.510810791015625,0.04139525570571422,-0.46147827834188937,-1.0111609098374843
1772867440879876600,6.520876708984375,-0.0980722516953945,-0.45278059262335296,-0.9473004320845008
1772867440889942500,6.530942626953125,-0.24540099399089813,-0.4828188802734017,-0.8938752774976193
1772867440900009700,6.541009765625,-0.4135217644244432,-0.46633667815849184,-0.974366718186438
1772867440910075400,6.551075439453125,-0.43889118348062034,-0.4205680296741426,-0.9698192840151488
1772867440920141600,6.5611416015625,-0.44641807185411453,-0.389803035184741,-0.9476965917952358
1772867440930208500,6.57120849609375,-0.5467454089999199,-0.4280003716319799,-0.8082331760473549
1772867440940274400,6.5812744140625,-0.7320517075121402,-0.460747918240726,-0.6722415280632674
1772867440950341400,6.59134130859375,-0.7480027253597974,-0.4109896155983209,-0.6345845821030438
1772867440960407600,6.601407470703125,-0.5689496420234441,-0.38995588765889405,-0.6360122768186033
1772867440970473500,6.611473388671875,-0.5157645798027515,-0.4034694492265582,-0.600201689377427
1772867440980540400,6.62154052734375,-0.5196358682781458,-0.49775633716434237,-0.4764635198973119
1772867440990606600,6.631606689453125,-0.43982349589467046,-0.595046060179919,-0.3889055018231272
1772867441000673500,6.641673583984375,-0.24406068529784677,-0.5802782607674598,-0.39018955028429625
1772867441010739500,6.651739501953125,-0.026291210076212882,-0.544301084587723,-0.3615884558305144
1772867441020805600,6.6618056640625,0.029843934121727943,-0.5374664162620901,-0.26679960971996186
1772867441030872600,6.67187255859375,-0.007366144853830337,-0.5184557185828685,-0.1980209647871554
1772867441040938500,6.6819384765625,-0.038059973803162575,-0.48820364205166694,-0.08839256920218468
1772867441051005700,6.692005615234375,-0.08864625170230865,-0.390191888371855,-0.050490270178765055
1772867441061071600,6.702071533203125,-0.08598726162612438,-0.27696166890263557,-0.03242693635225296
1772867441071137500,6.712137451171875,-0.07980009742379188,-0.1386341253168881,-0.08346095801889895
1772867441081204700,6.722204833984375,-0.10848492463827132,0.00577025396451354,-0.07874357410818338
1772867441091270400,6.7322705078125,-0.15235387698113917,0.06631152416691184,-0.03206175630167127
1772867441101337300,6.74233740234375,-0.1892173344761133,0.17657938669919968,-0.0021766133867204187
1772867441111403500,6.752403564453125,-0.20619068110883235,0.18919132325202226,0.03803001705631613
1772867441121469400,6.762469482421875,-0.22897242175936697,0.23441534346565604,0.04969005971178412
1772867441131536400,6.772536376953125,-0.19898352620899676,0.19273411042541264,0.12877441008165477
1772867441141602600,6.7826025390625,-0.11870119822621344,0.151209090860188,0.1959533647328615
1772867441151669500,6.79266943359375,-0.15580606326162813,0.1526503757096827,0.24909108068048952
1772867441161735400,6.8027353515625,-0.19561668012440203,0.10769918108806013,0.3046224137663841
1772867441171801600,6.812801513671875,-0.22417174347937105,0.09268778217807412,0.31559301285296676
1772867441181868500,6.82286865234375,-0.21072949358224868,0.07249722706452012,0.2926639726862311
1772867441191934500,6.8329345703125,-0.1329769763380289,0.03649111705124378,0.28172786039113995
1772867441202001700,6.843001708984375,0.0008639233529567718,0.0733301707573235,0.3135407564982772
1772867441212067600,6.853067626953125,-0.003714636608958244,0.11812559029534458,0.392831735356152
1772867441222134500,6.863134521484375,-0.13088321892917154,0.12030395724773406,0.4565129110194742
1772867441232200700,6.87320068359375,-0.16249416272342204,0.12707637399211524,0.49493017382770776
1772867441242266400,6.883266357421875,-0.10751228021383284,0.13920271898508071,0.538134524782002
1772867441252333600,6.89333349609375,-0.04233107525110245,0.0887964738279581,0.5783934699341654
1772867441262399500,6.9033994140625,0.06586275748610496,0.03703969084471464,0.6333198228642344
1772867441272466400,6.913466552734375,0.18778291775882244,0.009162088359892368,0.7527816301994025
1772867441282532400,6.923532470703125,0.21200725843310356,-0.0861973972454667,0.8227243504755198
1772867441292598500,6.9335986328125,0.14694704950153828,-0.23877178510949015,1.000792076036334
1772867441302665500,6.94366552734375,0.037356209447979925,-0.47384237761348486,1.2121053608559071
1772867441312731400,6.9537314453125,0.0781388862133026,-0.6917823870964348,1.4017732155784963
1772867441322798600,6.963798583984375,0.07393383573889732,-0.8078732566937804,1.602636125793308
1772867441332864500,6.973864501953125,0.01618950277864933,-0.9376803708240389,1.748823735229671
1772867441342930400,6.983930419921875,-0.06796703628897667,-1.1431408379621804,2.0357396657831965
1772867441352997600,6.99399755859375,-0.4641851992130279,-1.3980685158416628,2.4063671681158243
1772867441363063600,7.0040634765625,-0.8330845625787973,-1.6065899779856203,2.701856573486328
1772867441373131000,7.014131103515625,-1.2714151895672081,-1.656472199268639,2.9344013007745144
1772867441383197200,7.024197265625,-1.9492326180666684,-1.535558293429017,3.049881198866665
1772867441393263000,7.03426318359375,-2.5939263601213693,-1.4362328268021345,3.0650264532893896
1772867441403330000,7.044330078125,-3.2532501005530357,-1.4531956520408391,3.0843446094825864
1772867441413396000,7.05439599609375,-3.765377785158157,-1.3588053037285803,2.9760861870765685
1772867441423463200,7.064463134765625,-3.929730142968893,-1.2203667009837924,2.624829447907209
1772867441433528800,7.07452880859375,-4.019229212108254,-0.9088041126906872,2.136356049003452
1772867441443595000,7.084594970703125,-3.9985961739242075,-0.7267313892722129,1.7749761213570832
1772867441453662000,7.094661865234375,-4.077213199043274,-0.7710022004142403,1.3238969258241355
1772867441463727900,7.104727783203125,-3.9838492711693045,-0.4766121345877647,0.977422744756192
1772867441473794800,7.114794921875,-3.6278462142556904,-0.1305830669388175,0.541247103844583
1772867441483861000,7.124861083984375,-3.0055384915322065,0.24261837753504514,0.0743420512136072
1772867441493927000,7.134927001953125,-2.566518713235855,0.8710656259268522,-0.14048311418443918
1772867441503994000,7.144994140625,-2.231102517277002,1.149479539464414,-0.34860929340049623
1772867441514060000,7.15506005859375,-1.6014502770096062,1.3113158228009938,-0.44806846940964457
1772867441524127000,7.165126953125,-0.9250637580960989,1.5108853322044014,-0.5181546898096799
1772867441534193200,7.175193115234375,-0.36681554282903667,1.68189977825284,-0.6984680023401976
1772867441544259000,7.185259033203125,0.09478606963157653,1.784422579616308,-0.834983674198389
1772867441554326000,7.195325927734375,0.3986123645842075,1.7758266007065773,-0.8954821281723677
1772867441564392200,7.20539208984375,0.6582008738815784,1.8335984061956405,-0.9252093040466308
1772867441574459100,7.215459228515625,0.8779039475142956,1.849401247744262,-1.0655644079372286
1772867441584525000,7.225525146484375,1.2962813352763651,2.010482036538422,-1.328227502374351
1772867441594592000,7.235592041015625,1.7190210099011658,2.095811126516759,-1.5906239086993037
1772867441604658000,7.245657958984375,1.965591047671437,2.1976111665636298,-1.7096812268868087
1772867441614723800,7.255723876953125,2.082308378604054,2.3266996110305187,-1.83820560773015
1772867441624790800,7.265790771484375,2.1953572501569987,2.2943369720861315,-1.9111437104299664
1772867441634857000,7.27585693359375,2.234077149173617,2.257106727105379,-1.9348096865691244
1772867441644924000,7.285923828125,2.2595991284430026,2.2548910968825218,-1.874312401638925
1772867441654990000,7.295989990234375,2.2702491172730923,2.13758515240699,-1.7841158517546951
1772867441665056000,7.306055908203125,2.1297855845719575,2.107150558915734,-1.7205151939816772
1772867441675123000,7.316123046875,2.134687969660759,2.2964175777524707,-1.8944366135179995
1772867441685189000,7.326189208984375,2.5015654718101024,2.384175063921511,-2.037974439097941
1772867441695256000,7.336256103515625,2.764138549876213,2.3477193104445933,-2.1633719200924038
1772867441705322000,7.346322021484375,2.707789470666647,2.3974831660449505,-2.0232751748770474
1772867441715388200,7.35638818359375,2.4655016402602192,2.4549545272827147,-1.7628451001890002
1772867441725455000,7.366455078125,2.3384949705034495,2.02595579226315,-1.6538263609349726
1772867441735521000,7.37652099609375,2.1869436420768498,1.8392916494011877,-1.3990011205166577
1772867441745588000,7.386587890625,2.087875949603319,1.5995213547736404,-1.2415706709235905
1772867441755654100,7.396654052734375,2.0987685150176287,1.3862678956717251,-1.2413092435084283
1772867441765719800,7.4067197265625,2.290388234460354,1.182781212824583,-1.1441861092314123
1772867441775786800,7.416786865234375,2.2333225314140317,0.8789128322958946,-0.9438898929886519
1772867441785853000,7.42685302734375,1.854215077766776,0.587698766157031,-0.6614134061872958
1772867441795920000,7.436919921875,1.4552350489139556,0.32567017023116346,-0.48777621041983366
1772867441805986000,7.446986083984375,1.2776356715172528,0.13497194954752922,-0.5499743079185485
1772867441816052000,7.457052001953125,1.1159276907354592,-0.07373363699167966,-0.56021045525074
1772867441826119000,7.467118896484375,0.6855944922417402,-0.27551293139904737,-0.4978165429189801
1772867441836185000,7.47718505859375,0.34981647723317144,-0.4229986178219318,-0.5059389129675924
1772867441846252000,7.487251953125,0.13928805918097495,-0.4956070501759648,-0.522103865826875
1772867441856318000,7.49731787109375,-0.0175239662528038,-0.5582698425769805,-0.5957656066261231
1772867441866385000,7.507385009765625,-0.22412731981575487,-0.5653846430182456,-0.6457669242441654
1772867441876451000,7.517451171875,-0.4759866961658001,-0.49569852785170077,-0.7553801222600043
1772867441886517000,7.52751708984375,-0.8416974926233292,-0.5417606063246727,-0.7027740289710461
1772867441896584000,7.537583984375,-1.291249770849943,-0.5722273485198617,-0.6087178810492158
1772867441906650000,7.547650146484375,-1.4062304872483014,-0.5877335452094674,-0.5746436158813536
1772867441916717000,7.557717041015625,-1.392417065951228,-0.6171873109698295,-0.586573123127967
1772867441926783000,7.567782958984375,-1.3822048840165138,-0.5153875631839037,-0.5902968198262155
1772867441936849000,7.577848876953125,-1.4811930815130472,-0.39042116708308455,-0.6465373240947723
1772867441946916000,7.587916015625,-1.753135460948944,-0.3992942093685269,-0.5685442760929464
1772867441956982000,7.59798193359375,-1.8252917656213044,-0.4017363418236375,-0.4399950530692935
1772867441967049000,7.608049072265625,-1.7019582314193247,-0.22569968369901178,-0.3690373105317354
1772867441977115000,7.618114990234375,-1.5783073018312452,-0.13057049971818924,-0.3183035869859159
1772867441987181000,7.62818115234375,-1.6146780073732137,0.17426292645037172,-0.3724558868035674
1772867441997248000,7.638248046875,-1.3659464076548813,0.16461188552975653,-0.3743943075202405
1772867442007314000,7.64831396484375,-1.2919780851244926,0.1860457187026739,-0.2002826261088252
1772867442017380900,7.658380859375,-1.3886901543825865,0.1187029517918825,-0.08030833920687437
1772867442027447000,7.668447021484375,-1.210856968230009,0.08202274190932511,-0.0029319617986679077
1772867442037513000,7.678512939453125,-0.9575725275129079,0.11058394274413585,0.10992167944312095
1772867442047580000,7.688579833984375,-0.9454396066486835,0.0887228240698576,0.14291414072364567
1772867442057646000,7.69864599609375,-0.9027426206946373,0.05266922165304422,0.16070260313153267
1772867442067713000,7.708713134765625,-0.9596867431879043,-0.08992255524843931,0.22209069942161438
1772867442077779000,7.718779052734375,-1.0621586911469698,-0.15988777961730957,0.3081706077672541
1772867442087846100,7.72884619140625,-1.0844050097465514,-0.23547610456496476,0.3289719882555306
1772867442097912000,7.738912109375,-1.0029881247758865,-0.24753040723502634,0.2941376985006034
1772867442107978000,7.74897802734375,-0.9480576801925897,-0.28346418266445395,0.2703852131217718
1772867442118045200,7.759045166015625,-0.9933318231582641,-0.31420009718984365,0.30061653912588954
1772867442128110800,7.76911083984375,-0.9662807346254587,-0.33269115490913387,0.33748861831873656
1772867442138178000,7.779177978515625,-1.1238859562635422,-0.27438275832533837,0.3489496312707662
1772867442148244000,7.789243896484375,-1.1555746414691208,-0.23842735558599232,0.39927024397104977
1772867442158310000,7.799309814453125,-1.005650621983409,-0.25017624556869267,0.3969724884226918
1772867442168376800,7.809376953125,-1.0968646783471108,0.04541033656597137,0.35683585447594524
1772867442178443000,7.819443115234375,-1.3154787876993417,-0.05682546454966068,0.2639434896364808
1772867442188510000,7.829510009765625,-1.3927578422129154,-0.0058019642770290375,0.17968802023902533
1772867442198575900,7.839575927734375,-1.3497598274856806,0.04868015201687813,0.15793547650575637
1772867442208642000,7.84964208984375,-1.3062906881153582,0.01591331618577242,0.04497472162768244
1772867442218709000,7.859708984375,-1.3201233986347913,-0.10611351933181286,0.04773103459849953
1772867442228775000,7.86977490234375,-1.467901638263464,-0.09220306740105151,0.035724370462447405
1772867442238842000,7.879842041015625,-1.5190087251663207,-0.05059299990087747,0.01447714590281248
1772867442248908000,7.889907958984375,-1.564937532648444,0.05578881497830152,-0.08232084807306528
1772867442258974000,7.899973876953125,-1.4621481893032788,0.14062310717701912,-0.19522315076217053
1772867442269041200,7.910041259765625,-1.4627216052770613,0.394611019988358,-0.13050459487512706
1772867442279107000,7.920107177734375,-1.4943015694111585,0.4160919071733951,-0.12448898784741759
1772867442289174000,7.930174072265625,-1.2113321845263243,0.3714204062759876,-0.16562924587875605
1772867442299240200,7.940240234375,-1.114866783505678,0.3340966377928853,-0.106915191103518
1772867442309305900,7.950305908203125,-1.2825596839159725,0.13127484859526156,-0.01635726056098938
1772867442319372800,7.960372802734375,-1.3778139555811881,-0.002526011346280575,-0.003991115462779998
1772867442329439000,7.97043896484375,-1.2105588620662688,-0.08851385749429463,-0.05746653893217444
1772867442339506000,7.980505859375,-0.8849813385546207,-0.0656955842256546,-0.07513429756984114
1772867442349571800,7.99057177734375,-0.7058025830119847,-0.03256605256199836,-0.03381313001364469
1772867442359638000,8.000637939453124,-0.735448364213109,0.02090864025503397,-0.061534519023448225
1772867442369705000,8.010705078125,-0.6244014801323413,0.059058630429208274,-0.02155409855172038
1772867442379770600,8.0207705078125,-0.44395431208908553,0.07607406263798475,-0.040015053393691775
1772867442389836500,8.03083642578125,-0.26678455828130243,0.11531418613642454,-0.039437691897153855
1772867442399903500,8.040903564453124,-0.18354162692725656,0.08888970506936311,0.031024083817005155
1772867442409969700,8.0509697265625,-0.14779226815402507,0.05735474912077188,0.07159034135267138
1772867442420036600,8.06103662109375,-0.030744682353734967,0.08051818256527185,0.07230959553793072
1772867442430102500,8.0711025390625,-0.07133680498301982,0.08596095814108848,0.05510960054248571
1772867442440168700,8.081168701171874,-0.19350655610263345,0.15609101768285036,0.010035510193556547
1772867442450235600,8.091235595703125,-0.2627764916837215,0.24711072051823138,-0.12188596574217081
1772867442460301600,8.101301513671874,-0.22980711901783943,0.3550575927570462,-0.2492348730653524
1772867442470368500,8.111368408203125,-0.10503858357667922,0.3732254098713398,-0.3843947464004159
1772867442480434400,8.121434326171874,0.11710779155492781,0.381229560367763,-0.466721439692378
1772867442490500400,8.131500244140625,0.05856383264958858,0.38423663322925566,-0.4731019345097244
1772867442500567600,8.141567626953124,-0.06485270366072654,0.338524683368206,-0.5813515890873968
1772867442510633500,8.151633544921875,0.09505144256949424,0.44400808810293674,-0.6745721629679202
1772867442520700400,8.161700439453124,0.2072480812072754,0.4997054254055023,-0.76512351763919
1772867442530766600,8.1717666015625,0.12559504939317703,0.48723231280148027,-0.8106132030516863
1772867442540832500,8.18183251953125,0.2166898632913828,0.4985848969429731,-0.8231541201949119
1772867442550899500,8.1918994140625,0.38895606296658514,0.5584457836657762,-0.8647136265516281
1772867442560965600,8.201965576171874,0.5155787018418312,0.6288806713730096,-0.9003419892936945
1772867442571032600,8.212032470703125,0.490843489035964,0.6101198568016291,-0.8511638246268034
1772867442581098500,8.222098388671874,0.30422493888139723,0.5300502947866916,-0.8440878948912024
1772867442591164700,8.23216455078125,0.23418343440592287,0.5057154794752597,-0.9624145607165991
1772867442601231600,8.242231689453124,0.35312487112879754,0.4437479758620262,-1.1784878995448351
1772867442611297500,8.252297607421875,0.3654343176037073,0.3459954576402902,-1.3175979718104005
1772867442621364500,8.262364501953124,0.3050409314393997,0.2148456967294216,-1.392340785844624
1772867442631430700,8.2724306640625,0.3052501902759075,0.07579436891376971,-1.4578430394552646
1772867442641496300,8.282496337890626,0.31411154212355613,-0.10227847121357918,-1.427138981372863
1772867442651563500,8.2925634765625,0.4590869992911815,-0.0023047698110342024,-1.3051624147377907
1772867442661629400,8.30262939453125,0.3850619781374931,-0.3617114976882934,-1.4425782503060995
1772867442671696400,8.3126962890625,-0.06359715064167976,-1.0178460866898298,-1.477905438144505
1772867442681762600,8.322762451171876,0.10889584352672099,-0.6187357094556093,-0.8891036791816354
1772867442691828500,8.332828369140625,0.2570131058514118,-0.4448533067554235,-0.8012443400733172
1772867442701895400,8.3428955078125,0.28427286869883533,-0.27755437409877776,-0.7770984714627266
1772867442711961600,8.352961669921875,0.5316875405997038,-0.09782032276093959,-0.5759450538687407
1772867442722028500,8.363028564453124,0.7168301729828119,-0.23442601099014282,-0.6524031473882496
1772867442732094500,8.373094482421875,0.5949696339428424,-0.0620224486708641,-0.8060062937781214
1772867442742160600,8.38316064453125,0.6203653564840554,0.056602177187800404,-0.6136281571835279
1772867442752227600,8.3932275390625,0.5448638330370188,0.08631927005946635,-0.21634631055071948
1772867442762293500,8.40329345703125,0.29756138933897014,0.13974632434248924,-0.029112258846312758
1772867442772359700,8.413359619140625,0.3888619549423456,0.2911737341284752,-0.038964083036035296
1772867442782426600,8.423426513671876,0.7214350364297628,0.4034913687974214,-0.00774812990874052
1772867442792492500,8.433492431640625,0.6983890918850898,0.36915246134400365,0.14557999893203377
1772867442802559500,8.4435595703125,0.37204993635118006,0.23000994811356065,0.26193331885784865
1772867442812625700,8.453625732421875,0.3090583503872156,0.24532617518901823,0.23516148565784095
1772867442822691300,8.46369140625,0.3897685483932495,0.2976473140567541,0.19722002366781233
1772867442832758500,8.473758544921875,0.29363749389350413,0.2779962726473808,0.3378007530078292
1772867442842824400,8.483824462890626,0.17103928822875022,0.2679004105687141,0.3309155235387385
1772867442852891400,8.493891357421875,0.21411212175786493,0.35973289109170437,0.27224370047003027
1772867442862957600,8.50395751953125,0.2628992412805557,0.3870096050739288,0.3045306438297033
1772867442873023500,8.5140234375,0.2406470774620771,0.352683849363029,0.3761420279704034
1772867442883090400,8.52409033203125,0.3843786720484495,0.3825996796771884,0.4654568265840411
1772867442893156600,8.534156494140625,0.42269583548307416,0.3294523191183805,0.5647533593773841
1772867442903223600,8.5442236328125,0.32785657435953613,0.24924510219842194,0.5309390603199601
1772867442913289500,8.55428955078125,0.3050841860592365,0.179309103924036,0.548701511503756
1772867442923355600,8.564355712890626,0.20970774931907651,0.022946283562481403,0.7010828610137104
1772867442933422600,8.574422607421875,0.012259762114286423,-0.17954905015975237,0.8985331863060593
1772867442943488500,8.584488525390626,-0.3572819908082485,-0.34592268466502424,1.1941235678330062
1772867442953554700,8.5945546875,-0.7781979571372271,-0.304048121009767,1.0515656932011246
1772867442963621600,8.60462158203125,-0.5515320587545633,0.006897066037356853,0.7319871178433298
1772867442973687600,8.6146875,-0.20816928770542142,0.22607465449124572,0.579026507140696
1772867442983754800,8.624754638671876,-0.33058746062815186,0.3548962647154927,0.6149962306663393
1772867442993821700,8.63482177734375,-0.7780518266648053,0.46736704411953683,0.42861674996465443
1772867443003887600,8.6448876953125,-0.6866589066028594,0.4845072717517614,0.23459026164114474
1772867443013953500,8.65495361328125,-0.7795207301735878,0.4051820983633399,0.11999094577580689
1772867443024020500,8.6650205078125,-0.8256050204783677,0.3431961823105812,0.07847410951703786
1772867443034086400,8.67508642578125,-0.6859259161531924,0.32193069144189357,-0.1054535941183567
1772867443044153300,8.6851533203125,-0.3637006256788969,0.32382015845030543,-0.277149300429225
1772867443054219500,8.695219482421875,-0.010847557228803635,0.32778847755938767,-0.4112348225310445
1772867443064285400,8.705285400390625,0.2991255699157715,0.3172287973612547,-0.4656912198618054
1772867443074352400,8.715352294921875,0.5551788908243179,0.27744565302729607,-0.4464145647227764
1772867443084418600,8.72541845703125,0.7060586035996675,0.08909341094791888,-0.48702363848686214
1772867443094484500,8.735484375,0.9703718033313751,0.05915419975817203,-0.34710867957919833
1772867443104551700,8.7455517578125,1.1276561224520205,-0.06644815615862608,-0.16896628134697675
1772867443114617600,8.75561767578125,1.2480179473668336,-0.1732055263519287,-0.10638912140280007
1772867443124684500,8.7656845703125,1.369497962656617,-0.23090251303911208,0.03019786212593317
1772867443134750700,8.775750732421875,1.1015221487641333,-0.3227779559209943,0.10671820722669362
1772867443144816600,8.785816650390625,0.8939858982652426,-0.41515053467005486,0.2752045961022377
1772867443154883600,8.795883544921875,0.6438613828837871,-0.6719944214344025,0.7330839731693267
1772867443164949500,8.805949462890625,0.12453531120717524,-0.8253051607489585,1.423016202354431
1772867443175016700,8.8160166015625,-0.08757073142528533,-0.7670406033068895,1.6940899822622537
1772867443185082400,8.826082275390625,0.19535949049293994,-0.6629921998113394,1.3056599889963865
1772867443195148500,8.8361484375,0.29084289473891256,-0.36986470126658677,0.7704100797399878
1772867443205215500,8.846215576171875,0.22493396002352237,0.014565700969099997,0.3736331138893962
1772867443215281400,8.856281494140624,0.16400047563314438,0.23683920961171387,0.1797553863868117
1772867443225347600,8.86634765625,-0.06623217532038689,0.28381518805921074,0.2716375512704253
1772867443235414500,8.87641455078125,-0.41646424761712547,0.2526934890866279,0.4557429495602846
1772867443245480400,8.88648046875,-0.6113935299992561,0.29246494298279285,0.5005547357112169
1772867443255547600,8.896547607421875,-0.6911404359310865,0.3561240529447794,0.38548634102940554
1772867443265613600,8.906613525390625,-0.678604779484868,0.4538555283784866,0.2181631507143378
1772867443275679500,8.916679443359374,-0.6250964766591787,0.5367910012185573,0.11948182720988988
1772867443285746700,8.92674658203125,-0.5881698908001184,0.573998449845612,0.16044249089062212
1772867443295812600,8.9368125,-0.6556289775669575,0.36473785977214573,0.23723551545292137
1772867443305878500,8.94687841796875,-0.6789929020196199,0.22164076369702815,0.2752735696852207
1772867443315945700,8.95694580078125,-0.6140303082436323,0.3951207230761647,0.24710896695256232
1772867443326011400,8.967011474609375,-0.47085400945246214,0.39956250491589307,0.02400689853131771
1772867443336078600,8.97707861328125,-0.30601708299517627,0.42208617915213104,-0.08169687095582484
1772867443346144500,8.98714453125,-0.2637941442936659,0.4634013553589582,0.007310615274310111
1772867443356210400,8.99721044921875,-0.34702363164424893,0.40477614791095257,0.04412088127732277
1772867443366277400,9.00727734375,-0.3741378485411405,0.33026451228410003,0.15951923856586217
1772867443376344800,9.0173447265625,-0.40671091536581516,0.2627434661969542,0.21335575043261049
1772867443386411000,9.027410888671875,-0.43770635761022564,0.2507017307475209,0.11234393815398215
1772867443396478000,9.03747802734375,-0.3705518067479133,0.23749212056249377,-0.007238426820933818
1772867443406544000,9.0475439453125,-0.37175007662177084,0.24795389334410428,-0.03583265314251184
1772867443416611000,9.057611083984375,-0.3980693437486887,0.15501023670881986,-0.0632248101979494
1772867443426676700,9.0676767578125,-0.46371699717938897,0.020384616380929945,-0.06461626455634832
1772867443436742700,9.07774267578125,-0.39395723225474355,0.025371757143735883,0.0019449965879321097
1772867443446809900,9.087809814453125,-0.364672101059556,-0.0065332011610269546,-0.038815760606527326
1772867443456875800,9.097875732421874,-0.368743296021223,-0.1557262760236859,-0.12560615530908106
1772867443466942000,9.10794189453125,-0.3942337111085653,-0.2680728445261717,-0.03685322836190462
1772867443477009000,9.1180087890625,-0.5036936182588339,-0.3224778039306402,0.05927490352839231
1772867443487074800,9.12807470703125,-0.49070495734810826,-0.37090748831778764,-0.04686491928845644
1772867443497141000,9.13814111328125,-0.3682213179737329,-0.34936201146394014,-0.11713526408374308
1772867443507208000,9.1482080078125,-0.40101650311648845,-0.3308963804468512,-0.16761545125991106
1772867443517273900,9.15827392578125,-0.39824879196882246,-0.3591214811950922,-0.17909984508752821
1772867443527340800,9.1683408203125,-0.3812883048176765,-0.38010494025200603,-0.152607851742208
1772867443537407000,9.178406982421874,-0.4265092562913894,-0.33203795169740913,-0.1692272703707218
1772867443547473000,9.188472900390625,-0.38506139361560343,-0.282930806440115,-0.21111352446377277
1772867443557539800,9.198539794921874,-0.23374095133543013,-0.1994894299045205,-0.2776400065556168
1772867443567606000,9.20860595703125,-0.08653612768054007,-0.11162585301250219,-0.36395839983224865
1772867443577671700,9.218671630859374,-0.006321019715070724,-0.06579787555634975,-0.42384675908386704
1772867443587739000,9.22873876953125,0.07390811677575111,-0.014746610493957996,-0.3774079562529921
1772867443597804800,9.2388046875,0.07696165912747382,0.002234919445216656,-0.34115503187179563
1772867443607870700,9.24887060546875,0.09623685296177864,0.013498948520421982,-0.32458558986485003
1772867443617938000,9.25893798828125,0.17168693848252295,0.12001929508745669,-0.3179141492769122
1772867443628003800,9.26900390625,0.22930092306137084,0.19377660521566867,-0.3851122470200062
1772867443638070800,9.27907080078125,0.32567923032045365,0.282999780023098,-0.438425611795485
1772867443648137000,9.289136962890625,0.32487025202512737,0.34647681141644715,-0.3757572664365172
1772867443658203000,9.299202880859376,0.2036100169658661,0.2984939940139651,-0.20931904226243495
1772867443668269800,9.309269775390625,0.21616963880956172,0.32625995281785725,-0.16324118169844148
1772867443678336000,9.3193359375,0.3691138828992843,0.4059808475255966,-0.22199118456989525
1772867443688402000,9.32940185546875,0.42220074544250963,0.3787517720773816,-0.28159137452989813
1772867443698468900,9.33946875,0.349793096357584,0.3306181480273604,-0.2577010881155729
1772867443708535000,9.34953515625,0.2963303862392902,0.2335921905145049,-0.17421294982880353
1772867443718600700,9.3596005859375,0.2503337742179632,0.10426643016040324,-0.07311842770278454
1772867443728668000,9.36966796875,0.20541618960499763,0.04767126723527908,0.010835282269120216
1772867443738733800,9.37973388671875,0.16500819137096404,-0.03280015357881784,0.07914280255883932
1772867443748800800,9.38980078125,0.13231237494945525,-0.07768938888013363,0.06887830591499805
1772867443758866700,9.39986669921875,0.10576572880744933,-0.073401044036448,0.10912526836842298
1772867443768932900,9.409932861328125,-0.02511924368739128,-0.16577303826361894,0.17923019346892832
1772867443778999800,9.419999755859376,-0.07580898196101188,-0.13341624453812836,0.1575993764191866
1772867443789065700,9.430065673828125,0.02492927407324314,-0.09118716835677623,0.07611351786553859
1772867443799132000,9.4401318359375,0.032839024284482,-0.07369242819845676,0.0504109213322401
1772867443809198800,9.45019873046875,-0.08108546105921267,-0.03742050685584545,0.10813830315768717
1772867443819264800,9.4602646484375,-0.1553933908075094,-0.0632686493396759,0.19695026681572197
1772867443829331000,9.4703310546875,-0.26650807942748067,-0.07041881335526705,0.27664515029937026
1772867443839398000,9.48039794921875,-0.3976934961736202,-0.06359773516356945,0.3023150136068463
1772867443849464000,9.490464111328125,-0.38885377163588997,0.009658639705181122,0.3052528206244111
1772867443859530000,9.500530029296876,-0.3393880221992731,0.13323533501327037,0.19454612828344106
1772867443869597000,9.510596923828125,-0.3831459153831005,0.23484686675071714,0.14759703784286976
1772867443879662800,9.520662841796875,-0.4562520681262016,0.2953092264980078,0.17774287752062082
1772867443889730000,9.53072998046875,-0.544372834649682,0.31486236049085853,0.23038374986201524
1772867443899795700,9.540795654296875,-0.6025351007610559,0.2968570404618978,0.2515717915803194
1772867443909862000,9.55086181640625,-0.6344201853215694,0.3222428261309862,0.2152966553673148
1772867443919928800,9.5609287109375,-0.6003279461055994,0.366012994274497,0.14451836104989052
1772867443929994800,9.570994873046875,-0.5901549271374941,0.4016676605015993,0.07026216148883103
1772867443940061000,9.58106103515625,-0.6144435652196407,0.3863143162861466,0.06188654733151197
1772867443950127900,9.5911279296875,-0.6463128676891327,0.33063188429176804,0.07943506350368261
1772867443960193800,9.60119384765625,-0.6562041471064091,0.3082672000095248,0.07805763767063617
1772867443970260000,9.611260009765624,-0.6016559798389672,0.26885376577079295,0.07437894915789366
1772867443980327000,9.621326904296875,-0.5887941601783037,0.2028890092149377,0.11001695651113987
1772867443990392800,9.631392822265624,-0.5644891554832459,0.17605682412981985,0.10282733726799488
1772867444000459000,9.641458984375,-0.48997313594222064,0.16654928333312272,0.08853285445570945
1772867444010526000,9.65152587890625,-0.38540509248673915,0.1898424806371331,0.0898185103520751
1772867444020591900,9.661591796875,-0.2926280245900154,0.15571896950006484,0.09332476490736007
1772867444030657800,9.67165771484375,-0.26847558010816575,0.10657470710277557,0.1254214463919401
1772867444040724700,9.681724853515625,-0.21442250288128853,0.06944879927933216,0.17332623012214898
1772867444050791000,9.691791015625,-0.11658639802932738,0.007682663457095623,0.17514993841797113
1772867444060856800,9.70185693359375,-0.06885667860507964,-0.006322188758850098,0.18735621677935121
1772867444070923800,9.711923828125,0.0028618191719055174,0.0005360065728425979,0.18078735978305338
1772867444080990000,9.721989990234375,0.07717793222665786,0.021040449941158293,0.1754360618829727
1772867444091055900,9.732055908203124,0.11925883210897445,0.036923955510556696,0.15539514437317847
1772867444101122800,9.742122802734375,0.14455109427571297,0.07861059537827968,0.11830343108028173
1772867444111189000,9.75218896484375,0.15740531515181064,0.07832154930382966,0.11556260793954133
1772867444121256000,9.762255859375,0.15594868660271166,0.0479556371346116,0.1300970369875431
1772867444131321900,9.77232177734375,0.14268062422871589,0.042781741628050804,0.0948985900953412
1772867444141388000,9.782387939453125,0.15639058515131474,0.06646393824964761,0.06369476579725741
1772867444151455000,9.792455078125,0.1506090791404247,0.05949409923702478,0.005990180325508117
1772867444161521000,9.80252099609375,0.1405798525571823,0.044371056646108624,-0.05071019653975963
1772867444171586800,9.8125869140625,0.10405658680200576,0.028593349538743495,-0.06470774223208427
1772867444181654000,9.822654052734375,0.04242576779723167,0.001393207924067974,-0.04501227715909481
1772867444191719700,9.8327197265625,0.09332184229791164,0.044917000091075895,-0.06742226188778877
1772867444201785900,9.842785888671875,0.17084756504893303,0.038780981554090974,-0.16234423285871744
1772867444211852800,9.852852783203126,0.1411854172348976,0.04391162244081497,-0.19184183776080607
1772867444221918700,9.862918701171875,0.07639584193825721,-0.018204057471454142,-0.1657011420711875
1772867444231985000,9.87298486328125,0.02380991465449333,-0.06006839199364185,-0.13634411468356847
1772867444242051800,9.8830517578125,-0.030209844824671744,-0.05681055924147367,-0.15979600968062876
1772867444252117800,9.89311767578125,-0.028926234754920004,-0.034659225448966026,-0.20625877790898084
1772867444262184000,9.903183837890625,-0.010376432585716248,-0.03574906651228666,-0.21402356669157743
1772867444272251000,9.9132509765625,-0.011995558220148085,-0.06909077962189912,-0.20093758288621902
1772867444282316800,9.92331689453125,-0.0712158089518547,-0.08834405388534068,-0.1808171703994274
1772867444292383000,9.933383056640626,-0.05983458323776722,-0.0968462170317769,-0.14722148252874612
1772867444302450000,9.943449951171875,-0.010526070189476013,-0.01744417901486158,-0.14218904131948948
1772867444312516000,9.95351611328125,0.027673604345321654,0.039080841283500194,-0.11255465829521417
1772867444322581800,9.963581787109375,-0.00878945565521717,0.03800795135498047,-0.0991293595328927
1772867444332648700,9.973648681640626,0.013003273957967758,0.07519260362833738,-0.09716332015693187
1772867444342715000,9.98371484375,0.04317746294736862,0.09078151016533374,-0.06380962434858084
1772867444352780800,9.99378076171875,0.06478256103396415,0.05707330183088779,0.04384264885783195
1772867444362847700,10.00384765625,-0.048585459470748896,0.03060439710021019,0.0911497589558363
1772867444372913000,10.013912841796875,-0.08917056783735751,0.0264472774207592,0.08298428041785955
1772867444382978800,10.023978759765624,-0.06673427962362766,0.03093991266489029,0.041595746713876725
1772867444393046000,10.0340458984375,-0.05838613799512386,0.04981909291893243,0.004132277499139309
1772867444403112000,10.04411181640625,-0.10601298156678676,0.04848872109800577,0.0013166355565190314
1772867444413177900,10.054177734375,-0.17367314386367796,0.0008168693408370018,0.03029839989095926
1772867444423245000,10.0642451171875,-0.21154899327158927,-0.0234539408236742,0.05335048191547394
1772867444433311000,10.07431103515625,-0.2647241186201572,0.0021817279532551762,0.044780806490778924
1772867444443377000,10.084376953125,-0.296127557143569,0.003670505206286907,0.022440379866957662
1772867444453444000,10.094444091796875,-0.30379706885814667,0.009009235885739326,-0.005298983190953731
1772867444463510000,10.104510009765624,-0.3330547275245189,0.023203765454888343,-0.04319938251823187
1772867444473576200,10.114576171875,-0.35143618738949295,0.06449409948140382,-0.10330372260808944
1772867444483643100,10.12464306640625,-0.3439244965851307,0.11905571075230836,-0.17461685445457695
1772867444493709000,10.134708984375,-0.3143792531490326,0.11401917788982391,-0.20348288345485924
1772867444503775000,10.14477490234375,-0.31944413532316684,0.08895341795533895,-0.1887654990553856
1772867444513842200,10.15484228515625,-0.3112064683318138,0.09525982462316751,-0.1438148889556527
1772867444523907800,10.164907958984376,-0.288743876633048,0.08451280515938997,-0.15735446174740791
1772867444533974000,10.17497412109375,-0.3257622324287891,0.1220817805752158,-0.19449410583525895
1772867444544041000,10.185041015625,-0.34130233138799665,0.07351794841438532,-0.2124579248100519
1772867444554107000,10.19510693359375,-0.2652390824049711,0.01055792663246393,-0.17993571138978004
1772867444564173000,10.205173095703126,-0.19062194057703016,-0.04362403767108917,-0.13464666311591864
1772867444574240000,10.215239990234375,-0.16847732878625393,-0.11078238792568444,-0.06316957287937403
1772867444584306000,10.225305908203126,-0.17547405580580233,-0.1698766741901636,0.010902502286434173
1772867444594372000,10.2353720703125,-0.1760907263994217,-0.16397621797472237,0.056011225557327265
1772867444604439000,10.24543896484375,-0.1716810932636261,-0.17461130149662493,0.10420125596970319
1772867444614505000,10.2555048828125,-0.20750176370739937,-0.17495675393342972,0.1589975527793169
1772867444624571100,10.265571044921876,-0.2157137117356062,-0.1422621065557003,0.1630535501718521
1772867444634638000,10.27563818359375,-0.1762824495792389,-0.06713321581333875,0.14390490532666445
1772867444644704000,10.2857041015625,-0.1556979267120361,0.04803308628499508,0.11973989362418651
1772867444654770000,10.29577001953125,-0.1944412066042423,0.07044394779652356,0.12865560600757597
1772867444664836900,10.3058369140625,-0.20641630655825136,0.09286153130978346,0.18998919563144445
1772867444674903000,10.315903076171875,-0.21573767713308334,0.128588385990262,0.21972645450830458
1772867444684969000,10.325968994140625,-0.23723463867008684,0.22901129246503113,0.16761282091140747
1772867444695036000,10.336035888671875,-0.19265783031880854,0.27671733875274657,0.10078501778542995
1772867444705102000,10.34610205078125,-0.20152794999480247,0.29378362436592576,0.08660276317596435
1772867444715168000,10.35616796875,-0.23472587071955203,0.3240937146946788,0.12559183452278375
1772867444725235000,10.36623486328125,-0.21461773319244384,0.33280484441667796,0.10460808320492505
1772867444735301000,10.376301025390624,-0.2273509580373764,0.3467331242650747,0.05669365486353636
1772867444745367000,10.386366943359375,-0.21185119108855724,0.35789807687997816,0.012180267137289046
1772867444755434000,10.39643408203125,-0.15139993725717066,0.3468041436746716,0.017176467989385127
1772867444765500200,10.406500244140625,-0.14919628973305224,0.34519290908575057,0.02470920158177614
1772867444775566000,10.416566162109374,-0.1267816288292408,0.3225736655205488,0.02858078231811523
1772867444785633000,10.426633056640625,-0.06840718127191066,0.24306495225876568,0.058441083052754396
1772867444795699000,10.436698974609374,-0.09238602275252342,0.15279431422501802,0.10105214428901672
1772867444805764900,10.446764892578125,-0.08060673763155937,0.12387626277655363,0.09249415930211544
1772867444815831800,10.456831787109374,-0.045516135028004646,0.08421177638620138,0.04986439336538315
1772867444825898000,10.46689794921875,-0.03053600803911686,0.04897708913683891,0.04941226568371057
1772867444835964000,10.4769638671875,-0.038628129079937935,-0.03355243325084448,0.08472820147573948
1772867444846030800,10.48703076171875,-0.10614742160141467,-0.17926088086813688,0.20916034456938504
1772867444856097000,10.497096923828124,-0.19709668954908846,-0.24472616346925496,0.24261779301315545
1772867444866163000,10.507162841796875,-0.1514730024933815,-0.29472850400060413,0.27686522279083725
1772867444876230000,10.51722998046875,-0.21239421192407607,-0.30801760916262866,0.3393026820033789
1772867444886296000,10.527296142578125,-0.2563683782070875,-0.25409575709998605,0.2870914332509041
1772867444896362000,10.537362060546876,-0.11604396171569824,-0.1592541578888893,0.1812856646940112
1772867444906428200,10.54742822265625,-0.020959785920381543,-0.08556757490932941,0.153409815774858
1772867444916495000,10.5574951171875,-0.016703297519683837,-0.05545213036984205,0.17935031271725893
1772867444926560800,10.567560791015625,-0.37163784841895103,-0.022377251502871513,0.16883038000762463
1772867444936627000,10.577626953125,-0.43625966593325133,-0.028825989250838756,0.14378361703455447
1772867444946694000,10.58769384765625,-0.17437866178452968,0.0006795066967606545,0.16212620619386434
1772867444956759800,10.597759765625,-0.08670914615988731,0.03682926296442747,0.08741261825412511
1772867444966826000,10.607825927734375,-0.07276946813464165,0.07306815882027148,0.03836041805446148
1772867444976893000,10.617892822265626,-0.1566618033081293,0.09021949236840009,0.04347176971882581
1772867444986959000,10.627958984375,-0.17224983306229114,0.12566869915127754,0.029638182416558263
1772867444997025000,10.63802490234375,-0.10010580334961414,0.18775047679394483,-0.05257628267258405
1772867445007092000,10.648092041015625,0.04477437674999237,0.2447939680084586,-0.14280162025988102
1772867445017158100,10.658158203125,0.016906711137294767,0.28719547814726826,-0.17778905474990606
1772867445027224000,10.66822412109375,-0.04608779743611812,0.21794600083231924,-0.08384089724719523
1772867445037291000,10.678291015625,-0.0738783061593771,0.12338877152055501,-0.025636253298819064
1772867445047357200,10.688357177734375,-0.08015665577650069,0.10312836604118347,-0.07288023503273725
1772867445057422800,10.6984228515625,-0.06896539967656135,0.10112608630806207,-0.16780308278650044
1772867445067490000,10.708489990234375,0.04646539857685566,0.12259060688018798,-0.19256079968512058
1772867445077556000,10.718555908203125,0.12368833898901939,0.12367401820272207,-0.14003507815599442
1772867445087622000,10.728621826171874,0.09619359834194183,0.10519815805256366,-0.09751900172680616
1772867445097688000,10.73868798828125,0.06329962899982929,0.09765519532710314,-0.08030570885837078
1772867445107755000,10.748755126953125,-0.03032148850560188,0.07149024197906255,-0.05948825401812791
1772867445117821000,10.758821044921875,-0.07973053931891917,0.0701984486028552,-0.1885132778599858
1772867445127887000,10.76888720703125,-0.13874679191112518,0.13457856631577014,-0.23282763588279484
1772867445137954000,10.7789541015625,-0.14486205992102621,0.10722323413938284,-0.2724880306199193
1772867445148020000,10.78902001953125,-0.22192425681352615,-0.014210603921115398,-0.24473960747271775
1772867445158086100,10.799086181640625,-0.24886428618729112,-0.006072013390064239,-0.21770371650904416
1772867445168153000,10.809153076171874,-0.18860475553572176,-0.03418400915265083,-0.2195151498451829
1772867445178219000,10.819218994140625,-0.1784913578003645,-0.05278817185759544,-0.23246026387512683
1772867445188285200,10.82928515625,-0.24184768542349336,-0.09014321226179599,-0.16730302430987357
1772867445198352100,10.83935205078125,-0.28226035983264447,-0.1705085423529148,-0.062224400983750816
1772867445208417800,10.849417724609374,-0.26812778958380223,-0.14103987128436565,-0.0366951151907444
1772867445218484000,10.85948388671875,-0.12647475483715534,-0.11176613826602697,-0.03447860818505287
1772867445228551000,10.869551025390624,-0.042837271207571026,-0.07319149293899535,-0.006555412992835044
1772867445238616800,10.879616943359375,-0.09511749354302883,-0.041484395293891425,0.03175707426667213
1772867445248683000,10.88968310546875,-0.11643676042556762,-0.04811199674010277,0.06389087289124727
1772867445258749000,10.8997490234375,-0.1846861207872629,-0.015594167234003543,0.09367460125833749
1772867445268816000,10.90981591796875,-0.3599105857461691,0.028226854313910005,0.1943774937182665
1772867445278882000,10.919882080078125,-0.3825321673989296,0.14284282905310391,0.18046996439695356
1772867445288948000,10.929947998046876,-0.3930442090630531,0.16895955934524534,-0.03315466610491276
1772867445299015200,10.94001513671875,-0.1776543224543333,0.26160394077301025,-0.08830342961400747
1772867445309081000,10.9500810546875,-0.25511516327559947,0.26766689407378436,-0.15765373695492743
1772867445319147000,10.96014697265625,-0.29708851113021373,0.2463479194521904,-0.13775778087377546
1772867445329214200,10.970214111328126,-0.17896482053101062,0.16158493892401457,-0.08701134397685527
1772867445339280000,10.98027978515625,-0.29653263081312176,0.10340075324177742,0.003081599402427673
1772867445349346000,10.990345947265626,-0.4098918834894895,0.05848404541164636,0.06127396839112043
1772867445359413000,11.0004130859375,-0.33370354682207104,0.05279343255460262,0.0750219232365489
1772867445369479000,11.01047900390625,-0.27173779677450655,0.06383242070227861,0.0592646743953228
1772867445379545000,11.020545166015625,-0.2423731706023216,0.09971709629297255,-0.0002738485053181648
1772867445389611300,11.030611328125,-0.18418284744024277,0.165129479663074,-0.1514858619749546
1772867445399678200,11.04067822265625,-0.1368114399343729,0.19560352838188408,-0.21929916900694368
1772867445409744400,11.050744384765625,-0.2208843923717737,0.09832418062984943,-0.20730331852585077
1772867445419810000,11.06081005859375,-0.2978612490683794,0.034385376943647857,-0.1412982299596071
1772867445429877000,11.070876953125,-0.21724749717414377,-0.03855477158278227,-0.09654723408520222
1772867445439943200,11.080943115234374,-0.18491174623668194,-0.09046236121356487,-0.09707096569836139
1772867445450009000,11.091009033203125,-0.0999503205269575,-0.08672551277279854,-0.07104395951628685
1772867445460076000,11.101075927734374,-0.06061316639482975,-0.08938158023953437,-0.0598830985546112
1772867445470142200,11.11114208984375,-0.10108663108050822,-0.09682312841713428,-0.02897913398593664
1772867445480208100,11.1212080078125,-0.17709551952779293,-0.13097557338774204,0.03455634959638119
1772867445490274300,11.1312744140625,-0.23301205253899096,-0.11297259144634007,-0.027870588222146032
1772867445500341200,11.14134130859375,-0.21600714172422886,-0.06661065324395894,-0.10830869128853082
1772867445510407200,11.1514072265625,-0.20907471211254597,-0.035221243245899675,-0.1565720791980624
1772867445520473300,11.161473388671874,-0.23076456587314603,-0.03586158697605133,-0.10293781190514564
1772867445530540300,11.171540283203125,-0.24037585930526256,-0.03302519450634718,-0.08544248722493648
1772867445540606200,11.181606201171874,-0.23011165492236613,-0.02764671633839607,-0.11229980675131082
1772867445550672100,11.191672119140625,-0.31391981894373894,-0.06300210735797881,-0.11817746661305427
1772867445560739300,11.2017392578125,-0.41001112595498557,-0.0744745184868574,-0.09088847767114638
1772867445570805000,11.211804931640625,-0.47565234964489933,-0.091234222368896,-0.03815846574157476
1772867445580871200,11.22187109375,-0.5095283157616853,-0.10123948355466127,-0.00020779753178358076
1772867445590937000,11.23193701171875,-0.43903556038737296,-0.0726192460089922,0.04747779048979282
1772867445601004000,11.242004150390626,-0.32081074750125405,-0.030274434493482112,-0.009467208786308764
1772867445611070200,11.2520703125,-0.2748538829684257,0.008379705810546874,-0.09928542687743902
1772867445621136100,11.26213623046875,-0.2369967382609844,0.058737143389880654,-0.13065204052180052
1772867445631203000,11.272203125,-0.3483119178891182,0.03015694559365511,-0.0569902997225523
1772867445641269200,11.282269287109376,-0.5325362663835287,-0.013740648321807384,-0.01769523116648197
1772867445651335200,11.292335205078125,-0.599181698679924,-0.00729892483651638,-0.007945698307454585
1772867445661402000,11.302402099609376,-0.5654109465032816,-0.03300590528398752,-0.055740007400512694
1772867445671468300,11.31246826171875,-0.3944382937699556,-0.013272738549113273,-0.12727818017452955
1772867445681534000,11.322533935546875,-0.20123568904995917,0.03623568098545074,-0.26882190932780503
1772867445691600100,11.33260009765625,-0.2749947527438402,0.15324556512385606,-0.20374445700049398
1772867445701667000,11.3426669921875,-0.30872166577875615,0.12470423803329467,0.05584142194837331
1772867445711733000,11.35273291015625,-0.2453402037143707,-0.09662117610424756,0.04822539398670196
1772867445721799200,11.362799072265625,-0.04590367304086685,-0.12605097646713256,-0.08737433207035064
1772867445731866000,11.3728662109375,0.05931611232161522,-0.04562281027287245,-0.15060732557475565
1772867445741932000,11.38293212890625,0.008729249900579453,0.1770548952564597,-0.12299392698407173
1772867445751998200,11.392998291015624,-0.07581774978935718,0.07269318802803755,-0.27298458196520803
1772867445762064100,11.403064208984375,-0.04214519729018211,0.13860650665760038,-0.1725283577427268
1772867445772131300,11.41313134765625,-0.06234159762263298,0.11674597250521182,-0.1336047528475523
1772867445782197200,11.423197265625,-0.15416238770782947,0.03266775937080383,-0.06655746175199746
1772867445792263200,11.43326318359375,-0.19002222111821174,0.03094108170866966,-0.05445552054792642
1772867445802330400,11.443330322265625,-0.05632511381208896,0.0667851330280304,-0.13986848941743374
1772867445812396000,11.45339599609375,0.08993570699095725,0.11050912394225597,-0.21042612672150135
1772867445822462200,11.463462158203125,0.12137012517452239,0.10811258419454096,-0.1581646090865135
1772867445832528100,11.473528076171876,-0.006674655458331108,0.14663023863732813,-0.07852379387766123
1772867445842595000,11.483594970703125,0.048257542690634724,0.0878682530671358,-0.03925532106757164
1772867445852661200,11.4936611328125,0.0699345369696617,0.009905892464518546,-0.01708791292309761
1772867445862727200,11.50372705078125,0.07589198406934737,0.04600304176211357,-0.0023217209458351136
1772867445872794000,11.513794189453124,0.20049568433761594,0.09193886350691317,-0.04006839101612568
1772867445882860300,11.5238603515625,0.27022622316777706,0.10138181463479995,-0.07370207280963659
1772867445892926200,11.53392626953125,0.268415374353528,0.07710486699044704,-0.10123568416237831
1772867445902993200,11.5439931640625,0.2736123584747314,0.07658931868374347,-0.12419190459698438
1772867445913059300,11.554059326171876,0.29403204616904255,0.08828384813070296,-0.1868950290083885
1772867445923125200,11.564125244140625,0.33877544325888154,0.07373509829640389,-0.15722440562695264
1772867445933191200,11.574191162109376,0.25369009890854355,0.03734744161963462,-0.13885609750449657
1772867445943258000,11.584258056640625,0.19559329924881458,0.03982172277867794,-0.1229924656793475
1772867445953324000,11.594323974609376,0.22803134151697158,0.045447161445021624,-0.09268471343815327
1772867445963390200,11.60439013671875,0.20806524280905722,0.02869242599904537,-0.05010667768865824
1772867445973457200,11.61445703125,0.14765665907561779,-0.007910334733128547,-0.03844955764263868
1772867445983523000,11.624523193359375,0.1268599547624588,-0.02642272750139236,-0.05300064556449651
1772867445993589200,11.63458935546875,0.09007073154747486,-0.021472996139526367,-0.14871873534917832
1772867446003655200,11.6446552734375,0.22923253400027752,0.029889526829123495,-0.16618074228167534
1772867446013722000,11.65472216796875,0.14861469045281409,0.019797171881794928,-0.10876374157965182
1772867446023788300,11.664788330078125,-0.04384615598917007,-0.06758300540745257,-0.020878829638659953
1772867446033854200,11.674854248046875,-0.18472060757875441,-0.1594984880387783,-0.06483195313364266
1772867446043921200,11.684921142578125,-0.14255086036920547,-0.11766717900335788,-0.1338166420325637
1772867446053987300,11.6949873046875,0.04349602737724781,-0.04160217645466328,-0.14519231478869915
1772867446064053000,11.705052978515624,-0.0431739558160305,-0.05936170502901077,-0.07759761894345284
1772867446074119200,11.715119140625,-0.17104162631630895,-0.0722574269592762,-0.07571019776165484
1772867446084186000,11.72518603515625,-0.21686580438017844,-0.139299165096879,-0.07580225995928049
1772867446094252000,11.735251953125,-0.19408289468586443,-0.14865969863831996,-0.03939063788503408
1772867446104318200,11.745318115234374,-0.029413726010918614,-0.06552724192142487,0.0493260487049818
1772867446114385200,11.75538525390625,0.31032384027838705,-0.020354221242666243,0.24808657981306312
1772867446124451000,11.765451171875,-0.4180997398644685,-0.1053138933867216,0.30710692405849693
1772867446134517200,11.775517333984375,-0.37729309770166874,-0.14369476970732212,0.13335136260837316
1772867446144583200,11.785583251953126,-0.1534814197063446,0.03807926302552223,0.04421352799683809
1772867446154650000,11.795650146484375,-0.2129150209277868,0.08301321425139903,-0.0036491701573133466
1772867446164716300,11.80571630859375,-0.33362989706397056,-0.011082535028457642,0.07324614573568106
1772867446174782200,11.8157822265625,-0.37770109398067,0.02336860062777996,0.13142068680673838
1772867446184848100,11.82584814453125,-0.18453940579295158,0.10158289016485214,-0.018309271411597727
1772867446194915000,11.8359150390625,0.08653846576809883,0.20539280872941015,-0.16013824724704026
