time,seconds_elapsed,z,y,x
1772790042714675700,0.05967578125,-1.01983642578125,-0.244171142578125,-0.1009063720703125
1772790042724741600,0.06974169921875,-0.9841766357421875,-0.238250732421875,-0.1019439697265625
1772790042734808600,0.07980859375,-0.9385223388671875,-0.230438232421875,-0.109130859375
1772790042744874800,0.089874755859375,-0.8972625732421875,-0.2241058349609375,-0.111480712890625
1772790042754941700,0.099941650390625,-0.896942138671875,-0.22039794921875,-0.1005859375
1772790042765007600,0.110007568359375,-0.955474853515625,-0.213836669921875,-0.05194091796875
1772790042775074800,0.12007470703125,-1.0225067138671875,-0.2176361083984375,-0.0209808349609375
1772790042785140700,0.130140625,-1.0548858642578125,-0.23663330078125,-0.0244903564453125
1772790042795207700,0.140207763671875,-1.0540008544921875,-0.2686920166015625,-0.042388916015625
1772790042805273900,0.15027392578125,-1.0516204833984375,-0.2858428955078125,-0.044921875
1772790042815341000,0.160341064453125,-1.0370330810546875,-0.2859344482421875,-0.0294952392578125
1772790042825407000,0.170406982421875,-1.0043792724609375,-0.285125732421875,-0.0366668701171875
1772790042835474000,0.180473876953125,-0.9810943603515625,-0.287109375,-0.038726806640625
1772790042845540000,0.1905400390625,-0.990692138671875,-0.2516326904296875,0.0068511962890625
1772790042855607000,0.20060693359375,-1.017852783203125,-0.2155609130859375,0.0330352783203125
1772790042865673000,0.2106728515625,-1.0354461669921875,-0.2091522216796875,0.0272674560546875
1772790042875740200,0.220740234375,-1.0379180908203125,-0.2166290283203125,0.0150299072265625
1772790042885806000,0.23080615234375,-1.0366363525390625,-0.2189788818359375,-0.0048980712890625
1772790042895873000,0.240873046875,-1.035491943359375,-0.2184906005859375,-0.0092620849609375
1772790042905939200,0.250939208984375,-1.0272979736328125,-0.19635009765625,-0.0048980712890625
1772790042916006100,0.261006103515625,-1.023773193359375,-0.2115020751953125,-0.0264892578125
1772790042926072000,0.271072021484375,-1.015594482421875,-0.2137298583984375,-0.0087127685546875
1772790042936139000,0.281138916015625,-1.0061187744140625,-0.2205657958984375,-0.031494140625
1772790042946205200,0.291205078125,-1.003997802734375,-0.241943359375,-0.0321807861328125
1772790042956272000,0.301272216796875,-0.9927978515625,-0.2669525146484375,-0.0234832763671875
1772790042966338000,0.311338134765625,-0.977783203125,-0.2808837890625,-0.0267791748046875
1772790042976405200,0.3214052734375,-0.9636993408203125,-0.2661285400390625,-0.0276947021484375
1772790042986471200,0.33147119140625,-0.9397735595703125,-0.2269744873046875,-0.0209808349609375
1772790042996538000,0.3415380859375,-0.9281768798828125,-0.18341064453125,-0.0211334228515625
1772790043006604000,0.35160400390625,-0.9302978515625,-0.1731109619140625,-0.0252838134765625
1772790043016671000,0.3616708984375,-0.922271728515625,-0.1670379638671875,-0.0261077880859375
1772790043026737000,0.37173681640625,-0.9177398681640625,-0.1662445068359375,-0.0306549072265625
1772790043036803800,0.381803955078125,-0.90777587890625,-0.141845703125,-0.0241241455078125
1772790043046870000,0.3918701171875,-0.9138031005859375,-0.153289794921875,-0.0444183349609375
1772790043056937000,0.40193701171875,-0.9473114013671875,-0.1594696044921875,-0.0267486572265625
1772790043067003100,0.412003173828125,-1.0107269287109375,-0.16986083984375,-0.0205078125
1772790043077070000,0.422070068359375,-1.09796142578125,-0.2134246826171875,-0.0206146240234375
1772790043087136000,0.432135986328125,-1.0990142822265625,-0.187469482421875,-0.0105438232421875
1772790043097203000,0.442202880859375,-1.08306884765625,-0.162017822265625,0.0244903564453125
1772790043107269000,0.45226904296875,-1.063140869140625,-0.161346435546875,0.0119171142578125
1772790043117336000,0.462336181640625,-1.0231781005859375,-0.1247100830078125,-0.004364013671875
1772790043127402000,0.472402099609375,-0.99334716796875,-0.1119537353515625,-0.009490966796875
1772790043137469000,0.482468994140625,-0.93743896484375,-0.0972137451171875,-0.00775146484375
1772790043147535000,0.49253515625,-0.872039794921875,-0.1120147705078125,-0.04071044921875
1772790043157602000,0.50260205078125,-0.8526153564453125,-0.1377716064453125,-0.0626220703125
1772790043167668200,0.512668212890625,-0.853729248046875,-0.157928466796875,-0.0736236572265625
1772790043177735200,0.522735107421875,-0.9053192138671875,-0.1778564453125,-0.086456298828125
1772790043187801000,0.532801025390625,-0.947265625,-0.1735687255859375,-0.0827789306640625
1772790043197868000,0.542867919921875,-0.9662017822265625,-0.1753082275390625,-0.07879638671875
1772790043207934200,0.552934326171875,-0.96844482421875,-0.1622467041015625,-0.0870513916015625
1772790043218001200,0.563001220703125,-0.971771240234375,-0.2030487060546875,-0.119842529296875
1772790043228067000,0.573067138671875,-0.985107421875,-0.2636260986328125,-0.04168701171875
1772790043238134300,0.58313427734375,-0.96270751953125,-0.2850799560546875,-0.0232086181640625
1772790043248200200,0.5932001953125,-0.970550537109375,-0.2608489990234375,-0.16900634765625
1772790043258265900,0.603265869140625,-0.9478912353515625,-0.265716552734375,-0.21258544921875
1772790043268333000,0.6133330078125,-0.899871826171875,-0.26171875,-0.185516357421875
1772790043278399000,0.62339892578125,-0.842315673828125,-0.19091796875,-0.18109130859375
1772790043288466000,0.6334658203125,-0.828887939453125,-0.1689910888671875,-0.1656341552734375
1772790043298532000,0.643531982421875,-0.8498077392578125,-0.193267822265625,-0.1708221435546875
1772790043308599000,0.65359912109375,-0.8793182373046875,-0.2084197998046875,-0.1675872802734375
1772790043318665000,0.6636650390625,-0.9416961669921875,-0.1988677978515625,-0.1317291259765625
1772790043328732000,0.67373193359375,-1.0292816162109375,-0.197509765625,-0.107391357421875
1772790043338798000,0.683798095703125,-1.0531768798828125,-0.20538330078125,-0.113189697265625
1772790043348865000,0.693864990234375,-1.079437255859375,-0.1985015869140625,-0.085357666015625
1772790043358931000,0.703930908203125,-1.08099365234375,-0.1911468505859375,-0.075714111328125
1772790043368998100,0.713998046875,-1.1005859375,-0.1845855712890625,-0.0567169189453125
1772790043379064000,0.72406396484375,-1.1110382080078125,-0.17236328125,-0.0330657958984375
1772790043389131000,0.734131103515625,-1.1118927001953125,-0.1623687744140625,-0.026153564453125
1772790043399197200,0.744197265625,-1.100311279296875,-0.161651611328125,-0.0244140625
1772790043409264000,0.75426416015625,-1.1027374267578125,-0.174041748046875,-0.034759521484375
1772790043419330000,0.764330078125,-1.1266937255859375,-0.1869049072265625,-0.03802490234375
1772790043429397000,0.77439697265625,-1.156005859375,-0.1843109130859375,-0.0220794677734375
1772790043439463200,0.784463134765625,-1.175262451171875,-0.1856231689453125,-0.018157958984375
1772790043449530000,0.794530029296875,-1.17974853515625,-0.1944122314453125,-0.0228271484375
1772790043459596000,0.804595947265625,-1.1725311279296875,-0.1988983154296875,-0.02642822265625
1772790043469663200,0.814663330078125,-1.1641387939453125,-0.1973876953125,-0.0246124267578125
1772790043479729200,0.824729248046875,-1.1617279052734375,-0.1916656494140625,-0.0201873779296875
1772790043489796000,0.834796142578125,-1.1623382568359375,-0.1786956787109375,-0.0040283203125
1772790043499862000,0.844862060546875,-1.1571502685546875,-0.149993896484375,0.0172271728515625
1772790043509929000,0.854928955078125,-1.14501953125,-0.1222686767578125,0.030975341796875
1772790043519995000,0.864994873046875,-1.13006591796875,-0.1020050048828125,0.042633056640625
1772790043530062000,0.87506201171875,-1.1079559326171875,-0.0807037353515625,0.05548095703125
1772790043540128000,0.8851279296875,-1.08184814453125,-0.0673370361328125,0.06719970703125
1772790043550195000,0.89519482421875,-1.0632476806640625,-0.061614990234375,0.071563720703125
1772790043560261000,0.90526123046875,-1.0507049560546875,-0.06689453125,0.067413330078125
1772790043570328000,0.915328125,-1.0287017822265625,-0.070709228515625,0.06817626953125
1772790043580394000,0.92539404296875,-1.0048370361328125,-0.0685272216796875,0.0692138671875
1772790043590461000,0.9354609375,-0.9865264892578125,-0.0728759765625,0.0684356689453125
1772790043600527000,0.945527099609375,-0.959747314453125,-0.0716094970703125,0.073028564453125
1772790043610594000,0.955593994140625,-0.9314117431640625,-0.0719757080078125,0.0732421875
1772790043620660000,0.965659912109375,-0.91497802734375,-0.0852508544921875,0.0662384033203125
1772790043630727200,0.97572705078125,-0.9134674072265625,-0.0987091064453125,0.065826416015625
1772790043640793000,0.98579296875,-0.9130859375,-0.108978271484375,0.066497802734375
1772790043650860000,0.995860107421875,-0.91180419921875,-0.127410888671875,0.0646514892578125
1772790043660926200,1.00592626953125,-0.913421630859375,-0.1453857421875,0.060638427734375
1772790043670993200,1.0159931640625,-0.91644287109375,-0.16363525390625,0.0506134033203125
1772790043681059000,1.02605908203125,-0.9217987060546875,-0.183990478515625,0.0378875732421875
1772790043691126000,1.0361259765625,-0.9327850341796875,-0.1964874267578125,0.0308685302734375
1772790043701192200,1.046192138671875,-0.9459991455078125,-0.201416015625,0.029022216796875
1772790043711259100,1.056259033203125,-0.9534454345703125,-0.1942291259765625,0.031494140625
1772790043721325000,1.066324951171875,-0.9558258056640625,-0.1893310546875,0.0338592529296875
1772790043731392300,1.076392333984375,-0.958282470703125,-0.1846771240234375,0.030517578125
1772790043741458200,1.086458251953125,-0.9639892578125,-0.17919921875,0.023406982421875
1772790043751525000,1.096525146484375,-0.966461181640625,-0.1692962646484375,0.0142974853515625
1772790043761591000,1.106591064453125,-0.959014892578125,-0.1561279296875,0.0045166015625
1772790043771658000,1.116657958984375,-0.9492950439453125,-0.14794921875,-0.005157470703125
1772790043781724000,1.126723876953125,-0.9415283203125,-0.1450653076171875,-0.021514892578125
1772790043791790000,1.1367900390625,-0.931060791015625,-0.146484375,-0.0402374267578125
1772790043801857000,1.14685693359375,-0.9257049560546875,-0.153106689453125,-0.057037353515625
1772790043811927300,1.15692724609375,-0.9207000732421875,-0.16253662109375,-0.0743560791015625
1772790043821994200,1.166994140625,-0.912994384765625,-0.17364501953125,-0.094268798828125
1772790043832060400,1.177060302734375,-0.9051971435546875,-0.1899566650390625,-0.1101531982421875
1772790043842127400,1.18712744140625,-0.90087890625,-0.20440673828125,-0.1239013671875
1772790043852193300,1.197193359375,-0.901153564453125,-0.21087646484375,-0.1298675537109375
1772790043862260200,1.20726025390625,-0.9006500244140625,-0.214324951171875,-0.131011962890625
1772790043872326400,1.217326416015625,-0.9033203125,-0.2131805419921875,-0.1266632080078125
1772790043882393300,1.227393310546875,-0.913360595703125,-0.2082061767578125,-0.1177825927734375
1772790043892459500,1.23745947265625,-0.9235687255859375,-0.1990814208984375,-0.1097869873046875
1772790043902526500,1.2475263671875,-0.9423828125,-0.1958160400390625,-0.1094512939453125
1772790043912592400,1.25759228515625,-0.9650115966796875,-0.190673828125,-0.100189208984375
1772790043922659300,1.267659423828125,-0.991546630859375,-0.1809234619140625,-0.0909423828125
1772790043932725500,1.2777255859375,-1.017364501953125,-0.17529296875,-0.0893707275390625
1772790043942792400,1.28779248046875,-1.035858154296875,-0.16680908203125,-0.08612060546875
1772790043952858000,1.297858154296875,-1.0458221435546875,-0.1569366455078125,-0.08551025390625
1772790043962925300,1.30792529296875,-1.04852294921875,-0.149627685546875,-0.0819854736328125
1772790043972991200,1.3179912109375,-1.045745849609375,-0.149444580078125,-0.0843963623046875
1772790043983058200,1.32805810546875,-1.04522705078125,-0.1558074951171875,-0.0915069580078125
1772790043993124400,1.338124267578125,-1.043731689453125,-0.16033935546875,-0.0936126708984375
1772790044003191300,1.34819140625,-1.043914794921875,-0.1619110107421875,-0.09326171875
1772790044013257200,1.35825732421875,-1.039764404296875,-0.1638031005859375,-0.090545654296875
1772790044023324200,1.36832421875,-1.03460693359375,-0.165557861328125,-0.089080810546875
1772790044033390300,1.378390380859375,-1.02850341796875,-0.1735076904296875,-0.09100341796875
1772790044043457300,1.388457275390625,-1.025238037109375,-0.1862640380859375,-0.0906829833984375
1772790044053523200,1.398523193359375,-1.02520751953125,-0.1930084228515625,-0.08221435546875
1772790044063590400,1.40859033203125,-1.0231170654296875,-0.19873046875,-0.0735321044921875
1772790044073656300,1.41865625,-1.0206451416015625,-0.207305908203125,-0.0703887939453125
1772790044083723300,1.42872314453125,-1.0165863037109375,-0.2125396728515625,-0.0682220458984375
1772790044093789400,1.43878955078125,-1.010467529296875,-0.2127685546875,-0.063995361328125
1772790044103856400,1.4488564453125,-1.006744384765625,-0.2137908935546875,-0.0583038330078125
1772790044113922300,1.45892236328125,-1.00970458984375,-0.2174072265625,-0.0514984130859375
1772790044123989200,1.4689892578125,-1.0113677978515625,-0.2245635986328125,-0.051727294921875
1772790044134055400,1.479055419921875,-1.0146026611328125,-0.234130859375,-0.053985595703125
1772790044144122400,1.489122314453125,-1.0152587890625,-0.237396240234375,-0.0528564453125
1772790044154188300,1.499188232421875,-1.012420654296875,-0.2317657470703125,-0.053070068359375
1772790044164255500,1.50925537109375,-1.004241943359375,-0.2276458740234375,-0.0573883056640625
1772790044174321400,1.5193212890625,-0.9924774169921875,-0.226531982421875,-0.065765380859375
1772790044184388400,1.529388427734375,-0.9802703857421875,-0.2275390625,-0.076416015625
1772790044194454300,1.539454345703125,-0.9775543212890625,-0.222320556640625,-0.08172607421875
1772790044204521500,1.549521484375,-0.9795684814453125,-0.2099151611328125,-0.081451416015625
1772790044214587100,1.559587158203125,-0.9915008544921875,-0.1974029541015625,-0.0850830078125
1772790044224654000,1.569654052734375,-1.013885498046875,-0.1868743896484375,-0.089630126953125
1772790044234720300,1.57972021484375,-1.0330657958984375,-0.17413330078125,-0.095611572265625
1772790044244787200,1.589787109375,-1.0427703857421875,-0.162689208984375,-0.1082763671875
1772790044254853400,1.599853271484375,-1.050933837890625,-0.1562042236328125,-0.124420166015625
1772790044264920300,1.60992041015625,-1.060272216796875,-0.1495819091796875,-0.136688232421875
1772790044274986200,1.619986328125,-1.0708770751953125,-0.144378662109375,-0.145355224609375
1772790044285053200,1.63005322265625,-1.0872039794921875,-0.1443634033203125,-0.16082763671875
1772790044295119400,1.640119384765625,-1.1027984619140625,-0.143280029296875,-0.175567626953125
1772790044305185300,1.650185302734375,-1.1190338134765625,-0.1382293701171875,-0.1894378662109375
1772790044315252200,1.660252197265625,-1.126068115234375,-0.1334228515625,-0.2050628662109375
1772790044325318400,1.670318359375,-1.12896728515625,-0.12481689453125,-0.2135772705078125
1772790044335385300,1.68038525390625,-1.1354522705078125,-0.10797119140625,-0.2035675048828125
1772790044345451300,1.690451171875,-1.1386871337890625,-0.0859527587890625,-0.1849212646484375
1772790044355518500,1.7005185546875,-1.14227294921875,-0.0631103515625,-0.16534423828125
1772790044365584400,1.71058447265625,-1.137481689453125,-0.038116455078125,-0.1497955322265625
1772790044375651300,1.7206513671875,-1.1259613037109375,-0.01397705078125,-0.135406494140625
1772790044385717500,1.730717529296875,-1.115692138671875,0.0091552734375,-0.11737060546875
1772790044395784400,1.740784423828125,-1.105621337890625,0.0260162353515625,-0.0948333740234375
1772790044405850400,1.750850341796875,-1.093536376953125,0.032470703125,-0.081787109375
1772790044415917300,1.760917236328125,-1.0802764892578125,0.0253753662109375,-0.0738525390625
1772790044425983500,1.7709833984375,-1.0645294189453125,0.0056610107421875,-0.07293701171875
1772790044436050400,1.781050537109375,-1.04315185546875,-0.018524169921875,-0.081787109375
1772790044446116000,1.7911162109375,-1.013885498046875,-0.0380096435546875,-0.086456298828125
1772790044456183300,1.801183349609375,-0.9813079833984375,-0.0513458251953125,-0.0898284912109375
1772790044466249200,1.811249267578125,-0.9478759765625,-0.0606689453125,-0.09222412109375
1772790044476316200,1.821316162109375,-0.9155426025390625,-0.0699615478515625,-0.098724365234375
1772790044486382300,1.83138232421875,-0.8901824951171875,-0.0780029296875,-0.1122283935546875
1772790044496449300,1.84144921875,-0.8764495849609375,-0.075927734375,-0.11810302734375
1772790044506515200,1.85151513671875,-0.870574951171875,-0.0654296875,-0.120849609375
1772790044516582100,1.86158203125,-0.86749267578125,-0.052825927734375,-0.124603271484375
1772790044526648300,1.8716484375,-0.8698883056640625,-0.038818359375,-0.12847900390625
1772790044536715300,1.88171533203125,-0.880859375,-0.029144287109375,-0.1356964111328125
1772790044546781200,1.89178125,-0.904754638671875,-0.019866943359375,-0.1402587890625
1772790044556848400,1.901848388671875,-0.938446044921875,-0.011322021484375,-0.138336181640625
1772790044566914300,1.911914306640625,-0.980438232421875,-0.0079803466796875,-0.13104248046875
1772790044576981200,1.921981201171875,-1.0191192626953125,-0.01055908203125,-0.12384033203125
1772790044587047400,1.93204736328125,-1.0488433837890625,-0.013275146484375,-0.1162261962890625
1772790044597114400,1.9421142578125,-1.07098388671875,-0.011474609375,-0.107421875
1772790044607180300,1.95218017578125,-1.0882720947265625,-0.0059814453125,-0.098876953125
1772790044617247200,1.962247314453125,-1.1125030517578125,0.00006103515625,-0.090423583984375
1772790044627313400,1.9723134765625,-1.13427734375,0.00665283203125,-0.074371337890625
1772790044637380400,1.98238037109375,-1.1501617431640625,0.0165557861328125,-0.0595550537109375
1772790044647446300,1.9924462890625,-1.1548309326171875,0.0230255126953125,-0.0482940673828125
1772790044657513500,2.002513427734375,-1.1522979736328125,0.022064208984375,-0.0432586669921875
1772790044667579400,2.012579345703125,-1.140472412109375,0.020294189453125,-0.03582763671875
1772790044677646300,2.022646240234375,-1.114013671875,0.0125732421875,-0.026611328125
1772790044687712300,2.032712158203125,-1.0779266357421875,-0.0031280517578125,-0.0269775390625
1772790044697779500,2.042779541015625,-1.04193115234375,-0.02642822265625,-0.03204345703125
1772790044707845000,2.05284521484375,-1.016357421875,-0.0542449951171875,-0.0430145263671875
1772790044717912300,2.062912353515625,-0.9983673095703125,-0.0745697021484375,-0.047576904296875
1772790044727978200,2.072978271484375,-0.9770355224609375,-0.0844573974609375,-0.0445556640625
1772790044738045200,2.083045166015625,-0.9538116455078125,-0.0881805419921875,-0.042144775390625
1772790044748111400,2.093111328125,-0.9334869384765625,-0.0966033935546875,-0.0440673828125
1772790044758178300,2.10317822265625,-0.91241455078125,-0.1058349609375,-0.0493316650390625
1772790044768244200,2.113244140625,-0.902862548828125,-0.117462158203125,-0.053009033203125
1772790044778311200,2.123311279296875,-0.9005279541015625,-0.1249847412109375,-0.0492706298828125
1772790044788377300,2.13337744140625,-0.8989410400390625,-0.1299285888671875,-0.0449676513671875
1772790044798443300,2.143443359375,-0.895782470703125,-0.133819580078125,-0.0376434326171875
1772790044808510200,2.15351025390625,-0.8914642333984375,-0.135345458984375,-0.0330047607421875
1772790044818575000,2.1635751953125,-0.8969268798828125,-0.1391143798828125,-0.022369384765625
1772790044828642000,2.17364208984375,-0.9125823974609375,-0.1397705078125,-0.0041961669921875
1772790044838708200,2.183708251953125,-0.9319915771484375,-0.1413726806640625,0.009765625
1772790044848775200,2.193775146484375,-0.9433746337890625,-0.1490325927734375,0.019134521484375
1772790044858841000,2.203841064453125,-0.94464111328125,-0.158477783203125,0.027862548828125
1772790044868908300,2.213908203125,-0.9508056640625,-0.1664581298828125,0.033111572265625
1772790044878974200,2.22397412109375,-0.95404052734375,-0.167938232421875,0.0465087890625
1772790044889041200,2.234041259765625,-0.9552154541015625,-0.165008544921875,0.0565338134765625
1772790044899107300,2.244107421875,-0.9600372314453125,-0.165557861328125,0.061920166015625
1772790044909174300,2.25417431640625,-0.964111328125,-0.1766357421875,0.06134033203125
1772790044919240200,2.264240234375,-0.970611572265625,-0.1913909912109375,0.05487060546875
1772790044929307100,2.27430712890625,-0.9711151123046875,-0.20977783203125,0.0464630126953125
1772790044939373300,2.284373291015625,-0.967041015625,-0.22509765625,0.037353515625
1772790044949440300,2.294440185546875,-0.96527099609375,-0.241668701171875,0.0232696533203125
1772790044959506200,2.304506103515625,-0.972076416015625,-0.25347900390625,0.011810302734375
1772790044969573400,2.314573486328125,-0.9832611083984375,-0.25897216796875,0.0039520263671875
1772790044979639300,2.324639404296875,-0.991546630859375,-0.26348876953125,-0.006103515625
1772790044989706200,2.334706298828125,-0.997589111328125,-0.26531982421875,-0.0151214599609375
1772790044999772200,2.344772216796875,-1.00433349609375,-0.2629547119140625,-0.0217437744140625
1772790045009839400,2.35483935546875,-1.014129638671875,-0.2604522705078125,-0.0238037109375
1772790045019905000,2.364905029296875,-1.0219268798828125,-0.255218505859375,-0.0201416015625
1772790045029972000,2.374971923828125,-1.02813720703125,-0.2469024658203125,-0.0202178955078125
1772790045040038100,2.3850380859375,-1.0388336181640625,-0.243865966796875,-0.0237884521484375
1772790045050105000,2.39510498046875,-1.0504608154296875,-0.2405242919921875,-0.02105712890625
1772790045060171000,2.4051708984375,-1.06365966796875,-0.23992919921875,-0.0203857421875
1772790045070238200,2.41523828125,-1.0789337158203125,-0.2401123046875,-0.017120361328125
1772790045080304000,2.42530419921875,-1.088714599609375,-0.2326812744140625,-0.015045166015625
1772790045090371000,2.43537109375,-1.0879058837890625,-0.2263641357421875,-0.01617431640625
1772790045100437200,2.445437255859375,-1.0899658203125,-0.2164154052734375,-0.0222015380859375
1772790045110504200,2.455504150390625,-1.09375,-0.199462890625,-0.019775390625
1772790045120570000,2.465570068359375,-1.0884857177734375,-0.1808624267578125,-0.010284423828125
1772790045130637000,2.475636962890625,-1.072601318359375,-0.167877197265625,-0.0111541748046875
1772790045140703200,2.485703125,-1.04443359375,-0.1653594970703125,-0.0225830078125
1772790045150770200,2.495770263671875,-1.01129150390625,-0.16790771484375,-0.0295867919921875
1772790045160836000,2.505836181640625,-0.986175537109375,-0.170318603515625,-0.0303955078125
1772790045170903300,2.5159033203125,-0.9708404541015625,-0.1752471923828125,-0.029266357421875
1772790045180969200,2.52596923828125,-0.9568939208984375,-0.1793212890625,-0.0284576416015625
1772790045191036200,2.5360361328125,-0.938018798828125,-0.177947998046875,-0.0281829833984375
1772790045201102300,2.546102294921875,-0.91619873046875,-0.17523193359375,-0.0309295654296875
1772790045211169300,2.556169189453125,-0.9002838134765625,-0.1684722900390625,-0.0280609130859375
1772790045221235200,2.566235107421875,-0.892242431640625,-0.1619720458984375,-0.021209716796875
1772790045231302100,2.57630224609375,-0.8954620361328125,-0.1546630859375,-0.0148773193359375
1772790045241368300,2.586368408203125,-0.902069091796875,-0.15087890625,-0.0078887939453125
1772790045251435300,2.596435302734375,-0.907867431640625,-0.14910888671875,-0.0027618408203125
1772790045261501200,2.606501220703125,-0.91107177734375,-0.150604248046875,-0.0025482177734375
1772790045271567000,2.616567138671875,-0.9185943603515625,-0.1504058837890625,0.00311279296875
1772790045281634000,2.626634033203125,-0.9313507080078125,-0.153717041015625,0.0110015869140625
1772790045291701000,2.636700927734375,-0.9479827880859375,-0.1539306640625,0.0199127197265625
1772790045301767200,2.64676708984375,-0.966094970703125,-0.1546478271484375,0.02545166015625
1772790045311833000,2.6568330078125,-0.9811859130859375,-0.1501922607421875,0.0298004150390625
1772790045321900000,2.666900146484375,-0.995941162109375,-0.1381072998046875,0.034210205078125
1772790045331966200,2.67696630859375,-1.0084381103515625,-0.129150390625,0.0347900390625
1772790045342033200,2.687033203125,-1.015350341796875,-0.123565673828125,0.0318603515625
1772790045352099000,2.69709912109375,-1.019317626953125,-0.1215362548828125,0.0264129638671875
1772790045362166300,2.707166259765625,-1.0272674560546875,-0.1221160888671875,0.020233154296875
1772790045372232200,2.717232177734375,-1.0379486083984375,-0.12176513671875,0.0180816650390625
1772790045382299100,2.727299072265625,-1.04083251953125,-0.1220245361328125,0.0131378173828125
1772790045392365300,2.737365234375,-1.04254150390625,-0.1206207275390625,0.0113983154296875
1772790045402432300,2.747432373046875,-1.0380096435546875,-0.11029052734375,0.0179901123046875
1772790045412498200,2.757498291015625,-1.0287017822265625,-0.1006317138671875,0.0261993408203125
1772790045422565000,2.767565185546875,-1.0228118896484375,-0.1025543212890625,0.0290069580078125
1772790045432631300,2.77763134765625,-1.022674560546875,-0.112823486328125,0.0302581787109375
1772790045442698200,2.7876982421875,-1.0224456787109375,-0.1243896484375,0.038543701171875
1772790045452764200,2.79776416015625,-1.0225677490234375,-0.137603759765625,0.0435791015625
1772790045462831400,2.807831298828125,-1.0246429443359375,-0.147216796875,0.054351806640625
1772790045472897300,2.817897216796875,-1.0235443115234375,-0.158721923828125,0.06378173828125
1772790045482964200,2.827964111328125,-1.016510009765625,-0.1738739013671875,0.06463623046875
1772790045493030100,2.838030029296875,-1.0044403076171875,-0.1870880126953125,0.0583648681640625
1772790045503097300,2.848097412109375,-1.00067138671875,-0.1985321044921875,0.0518951416015625
1772790045513163000,2.8581630859375,-1.0010528564453125,-0.204833984375,0.054779052734375
1772790045523230000,2.86822998046875,-0.9994964599609375,-0.207550048828125,0.0541839599609375
1772790045533296000,2.878296142578125,-0.9907684326171875,-0.209716796875,0.047821044921875
1772790045543363000,2.888363037109375,-0.9866180419921875,-0.209747314453125,0.0382232666015625
1772790045553429200,2.89842919921875,-0.9944915771484375,-0.1990966796875,0.04608154296875
1772790045563496200,2.90849609375,-1.0016326904296875,-0.182281494140625,0.0336456298828125
1772790045573562000,2.91856201171875,-0.9964447021484375,-0.1756744384765625,0.0200347900390625
1772790045583629000,2.928629150390625,-0.9933929443359375,-0.1685333251953125,0.0025177001953125
1772790045593695200,2.9386953125,-0.9952392578125,-0.1485137939453125,-0.0055389404296875
1772790045603762200,2.94876220703125,-0.9983062744140625,-0.13189697265625,-0.009765625
1772790045613828000,2.958828125,-0.9934539794921875,-0.1197357177734375,-0.0154266357421875
1772790045623895300,2.968895263671875,-0.98638916015625,-0.1047210693359375,-0.019561767578125
1772790045633961200,2.978961181640625,-0.9796905517578125,-0.0936279296875,-0.017791748046875
1772790045644028200,2.989028076171875,-0.975341796875,-0.089630126953125,-0.01806640625
1772790045654094300,2.99909423828125,-0.9699554443359375,-0.09375,-0.01934814453125
1772790045664161300,3.009161376953125,-0.97198486328125,-0.1051025390625,-0.0181121826171875
1772790045674227200,3.019227294921875,-0.98809814453125,-0.1218719482421875,-0.01025390625
1772790045684294100,3.029294189453125,-1.0064697265625,-0.1339874267578125,0.0050811767578125
1772790045694360300,3.0393603515625,-1.015625,-0.1448516845703125,0.016693115234375
1772790045704427300,3.04942724609375,-1.0120849609375,-0.1556854248046875,0.0206298828125
1772790045714493200,3.0594931640625,-1.0029296875,-0.1667022705078125,0.025177001953125
1772790045724560400,3.069560302734375,-0.9998321533203125,-0.17889404296875,0.03070068359375
1772790045734626300,3.079626220703125,-1.00164794921875,-0.19232177734375,0.031585693359375
1772790045744693200,3.089693359375,-1.0012664794921875,-0.202423095703125,0.0294952392578125
1772790045754759200,3.09975927734375,-0.998077392578125,-0.2051544189453125,0.03387451171875
1772790045764826400,3.109826416015625,-0.9949798583984375,-0.148681640625,0.0708160400390625
1772790045774892000,3.11989208984375,-0.9993133544921875,-0.138153076171875,0.0792999267578125
1772790045784958200,3.129958251953125,-0.9834136962890625,-0.227264404296875,0.0366973876953125
1772790045795025200,3.140025146484375,-0.9612884521484375,-0.255126953125,-0.076080322265625
1772790045805091000,3.150091064453125,-0.942779541015625,-0.26324462890625,-0.0929718017578125
1772790045815158500,3.160158447265625,-0.9357757568359375,-0.2700347900390625,-0.057037353515625
1772790045825224700,3.170224609375,-0.948455810546875,-0.2414398193359375,-0.056640625
1772790045835291600,3.180291748046875,-0.9568939208984375,-0.218658447265625,-0.0585479736328125
1772790045845357600,3.190357666015625,-0.9643096923828125,-0.21533203125,-0.050506591796875
1772790045855424800,3.2004248046875,-0.976226806640625,-0.214813232421875,-0.0620269775390625
1772790045865490700,3.21049072265625,-0.977935791015625,-0.2136077880859375,-0.0824127197265625
1772790045875557600,3.2205576171875,-0.976043701171875,-0.2057037353515625,-0.1008453369140625
1772790045885623800,3.230623779296875,-0.973175048828125,-0.1900634765625,-0.118316650390625
1772790045895690800,3.240690673828125,-0.972412109375,-0.174530029296875,-0.127532958984375
1772790045905756700,3.250756591796875,-0.984375,-0.1650390625,-0.134124755859375
1772790045915823600,3.26082373046875,-1.0166015625,-0.1546478271484375,-0.133697509765625
1772790045925889800,3.270889892578125,-1.0471954345703125,-0.149322509765625,-0.13916015625
1772790045935956700,3.280956787109375,-1.06878662109375,-0.1522369384765625,-0.1656646728515625
1772790045946022700,3.291022705078125,-1.084442138671875,-0.1566162109375,-0.1930389404296875
1772790045956089900,3.30108984375,-1.1075286865234375,-0.161224365234375,-0.2130889892578125
1772790045966155800,3.31115576171875,-1.150299072265625,-0.1533660888671875,-0.2185516357421875
1772790045976222700,3.32122265625,-1.1917572021484375,-0.13140869140625,-0.21075439453125
1772790045986289000,3.331288818359375,-1.230560302734375,-0.0934906005859375,-0.1852264404296875
1772790045996355800,3.34135595703125,-1.2651519775390625,-0.0373077392578125,-0.1508026123046875
1772790046006421800,3.351421875,-1.2795257568359375,0.023406982421875,-0.116455078125
1772790046016488700,3.36148876953125,-1.2713470458984375,0.07745361328125,-0.083709716796875
1772790046026554600,3.3715546875,-1.253387451171875,0.1217498779296875,-0.066375732421875
1772790046036621600,3.38162158203125,-1.2326202392578125,0.1524658203125,-0.0508880615234375
1772790046046687500,3.3916875,-1.2000579833984375,0.16363525390625,-0.0420379638671875
1772790046056754700,3.401754638671875,-1.1761322021484375,0.1495208740234375,-0.0485992431640625
1772790046066820600,3.411820556640625,-1.1632232666015625,0.1238861083984375,-0.0518646240234375
1772790046076887600,3.421887451171875,-1.1495361328125,0.1076812744140625,-0.0451812744140625
1772790046086953700,3.43195361328125,-1.1206207275390625,0.102935791015625,-0.0402679443359375
1772790046097020700,3.442020751953125,-1.0862884521484375,0.1070404052734375,-0.0346221923828125
1772790046107086600,3.452086669921875,-1.067779541015625,0.1234130859375,-0.01580810546875
1772790046117153500,3.462153564453125,-1.038360595703125,0.10552978515625,-0.0145111083984375
1772790046127219700,3.4722197265625,-0.9992523193359375,0.045654296875,-0.0615997314453125
1772790046137286700,3.48228662109375,-0.9671478271484375,0.0993194580078125,-0.0707550048828125
1772790046147352600,3.4923525390625,-0.9017791748046875,0.1033935546875,0.0317230224609375
1772790046157419800,3.502419677734375,-0.8714141845703125,0.0968170166015625,-0.0008697509765625
1772790046167485700,3.512485595703125,-0.8509979248046875,0.098480224609375,-0.0629119873046875
1772790046177552600,3.522552734375,-0.817413330078125,0.0833740234375,-0.05255126953125
1772790046187618800,3.532618896484375,-0.8304290771484375,0.0638427734375,-0.0684967041015625
1772790046197684700,3.542684814453125,-0.854095458984375,0.08465576171875,-0.0666656494140625
1772790046207751700,3.552751708984375,-0.866973876953125,0.102081298828125,-0.0474090576171875
1772790046217817900,3.56281787109375,-0.87530517578125,0.1158294677734375,-0.037017822265625
1772790046227884800,3.572884765625,-0.89190673828125,0.112579345703125,-0.027618408203125
1772790046237950700,3.58295068359375,-0.9212188720703125,0.104278564453125,-0.01654052734375
1772790046248017700,3.593017578125,-0.9955291748046875,0.0928955078125,-0.004669189453125
1772790046258083600,3.60308349609375,-1.029083251953125,0.0770263671875,0.0163116455078125
1772790046268150500,3.613150634765625,-1.0773162841796875,0.0587921142578125,0.028656005859375
1772790046278216700,3.623216796875,-1.1110076904296875,0.0507354736328125,0.03460693359375
1772790046288283600,3.63328369140625,-1.1363372802734375,0.062530517578125,0.043975830078125
1772790046298349600,3.643349609375,-1.1544189453125,0.0823974609375,0.0565948486328125
1772790046308416500,3.65341650390625,-1.1595916748046875,0.1014556884765625,0.0631256103515625
1772790046318482700,3.663482666015625,-1.1518402099609375,0.1072540283203125,0.065155029296875
1772790046328549600,3.673549560546875,-1.145111083984375,0.1019744873046875,0.065093994140625
1772790046338615600,3.683615478515625,-1.12615966796875,0.092987060546875,0.0708465576171875
1772790046348682800,3.693682861328125,-1.0956573486328125,0.0810089111328125,0.0794219970703125
1772790046358748700,3.703748779296875,-1.065093994140625,0.066650390625,0.0817413330078125
1772790046368815600,3.713815673828125,-1.035858154296875,0.0500946044921875,0.076446533203125
1772790046378881800,3.7238818359375,-1.011566162109375,0.0314178466796875,0.069854736328125
1772790046388948700,3.73394873046875,-0.99578857421875,0.0190887451171875,0.07470703125
1772790046399014700,3.7440146484375,-0.9948272705078125,0.0008392333984375,0.0761566162109375
1772790046409081600,3.75408154296875,-0.998504638671875,-0.0253448486328125,0.077972412109375
1772790046419147800,3.764147705078125,-0.996429443359375,-0.049041748046875,0.0751190185546875
1772790046429214700,3.774214599609375,-0.9948272705078125,-0.06353759765625,0.07305908203125
1772790046439280600,3.78428076171875,-0.9949951171875,-0.0673980712890625,0.0725555419921875
1772790046449347800,3.794347900390625,-0.991302490234375,-0.05877685546875,0.07489013671875
1772790046459413800,3.804413818359375,-0.983184814453125,-0.052978515625,0.0737152099609375
1772790046469480700,3.814480712890625,-0.976654052734375,-0.054443359375,0.0692901611328125
1772790046479547000,3.824546875,-0.9783782958984375,-0.0623016357421875,0.0635833740234375
1772790046489613800,3.83461376953125,-0.9844512939453125,-0.0689239501953125,0.0619049072265625
1772790046499679700,3.8446796875,-0.99542236328125,-0.072479248046875,0.0647735595703125
1772790046509746700,3.85474658203125,-1.002899169921875,-0.071197509765625,0.0670318603515625
1772790046519812600,3.8648125,-1.00799560546875,-0.06378173828125,0.0702667236328125
1772790046529879600,3.874879638671875,-1.011627197265625,-0.05828857421875,0.0741119384765625
1772790046539945700,3.88494580078125,-1.013885498046875,-0.056884765625,0.072418212890625
1772790046550012700,3.8950126953125,-1.0149078369140625,-0.05499267578125,0.072113037109375
1772790046560078600,3.90507861328125,-1.01824951171875,-0.0514068603515625,0.072021484375
1772790046570145500,3.9151455078125,-1.017852783203125,-0.046966552734375,0.0744171142578125
1772790046580211700,3.925211669921875,-1.016357421875,-0.045989990234375,0.06976318359375
1772790046590278700,3.935278564453125,-1.018890380859375,-0.043121337890625,0.066070556640625
1772790046600344600,3.945344482421875,-1.0242156982421875,-0.0424041748046875,0.0680084228515625
1772790046610410800,3.95541064453125,-1.0284576416015625,-0.050933837890625,0.06304931640625
1772790046620477700,3.965477783203125,-1.029876708984375,-0.0581207275390625,0.0615234375
1772790046630543600,3.975543701171875,-1.0262451171875,-0.0630035400390625,0.0608367919921875
1772790046640609800,3.98560986328125,-1.0240478515625,-0.0711212158203125,0.0587310791015625
1772790046650675700,3.99567578125,-1.021453857421875,-0.0789031982421875,0.0548858642578125
1772790046660742700,4.00574267578125,-1.01348876953125,-0.0823974609375,0.0480499267578125
1772790046670808800,4.015808837890625,-1.0118255615234375,-0.0860137939453125,0.0423736572265625
1772790046680875800,4.025875732421875,-1.00677490234375,-0.0894012451171875,0.03594970703125
1772790046690941700,4.035941650390625,-0.998321533203125,-0.105804443359375,0.036590576171875
1772790046701009000,4.0460087890625,-0.9923858642578125,-0.1351470947265625,0.0292510986328125
1772790046711074600,4.056074462890625,-0.99371337890625,-0.130615234375,0.007049560546875
1772790046721141500,4.0661416015625,-0.98248291015625,-0.1161956787109375,0.023834228515625
1772790046731207700,4.076207763671875,-0.980712890625,-0.109100341796875,0.0321502685546875
1772790046741274600,4.086274658203125,-1.008270263671875,-0.1041259765625,0.045745849609375
1772790046751340500,4.096340576171875,-1.049835205078125,-0.1168365478515625,0.0467529296875
1772790046761407500,4.106407470703125,-1.0588836669921875,-0.118408203125,0.06524658203125
1772790046771473700,4.1164736328125,-1.0678253173828125,-0.1140289306640625,0.0609588623046875
1772790046781540600,4.12654052734375,-1.067291259765625,-0.11016845703125,0.0575714111328125
1772790046791606800,4.136606689453125,-1.0507049560546875,-0.092681884765625,0.0712432861328125
1772790046801673700,4.146673828125,-1.0489349365234375,-0.077239990234375,0.0707550048828125
1772790046811739600,4.15673974609375,-1.041412353515625,-0.06304931640625,0.07806396484375
1772790046821803000,4.166802978515625,-1.02093505859375,-0.048370361328125,0.085296630859375
1772790046831869200,4.176869140625,-0.9916229248046875,-0.0376129150390625,0.075836181640625
1772790046841936100,4.18693603515625,-0.9626617431640625,-0.03607177734375,0.055389404296875
1772790046852002000,4.197001953125,-0.9364166259765625,-0.03814697265625,0.03204345703125
1772790046862069200,4.2070693359375,-0.9232940673828125,-0.0408477783203125,0.0100555419921875
1772790046872135200,4.21713525390625,-0.9300537109375,-0.048095703125,-0.0132598876953125
1772790046882202000,4.2272021484375,-0.930755615234375,-0.0761871337890625,-0.01934814453125
1772790046892268300,4.237268310546875,-0.9391021728515625,-0.1063385009765625,-0.0242156982421875
1772790046902335200,4.247335205078125,-0.9493255615234375,-0.1129608154296875,-0.0460662841796875
1772790046912401200,4.257401123046875,-0.95843505859375,-0.1039886474609375,-0.0557708740234375
1772790046922468000,4.267468017578125,-0.9661865234375,-0.09283447265625,-0.0575103759765625
1772790046932534300,4.2775341796875,-0.9722442626953125,-0.0861968994140625,-0.0629425048828125
1772790046942601200,4.287601318359375,-0.99169921875,-0.0875244140625,-0.0607147216796875
1772790046952667100,4.297667236328125,-1.0108795166015625,-0.0763397216796875,-0.0404510498046875
1772790046962734300,4.307734375,-1.0233917236328125,-0.06396484375,-0.026031494140625
1772790046972800300,4.31780029296875,-1.03033447265625,-0.060638427734375,-0.02032470703125
1772790046982867200,4.3278671875,-1.0346221923828125,-0.056427001953125,-0.0172271728515625
1772790046992933400,4.337933349609375,-1.0392913818359375,-0.0439605712890625,-0.0126190185546875
1772790047003000300,4.348000244140625,-1.0393524169921875,-0.0291595458984375,-0.0059051513671875
1772790047013066200,4.358066162109375,-1.0362701416015625,-0.0185394287109375,-0.002471923828125
1772790047023133200,4.36813330078125,-1.025970458984375,-0.007598876953125,-0.0006561279296875
1772790047033199000,4.37819921875,-1.0179595947265625,-0.0025177001953125,-0.0012664794921875
1772790047043266300,4.388266357421875,-1.01080322265625,-0.0096282958984375,-0.005859375
1772790047053332000,4.39833203125,-1.007965087890625,-0.0186309814453125,-0.026519775390625
1772790047063399200,4.408399169921875,-0.9969329833984375,-0.0293426513671875,-0.0247039794921875
1772790047073465000,4.418465087890625,-0.99749755859375,-0.041717529296875,-0.026458740234375
1772790047083531300,4.42853125,-1.003173828125,-0.046966552734375,-0.020294189453125
1772790047093598200,4.43859814453125,-1.01177978515625,-0.0562286376953125,-0.0149383544921875
1772790047103664000,4.4486640625,-1.0203094482421875,-0.0666656494140625,-0.011566162109375
1772790047113731000,4.45873095703125,-1.0288543701171875,-0.0785980224609375,-0.0074920654296875
1772790047123797200,4.46879736328125,-1.0421142578125,-0.085540771484375,0.0025634765625
1772790047133864200,4.4788642578125,-1.05706787109375,-0.0865631103515625,0.0139923095703125
1772790047143930000,4.48893017578125,-1.070037841796875,-0.090087890625,0.02142333984375
1772790047153997000,4.4989970703125,-1.081695556640625,-0.090911865234375,0.0308990478515625
1772790047164063200,4.509063232421875,-1.0796966552734375,-0.093048095703125,0.0364837646484375
1772790047174130200,4.519130126953125,-1.0620269775390625,-0.1004486083984375,0.0266876220703125
1772790047184196400,4.5291962890625,-1.04638671875,-0.1041717529296875,0.0174560546875
1772790047194263300,4.53926318359375,-1.0346527099609375,-0.106231689453125,0.0078125
1772790047204329200,4.5493291015625,-1.0254058837890625,-0.1030731201171875,0.0090179443359375
1772790047214396200,4.559396240234375,-1.016998291015625,-0.0936431884765625,0.0013427734375
1772790047224462300,4.56946240234375,-1.0189361572265625,-0.0908660888671875,0.0013275146484375
1772790047234529300,4.579529296875,-1.00579833984375,-0.10455322265625,-0.0132598876953125
1772790047244595200,4.58959521484375,-0.9747772216796875,-0.12774658203125,-0.04449462890625
1772790047254662400,4.599662353515625,-0.9378509521484375,-0.14703369140625,-0.0691375732421875
1772790047264728000,4.60972802734375,-0.901641845703125,-0.16290283203125,-0.087188720703125
1772790047274795300,4.619795166015625,-0.87750244140625,-0.1774444580078125,-0.1038360595703125
1772790047284861200,4.629861083984375,-0.8686065673828125,-0.18048095703125,-0.1073455810546875
1772790047294928100,4.63992822265625,-0.869873046875,-0.176971435546875,-0.1086883544921875
1772790047304994000,4.649994140625,-0.875732421875,-0.16961669921875,-0.1099090576171875
1772790047315061000,4.66006103515625,-0.9190216064453125,-0.122955322265625,-0.07379150390625
1772790047325127200,4.670127197265625,-0.9972076416015625,-0.0950927734375,-0.0668792724609375
1772790047335194000,4.680194091796875,-0.9785919189453125,-0.1394195556640625,-0.0555267333984375
1772790047345260000,4.690260009765625,-0.9713592529296875,-0.1570281982421875,-0.1198883056640625
1772790047355327200,4.7003271484375,-0.9789581298828125,-0.1678924560546875,-0.1699676513671875
1772790047365393200,4.71039306640625,-0.983123779296875,-0.175567626953125,-0.1298370361328125
1772790047375460000,4.720460205078125,-0.9948272705078125,-0.163482666015625,-0.1056365966796875
1772790047385526300,4.7305263671875,-0.999908447265625,-0.143218994140625,-0.09100341796875
1772790047395593200,4.74059326171875,-0.9935150146484375,-0.1396942138671875,-0.0764007568359375
1772790047405659100,4.7506591796875,-0.9916839599609375,-0.1520843505859375,-0.0814361572265625
1772790047415726000,4.76072607421875,-0.9911041259765625,-0.15362548828125,-0.0800628662109375
1772790047425792300,4.770792236328125,-0.9855499267578125,-0.1472930908203125,-0.068328857421875
1772790047435859200,4.780859130859375,-0.9826507568359375,-0.137176513671875,-0.05682373046875
1772790047445925000,4.790925048828125,-0.993133544921875,-0.12445068359375,-0.0454864501953125
1772790047455992300,4.800992431640625,-0.9862213134765625,-0.1212310791015625,-0.0269317626953125
1772790047466058200,4.811058349609375,-1.0076141357421875,-0.12890625,-0.0276336669921875
1772790047476124200,4.821124267578125,-1.008544921875,-0.13275146484375,-0.0237884521484375
1772790047486191400,4.83119140625,-1.001312255859375,-0.1378326416015625,-0.0177001953125
1772790047496257000,4.841257080078125,-0.99560546875,-0.147186279296875,-0.0164794921875
1772790047506324200,4.85132421875,-0.9843902587890625,-0.148895263671875,-0.0141143798828125
1772790047516390100,4.86139013671875,-0.9733123779296875,-0.1501312255859375,-0.008270263671875
1772790047526457000,4.87145703125,-0.963897705078125,-0.1545562744140625,-0.0088958740234375
1772790047536523000,4.88152294921875,-0.9534912109375,-0.1612091064453125,-0.01165771484375
1772790047546590200,4.891590087890625,-0.943572998046875,-0.1661529541015625,-0.0145263671875
1772790047556656000,4.90165625,-0.934478759765625,-0.1663818359375,-0.0132904052734375
1772790047566723000,4.91172314453125,-0.928009033203125,-0.1629638671875,-0.0125579833984375
1772790047576789200,4.921789306640625,-0.9157257080078125,-0.160980224609375,-0.0114288330078125
1772790047586856200,4.931856201171875,-0.906707763671875,-0.1624755859375,-0.0196990966796875
1772790047596922000,4.941922119140625,-0.9080810546875,-0.16339111328125,-0.0361328125
1772790047606989000,4.951989013671875,-0.9105377197265625,-0.162139892578125,-0.03948974609375
1772790047617055200,4.96205517578125,-0.9081268310546875,-0.153167724609375,-0.0439300537109375
1772790047627122200,4.9721220703125,-0.9055938720703125,-0.1446075439453125,-0.05450439453125
1772790047637188000,4.98218798828125,-0.8999786376953125,-0.1320953369140625,-0.0628662109375
1772790047647255300,4.99225537109375,-0.8927764892578125,-0.117095947265625,-0.0705718994140625
1772790047657321200,5.0023212890625,-0.8885345458984375,-0.104248046875,-0.0800933837890625
1772790047667388200,5.01238818359375,-0.88629150390625,-0.0916595458984375,-0.0875396728515625
1772790047677454300,5.022454345703125,-0.90570068359375,-0.0782623291015625,-0.1007232666015625
1772790047687521300,5.032521240234375,-0.95037841796875,-0.063262939453125,-0.1076202392578125
1772790047697587200,5.042587158203125,-0.9958038330078125,-0.0506591796875,-0.115997314453125
1772790047707654100,5.052654052734375,-1.0273590087890625,-0.0630035400390625,-0.1405029296875
1772790047717720300,5.06272021484375,-1.0591278076171875,-0.084625244140625,-0.16705322265625
1772790047727787300,5.072787353515625,-1.071044921875,-0.0995635986328125,-0.1920928955078125
1772790047737853200,5.082853271484375,-1.050262451171875,-0.119537353515625,-0.18682861328125
1772790047747920400,5.09292041015625,-1.0247039794921875,-0.1438751220703125,-0.230010986328125
1772790047757986000,5.102986083984375,-1.03961181640625,-0.16900634765625,-0.2950439453125
1772790047768053200,5.11305322265625,-1.06756591796875,-0.1969451904296875,-0.246185302734375
1772790047778119200,5.123119140625,-1.100555419921875,-0.1678924560546875,-0.221923828125
1772790047788186000,5.13318603515625,-1.12823486328125,-0.118682861328125,-0.2151031494140625
1772790047798252000,5.143251953125,-1.150848388671875,-0.081146240234375,-0.174591064453125
1772790047808319000,5.153319091796875,-1.17138671875,-0.0418548583984375,-0.125640869140625
1772790047818385200,5.16338525390625,-1.1973419189453125,-0.0238494873046875,-0.0930023193359375
1772790047828451600,5.17345166015625,-1.2257843017578125,-0.02777099609375,-0.0776214599609375
1772790047838517800,5.183517822265625,-1.233306884765625,-0.039642333984375,-0.0706939697265625
1772790047848583700,5.193583740234375,-1.2091827392578125,-0.0521392822265625,-0.0666961669921875
1772790047858650600,5.203650634765625,-1.160675048828125,-0.0714263916015625,-0.0743255615234375
1772790047868716800,5.213716796875,-1.113677978515625,-0.1051025390625,-0.0836944580078125
1772790047878783700,5.22378369140625,-1.0828399658203125,-0.1445770263671875,-0.084197998046875
1772790047888849700,5.233849609375,-1.063232421875,-0.180389404296875,-0.0825042724609375
1772790047898916600,5.24391650390625,-1.0421600341796875,-0.21240234375,-0.083984375
1772790047908982800,5.253982666015625,-1.0322265625,-0.2423858642578125,-0.0905609130859375
1772790047919049700,5.2640498046875,-1.0314178466796875,-0.258453369140625,-0.0965423583984375
1772790047929115600,5.27411572265625,-1.0143890380859375,-0.263885498046875,-0.110870361328125
1772790047939182800,5.284182861328125,-0.9947967529296875,-0.2645721435546875,-0.1333465576171875
1772790047949248800,5.294248779296875,-0.9792022705078125,-0.257598876953125,-0.16290283203125
1772790047959315700,5.304315673828125,-0.97503662109375,-0.2413177490234375,-0.1950225830078125
1772790047969381600,5.314381591796875,-0.9854583740234375,-0.226531982421875,-0.21612548828125
1772790047979448800,5.32444873046875,-1.003326416015625,-0.202880859375,-0.2244873046875
1772790047989514500,5.334514404296875,-1.02423095703125,-0.165191650390625,-0.21917724609375
1772790047999581700,5.344581787109375,-1.0563201904296875,-0.133148193359375,-0.205169677734375
1772790048009647600,5.354647705078125,-1.104248046875,-0.0987548828125,-0.1783447265625
1772790048019714600,5.364714599609375,-1.140838623046875,-0.0656280517578125,-0.1504974365234375
1772790048029780700,5.37478076171875,-1.1692962646484375,-0.0572509765625,-0.1313629150390625
1772790048039847700,5.38484765625,-1.190277099609375,-0.0678558349609375,-0.1212615966796875
1772790048049913600,5.39491357421875,-1.2125396728515625,-0.0822906494140625,-0.1164703369140625
1772790048059980500,5.40498046875,-1.2318878173828125,-0.09912109375,-0.1026153564453125
1772790048070046700,5.415046630859375,-1.2483367919921875,-0.1125946044921875,-0.07293701171875
1772790048080113700,5.42511376953125,-1.2593231201171875,-0.120941162109375,-0.044708251953125
1772790048090179600,5.4351796875,-1.2582855224609375,-0.13177490234375,-0.024871826171875
1772790048100246800,5.445246826171875,-1.2350311279296875,-0.1414642333984375,-0.0063934326171875
1772790048110312700,5.455312744140625,-1.2005615234375,-0.143707275390625,0.0098876953125
1772790048120379600,5.465379638671875,-1.1492767333984375,-0.14208984375,0.028076171875
1772790048130445800,5.47544580078125,-1.0960693359375,-0.1443328857421875,0.0345458984375
1772790048140512800,5.4855126953125,-1.03759765625,-0.152587890625,0.02642822265625
1772790048150578700,5.49557861328125,-0.9783782958984375,-0.158935546875,0.019927978515625
1772790048160645600,5.505645751953125,-0.92578125,-0.1552581787109375,0.030731201171875
1772790048170711800,5.5157119140625,-0.880615234375,-0.1446380615234375,0.0456390380859375
1772790048180778800,5.52577880859375,-0.83599853515625,-0.135589599609375,0.0672454833984375
1772790048190844700,5.5358447265625,-0.7970123291015625,-0.138641357421875,0.08245849609375
1772790048200910600,5.54591064453125,-0.76513671875,-0.1493072509765625,0.083343505859375
1772790048210977800,5.555977783203125,-0.7319793701171875,-0.166290283203125,0.0767669677734375
1772790048221043700,5.566043701171875,-0.7014617919921875,-0.186614990234375,0.0660858154296875
1772790048231110700,5.576110595703125,-0.670745849609375,-0.2065887451171875,0.052398681640625
1772790048241176600,5.586176513671875,-0.651031494140625,-0.22686767578125,0.0431671142578125
1772790048251243500,5.596243408203125,-0.648040771484375,-0.24896240234375,0.040771484375
1772790048261309700,5.606309814453125,-0.6589813232421875,-0.2760772705078125,0.0384063720703125
1772790048271376600,5.616376708984375,-0.677978515625,-0.3126678466796875,0.0315093994140625
1772790048281442600,5.626442626953125,-0.70184326171875,-0.3474578857421875,0.021728515625
1772790048291509500,5.636509521484375,-0.732147216796875,-0.3629608154296875,0.025146484375
1772790048301575700,5.64657568359375,-0.7418975830078125,-0.359405517578125,0.046112060546875
1772790048311642600,5.656642578125,-0.75018310546875,-0.350738525390625,0.064300537109375
1772790048321708800,5.666708740234375,-0.763214111328125,-0.3447265625,0.0818023681640625
1772790048331775700,5.676775634765625,-0.7814788818359375,-0.349365234375,0.092254638671875
1772790048341841700,5.686841552734375,-0.8066253662109375,-0.363006591796875,0.0861663818359375
1772790048351908600,5.69690869140625,-0.82171630859375,-0.3828887939453125,0.078277587890625
1772790048361974800,5.706974853515625,-0.831329345703125,-0.403533935546875,0.0666046142578125
1772790048372041700,5.717041748046875,-0.84515380859375,-0.4276580810546875,0.0475921630859375
1772790048382107600,5.727107666015625,-0.86383056640625,-0.43927001953125,0.043212890625
1772790048392174800,5.7371748046875,-0.8860015869140625,-0.43218994140625,0.048187255859375
1772790048402240800,5.74724072265625,-0.9053802490234375,-0.421844482421875,0.04931640625
1772790048412307700,5.7573076171875,-0.9243316650390625,-0.41485595703125,0.045196533203125
1772790048422374000,5.767373779296875,-0.945159912109375,-0.4095001220703125,0.0355682373046875
1772790048432440800,5.77744091796875,-0.9729156494140625,-0.4025726318359375,0.0299224853515625
1772790048442506800,5.7875068359375,-1.0049591064453125,-0.3996734619140625,0.033416748046875
1772790048452573700,5.79757373046875,-1.0353546142578125,-0.4048919677734375,0.0301361083984375
1772790048462639600,5.8076396484375,-1.0659942626953125,-0.4165802001953125,0.016510009765625
1772790048472706800,5.817706787109375,-1.1050567626953125,-0.4306182861328125,0.0012359619140625
1772790048482772500,5.8277724609375,-1.1454925537109375,-0.4261016845703125,-0.0079193115234375
1772790048492839700,5.837839599609375,-1.1889495849609375,-0.4041595458984375,-0.0149383544921875
1772790048502905600,5.847905517578125,-1.236419677734375,-0.3825531005859375,-0.01910400390625
1772790048512972500,5.85797265625,-1.26983642578125,-0.3506927490234375,-0.0127716064453125
1772790048523038700,5.868038818359375,-1.297882080078125,-0.3114776611328125,0.0038909912109375
1772790048533104600,5.878104736328125,-1.326141357421875,-0.2744293212890625,0.031097412109375
1772790048543171600,5.888171630859375,-1.342498779296875,-0.2307586669921875,0.081817626953125
1772790048553237800,5.89823779296875,-1.34735107421875,-0.1826324462890625,0.1351470947265625
1772790048563304700,5.9083046875,-1.337799072265625,-0.1332855224609375,0.1739654541015625
1772790048573370600,5.91837060546875,-1.3132781982421875,-0.107391357421875,0.179351806640625
1772790048583437600,5.9284375,-1.2834320068359375,-0.1124267578125,0.155242919921875
1772790048593503700,5.938503662109375,-1.2514495849609375,-0.1174774169921875,0.1251068115234375
1772790048603570700,5.94857080078125,-1.2229461669921875,-0.1062469482421875,0.1060333251953125
1772790048613636600,5.95863671875,-1.180023193359375,-0.0645294189453125,0.1111602783203125
1772790048623703800,5.968703857421875,-1.112518310546875,-0.0173492431640625,0.11041259765625
1772790048633769700,5.978769775390625,-1.0248870849609375,0.0159912109375,0.0896759033203125
1772790048643836700,5.988836669921875,-0.934417724609375,0.0276031494140625,0.04547119140625
1772790048653902800,5.99890283203125,-0.8454437255859375,0.02447509765625,0.0003509521484375
1772790048663969800,6.0089697265625,-0.7705535888671875,0.0083465576171875,-0.0380096435546875
1772790048674035700,6.01903564453125,-0.7126312255859375,-0.0178070068359375,-0.0709991455078125
1772790048684102700,6.0291025390625,-0.673858642578125,-0.050689697265625,-0.08880615234375
1772790048694168600,6.03916845703125,-0.682037353515625,-0.092498779296875,-0.08441162109375
1772790048704235800,6.04923583984375,-0.7541351318359375,-0.1551055908203125,-0.062713623046875
1772790048714301700,6.0593017578125,-0.7950897216796875,-0.158782958984375,-0.1157989501953125
1772790048724368600,6.06936865234375,-0.78826904296875,-0.153839111328125,-0.0322418212890625
1772790048734434600,6.0794345703125,-0.83599853515625,-0.182037353515625,0.03857421875
1772790048744501500,6.08950146484375,-0.9000244140625,-0.1789093017578125,0.025238037109375
1772790048754567700,6.099567626953125,-0.9356536865234375,-0.170318603515625,0.0486907958984375
1772790048764634600,6.109634521484375,-0.966522216796875,-0.1690521240234375,0.085968017578125
1772790048774700500,6.119700439453125,-1.0174713134765625,-0.168853759765625,0.0968780517578125
1772790048784767700,6.129767822265625,-1.1002044677734375,-0.1465606689453125,0.121002197265625
1772790048794833700,6.139833740234375,-1.103424072265625,-0.1294097900390625,0.14508056640625
1772790048804900600,6.149900634765625,-1.1241912841796875,-0.129913330078125,0.1487274169921875
1772790048814966800,6.159966796875,-1.12847900390625,-0.1392059326171875,0.1168212890625
1772790048825037600,6.17003759765625,-1.1175079345703125,-0.1423797607421875,0.1014251708984375
1772790048835103500,6.180103515625,-1.09326171875,-0.133453369140625,0.09857177734375
1772790048845169700,6.190169677734375,-1.059478759765625,-0.121490478515625,0.087799072265625
1772790048855236600,6.200236572265625,-1.01708984375,-0.11480712890625,0.074462890625
1772790048865302300,6.21030224609375,-0.9665069580078125,-0.1169281005859375,0.0572662353515625
1772790048875369500,6.220369384765625,-0.916046142578125,-0.12237548828125,0.0348663330078125
1772790048885435400,6.230435302734375,-0.87542724609375,-0.1400604248046875,0.0106964111328125
1772790048895502300,6.24050244140625,-0.851104736328125,-0.167633056640625,-0.007354736328125
1772790048905568300,6.250568359375,-0.8470306396484375,-0.1981658935546875,-0.01702880859375
1772790048915635500,6.260635498046875,-0.855682373046875,-0.22705078125,-0.02105712890625
1772790048925701400,6.270701416015625,-0.8704986572265625,-0.2494354248046875,-0.021026611328125
1772790048935768300,6.280768310546875,-0.8838043212890625,-0.266082763671875,-0.0187530517578125
1772790048945834500,6.29083447265625,-0.8961944580078125,-0.2766265869140625,-0.013397216796875
1772790048955901400,6.3009013671875,-0.909759521484375,-0.2837066650390625,-0.00927734375
1772790048965967400,6.31096728515625,-0.9303436279296875,-0.2824859619140625,-0.00250244140625
1772790048976034300,6.321034423828125,-0.947998046875,-0.2742462158203125,0.0088043212890625
1772790048986100500,6.3311005859375,-0.96734619140625,-0.26446533203125,0.013336181640625
1772790048996167400,6.34116748046875,-0.982452392578125,-0.253387451171875,0.0154571533203125
1772790049006233300,6.3512333984375,-0.99139404296875,-0.2403717041015625,0.0187835693359375
1772790049016300500,6.361300537109375,-0.9936676025390625,-0.2308807373046875,0.0195159912109375
1772790049026366500,6.371366455078125,-0.990081787109375,-0.225830078125,0.016754150390625
1772790049036433400,6.381433349609375,-0.9824371337890625,-0.2271728515625,0.0133209228515625
1772790049046499600,6.39149951171875,-0.9717559814453125,-0.232879638671875,0.0061798095703125
1772790049056566500,6.40156640625,-0.9662933349609375,-0.240325927734375,-0.000244140625
1772790049066632400,6.411632568359375,-0.9607086181640625,-0.2497100830078125,0.00048828125
1772790049076699400,6.421699462890625,-0.9585723876953125,-0.2575225830078125,0.0022125244140625
1772790049086765600,6.431765625,-0.961517333984375,-0.265625,-0.000701904296875
1772790049096832500,6.44183251953125,-0.9660491943359375,-0.270416259765625,0.0010528564453125
1772790049106898400,6.4518984375,-0.9682464599609375,-0.2704620361328125,0.0056304931640625
1772790049116965600,6.461965576171875,-0.9693450927734375,-0.2695159912109375,0.00677490234375
1772790049127031300,6.47203125,-0.97076416015625,-0.2685394287109375,0.0092315673828125
1772790049137097500,6.482097412109375,-0.9743194580078125,-0.269195556640625,0.007598876953125
1772790049147164400,6.492164306640625,-0.9842987060546875,-0.2757110595703125,0.0063323974609375
1772790049157230300,6.502230224609375,-1.0005340576171875,-0.28167724609375,0.0074005126953125
1772790049167297300,6.51229736328125,-1.015350341796875,-0.28350830078125,0.0099945068359375
1772790049177363500,6.522363525390625,-1.0237884521484375,-0.2815093994140625,0.010833740234375
1772790049187430400,6.532430419921875,-1.0187835693359375,-0.2774658203125,0.011138916015625
1772790049197496300,6.542496337890625,-1.0095367431640625,-0.2733612060546875,0.0057220458984375
1772790049207563500,6.5525634765625,-1.005523681640625,-0.273162841796875,-0.000091552734375
1772790049217629400,6.56262939453125,-1.003326416015625,-0.2703857421875,-0.0041351318359375
1772790049227696400,6.5726962890625,-1.004180908203125,-0.2683563232421875,-0.008758544921875
1772790049237762600,6.582762451171875,-1.0109710693359375,-0.2625885009765625,-0.0114898681640625
1772790049247829500,6.59282958984375,-1.0274505615234375,-0.257843017578125,-0.0200653076171875
1772790049257895400,6.6028955078125,-1.04315185546875,-0.254058837890625,-0.0269317626953125
1772790049267962400,6.61296240234375,-1.060516357421875,-0.255523681640625,-0.0369720458984375
1772790049278028500,6.623028564453125,-1.079864501953125,-0.257659912109375,-0.0472412109375
1772790049288095500,6.633095458984375,-1.090362548828125,-0.253265380859375,-0.05419921875
1772790049298161400,6.643161376953125,-1.1016082763671875,-0.2487640380859375,-0.06134033203125
1772790049308228600,6.653228515625,-1.1100311279296875,-0.2403717041015625,-0.058990478515625
1772790049318294500,6.66329443359375,-1.121002197265625,-0.225189208984375,-0.043243408203125
1772790049328361500,6.673361572265625,-1.1447906494140625,-0.20587158203125,-0.026611328125
1772790049338427600,6.683427734375,-1.171661376953125,-0.186920166015625,-0.00775146484375
1772790049348494600,6.69349462890625,-1.187835693359375,-0.17034912109375,0.0054779052734375
1772790049358560300,6.703560302734375,-1.19232177734375,-0.155914306640625,0.0122833251953125
1772790049368627500,6.71362744140625,-1.190948486328125,-0.146148681640625,0.01727294921875
1772790049378693400,6.723693359375,-1.1837310791015625,-0.139495849609375,0.030517578125
1772790049388760300,6.73376025390625,-1.1770172119140625,-0.1410675048828125,0.0404052734375
1772790049398826200,6.743826171875,-1.1712646484375,-0.1544647216796875,0.0448455810546875
1772790049408893400,6.7538935546875,-1.1482391357421875,-0.1671142578125,0.0441741943359375
1772790049418959400,6.76395947265625,-1.11199951171875,-0.1750640869140625,0.03460693359375
1772790049429025500,6.774025634765625,-1.0704193115234375,-0.1745452880859375,0.0233001708984375
1772790049439092500,6.784092529296875,-1.0320281982421875,-0.1715240478515625,0.0146942138671875
1772790049449158400,6.794158447265625,-0.99639892578125,-0.1637725830078125,0.00732421875
1772790049459225300,6.804225341796875,-0.9570770263671875,-0.159698486328125,-0.0042266845703125
1772790049469291500,6.81429150390625,-0.9095306396484375,-0.1567230224609375,-0.016845703125
1772790049479358500,6.8243583984375,-0.865692138671875,-0.1488189697265625,-0.0333709716796875
1772790049489424400,6.83442431640625,-0.8293609619140625,-0.139892578125,-0.0463714599609375
1772790049499491300,6.8444912109375,-0.8155975341796875,-0.133941650390625,-0.0520477294921875
1772790049509557500,6.8545576171875,-0.815216064453125,-0.1313018798828125,-0.0564117431640625
1772790049519624400,6.86462451171875,-0.8321533203125,-0.1342315673828125,-0.051055908203125
1772790049529690600,6.874690673828125,-0.8575439453125,-0.1403656005859375,-0.0455474853515625
1772790049539757600,6.884757568359375,-0.88092041015625,-0.1473388671875,-0.04437255859375
1772790049549823500,6.894823486328125,-0.90753173828125,-0.152252197265625,-0.035797119140625
1772790049559890400,6.904890380859375,-0.9352569580078125,-0.155975341796875,-0.0257110595703125
1772790049569956600,6.91495654296875,-0.9563140869140625,-0.1621551513671875,-0.00970458984375
1772790049580023600,6.9250234375,-0.9763946533203125,-0.1728515625,0.0057830810546875
1772790049590089200,6.935089111328125,-0.9921722412109375,-0.1896514892578125,0.02001953125
1772790049600156700,6.94515673828125,-1.005889892578125,-0.2057037353515625,0.0320892333984375
1772790049610222300,6.955222412109375,-1.0273590087890625,-0.219818115234375,0.04656982421875
1772790049620289300,6.965289306640625,-1.0502471923828125,-0.22808837890625,0.0677490234375
1772790049630355500,6.97535546875,-1.07623291015625,-0.23028564453125,0.0886077880859375
1772790049640422400,6.98542236328125,-1.09552001953125,-0.230712890625,0.111480712890625
1772790049650488300,6.99548828125,-1.1085357666015625,-0.22467041015625,0.13153076171875
1772790049660555300,7.00555517578125,-1.112579345703125,-0.2128448486328125,0.1463165283203125
1772790049670621400,7.015621337890625,-1.1061859130859375,-0.20294189453125,0.152984619140625
1772790049680688400,7.0256884765625,-1.09619140625,-0.1963653564453125,0.1602020263671875
1772790049690754300,7.03575439453125,-1.071075439453125,-0.188385009765625,0.1617279052734375
1772790049700820500,7.045820556640625,-1.03448486328125,-0.1882171630859375,0.155517578125
1772790049710887400,7.055887451171875,-0.993072509765625,-0.2004547119140625,0.1414794921875
1772790049720953300,7.065953369140625,-0.95465087890625,-0.2198638916015625,0.125640869140625
1772790049731020500,7.0760205078125,-0.92181396484375,-0.2401275634765625,0.109771728515625
1772790049741086500,7.08608642578125,-0.890899658203125,-0.2536163330078125,0.0939788818359375
1772790049751153400,7.0961533203125,-0.859954833984375,-0.2618408203125,0.079986572265625
1772790049761219600,7.106219482421875,-0.8338470458984375,-0.268463134765625,0.0632171630859375
1772790049771286500,7.11628662109375,-0.8192901611328125,-0.271392822265625,0.048583984375
1772790049781352400,7.1263525390625,-0.8175048828125,-0.26971435546875,0.04296875
1772790049791419400,7.13641943359375,-0.8271484375,-0.264617919921875,0.0428314208984375
1772790049801485600,7.146485595703125,-0.844482421875,-0.260040283203125,0.0413360595703125
1772790049811552500,7.156552490234375,-0.862884521484375,-0.255767822265625,0.03656005859375
1772790049821614800,7.16661474609375,-0.8848876953125,-0.246337890625,0.033111572265625
1772790049831681800,7.176681884765625,-0.904632568359375,-0.2330780029296875,0.0296783447265625
1772790049841747700,7.186747802734375,-0.919952392578125,-0.215789794921875,0.032989501953125
1772790049851814700,7.196814697265625,-0.935546875,-0.200653076171875,0.03533935546875
1772790049861880800,7.206880859375,-0.9495391845703125,-0.187530517578125,0.035491943359375
1772790049871947800,7.21694775390625,-0.9636993408203125,-0.179595947265625,0.0339813232421875
1772790049882013700,7.227013671875,-0.97662353515625,-0.173095703125,0.0341033935546875
1772790049892081000,7.237080810546875,-0.9846038818359375,-0.1667633056640625,0.03143310546875
1772790049902146800,7.247146728515625,-0.9887237548828125,-0.1621856689453125,0.0279541015625
1772790049912213800,7.2572138671875,-0.9859619140625,-0.1606292724609375,0.0216064453125
1772790049922280000,7.267280029296875,-0.9852447509765625,-0.1590118408203125,0.0145416259765625
1772790049932347000,7.277346923828125,-0.9845733642578125,-0.1602020263671875,0.0067138671875
1772790049942412800,7.287412841796875,-0.9859161376953125,-0.1615753173828125,0.000640869140625
1772790049952479000,7.29747900390625,-0.9925079345703125,-0.1644744873046875,-0.0091094970703125
1772790049962546000,7.3075458984375,-1.0022430419921875,-0.165191650390625,-0.018096923828125
1772790049972611800,7.31761181640625,-1.008514404296875,-0.1574249267578125,-0.020263671875
1772790049982678800,7.3276787109375,-1.0110321044921875,-0.149505615234375,-0.0234527587890625
1772790049992745000,7.337744873046875,-1.01251220703125,-0.1446685791015625,-0.0277252197265625
1772790050002812000,7.34781201171875,-1.017608642578125,-0.140838623046875,-0.0316162109375
1772790050012877800,7.3578779296875,-1.014923095703125,-0.13916015625,-0.0382843017578125
1772790050022945000,7.367945068359375,-1.0088653564453125,-0.1431884765625,-0.0482025146484375
1772790050033010700,7.3780107421875,-1.0050201416015625,-0.1521759033203125,-0.05999755859375
1772790050043077600,7.38807763671875,-1.0023345947265625,-0.1633758544921875,-0.068878173828125
1772790050053143800,7.398143798828125,-0.9974365234375,-0.1727142333984375,-0.0792236328125
1772790050063210800,7.408210693359375,-0.9894256591796875,-0.17633056640625,-0.082275390625
1772790050073276700,7.418276611328125,-0.984283447265625,-0.17724609375,-0.0844573974609375
1772790050083344000,7.42834375,-0.983367919921875,-0.175048828125,-0.079864501953125
1772790050093409800,7.438409912109375,-0.9864654541015625,-0.16357421875,-0.0723419189453125
1772790050103476700,7.448476806640625,-0.9926910400390625,-0.1522216796875,-0.06781005859375
1772790050113543000,7.45854296875,-0.993743896484375,-0.1481781005859375,-0.0715484619140625
1772790050123609900,7.46860986328125,-0.9960784912109375,-0.1508026123046875,-0.07623291015625
1772790050133675800,7.47867578125,-0.99798583984375,-0.1544189453125,-0.0848846435546875
1772790050143742700,7.48874267578125,-1.006561279296875,-0.1614532470703125,-0.0889129638671875
1772790050153809000,7.498808837890625,-1.0206756591796875,-0.1649322509765625,-0.088165283203125
1772790050163875800,7.508875732421875,-1.03729248046875,-0.1605377197265625,-0.0799407958984375
1772790050173941800,7.518941650390625,-1.057403564453125,-0.1560211181640625,-0.068206787109375
1772790050184009000,7.529009033203125,-1.0738983154296875,-0.1513824462890625,-0.053009033203125
1772790050194075000,7.539074951171875,-1.085845947265625,-0.143157958984375,-0.04058837890625
1772790050204140800,7.549140869140625,-1.0971221923828125,-0.1372833251953125,-0.024139404296875
1772790050214208000,7.5592080078125,-1.104095458984375,-0.1299896240234375,-0.0024871826171875
1772790050224274000,7.56927392578125,-1.1050872802734375,-0.1189117431640625,0.015777587890625
1772790050234340900,7.5793408203125,-1.0977630615234375,-0.104583740234375,0.030670166015625
1772790050244406800,7.58940673828125,-1.0831298828125,-0.08941650390625,0.046356201171875
1772790050254474000,7.599473876953125,-1.06500244140625,-0.079071044921875,0.05780029296875
1772790050264539600,7.60953955078125,-1.04400634765625,-0.0749664306640625,0.06243896484375
1772790050274606600,7.619606689453125,-1.0187530517578125,-0.0733795166015625,0.06756591796875
1772790050284672800,7.6296728515625,-0.9926605224609375,-0.0756683349609375,0.0689849853515625
1772790050294739700,7.63973974609375,-0.9684600830078125,-0.07470703125,0.0685882568359375
1772790050304805600,7.6498056640625,-0.9470977783203125,-0.07269287109375,0.0671539306640625
1772790050314872800,7.659872802734375,-0.932708740234375,-0.07000732421875,0.0645599365234375
1772790050324938800,7.669938720703125,-0.928253173828125,-0.06573486328125,0.0647125244140625
1772790050335005700,7.680005615234375,-0.924224853515625,-0.0593719482421875,0.066497802734375
1772790050345071900,7.69007177734375,-0.9248809814453125,-0.05621337890625,0.0643768310546875
1772790050355138800,7.700138916015625,-0.9329071044921875,-0.0591278076171875,0.0628814697265625
1772790050365204700,7.710204833984375,-0.9474945068359375,-0.05767822265625,0.0749359130859375
1772790050375271700,7.720271728515625,-0.9640045166015625,-0.0551605224609375,0.0826416015625
1772790050385337900,7.730337890625,-0.97491455078125,-0.0621337890625,0.0909423828125
1772790050395404800,7.74040478515625,-0.9799652099609375,-0.074005126953125,0.097930908203125
1772790050405471000,7.750470947265625,-0.987091064453125,-0.084930419921875,0.1067047119140625
1772790050415538000,7.760537841796875,-0.99383544921875,-0.0913543701171875,0.1199493408203125
1772790050425603800,7.770603759765625,-1.0037384033203125,-0.100006103515625,0.13421630859375
1772790050435670000,7.780669921875,-1.0211181640625,-0.1100921630859375,0.1483612060546875
1772790050445737000,7.790737060546875,-1.049530029296875,-0.116119384765625,0.1644744873046875
1772790050455803000,7.800802978515625,-1.0872802734375,-0.116851806640625,0.1811676025390625
1772790050465869800,7.810869873046875,-1.1197967529296875,-0.114837646484375,0.2022247314453125
1772790050475935700,7.820935791015625,-1.1422882080078125,-0.107452392578125,0.222381591796875
1772790050486003000,7.8310029296875,-1.14971923828125,-0.097686767578125,0.23614501953125
1772790050496068600,7.841068603515625,-1.1435546875,-0.0916595458984375,0.24847412109375
1772790050506135800,7.8511357421875,-1.1244354248046875,-0.0890045166015625,0.2592926025390625
1772790050516201700,7.86120166015625,-1.106414794921875,-0.088134765625,0.2673797607421875
1772790050526268700,7.8712685546875,-1.093048095703125,-0.0963592529296875,0.2708892822265625
1772790050536334800,7.8813349609375,-1.0819091796875,-0.1092071533203125,0.273345947265625
1772790050546401800,7.89140185546875,-1.0704193115234375,-0.12200927734375,0.2720489501953125
1772790050556467700,7.9014677734375,-1.0541534423828125,-0.13275146484375,0.2725677490234375
1772790050566534700,7.91153466796875,-1.033843994140625,-0.1448974609375,0.2710418701171875
1772790050576600800,7.921600830078125,-1.0115509033203125,-0.158416748046875,0.2650146484375
1772790050586667800,7.931667724609375,-0.986846923828125,-0.17236328125,0.25677490234375
1772790050596733700,7.941733642578125,-0.9633026123046875,-0.1846160888671875,0.245086669921875
1772790050606801000,7.95180078125,-0.939208984375,-0.1903839111328125,0.2310028076171875
1772790050616866800,7.96186669921875,-0.9196014404296875,-0.189788818359375,0.2195892333984375
1772790050626932700,7.9719326171875,-0.902679443359375,-0.1879119873046875,0.2048187255859375
1772790050637000000,7.982,-0.889984130859375,-0.18621826171875,0.1886444091796875
1772790050647065900,7.99206591796875,-0.8786468505859375,-0.181396484375,0.171295166015625
1772790050657132800,8.0021328125,-0.8752593994140625,-0.1697235107421875,0.1558074951171875
1772790050667199000,8.012198974609374,-0.881134033203125,-0.15557861328125,0.1469573974609375
1772790050677266000,8.022265869140625,-0.8937530517578125,-0.1472625732421875,0.14044189453125
1772790050687331800,8.032331787109374,-0.9130096435546875,-0.1360015869140625,0.13702392578125
1772790050697398800,8.042398681640625,-0.9352569580078125,-0.1267547607421875,0.1325225830078125
1772790050707464700,8.052464599609374,-0.9538116455078125,-0.12762451171875,0.1239013671875
1772790050717532000,8.062531982421875,-0.96514892578125,-0.1353912353515625,0.1066741943359375
1772790050727597800,8.072597900390624,-0.969573974609375,-0.142547607421875,0.0908660888671875
1772790050737664800,8.082664794921875,-0.96826171875,-0.145843505859375,0.076629638671875
1772790050747730700,8.092730712890624,-0.961334228515625,-0.1478271484375,0.0644378662109375
1772790050757797600,8.102797607421875,-0.955474853515625,-0.1477813720703125,0.057464599609375
1772790050767863800,8.11286376953125,-0.9514617919921875,-0.14312744140625,0.052520751953125
1772790050777930800,8.1229306640625,-0.945465087890625,-0.1426544189453125,0.0460052490234375
1772790050787996700,8.13299658203125,-0.940948486328125,-0.1526031494140625,0.034881591796875
1772790050798063900,8.14306396484375,-0.9387359619140625,-0.1656951904296875,0.01953125
1772790050808129800,8.1531298828125,-0.9457550048828125,-0.17486572265625,0.01116943359375
1772790050818196700,8.16319677734375,-0.95733642578125,-0.1835174560546875,0.005645751953125
1772790050828263200,8.17326318359375,-0.9666900634765625,-0.1909027099609375,-0.000579833984375
1772790050838330000,8.183330078125,-0.978179931640625,-0.199920654296875,-0.008087158203125
1772790050848395800,8.193395751953124,-0.9919891357421875,-0.20123291015625,-0.01654052734375
1772790050858462000,8.2034619140625,-1.003387451171875,-0.198150634765625,-0.02313232421875
1772790050868529000,8.21352880859375,-1.01129150390625,-0.1941070556640625,-0.0328826904296875
1772790050878594800,8.2235947265625,-1.013092041015625,-0.189300537109375,-0.0437469482421875
1772790050888661800,8.233661865234374,-1.01507568359375,-0.1867218017578125,-0.055206298828125
1772790050898728000,8.24372802734375,-1.0189208984375,-0.19012451171875,-0.069732666015625
1772790050908795000,8.253794921875,-1.0299835205078125,-0.1922149658203125,-0.084716796875
1772790050918860800,8.26386083984375,-1.041168212890625,-0.19677734375,-0.1007232666015625
1772790050928928000,8.273927978515625,-1.047119140625,-0.2099761962890625,-0.1212615966796875
1772790050938994000,8.283993896484375,-1.046478271484375,-0.2195281982421875,-0.1399383544921875
1772790050949060900,8.294060791015625,-1.0450286865234375,-0.223876953125,-0.154083251953125
1772790050959127000,8.304126953125,-1.0460205078125,-0.2255096435546875,-0.163848876953125
1772790050969194000,8.314194091796875,-1.0416412353515625,-0.229278564453125,-0.1707763671875
1772790050979260000,8.324260009765625,-1.0314178466796875,-0.22686767578125,-0.1703948974609375
1772790050989326800,8.334326904296875,-1.02471923828125,-0.2160797119140625,-0.172943115234375
1772790050999393000,8.34439306640625,-1.0325775146484375,-0.198577880859375,-0.171112060546875
1772790051009460000,8.3544599609375,-1.0564422607421875,-0.1789398193359375,-0.1624908447265625
1772790051019526000,8.36452587890625,-1.09759521484375,-0.1626434326171875,-0.1515350341796875
1772790051029593000,8.374593017578125,-1.14337158203125,-0.14617919921875,-0.1375579833984375
1772790051039659000,8.384658935546875,-1.1753082275390625,-0.1311798095703125,-0.12896728515625
1772790051049725000,8.394724853515624,-1.195404052734375,-0.1219482421875,-0.120574951171875
1772790051059792100,8.404792236328126,-1.208160400390625,-0.1133880615234375,-0.107696533203125
1772790051069857800,8.41485791015625,-1.20819091796875,-0.098297119140625,-0.0919952392578125
1772790051079924700,8.4249248046875,-1.195404052734375,-0.090728759765625,-0.0807342529296875
1772790051089991000,8.434990966796875,-1.172149658203125,-0.09368896484375,-0.0742950439453125
1772790051100057900,8.445057861328126,-1.1436920166015625,-0.1000213623046875,-0.0701446533203125
1772790051110123800,8.455123779296875,-1.11334228515625,-0.114471435546875,-0.067291259765625
1772790051120191000,8.46519091796875,-1.0763397216796875,-0.122467041015625,-0.0612945556640625
1772790051130257000,8.4752568359375,-1.040008544921875,-0.1261138916015625,-0.053955078125
1772790051140323800,8.48532373046875,-1.011077880859375,-0.1356964111328125,-0.0470733642578125
1772790051150390000,8.49539013671875,-0.9826202392578125,-0.1450347900390625,-0.0406341552734375
1772790051160457000,8.50545703125,-0.955108642578125,-0.156463623046875,-0.0388031005859375
1772790051170523000,8.51552294921875,-0.932861328125,-0.16973876953125,-0.0398101806640625
1772790051180589800,8.52558984375,-0.9183807373046875,-0.1878509521484375,-0.04498291015625
1772790051190656000,8.535656005859375,-0.907745361328125,-0.205047607421875,-0.0474700927734375
1772790051200723000,8.545722900390626,-0.90557861328125,-0.207427978515625,-0.0463714599609375
1772790051210788900,8.555788818359375,-0.902740478515625,-0.2061004638671875,-0.0451812744140625
1772790051220856000,8.56585595703125,-0.9039154052734375,-0.21148681640625,-0.0415191650390625
1772790051230922000,8.575921875,-0.9098968505859375,-0.2141876220703125,-0.0327606201171875
1772790051240988000,8.58598779296875,-0.924896240234375,-0.2170562744140625,-0.02178955078125
1772790051251055000,8.59605517578125,-0.948272705078125,-0.225311279296875,-0.0132904052734375
1772790051261122000,8.6061220703125,-0.97442626953125,-0.231689453125,-0.007476806640625
1772790051271188000,8.61618798828125,-0.996368408203125,-0.2298736572265625,0.005767822265625
1772790051281255000,8.6262548828125,-1.007080078125,-0.2231597900390625,0.0213165283203125
1772790051291321000,8.636321044921875,-1.01025390625,-0.2114715576171875,0.0377349853515625
1772790051301388000,8.646387939453126,-1.0045013427734375,-0.2030487060546875,0.048492431640625
1772790051311453700,8.65645361328125,-0.9942779541015625,-0.204620361328125,0.0516204833984375
1772790051321521200,8.666521240234376,-0.983154296875,-0.2190704345703125,0.0448760986328125
1772790051331586800,8.6765869140625,-0.9674835205078125,-0.2393798828125,0.042266845703125
1772790051341653800,8.68665380859375,-0.9512481689453125,-0.254974365234375,0.040802001953125
1772790051351720000,8.696719970703125,-0.940338134765625,-0.2651824951171875,0.0401763916015625
1772790051361785900,8.706785888671876,-0.930938720703125,-0.27374267578125,0.0418243408203125
1772790051371852800,8.716852783203125,-0.921661376953125,-0.2802581787109375,0.0413818359375
1772790051381919000,8.7269189453125,-0.91314697265625,-0.29022216796875,0.0398101806640625
1772790051391986000,8.73698583984375,-0.9077301025390625,-0.297088623046875,0.0400543212890625
1772790051402051800,8.7470517578125,-0.9014892578125,-0.302703857421875,0.0440521240234375
1772790051412118800,8.757118896484375,-0.8980865478515625,-0.310638427734375,0.0430908203125
1772790051422185000,8.76718505859375,-0.8998565673828125,-0.3282470703125,0.033050537109375
1772790051432252000,8.777251953125,-0.90087890625,-0.34307861328125,0.0300750732421875
1772790051442318000,8.787318115234376,-0.9006805419921875,-0.345977783203125,0.0308837890625
1772790051452385000,8.797385009765625,-0.902496337890625,-0.3475189208984375,0.03173828125
1772790051462451000,8.807450927734376,-0.899810791015625,-0.3494720458984375,0.0340728759765625
1772790051472518000,8.817517822265625,-0.897369384765625,-0.3437347412109375,0.0327911376953125
1772790051482584000,8.827583984375,-0.8992462158203125,-0.3419342041015625,0.0283203125
1772790051492651000,8.837651123046875,-0.9121246337890625,-0.341796875,0.0230865478515625
1772790051502717000,8.847717041015626,-0.9231109619140625,-0.3325347900390625,0.0253143310546875
1772790051512784100,8.8577841796875,-0.925384521484375,-0.31768798828125,0.02838134765625
1772790051522850000,8.86785009765625,-0.9237518310546875,-0.3094329833984375,0.0256500244140625
1772790051532917000,8.8779169921875,-0.9226226806640625,-0.3078765869140625,0.0227813720703125
1772790051542983000,8.88798291015625,-0.92010498046875,-0.3109893798828125,0.0214385986328125
1772790051553048800,8.898048828125,-0.91180419921875,-0.319091796875,0.0146026611328125
1772790051563115800,8.90811572265625,-0.9013214111328125,-0.3297119140625,0.0041656494140625
1772790051573182000,8.918181884765625,-0.89288330078125,-0.3416748046875,-0.0042572021484375
1772790051583249000,8.928248779296876,-0.890228271484375,-0.352386474609375,-0.01214599609375
1772790051593314800,8.938314697265625,-0.8846893310546875,-0.3626556396484375,-0.022125244140625
1772790051603381800,8.9483818359375,-0.878143310546875,-0.36956787109375,-0.0283050537109375
1772790051613448000,8.958447998046875,-0.8725738525390625,-0.3733673095703125,-0.03399658203125
1772790051623515000,8.968514892578124,-0.8696136474609375,-0.3762664794921875,-0.0352325439453125
1772790051633580800,8.978580810546875,-0.8694915771484375,-0.3758392333984375,-0.0350494384765625
1772790051643648000,8.98864794921875,-0.871368408203125,-0.3773040771484375,-0.038177490234375
1772790051653714000,8.9987138671875,-0.8749847412109375,-0.381561279296875,-0.041534423828125
1772790051663780900,9.00878076171875,-0.88623046875,-0.390716552734375,-0.0472564697265625
1772790051673847000,9.018846923828125,-0.9018096923828125,-0.3970489501953125,-0.0465850830078125
1772790051683914000,9.0289140625,-0.9156036376953125,-0.3989715576171875,-0.039276123046875
1772790051693980000,9.03897998046875,-0.93267822265625,-0.3977203369140625,-0.035614013671875
1772790051704046800,9.049046875,-0.948272705078125,-0.401031494140625,-0.032562255859375
1772790051714113000,9.059113037109375,-0.9605712890625,-0.404296875,-0.0286712646484375
1772790051724179000,9.069178955078126,-0.9726409912109375,-0.4046173095703125,-0.0285491943359375
1772790051734246000,9.079245849609375,-0.9817657470703125,-0.4040679931640625,-0.0290679931640625
1772790051744312000,9.08931201171875,-0.9871826171875,-0.4048614501953125,-0.032867431640625
1772790051754379000,9.09937890625,-0.990814208984375,-0.4019775390625,-0.038543701171875
1772790051764445000,9.10944482421875,-0.9947662353515625,-0.390106201171875,-0.0389862060546875
1772790051774512000,9.11951220703125,-1.0021820068359375,-0.3779296875,-0.0364532470703125
1772790051784577800,9.129577880859374,-1.0116119384765625,-0.371826171875,-0.03564453125
1772790051794644700,9.139644775390625,-1.0186614990234375,-0.3697509765625,-0.0325927734375
1772790051804711000,9.1497109375,-1.0331573486328125,-0.3623046875,-0.02166748046875
1772790051814777900,9.15977783203125,-1.055633544921875,-0.3524322509765625,-0.0036468505859375
1772790051824847400,9.169847412109375,-1.0825958251953125,-0.343475341796875,0.0123138427734375
1772790051834914600,9.17991455078125,-1.1048583984375,-0.337646484375,0.022918701171875
1772790051844980500,9.18998046875,-1.1248779296875,-0.3354644775390625,0.03363037109375
1772790051855047400,9.20004736328125,-1.1339263916015625,-0.3325653076171875,0.0434112548828125
1772790051865113600,9.210113525390625,-1.1312103271484375,-0.3316192626953125,0.0442047119140625
1772790051875180500,9.2201806640625,-1.1222686767578125,-0.3347320556640625,0.0411376953125
1772790051885246500,9.23024658203125,-1.111419677734375,-0.3380126953125,0.0352630615234375
1772790051895312600,9.240312744140626,-1.108734130859375,-0.331024169921875,0.0390625
1772790051905379600,9.250379638671875,-1.1097869873046875,-0.3152923583984375,0.0539398193359375
1772790051915445500,9.260445556640626,-1.1072540283203125,-0.2945098876953125,0.064422607421875
1772790051925512400,9.270512451171875,-1.09661865234375,-0.2716064453125,0.0723419189453125
1772790051935578600,9.28057861328125,-1.076873779296875,-0.24664306640625,0.0775909423828125
1772790051945645600,9.2906455078125,-1.056610107421875,-0.221221923828125,0.0809783935546875
1772790051955711500,9.30071142578125,-1.0380401611328125,-0.1997528076171875,0.087188720703125
1772790051965778700,9.31077880859375,-1.0219268798828125,-0.1829986572265625,0.094024658203125
1772790051975844400,9.32084423828125,-1.00897216796875,-0.1745147705078125,0.089935302734375
1772790051985911300,9.330911376953125,-0.99102783203125,-0.170745849609375,0.0833282470703125
1772790051995977500,9.3409775390625,-0.9684600830078125,-0.1654205322265625,0.07745361328125
1772790052006044400,9.35104443359375,-0.9471588134765625,-0.1612396240234375,0.0754241943359375
1772790052016110300,9.3611103515625,-0.923583984375,-0.1580963134765625,0.076385498046875
1772790052026177300,9.37117724609375,-0.905242919921875,-0.1667938232421875,0.0724029541015625
1772790052036243500,9.381243408203124,-0.8923797607421875,-0.183013916015625,0.0663909912109375
1772790052046310400,9.391310302734375,-0.8861541748046875,-0.20013427734375,0.0582427978515625
1772790052056376600,9.40137646484375,-0.886260986328125,-0.2131805419921875,0.06268310546875
1772790052066442500,9.4114423828125,-0.890869140625,-0.214691162109375,0.073333740234375
1772790052076509400,9.421509521484374,-0.8978729248046875,-0.2078399658203125,0.0862274169921875
1772790052086575600,9.43157568359375,-0.9089813232421875,-0.1981048583984375,0.0957794189453125
1772790052096642600,9.441642578125,-0.9201202392578125,-0.1924285888671875,0.107208251953125
1772790052106708500,9.45170849609375,-0.928466796875,-0.188385009765625,0.111785888671875
1772790052116775400,9.461775390625,-0.93646240234375,-0.1895599365234375,0.1111297607421875
1772790052126841600,9.471841552734375,-0.9435882568359375,-0.195343017578125,0.1156768798828125
1772790052136908500,9.481908447265624,-0.9482879638671875,-0.1959991455078125,0.1150054931640625
1772790052146974500,9.491974365234375,-0.9644012451171875,-0.20263671875,0.110687255859375
1772790052157041700,9.502041748046874,-0.9818878173828125,-0.2093048095703125,0.1135101318359375
1772790052167107600,9.512107666015625,-1.0013580322265625,-0.2056732177734375,0.1170806884765625
1772790052177174500,9.522174560546874,-1.0077056884765625,-0.2009735107421875,0.1112823486328125
1772790052187240400,9.532240478515625,-1.003570556640625,-0.193359375,0.10626220703125
1772790052197307600,9.5423076171875,-0.9954833984375,-0.1847991943359375,0.0987701416015625
1772790052207373300,9.552373291015625,-0.984588623046875,-0.1801910400390625,0.08282470703125
1772790052217439500,9.562439453125,-0.967437744140625,-0.1730499267578125,0.0732421875
1772790052227506400,9.57250634765625,-0.9483184814453125,-0.1688385009765625,0.066131591796875
1772790052237572400,9.582572265625,-0.931121826171875,-0.1707763671875,0.0545806884765625
1772790052247639300,9.592639404296875,-0.91851806640625,-0.1784820556640625,0.0438995361328125
1772790052257705500,9.60270556640625,-0.913665771484375,-0.19024658203125,0.0416107177734375
1772790052267772400,9.6127724609375,-0.9173736572265625,-0.199798583984375,0.0409393310546875
1772790052277838600,9.622838623046874,-0.925048828125,-0.2070159912109375,0.045135498046875
1772790052287905500,9.632905517578125,-0.937103271484375,-0.2136077880859375,0.046295166015625
1772790052297971500,9.642971435546874,-0.9526824951171875,-0.21954345703125,0.0476837158203125
1772790052308038400,9.653038330078125,-0.966461181640625,-0.2182769775390625,0.0523681640625
1772790052318104600,9.6631044921875,-0.98101806640625,-0.2135009765625,0.0609893798828125
1772790052328171500,9.673171630859375,-0.993408203125,-0.2053375244140625,0.068756103515625
1772790052338237400,9.683237548828124,-1.000579833984375,-0.201934814453125,0.0717315673828125
1772790052348304400,9.693304443359375,-0.9991912841796875,-0.203521728515625,0.0732421875
1772790052358370600,9.70337060546875,-0.9940948486328125,-0.203826904296875,0.0720062255859375
1772790052368437500,9.7134375,-0.9876708984375,-0.206024169921875,0.070068359375
1772790052378503700,9.723503662109374,-0.98443603515625,-0.2139892578125,0.0682220458984375
1772790052388569600,9.733569580078125,-0.981903076171875,-0.2244720458984375,0.069061279296875
1772790052398636500,9.743636474609374,-0.977691650390625,-0.228973388671875,0.06744384765625
1772790052408702500,9.753702392578125,-0.9679412841796875,-0.2322540283203125,0.065460205078125
1772790052418769400,9.763769287109374,-0.9617919921875,-0.2375946044921875,0.060760498046875
1772790052428835300,9.77383544921875,-0.9553985595703125,-0.2362518310546875,0.059326171875
1772790052438902300,9.78390234375,-0.9503936767578125,-0.231597900390625,0.0633544921875
1772790052448968400,9.793968505859375,-0.9522552490234375,-0.2349700927734375,0.0675506591796875
1772790052459035400,9.804035400390624,-0.9541015625,-0.242645263671875,0.0714263916015625
1772790052469101300,9.814101318359375,-0.9592437744140625,-0.2472686767578125,0.074493408203125
1772790052479168500,9.82416845703125,-0.9645843505859375,-0.25384521484375,0.0778961181640625
1772790052489234400,9.834234375,-0.9697418212890625,-0.2596893310546875,0.0785369873046875
1772790052499301400,9.84430126953125,-0.973388671875,-0.262847900390625,0.0834197998046875
1772790052509367600,9.854367431640625,-0.97607421875,-0.2651214599609375,0.088104248046875
1772790052519434500,9.8644345703125,-0.981048583984375,-0.266845703125,0.0900726318359375
1772790052529500400,9.87450048828125,-0.9844207763671875,-0.2696990966796875,0.0909271240234375
1772790052539566600,9.884566650390624,-0.985595703125,-0.2750701904296875,0.0939788818359375
1772790052549633500,9.894633544921875,-0.9842987060546875,-0.2790985107421875,0.096771240234375
1772790052559699500,9.904699462890624,-0.9831695556640625,-0.2832794189453125,0.09735107421875
1772790052569766400,9.914766357421875,-0.9824981689453125,-0.286468505859375,0.0972442626953125
1772790052579832600,9.92483251953125,-0.981903076171875,-0.2906036376953125,0.095458984375
1772790052589899500,9.9348994140625,-0.9836578369140625,-0.29486083984375,0.0932464599609375
1772790052599965700,9.944965576171874,-0.9903564453125,-0.2901763916015625,0.097259521484375
1772790052610032600,9.95503271484375,-0.99664306640625,-0.281158447265625,0.103546142578125
1772790052620098600,9.9650986328125,-1.0001068115234375,-0.2743072509765625,0.105865478515625
1772790052630165500,9.97516552734375,-1.0052642822265625,-0.2710418701171875,0.107086181640625
1772790052640231400,9.9852314453125,-1.0072479248046875,-0.2660369873046875,0.1107025146484375
1772790052650298600,9.995298583984376,-1.008819580078125,-0.2644805908203125,0.1081390380859375
1772790052660364300,10.0053642578125,-1.014312744140625,-0.2691497802734375,0.1074981689453125
1772790052670431500,10.015431396484376,-1.023834228515625,-0.27593994140625,0.10382080078125
1772790052680497400,10.025497314453125,-1.0309600830078125,-0.2855224609375,0.0999603271484375
1772790052690563300,10.035563232421875,-1.027496337890625,-0.29193115234375,0.092254638671875
1772790052700630500,10.045630615234375,-1.02423095703125,-0.2961273193359375,0.086700439453125
1772790052710696400,10.055696533203125,-1.0345001220703125,-0.3040771484375,0.0803985595703125
1772790052720763400,10.065763427734375,-1.0494842529296875,-0.3115692138671875,0.075439453125
1772790052730829600,10.07582958984375,-1.0496826171875,-0.3188934326171875,0.058624267578125
1772790052740896500,10.085896484375,-1.0447845458984375,-0.3213653564453125,0.041290283203125
1772790052750962400,10.09596240234375,-1.051910400390625,-0.3154144287109375,0.0380401611328125
1772790052761029400,10.106029296875,-1.07366943359375,-0.3060302734375,0.0482177734375
1772790052771095600,10.116095458984375,-1.0842742919921875,-0.289154052734375,0.0524749755859375
1772790052781162500,10.12616259765625,-1.0830078125,-0.273712158203125,0.0429229736328125
1772790052791228400,10.136228515625,-1.0959930419921875,-0.2611083984375,0.039093017578125
1772790052801295600,10.146295654296875,-1.11083984375,-0.2319183349609375,0.049560546875
1772790052811361500,10.156361572265626,-1.1190338134765625,-0.1996917724609375,0.05810546875
1772790052821427500,10.166427490234375,-1.1373291015625,-0.17950439453125,0.0702972412109375
1772790052831494100,10.176494140625,-1.1435546875,-0.1591796875,0.0810394287109375
1772790052841560000,10.18656005859375,-1.124267578125,-0.1453857421875,0.0682373046875
1772790052851627000,10.196626953125,-1.0999298095703125,-0.1307830810546875,0.0700531005859375
1772790052861693200,10.206693115234375,-1.0728302001953125,-0.127410888671875,0.0655059814453125
1772790052871760100,10.216760009765625,-1.0365142822265625,-0.134033203125,0.0551605224609375
1772790052881826000,10.226825927734374,-0.99896240234375,-0.145965576171875,0.0432586669921875
1772790052891893200,10.236893310546876,-0.959381103515625,-0.15576171875,0.0236968994140625
1772790052901959200,10.246959228515625,-0.9261016845703125,-0.1657257080078125,0.000457763671875
1772790052912026000,10.257026123046876,-0.9044189453125,-0.167877197265625,-0.01226806640625
1772790052922092300,10.26709228515625,-0.8875274658203125,-0.1552734375,-0.014434814453125
1772790052932159200,10.2771591796875,-0.883056640625,-0.1523895263671875,-0.018035888671875
1772790052942225200,10.28722509765625,-0.9022674560546875,-0.160736083984375,-0.0174713134765625
1772790052952291300,10.297291259765625,-0.9138336181640625,-0.1726837158203125,-0.0186309814453125
1772790052962358300,10.307358154296875,-0.918853759765625,-0.1842041015625,-0.0279541015625
1772790052972424200,10.317424072265625,-0.9226226806640625,-0.1848297119140625,-0.037200927734375
1772790052982491100,10.3274912109375,-0.9295501708984375,-0.1762237548828125,-0.0418548583984375
1772790052992557300,10.337557373046875,-0.936065673828125,-0.16448974609375,-0.04364013671875
1772790053002624300,10.347624267578125,-0.9428863525390625,-0.1533050537109375,-0.0394439697265625
1772790053012690200,10.357690185546875,-0.9502716064453125,-0.141448974609375,-0.031341552734375
1772790053022757400,10.36775732421875,-0.952789306640625,-0.1329498291015625,-0.0258941650390625
1772790053032823000,10.377822998046875,-0.95550537109375,-0.1315155029296875,-0.020172119140625
1772790053042890000,10.387889892578125,-0.9567413330078125,-0.13543701171875,-0.01885986328125
1772790053052956200,10.3979560546875,-0.958282470703125,-0.150054931640625,-0.02276611328125
1772790053063023000,10.408023193359375,-0.955535888671875,-0.166168212890625,-0.0252685546875
1772790053073089000,10.418089111328126,-0.95989990234375,-0.18267822265625,-0.02685546875
1772790053083155200,10.4281552734375,-0.968505859375,-0.1953277587890625,-0.0224609375
1772790053093222100,10.43822216796875,-0.9701080322265625,-0.200286865234375,-0.022979736328125
1772790053103288000,10.4482880859375,-0.9663543701171875,-0.198486328125,-0.0204315185546875
1772790053113355300,10.458355224609376,-0.961151123046875,-0.1945648193359375,-0.0196075439453125
1772790053123421200,10.468421142578125,-0.9613189697265625,-0.1948394775390625,-0.0183563232421875
1772790053133488000,10.478488037109376,-0.9672698974609375,-0.193756103515625,-0.0142669677734375
1772790053143554300,10.48855419921875,-0.969696044921875,-0.1930999755859375,-0.0088653564453125
1772790053153621200,10.498621337890626,-0.9672698974609375,-0.1943206787109375,-0.00299072265625
1772790053163687200,10.508687255859375,-0.960906982421875,-0.1960296630859375,0.0003662109375
1772790053173754000,10.518754150390626,-0.9533538818359375,-0.2045745849609375,0.0021820068359375
1772790053183820300,10.5288203125,-0.9436187744140625,-0.2215423583984375,-0.0002899169921875
1772790053193887200,10.53888720703125,-0.9402313232421875,-0.241455078125,-0.0064849853515625
1772790053203953200,10.548953125,-0.9443511962890625,-0.2623443603515625,-0.0176849365234375
1772790053214019300,10.559019287109376,-0.9442596435546875,-0.272705078125,-0.03448486328125
1772790053224086300,10.569086181640625,-0.9380645751953125,-0.2694854736328125,-0.040069580078125
1772790053234152200,10.579152099609376,-0.931976318359375,-0.2584228515625,-0.0367584228515625
1772790053244219400,10.589219482421875,-0.918701171875,-0.2516632080078125,-0.03839111328125
1772790053254285000,10.59928515625,-0.9110260009765625,-0.25677490234375,-0.0476837158203125
1772790053264352000,10.60935205078125,-0.9129180908203125,-0.262176513671875,-0.048431396484375
1772790053274418200,10.619418212890626,-0.92889404296875,-0.2590484619140625,-0.043701171875
1772790053284485000,10.629485107421875,-0.9442901611328125,-0.254486083984375,-0.040374755859375
1772790053294551000,10.639551025390626,-0.9634552001953125,-0.2586517333984375,-0.040557861328125
1772790053304618200,10.6496181640625,-0.9867401123046875,-0.25726318359375,-0.03692626953125
1772790053314684200,10.65968408203125,-0.999359130859375,-0.2521820068359375,-0.0360565185546875
1772790053324750000,10.66975,-1.0048828125,-0.2486419677734375,-0.033416748046875
1772790053334817300,10.6798173828125,-1.0074615478515625,-0.2519378662109375,-0.04119873046875
1772790053344883200,10.68988330078125,-1.005706787109375,-0.2512664794921875,-0.042633056640625
1772790053354950100,10.6999501953125,-1.0097808837890625,-0.2552642822265625,-0.0451507568359375
1772790053365016300,10.710016357421875,-1.0117645263671875,-0.259796142578125,-0.046234130859375
1772790053375083300,10.720083251953126,-1.0050506591796875,-0.2610626220703125,-0.0557403564453125
1772790053385149200,10.730149169921875,-1.0002593994140625,-0.2564239501953125,-0.0643310546875
1772790053395216100,10.740216064453126,-1.002288818359375,-0.2438201904296875,-0.066680908203125
1772790053405282300,10.7502822265625,-1.0047607421875,-0.229400634765625,-0.0572662353515625
1772790053415348200,10.76034814453125,-1.0026397705078125,-0.21844482421875,-0.0529327392578125
1772790053425415200,10.770415283203125,-0.9798126220703125,-0.2126617431640625,-0.061737060546875
1772790053435481000,10.780481201171876,-0.9476776123046875,-0.210845947265625,-0.0766143798828125
1772790053445548300,10.79054833984375,-0.93310546875,-0.2198333740234375,-0.0945892333984375
1772790053455614200,10.8006142578125,-0.9386749267578125,-0.2242584228515625,-0.093902587890625
1772790053465681200,10.81068115234375,-0.950439453125,-0.22857666015625,-0.0905609130859375
1772790053475747000,10.8207470703125,-0.955535888671875,-0.2337799072265625,-0.0905303955078125
1772790053485814000,10.83081396484375,-0.951507568359375,-0.2456207275390625,-0.095611572265625
1772790053495880200,10.840880126953126,-0.9351348876953125,-0.2537994384765625,-0.10284423828125
1772790053505947100,10.850947021484375,-0.925811767578125,-0.2574462890625,-0.10211181640625
1772790053516013000,10.861012939453126,-0.9322357177734375,-0.26220703125,-0.097625732421875
1772790053526079200,10.871079345703125,-0.93438720703125,-0.259368896484375,-0.0944976806640625
1772790053536146200,10.881146240234376,-0.9423065185546875,-0.2496490478515625,-0.085113525390625
1772790053546212000,10.891212158203125,-0.9620819091796875,-0.2483367919921875,-0.0800933837890625
1772790053556279300,10.901279296875,-0.983489990234375,-0.2554168701171875,-0.082977294921875
1772790053566345200,10.91134521484375,-0.9975128173828125,-0.259521484375,-0.0961456298828125
1772790053576412200,10.921412109375,-0.9969329833984375,-0.2408294677734375,-0.09808349609375
1772790053586478300,10.931478271484375,-0.994903564453125,-0.2168426513671875,-0.09454345703125
1772790053596545300,10.941545166015626,-0.9701690673828125,-0.2114715576171875,-0.1043243408203125
1772790053606611200,10.951611083984375,-0.92962646484375,-0.2222747802734375,-0.113372802734375
1772790053616677400,10.961677490234376,-0.9055023193359375,-0.2326812744140625,-0.1136932373046875
